# Time (seconds),Accel_X,Accel_Y,Accel_Z,Gyro_X,Gyro_Y,Gyro_Z
0.0024999,0.22744916379451752,-0.24181437492370605,9.55466079711914,-6.561279296875,-0.457763671875,0.579833984375
0.0074999,0.45489832758903503,-0.26096799969673157,9.655217170715332,4.119873046875,0.274658203125,-2.899169921875
0.012499900000000001,0.2711433470249176,-0.20111294090747833,9.952696800231934,2.166748046875,0.42724609375,1.922607421875
0.0174999,0.2777273952960968,-0.26156654953956604,9.484031677246094,-6.53076171875,-0.518798828125,-0.274658203125
0.0224999,0.5003881454467773,-0.2950853705406189,9.776124000549316,5.67626953125,0.579833984375,-2.50244140625
0.0274999,0.2621650993824005,-0.25258827209472656,9.871891975402832,0.06103515625,0.396728515625,2.166748046875
0.0324999,0.365115761756897,-0.29568392038345337,9.444527626037598,-5.2490234375,-0.18310546875,-0.9765625
0.0374999,0.3794809579849243,-0.31364041566848755,9.584588050842285,-3.570556640625,-0.42724609375,-1.77001953125
0.0424999,0.40043023228645325,-0.31124621629714966,10.014945983886719,6.9580078125,0.67138671875,-1.068115234375
0.0474999,0.18315643072128296,-0.27054479718208313,9.834183692932129,-4.21142578125,-0.335693359375,2.5634765625
0.0524999,0.45250412821769714,-0.3315969407558441,9.589376449584961,-2.349853515625,-0.67138671875,-2.38037109375
0.0574999,0.3794809579849243,-0.2651578485965729,9.971850395202637,6.317138671875,0.640869140625,-0.30517578125
0.0624999,0.228047713637352,-0.2711433470249176,9.699509620666504,-5.523681640625,-0.42724609375,1.922607421875
0.0674999,0.4626794755458832,-0.2867056429386139,9.578003883361816,0.518798828125,0.06103515625,-2.8076171875
0.0724999,0.3196259140968323,-0.2106897532939911,9.947309494018555,5.584716796875,0.396728515625,0.42724609375
0.0774999,0.22744916379451752,-0.24899697303771973,9.600150108337402,-6.561279296875,-0.79345703125,1.03759765625
0.0824999,0.4189853072166443,-0.2519897222518921,9.592967987060547,2.593994140625,0.732421875,-2.8076171875
0.0874999,0.28371289372444153,-0.19931729137897491,9.945513725280762,3.814697265625,0.48828125,1.5869140625
0.0924999,0.42018240690231323,-0.25258827209472656,9.686341285705566,4.302978515625,0.091552734375,-2.838134765625
0.0974999,0.21547815203666687,-0.19393034279346466,9.983222961425781,1.953125,0.3662109375,1.983642578125
0.1024999,0.25438392162323,-0.2579752206802368,9.52114200592041,-5.92041015625,-0.54931640625,-0.518798828125
0.1074999,0.47165772318840027,-0.2819172441959381,9.825204849243164,5.950927734375,0.396728515625,-2.471923828125
0.1124999,0.22924481332302094,-0.2406172752380371,9.908403396606445,-0.335693359375,-0.030517578125,2.3193359375
0.1174999,0.3519476354122162,-0.29807811975479126,9.48882007598877,-5.31005859375,-0.396728515625,-1.190185546875
0.1224999,0.4578910768032074,-0.28072014451026917,9.904812812805176,6.40869140625,0.67138671875,-1.708984375
0.1274999,0.17956513166427612,-0.24361002445220947,9.90361499786377,-2.62451171875,0.18310546875,2.532958984375
0.1324999,0.40462008118629456,-0.30526071786880493,9.632472038269043,-3.204345703125,-0.213623046875,-1.77001953125
0.1374999,0.4058171808719635,-0.2795230448246002,10.062231063842773,7.080078125,0.42724609375,-0.946044921875
0.1424999,0.18614917993545532,-0.27712884545326233,9.849146842956543,-4.39453125,-0.54931640625,2.349853515625
0.1474999,0.4554968774318695,-0.33997663855552673,9.600749015808105,-1.556396484375,-0.3662109375,-2.44140625
0.1524999,0.2364274114370346,-0.30047231912612915,9.673172950744629,-6.011962890625,-0.6103515625,1.739501953125
0.1574999,0.45010992884635925,-0.29628247022628784,9.573814392089844,1.129150390625,0.091552734375,-2.777099609375
0.1624999,0.20530278980731964,-0.24899697303771973,9.515155792236328,-6.8359375,-0.640869140625,0.274658203125
0.1674999,0.43694180250167847,-0.22924481332302094,9.6989107131958,5.035400390625,0.06103515625,-2.8076171875
0.1724999,0.22385786473751068,-0.20889410376548767,9.938929557800293,1.28173828125,-0.152587890625,1.953125
0.17749990000000002,0.2908954918384552,-0.2944868206977844,9.49121379852295,-6.195068359375,-0.732421875,-0.48828125
0.1824999,0.49978959560394287,-0.27653029561042786,9.810839653015137,6.134033203125,0.213623046875,-2.105712890625
0.1874999,0.3770867586135864,-0.314238965511322,9.478644371032715,-4.7607421875,-0.244140625,-1.220703125
0.1924999,0.4596867263317108,-0.2645592987537384,9.919178009033203,6.65283203125,0.396728515625,-1.5869140625
0.1974999,0.1909375786781311,-0.2932897210121155,9.856329917907715,-2.99072265625,-0.244140625,2.25830078125
0.2024999,0.4321534037590027,-0.272938996553421,9.576807022094727,-2.86865234375,-0.244140625,-2.197265625
0.20749990000000001,0.4010287821292877,-0.314238965511322,9.991601943969727,6.591796875,0.457763671875,-0.823974609375
0.2124999,0.20051439106464386,-0.26096799969673157,9.742605209350586,-4.608154296875,-0.213623046875,2.044677734375
0.2174999,0.46567222476005554,-0.3106476664543152,9.548076629638672,-1.312255859375,-0.30517578125,-2.74658203125
0.2224999,0.35015198588371277,-0.27473464608192444,9.929352760314941,6.195068359375,0.6103515625,0.30517578125
0.2274999,0.23044191300868988,-0.27653029561042786,9.627683639526367,-6.072998046875,-0.762939453125,1.861572265625
0.2324999,0.41359832882881165,-0.272938996553421,9.588179588317871,1.0986328125,-0.244140625,-2.9296875
0.2374999,0.2669534981250763,-0.2406172752380371,9.963470458984375,5.126953125,0.6103515625,0.9765625
0.2424999,0.1843535304069519,-0.22864626348018646,9.598953247070312,-6.34765625,-0.457763671875,0.79345703125
0.2474999,0.2753331959247589,-0.1999158412218094,9.939528465270996,2.99072265625,0.335693359375,1.77001953125
0.2524999,0.23702596127986908,-0.23163901269435883,9.479841232299805,-6.89697265625,-0.701904296875,0.1220703125
0.2574999,0.4776432514190674,-0.2537853717803955,9.691129684448242,5.157470703125,0.67138671875,-2.471923828125
0.2624999,0.2495955228805542,-0.20231004059314728,9.888651847839355,0.885009765625,0.396728515625,2.227783203125
0.2674999,0.33518823981285095,-0.24779987335205078,9.455899238586426,-5.92041015625,-0.8544921875,-1.068115234375
0.2724999,0.49978959560394287,-0.2998737692832947,9.795876502990723,6.439208984375,0.48828125,-2.288818359375
0.2774999,0.22625206410884857,-0.22086510062217712,9.855731010437012,-1.251220703125,-0.30517578125,2.44140625
0.2824999,0.39205053448677063,-0.27473464608192444,9.48882007598877,-4.69970703125,-0.79345703125,-1.46484375
0.28749990000000003,0.45908817648887634,-0.30226796865463257,9.955090522766113,6.591796875,0.48828125,-1.312255859375
0.2924999,0.2124854028224945,-0.25258827209472656,9.851541519165039,-3.509521484375,-0.213623046875,2.349853515625
0.2974999,0.4668693244457245,-0.31842881441116333,9.633070945739746,-2.410888671875,-0.152587890625,-2.349853515625
0.3024999,0.40701428055763245,-0.31543606519699097,10.034099578857422,6.744384765625,0.732421875,-0.640869140625
0.3074999,0.4620809257030487,-0.3256114423274994,9.588777542114258,-0.6103515625,-0.213623046875,-2.716064453125
0.3124999,0.333991140127182,-0.25977087020874023,9.936535835266113,5.950927734375,0.91552734375,0.335693359375
0.3174999,0.22445641458034515,-0.26815059781074524,9.589975357055664,-6.2255859375,-0.335693359375,1.556396484375
0.3224999,0.4141969084739685,-0.26096799969673157,9.552266120910645,1.739501953125,0.030517578125,-2.86865234375
0.3274999,0.28072014451026917,-0.20290859043598175,9.906607627868652,4.669189453125,0.54931640625,0.91552734375
0.3324999,0.19213469326496124,-0.21547815203666687,9.52114200592041,-6.591796875,-0.732421875,0.701904296875
0.3374999,0.42197805643081665,-0.2603694200515747,9.598953247070312,3.814697265625,0.30517578125,-2.74658203125
0.3424999,0.25019407272338867,-0.1909375786781311,9.889249801635742,2.62451171875,0.274658203125,1.77001953125
0.34749990000000003,0.2406172752380371,-0.25258827209472656,9.452906608581543,-6.591796875,-0.67138671875,0.030517578125
0.35249990000000003,0.2406172752380371,-0.25258827209472656,9.452906608581543,-6.591796875,-0.67138671875,0.030517578125
0.3574999,0.4728548228740692,-0.27653029561042786,9.713874816894531,5.126953125,0.30517578125,-2.288818359375
0.3624999,0.24480712413787842,-0.2298433631658554,9.873088836669922,0.3662109375,-0.1220703125,2.13623046875
0.3674999,0.4884171485900879,-0.31783026456832886,9.822212219238281,6.591796875,0.579833984375,-1.77001953125
0.3724999,0.21009120345115662,-0.23942017555236816,9.86351203918457,-1.739501953125,-0.030517578125,2.532958984375
0.3774999,0.39205053448677063,-0.30286651849746704,9.536105155944824,-4.241943359375,-0.42724609375,-1.922607421875
0.3824999,0.4255693554878235,-0.32441434264183044,9.971251487731934,6.9580078125,0.6103515625,-1.15966796875
0.3874999,0.18734627962112427,-0.2711433470249176,9.819219589233398,-3.814697265625,-0.152587890625,2.410888671875
0.3924999,0.44173020124435425,-0.3321954905986786,9.576208114624023,-2.471923828125,-0.762939453125,-2.50244140625
0.3974999,0.36750996112823486,-0.2998737692832947,9.976638793945312,6.7138671875,0.67138671875,-0.42724609375
0.4024999,0.43933600187301636,-0.3190273642539978,9.57201862335205,-0.091552734375,-0.030517578125,-2.899169921875
0.4074999,0.43933600187301636,-0.3190273642539978,9.57201862335205,-0.091552734375,-0.030517578125,-2.899169921875
0.41249990000000003,0.3148375153541565,-0.2621650993824005,9.946112632751465,5.767822265625,0.8544921875,0.3662109375
0.41749990000000003,0.21966800093650818,-0.2753331959247589,9.616311073303223,-6.16455078125,-0.244140625,1.495361328125
0.4224999,0.4207809567451477,-0.27413609623908997,9.598953247070312,2.227783203125,0.244140625,-2.899169921875
0.4274999,0.3944447338581085,-0.3058592677116394,9.588777542114258,-3.662109375,-0.030517578125,-1.77001953125
0.4324999,0.41539400815963745,-0.31124621629714966,10.011953353881836,6.927490234375,0.3662109375,-1.129150390625
0.4374999,0.19273324310779572,-0.27054479718208313,9.829395294189453,-4.08935546875,-0.244140625,2.349853515625
0.4424999,0.4465186297893524,-0.28072014451026917,9.559449195861816,0.244140625,-0.1220703125,-2.899169921875
0.4474999,0.4465186297893524,-0.28072014451026917,9.559449195861816,0.244140625,-0.1220703125,-2.899169921875
0.4524999,0.304063618183136,-0.19572599232196808,9.935338973999023,5.645751953125,0.732421875,0.67138671875
0.4574999,0.2148796021938324,-0.23942017555236816,9.59835433959961,-6.561279296875,-0.244140625,1.373291015625
0.4624999,0.4124012291431427,-0.2561795711517334,9.59057331085205,2.471923828125,0.18310546875,-2.86865234375
0.4674999,0.29388827085494995,-0.18914192914962769,9.941324234008789,3.662109375,0.518798828125,1.251220703125
0.47249990000000003,0.2172738015651703,-0.2495955228805542,9.515754699707031,-6.89697265625,-1.068115234375,0.48828125
0.47749990000000003,0.4429273009300232,-0.23582886159420013,9.657610893249512,4.669189453125,0.3662109375,-2.655029296875
0.4824999,0.243011474609375,-0.19153612852096558,9.955689430236816,1.5869140625,0.244140625,1.800537109375
0.4874999,0.26815059781074524,-0.2753331959247589,9.485827445983887,-6.195068359375,-0.67138671875,-0.54931640625
0.4924999,0.4854243993759155,-0.29807811975479126,9.79647445678711,6.072998046875,1.007080078125,-2.3193359375
0.4974999,0.45190557837486267,-0.2753331959247589,9.864709854125977,6.622314453125,0.762939453125,-1.708984375
0.5024999,0.16879121959209442,-0.24361002445220947,9.858723640441895,-2.5634765625,-0.30517578125,2.38037109375
0.5074999,0.3992331326007843,-0.29149407148361206,9.610923767089844,-3.41796875,-0.823974609375,-2.0751953125
0.5124999,0.395043283700943,-0.2885012924671173,10.04427433013916,6.988525390625,0.6103515625,-0.91552734375
0.5174999,0.18555063009262085,-0.2801215946674347,9.832387924194336,-4.302978515625,-0.1220703125,2.349853515625
0.5224999,0.46088382601737976,-0.3148375153541565,9.592967987060547,-1.678466796875,-0.30517578125,-2.685546875
0.5274999,0.3711012601852417,-0.2621650993824005,9.979032516479492,5.9814453125,0.54931640625,-0.091552734375
0.5324999,0.24121582508087158,-0.28550854325294495,9.667786598205566,-6.072998046875,-0.518798828125,2.01416015625
0.5374999,0.4507084786891937,-0.27234044671058655,9.581595420837402,0.79345703125,-0.091552734375,-2.899169921875
0.5424999,0.29807811975479126,-0.23104046285152435,9.961075782775879,5.340576171875,0.67138671875,0.640869140625
0.5474999,0.20350714027881622,-0.25737667083740234,9.597756385803223,-6.16455078125,-0.762939453125,0.9765625
0.5524999,0.20470423996448517,-0.2513911724090576,9.503185272216797,-6.622314453125,-0.030517578125,0.42724609375
0.5574999,0.43335050344467163,-0.23942017555236816,9.663596153259277,4.608154296875,0.335693359375,-2.777099609375
0.5624999,0.28311434388160706,-0.25318682193756104,9.467870712280273,-6.072998046875,-0.48828125,-0.54931640625
0.5674999000000001,0.497395396232605,-0.3064578175544739,9.7791166305542,5.828857421875,0.3662109375,-2.25830078125
0.5724999000000001,0.2519897222518921,-0.2537853717803955,9.836577415466309,-0.48828125,-0.030517578125,2.25830078125
0.5774999000000001,0.3908534348011017,-0.29628247022628784,9.431957244873047,-4.852294921875,-0.396728515625,-1.220703125
0.5824999,0.48063600063323975,-0.3016694188117981,9.873687744140625,6.9580078125,0.6103515625,-1.40380859375
0.5874999,0.20051439106464386,-0.2454056739807129,9.832986831665039,-2.9296875,-0.091552734375,2.349853515625
0.5924999,0.43095630407333374,-0.3034650683403015,9.610923767089844,-3.387451171875,-0.335693359375,-2.13623046875
0.5974999,0.40222588181495667,-0.30705636739730835,10.032303810119629,6.927490234375,0.8544921875,-0.701904296875
0.6024999,0.45250412821769714,-0.3477577865123749,9.589376449584961,-1.312255859375,-0.42724609375,-2.593994140625
0.6074999,0.3519476354122162,-0.2753331959247589,9.958083152770996,6.34765625,0.396728515625,-0.06103515625
0.6124999,0.22445641458034515,-0.28790274262428284,9.639654159545898,-5.767822265625,-0.8544921875,1.861572265625
0.6174999,0.42856210470199585,-0.26815059781074524,9.573814392089844,0.8544921875,-0.244140625,-2.777099609375
0.6224999,0.2819172441959381,-0.18136078119277954,9.96945571899414,5.06591796875,0.48828125,0.885009765625
0.6274999,0.19213469326496124,-0.20949265360832214,9.606734275817871,-6.805419921875,-0.640869140625,1.068115234375
0.6324999,0.4076128304004669,-0.2364274114370346,9.659406661987305,3.204345703125,0.48828125,-2.899169921875
0.6374999,0.2759317457675934,-0.18794482946395874,9.968857765197754,3.387451171875,0.732421875,1.617431640625
0.6424999,0.24899697303771973,-0.21428105235099792,9.945513725280762,1.251220703125,0.06103515625,2.044677734375
0.6474999,0.5123591423034668,-0.3130418658256531,9.818621635437012,5.9814453125,0.030517578125,-2.349853515625
0.6524999,0.24420857429504395,-0.2513911724090576,9.877279281616211,-1.068115234375,0,2.288818359375
0.6574999,0.38307225704193115,-0.30945056676864624,9.476848602294922,-4.638671875,-0.030517578125,-1.40380859375
0.6624999,0.4602852761745453,-0.28790274262428284,9.910199165344238,6.683349609375,0.54931640625,-1.617431640625
0.6674999,0.1933317929506302,-0.25019407272338867,9.859322547912598,-3.143310546875,-0.18310546875,2.38037109375
0.6724999,0.43275195360183716,-0.31543606519699097,9.609128952026367,-3.173828125,-0.518798828125,-1.89208984375
0.6774999,0.3902548849582672,-0.27413609623908997,10.030508041381836,7.01904296875,0.67138671875,-0.6103515625
0.6824999,0.18734627962112427,-0.26336219906806946,9.792284965515137,-4.33349609375,-0.762939453125,1.922607421875
0.6874999,0.44532153010368347,-0.32202014327049255,9.570222854614258,-0.823974609375,-0.457763671875,-2.838134765625
0.6924999000000001,0.345363587141037,-0.23283611238002777,9.943717956542969,5.950927734375,0.54931640625,0.274658203125
0.6974999000000001,0.23163901269435883,-0.28790274262428284,9.627683639526367,-6.256103515625,-0.54931640625,1.739501953125
0.7024999000000001,0.43754035234451294,-0.2687491476535797,9.57321548461914,1.03759765625,0,-2.960205078125
0.7074999,0.2651578485965729,-0.21188685297966003,9.956287384033203,3.082275390625,0.48828125,1.5869140625
0.7124999,0.2214636504650116,-0.27234044671058655,9.52353572845459,-6.591796875,-0.579833984375,0.091552734375
0.7174999,0.45250412821769714,-0.2561795711517334,9.749189376831055,5.157470703125,0.42724609375,-2.593994140625
0.7224999,0.23403321206569672,-0.24001872539520264,9.959878921508789,0.701904296875,0.244140625,2.044677734375
0.7274999,0.3214215636253357,-0.2902969419956207,9.531915664672852,-5.9814453125,-0.396728515625,-0.579833984375
0.7324999,0.4944026470184326,-0.292691171169281,9.853337287902832,6.256103515625,0.30517578125,-1.89208984375
0.7374999,0.23403321206569672,-0.2495955228805542,9.910798072814941,-1.556396484375,0.1220703125,2.3193359375
0.7424999,0.3926490843296051,-0.3016694188117981,9.518747329711914,-4.241943359375,-0.67138671875,-1.495361328125
0.7474999,0.46627077460289,-0.2645592987537384,9.967061996459961,7.049560546875,0.701904296875,-1.129150390625
0.7524999,0.2124854028224945,-0.2693476974964142,9.862914085388184,-3.387451171875,-0.457763671875,2.50244140625
0.7574999,0.4554968774318695,-0.30885201692581177,9.578003883361816,-0.457763671875,-0.30517578125,-2.8076171875
0.7624999,0.33698388934135437,-0.23044191300868988,9.922170639038086,6.04248046875,0.91552734375,0.244140625
0.7674999,0.22625206410884857,-0.29807811975479126,9.600150108337402,-6.011962890625,-0.244140625,1.495361328125
0.7724999,0.41778820753097534,-0.2645592987537384,9.544485092163086,1.678466796875,-0.213623046875,-2.86865234375
0.7774999,0.2861070930957794,-0.19692309200763702,9.93354320526123,4.547119140625,0.518798828125,1.03759765625
0.7824999,0.19452889263629913,-0.243011474609375,9.544485092163086,-6.622314453125,-0.48828125,0.885009765625
0.7874999,0.42018240690231323,-0.22685061395168304,9.633070945739746,3.60107421875,0.1220703125,-2.838134765625
0.7924999,0.25318682193756104,-0.1933317929506302,9.93593692779541,2.44140625,0.152587890625,1.708984375
0.7974999,0.2214636504650116,-0.2621650993824005,9.5007905960083,-6.7138671875,-0.579833984375,0.06103515625
0.8024999,0.21607670187950134,-0.2495955228805542,9.88625717163086,-1.52587890625,-0.152587890625,2.197265625
0.8074999,0.383670836687088,-0.30226796865463257,9.527127265930176,-4.180908203125,-0.67138671875,-1.8310546875
0.8124999,0.4429273009300232,-0.2753331959247589,9.9772367477417,6.89697265625,0.1220703125,-1.28173828125
0.8174999000000001,0.20290859043598175,-0.2861070930957794,9.848548889160156,-3.5400390625,-0.518798828125,2.38037109375
0.8224999000000001,0.4572925269603729,-0.333991140127182,9.623494148254395,-2.13623046875,0.152587890625,-2.349853515625
0.8274999000000001,0.39803603291511536,-0.26396074891090393,10.017339706420898,6.805419921875,0.79345703125,-0.457763671875
0.8324999000000001,0.2082955539226532,-0.27234044671058655,9.765350341796875,-5.157470703125,-0.3662109375,2.166748046875
0.8374999,0.46148237586021423,-0.2950853705406189,9.588179588317871,-0.396728515625,-0.06103515625,-2.899169921875
0.8424999,0.3292027413845062,-0.21368250250816345,9.937732696533203,5.7373046875,0.8544921875,0.457763671875
0.8474999,0.2298433631658554,-0.27712884545326233,9.616311073303223,-6.2255859375,-0.396728515625,1.556396484375
0.8524999,0.2513911724090576,-0.17956513166427612,9.979631423950195,2.3193359375,0.030517578125,1.800537109375
0.8574999,0.24241292476654053,-0.25737667083740234,9.524134635925293,-6.77490234375,-0.8544921875,-0.152587890625
0.8624999,0.4776432514190674,-0.25318682193756104,9.785700798034668,5.523681640625,0.732421875,-2.471923828125
0.8674999,0.25677812099456787,-0.2585737705230713,9.925163269042969,0.3662109375,0.42724609375,2.13623046875
0.8724999,0.3585317134857178,-0.3016694188117981,9.489418029785156,-5.615234375,-0.335693359375,-0.885009765625
0.8774999,0.5003881454467773,-0.2885012924671173,9.832986831665039,6.40869140625,0.518798828125,-1.861572265625
0.8824999,0.4405331015586853,-0.2902969419956207,9.996390342712402,6.927490234375,0.54931640625,-1.220703125
0.8874999,0.44532153010368347,-0.33758243918418884,9.633070945739746,-2.105712890625,-0.42724609375,-2.349853515625
0.8924999,0.37828385829925537,-0.2663549482822418,10.023324966430664,6.7138671875,0.8544921875,-0.42724609375
0.8974999,0.19871874153614044,-0.2693476974964142,9.766547203063965,-5.401611328125,-0.30517578125,2.197265625
0.9024999,0.444722980260849,-0.2849099934101105,9.589975357055664,-0.06103515625,0.091552734375,-2.899169921875
0.9074999,0.3130418658256531,-0.20051439106464386,9.931148529052734,5.645751953125,0.823974609375,0.30517578125
0.9124999,0.21188685297966003,-0.27054479718208313,9.601945877075195,-6.28662109375,-0.30517578125,1.5869140625
0.9174999,0.4100070297718048,-0.23762452602386475,9.569623947143555,2.13623046875,0.152587890625,-2.86865234375
0.9224999,0.2867056429386139,-0.19632454216480255,9.952696800231934,4.08935546875,0.244140625,1.007080078125
0.9274999,0.2867056429386139,-0.19632454216480255,9.952696800231934,4.08935546875,0.244140625,1.007080078125
0.9324999,0.2124854028224945,-0.24241292476654053,9.561244010925293,-6.683349609375,-0.9765625,0.640869140625
0.9374999,0.4387374520301819,-0.22924481332302094,9.668384552001953,4.058837890625,0.213623046875,-2.8076171875
0.9424999000000001,0.262763649225235,-0.19213469326496124,9.977835655212402,2.50244140625,0.213623046875,1.739501953125
0.9474999000000001,0.47225627303123474,-0.2519897222518921,9.797672271728516,5.462646484375,0.274658203125,-2.471923828125
0.9524999000000001,0.24001872539520264,-0.2495955228805542,9.911396026611328,0.1220703125,-0.1220703125,2.166748046875
0.9574999000000001,0.3423708379268646,-0.3010708689689636,9.479243278503418,-5.7373046875,-0.640869140625,-0.946044921875
0.9624999,0.20111294090747833,-0.2495955228805542,9.861717224121094,-2.0751953125,-0.06103515625,2.410888671875
0.9674999,0.20111294090747833,-0.2495955228805542,9.861717224121094,-2.0751953125,-0.06103515625,2.410888671875
0.9724999,0.39145198464393616,-0.304063618183136,9.53849983215332,-4.0283203125,-0.518798828125,-1.708984375
0.9774999,0.4321534037590027,-0.27413609623908997,9.984419822692871,6.8359375,0.640869140625,-1.129150390625
0.9824999,0.19812019169330597,-0.29867666959762573,9.833584785461426,-3.875732421875,-0.1220703125,2.227783203125
0.9874999,0.4495113790035248,-0.33039984107017517,9.607333183288574,-2.288818359375,-0.54931640625,-2.25830078125
0.9924999,0.37409400939941406,-0.2561795711517334,9.999382972717285,6.561279296875,0.640869140625,-0.3662109375
0.9974999,0.19692309200763702,-0.27712884545326233,9.756970405578613,-5.462646484375,-0.54931640625,2.01416015625
1.0024999,0.44173020124435425,-0.2885012924671173,9.603741645812988,0.030517578125,-0.42724609375,-2.777099609375
1.0074999000000002,0.21547815203666687,-0.29628247022628784,9.646238327026367,-6.378173828125,-0.640869140625,1.556396484375
1.0124999000000001,0.41539400815963745,-0.2603694200515747,9.61451530456543,2.3193359375,0.244140625,-2.86865234375
1.0174999000000002,0.2968810200691223,-0.2106897532939911,9.989208221435547,4.0283203125,0.701904296875,1.129150390625
1.0224999000000001,0.21847090125083923,-0.2519897222518921,9.57979965209961,-6.683349609375,-0.3662109375,0.701904296875
1.0274999,0.44173020124435425,-0.21787235140800476,9.691129684448242,4.0283203125,0.42724609375,-2.593994140625
1.0324999000000001,0.2519897222518921,-0.18794482946395874,9.991601943969727,2.105712890625,0.457763671875,1.89208984375
1.0374999,0.2495955228805542,-0.262763649225235,9.527127265930176,-6.103515625,-0.518798828125,-0.030517578125
1.0424999000000001,0.4405331015586853,-0.26396074891090393,10.00716495513916,6.866455078125,0.8544921875,-1.312255859375
1.0474999,0.20949265360832214,-0.2825157940387726,9.82879638671875,-3.997802734375,-0.091552734375,2.227783203125
1.0524999000000002,0.46627077460289,-0.3196259140968323,9.57441234588623,-1.5869140625,-0.06103515625,-2.349853515625
1.0574999,0.38067805767059326,-0.2454056739807129,9.949105262756348,6.256103515625,0.579833984375,-0.335693359375
1.0624999000000002,0.21787235140800476,-0.2867056429386139,9.693524360656738,-5.859375,-0.640869140625,1.678466796875
1.0674999,0.4596867263317108,-0.2849099934101105,9.558850288391113,0.30517578125,-0.213623046875,-2.899169921875
1.0724999000000002,0.3148375153541565,-0.2124854028224945,9.935338973999023,5.523681640625,0.640869140625,0.823974609375
1.0774999,0.22266076505184174,-0.2950853705406189,9.639654159545898,-6.378173828125,-0.42724609375,1.312255859375
1.0824999000000002,0.3992331326007843,-0.24839842319488525,9.616311073303223,2.349853515625,-0.18310546875,-3.326416015625
1.0874999,0.2711433470249176,-0.21128830313682556,9.998785018920898,4.0283203125,0.244140625,1.251220703125
1.0924999000000002,0.1909375786781311,-0.2472013235092163,9.588179588317871,-6.622314453125,-0.335693359375,0.6103515625
1.0974999,0.4141969084739685,-0.21787235140800476,9.684545516967773,3.84521484375,0.335693359375,-2.899169921875
1.1024999000000002,0.23822307586669922,-0.27892449498176575,9.500192642211914,-6.378173828125,-0.54931640625,-0.152587890625
1.1074999,0.23822307586669922,-0.27892449498176575,9.500192642211914,-6.378173828125,-0.54931640625,-0.152587890625
1.1124999000000002,0.47225627303123474,-0.2795230448246002,9.781511306762695,5.462646484375,0.396728515625,-2.410888671875
1.1174999,0.23822307586669922,-0.2867056429386139,9.861717224121094,-0.3662109375,-0.152587890625,2.166748046875
1.1224999000000002,0.3471592366695404,-0.3250128924846649,9.445724487304688,-5.4931640625,-0.640869140625,-1.068115234375
1.1274999,0.4800374507904053,-0.2998737692832947,9.817423820495605,6.805419921875,0.732421875,-1.861572265625
1.1324999000000002,0.1867477297782898,-0.26994624733924866,9.84256362915039,-2.227783203125,-0.457763671875,2.471923828125
1.1374999000000001,0.39384618401527405,-0.29149407148361206,9.551069259643555,-3.692626953125,-0.3662109375,-1.617431640625
1.1424999000000002,0.42676645517349243,-0.26755204796791077,9.971251487731934,6.89697265625,0.48828125,-1.0986328125
1.1474999000000001,0.20051439106464386,-0.26156654953956604,9.81143856048584,-3.90625,-0.701904296875,2.13623046875
1.1524999000000002,0.4704606235027313,-0.2669534981250763,9.564237594604492,-2.0751953125,-0.091552734375,-2.349853515625
1.1574999000000001,0.3818751573562622,-0.25438392162323,9.962273597717285,6.439208984375,0.67138671875,-0.213623046875
1.1624999,0.43514615297317505,-0.28072014451026917,9.585186958312988,0.091552734375,0.244140625,-2.685546875
1.1674999000000001,0.29568392038345337,-0.2388216257095337,9.958083152770996,5.4931640625,0.732421875,0.79345703125
1.1724999,0.19931729137897491,-0.26096799969673157,9.637260437011719,-6.439208984375,-0.518798828125,1.434326171875
1.1774999000000002,0.4058171808719635,-0.24779987335205078,9.603741645812988,1.953125,0.30517578125,-3.173828125
1.1824999,0.3010708689689636,-0.21188685297966003,9.965266227722168,3.814697265625,0.3662109375,1.251220703125
1.1874999000000002,0.21966800093650818,-0.24420857429504395,9.55825138092041,-6.591796875,-0.18310546875,0.640869140625
1.1924999,0.4710591733455658,-0.26396074891090393,9.654618263244629,4.0283203125,0.8544921875,-3.143310546875
1.1974999000000002,0.27413609623908997,-0.21607670187950134,9.95090103149414,2.3193359375,0.762939453125,1.495361328125
1.2024999,0.4728548228740692,-0.28072014451026917,9.75397777557373,5.523681640625,0.335693359375,-2.8076171875
1.2074999000000002,0.19033902883529663,-0.23044191300868988,9.872490882873535,0.1220703125,-1.129150390625,1.800537109375
1.2124999,0.27413609623908997,-0.26994624733924866,9.459490776062012,-5.37109375,-1.800537109375,-1.3427734375
1.2174999000000002,0.12689268589019775,-0.2256535142660141,9.870096206665039,-2.227783203125,-1.983642578125,2.044677734375
1.2224999,0.3663128614425659,-0.29568392038345337,9.55825138092041,-4.150390625,-1.312255859375,-1.89208984375
1.2274999000000002,0.444722980260849,-0.304063618183136,9.979631423950195,7.049560546875,-0.18310546875,-1.15966796875
1.2324999,0.2645592987537384,-0.2974795699119568,9.833584785461426,-4.425048828125,-0.732421875,2.166748046875
1.2374999000000002,0.5692214369773865,-0.33339259028434753,9.546280860900879,-1.617431640625,1.28173828125,-2.44140625
1.2424999,0.5063736438751221,-0.2801215946674347,9.94970417022705,6.561279296875,1.5869140625,-0.213623046875
1.2474999000000002,0.3405751883983612,-0.2944868206977844,9.683348655700684,-5.401611328125,0.946044921875,2.25830078125
1.2524999,0.5285200476646423,-0.28371289372444153,9.547477722167969,0.30517578125,1.28173828125,-2.593994140625
1.2574999000000002,0.3387795388698578,-0.23702596127986908,9.94970417022705,5.67626953125,1.068115234375,0.8544921875
1.2624999000000001,0.1825578808784485,-0.26096799969673157,9.61451530456543,-6.256103515625,-0.1220703125,1.46484375
1.2674999000000002,0.34416648745536804,-0.2256535142660141,9.592369079589844,2.13623046875,0.67138671875,-2.86865234375
1.2724999000000001,0.21009120345115662,-0.21787235140800476,9.940725326538086,4.0283203125,0.06103515625,1.220703125
1.2774999000000002,0.38307225704193115,-0.25737667083740234,9.615114212036133,4.21142578125,0.1220703125,-3.021240234375
1.2824999000000001,0.24779987335205078,-0.24899697303771973,9.857526779174805,-0.3662109375,-0.885009765625,2.0751953125
1.2874999,0.36152446269989014,-0.25737667083740234,9.441534042358398,-5.523681640625,-0.823974609375,-1.03759765625
1.2924999000000001,0.4908113479614258,-0.2908954918384552,9.818621635437012,6.317138671875,0.030517578125,-1.953125
1.2974999,0.20111294090747833,-0.24241292476654053,9.860519409179688,-2.044677734375,-0.42724609375,2.227783203125
1.3024999000000002,0.424970805644989,-0.28550854325294495,9.559449195861816,-3.35693359375,0.3662109375,-1.708984375
1.3074999,0.44592007994651794,-0.333991140127182,9.997588157653809,7.14111328125,0.885009765625,-1.15966796875
1.3124999000000002,0.22266076505184174,-0.2819172441959381,9.833584785461426,-4.058837890625,-0.3662109375,2.197265625
1.3174999,0.48243165016174316,-0.3148375153541565,9.596558570861816,-1.861572265625,0.6103515625,-2.166748046875
1.3224999000000002,0.22625206410884857,-0.2819172441959381,9.745597839355469,-5.615234375,-0.152587890625,1.800537109375
1.3274999,0.4357447028160095,-0.2795230448246002,9.594164848327637,0.335693359375,0.9765625,-2.8076171875
1.3324999000000002,0.28790274262428284,-0.25737667083740234,9.988011360168457,5.4931640625,0.3662109375,0.67138671875
1.3374999,0.1843535304069519,-0.2406172752380371,9.656414031982422,-6.439208984375,-0.3662109375,1.3427734375
1.3424999000000002,0.38067805767059326,-0.23163901269435883,9.61451530456543,2.471923828125,0.640869140625,-3.143310546875
1.3474999,0.27712884545326233,-0.2214636504650116,9.967659950256348,3.936767578125,-0.030517578125,1.251220703125
1.3524999000000002,0.19931729137897491,-0.21128830313682556,9.534908294677734,-6.683349609375,-0.67138671875,0.579833984375
1.3574999,0.4537012279033661,-0.23523031175136566,9.618705749511719,4.180908203125,0.091552734375,-2.838134765625
1.3624999000000002,0.49978959560394287,-0.3130418658256531,9.72285270690918,5.828857421875,0.06103515625,-2.777099609375
1.3674999,0.24779987335205078,-0.2651578485965729,9.833584785461426,-0.152587890625,-0.42724609375,2.105712890625
1.3724999000000002,0.4800374507904053,-0.30466216802597046,9.827000617980957,6.28662109375,0.579833984375,-2.044677734375
1.3774999,0.19452889263629913,-0.22026655077934265,9.84376049041748,-2.44140625,-0.06103515625,2.471923828125
1.3824999000000002,0.4213795065879822,-0.25079262256622314,9.545681953430176,-3.60107421875,0.274658203125,-1.77001953125
1.3874999000000001,0.42676645517349243,-0.32022446393966675,9.964069366455078,6.805419921875,0.579833984375,-0.9765625
1.3924999000000002,0.20470423996448517,-0.23822307586669922,9.785700798034668,-3.875732421875,-0.30517578125,2.166748046875
1.3974999000000001,0.46148237586021423,-0.29628247022628784,9.552266120910645,-1.52587890625,0.579833984375,-2.227783203125
1.4024999000000002,0.3627215623855591,-0.30286651849746704,9.947309494018555,6.40869140625,0.732421875,-0.18310546875
1.4074999000000001,0.2214636504650116,-0.2669534981250763,9.70310115814209,-5.584716796875,-0.6103515625,1.52587890625
1.4124999,0.43095630407333374,-0.27413609623908997,9.578003883361816,0.274658203125,0.274658203125,-2.74658203125
1.4174999000000001,0.2950853705406189,-0.2519897222518921,9.975440979003906,5.279541015625,0.335693359375,0.91552734375
1.4224999,0.19273324310779572,-0.22744916379451752,9.63187313079834,-6.4697265625,-0.54931640625,1.190185546875
1.4274999000000002,0.3992331326007843,-0.23942017555236816,9.61331844329834,2.410888671875,0.030517578125,-3.0517578125
1.4324999,0.47165772318840027,-0.28131869435310364,9.643245697021484,4.39453125,0.30517578125,-2.86865234375
1.4374999000000002,0.2663549482822418,-0.2388216257095337,9.93354320526123,1.953125,-0.701904296875,1.8310546875
1.4424999,0.5207388401031494,-0.32441434264183044,9.773730278015137,5.828857421875,0.762939453125,-2.288818359375
1.4474999000000002,0.25977087020874023,-0.2495955228805542,9.861717224121094,-0.579833984375,-0.18310546875,2.105712890625
1.4524999,0.38127660751342773,-0.2717418968677521,9.446322441101074,-5.31005859375,0.06103515625,-1.251220703125
1.4574999000000002,0.47584760189056396,-0.33099839091300964,9.847949981689453,6.744384765625,0.762939453125,-1.64794921875
1.4624999,0.18495208024978638,-0.24361002445220947,9.862914085388184,-2.50244140625,-0.244140625,2.25830078125
1.4674999000000002,0.4058171808719635,-0.29568392038345337,9.595361709594727,-3.082275390625,0.274658203125,-1.8310546875
1.4724999,0.39145198464393616,-0.3321954905986786,10.019734382629395,6.988525390625,0.244140625,-0.823974609375
1.4774999000000002,0.181959331035614,-0.24241292476654053,9.827000617980957,-4.425048828125,-0.762939453125,2.288818359375
1.4824999,0.38726213574409485,-0.24899697303771973,9.605537414550781,2.99072265625,0.335693359375,-2.86865234375
1.4874999000000002,0.26994624733924866,-0.21128830313682556,9.919178009033203,3.570556640625,-0.457763671875,1.46484375
1.4924999,0.2124854028224945,-0.21547815203666687,9.49121379852295,-6.683349609375,-0.885009765625,0.18310546875
1.4974999000000002,0.4728548228740692,-0.2621650993824005,9.637859344482422,4.57763671875,0.457763671875,-2.685546875
1.5024999,0.2579752206802368,-0.2059013396501541,9.911396026611328,1.617431640625,-0.274658203125,2.13623046875
1.5074999000000002,0.3214215636253357,-0.243011474609375,9.4636812210083,-6.072998046875,-0.274658203125,-0.732421875
1.5124999000000001,0.5183446407318115,-0.31783026456832886,9.758167266845703,5.706787109375,0.885009765625,-2.25830078125
1.5174999000000002,0.1843535304069519,-0.243011474609375,9.841964721679688,-2.50244140625,-0.274658203125,2.3193359375
1.5224999000000001,0.39145198464393616,-0.3124433159828186,10.00955867767334,6.77490234375,0.335693359375,-0.9765625
1.5274999000000002,0.17896658182144165,-0.22505496442317963,9.818022727966309,-4.638671875,-0.762939453125,2.349853515625
1.5324999000000001,0.17896658182144165,-0.22505496442317963,9.818022727966309,-4.638671875,-0.762939453125,2.349853515625
1.5374999000000003,0.43933600187301636,-0.30526071786880493,9.565434455871582,-1.373291015625,-0.18310546875,-2.685546875
1.5424999000000001,0.34416648745536804,-0.29568392038345337,9.953893661499023,6.195068359375,0.06103515625,-0.244140625
1.5474999,0.22385786473751068,-0.28311434388160706,9.67077922821045,-5.767822265625,-0.6103515625,1.922607421875
1.5524999000000002,0.42856210470199585,-0.2885012924671173,9.583989143371582,0.885009765625,0.3662109375,-2.777099609375
1.5574999,0.2992752194404602,-0.2495955228805542,9.97484302520752,4.974365234375,0.030517578125,0.457763671875
1.5624999000000002,0.42437225580215454,-0.25917232036590576,9.618106842041016,3.082275390625,0.335693359375,-2.8076171875
1.5674999,0.42437225580215454,-0.25917232036590576,9.618106842041016,3.082275390625,0.335693359375,-2.8076171875
1.5724999000000002,0.2908954918384552,-0.21787235140800476,9.913191795349121,3.387451171875,-0.030517578125,1.373291015625
1.5774999,0.23343466222286224,-0.2322375625371933,9.485228538513184,-6.53076171875,-0.54931640625,0.30517578125
1.5824999000000002,0.4710591733455658,-0.2711433470249176,9.607333183288574,4.974365234375,0.518798828125,-2.716064453125
1.5874999,0.2472013235092163,-0.20889410376548767,9.874884605407715,1.40380859375,-0.30517578125,2.044677734375
1.5924999000000002,0.3076549172401428,-0.23702596127986908,9.409213066101074,-6.2255859375,-0.3662109375,-0.579833984375
1.5974999,0.49380409717559814,-0.32381579279899597,9.75278091430664,5.950927734375,0.30517578125,-2.0751953125
1.6024999000000002,0.22026655077934265,-0.22864626348018646,9.84256362915039,-0.823974609375,-0.30517578125,2.38037109375
1.6074999,0.3597288131713867,-0.2944868206977844,9.455899238586426,-4.7607421875,0.18310546875,-1.46484375
1.6124999000000002,0.4471171796321869,-0.32381579279899597,9.890447616577148,6.683349609375,0.579833984375,-1.556396484375
1.6174999,0.18136078119277954,-0.24420857429504395,9.860519409179688,-2.99072265625,-0.213623046875,2.349853515625
1.6224999000000002,0.3489548861980438,-0.2735375463962555,9.900622367858887,6.34765625,0.213623046875,0.030517578125
1.6274999,0.22864626348018646,-0.2735375463962555,9.61212158203125,-5.950927734375,-0.640869140625,1.739501953125
1.6324999000000002,0.4255693554878235,-0.2885012924671173,9.528923034667969,1.0986328125,0.396728515625,-2.86865234375
1.6374999000000001,0.2908954918384552,-0.22744916379451752,9.9371337890625,4.913330078125,0.06103515625,0.823974609375
1.6424999000000002,0.19572599232196808,-0.21667525172233582,9.589376449584961,-6.744384765625,-0.213623046875,0.91552734375
1.6474999000000001,0.4213795065879822,-0.26575639843940735,9.598953247070312,3.23486328125,0.91552734375,-2.899169921875
1.6524999000000002,0.28311434388160706,-0.19692309200763702,9.955689430236816,2.99072265625,0.06103515625,1.495361328125
1.6574999000000001,0.23822307586669922,-0.25258827209472656,9.510367393493652,-6.805419921875,-0.42724609375,0.213623046875
1.6624999000000003,0.47884035110473633,-0.2825157940387726,9.709086418151855,5.31005859375,0.8544921875,-2.716064453125
1.6674999000000001,0.4950011968612671,-0.32441434264183044,9.789292335510254,6.16455078125,0.30517578125,-2.197265625
1.6724999,0.21428105235099792,-0.22864626348018646,9.855133056640625,-1.251220703125,-0.48828125,2.3193359375
1.6774999000000002,0.35673606395721436,-0.2974795699119568,9.482834815979004,-4.94384765625,-0.152587890625,-1.312255859375
1.6824999,0.44173020124435425,-0.2825157940387726,9.921571731567383,6.988525390625,0.579833984375,-1.617431640625
1.6874999000000002,0.17717093229293823,-0.2645592987537384,9.872490882873535,-3.265380859375,-0.579833984375,2.25830078125
1.6924999,0.4315548539161682,-0.322618693113327,9.62947940826416,-3.143310546875,0.1220703125,-2.13623046875
1.6974999000000002,0.3968389332294464,-0.284311443567276,10.04068374633789,6.7138671875,0.274658203125,-0.762939453125
1.7024999,0.20231004059314728,-0.2753331959247589,9.832387924194336,-5.157470703125,-0.8544921875,2.105712890625
1.7074999000000002,0.47165772318840027,-0.30526071786880493,9.5809965133667,-0.67138671875,0.152587890625,-2.62451171875
1.7124999,0.3621230125427246,-0.24480712413787842,9.955090522766113,6.195068359375,0.152587890625,0.1220703125
1.7174999000000002,0.24839842319488525,-0.2998737692832947,9.639654159545898,-6.2255859375,-0.640869140625,1.52587890625
1.7224999,0.19572599232196808,-0.23762452602386475,9.584588050842285,-6.77490234375,-0.3662109375,0.885009765625
1.7274999000000002,0.4183867573738098,-0.22206220030784607,9.639056205749512,3.509521484375,0.54931640625,-2.716064453125
1.7324999,0.26156654953956604,-0.18375498056411743,9.961674690246582,2.74658203125,0.152587890625,1.678466796875
1.7374999000000002,0.21308395266532898,-0.25258827209472656,9.510367393493652,-6.40869140625,-0.30517578125,0.091552734375
1.7424999,0.4572925269603729,-0.24121582508087158,9.728240013122559,5.096435546875,0.579833984375,-2.593994140625
1.7474999000000002,0.2322375625371933,-0.2495955228805542,9.929352760314941,0.79345703125,-0.48828125,2.288818359375
1.7524999,0.3208230137825012,-0.2861070930957794,9.468469619750977,-5.859375,-0.640869140625,-0.67138671875
1.7574999000000002,0.49559974670410156,-0.2944868206977844,9.802460670471191,6.2255859375,0.1220703125,-2.0751953125
1.7624999000000001,0.21128830313682556,-0.25977087020874023,9.852140426635742,-1.434326171875,-0.640869140625,2.44140625
1.7674999000000002,0.3693056106567383,-0.28969839215278625,9.476250648498535,-4.425048828125,0.06103515625,-1.617431640625
1.7724999000000001,0.4423287510871887,-0.2867056429386139,9.910798072814941,6.8359375,0.152587890625,-1.312255859375
1.7774999000000002,0.39863458275794983,-0.29628247022628784,9.998785018920898,6.561279296875,0.48828125,-0.518798828125
1.7824999000000001,0.2106897532939911,-0.26156654953956604,9.787496566772461,-4.94384765625,-0.396728515625,2.25830078125
1.7874999000000003,0.46627077460289,-0.2992752194404602,9.57321548461914,-0.48828125,0.42724609375,-2.685546875
1.7924999000000001,0.3477577865123749,-0.2687491476535797,9.961674690246582,5.950927734375,0.1220703125,0.244140625
1.7974999,0.23104046285152435,-0.2902969419956207,9.64923095703125,-5.828857421875,-0.823974609375,1.617431640625
1.8024999000000002,0.42197805643081665,-0.2717418968677521,9.580398559570312,1.5869140625,0.457763671875,-3.021240234375
1.8074999,0.292691171169281,-0.21847090125083923,9.956287384033203,4.82177734375,0.152587890625,1.007080078125
1.8124999000000002,0.19572599232196808,-0.21188685297966003,9.577404975891113,-6.622314453125,-0.579833984375,1.007080078125
1.8174999,0.4231751561164856,-0.24121582508087158,9.622296333312988,3.265380859375,0.1220703125,-3.021240234375
1.8224999000000002,0.2669534981250763,-0.19931729137897491,9.961674690246582,2.899169921875,-0.3662109375,1.5869140625
1.8274999,0.23343466222286224,-0.24899697303771973,9.52114200592041,-6.65283203125,-0.6103515625,0.213623046875
1.8324999000000002,0.26096799969673157,-0.23582886159420013,9.946112632751465,0.701904296875,-0.244140625,1.89208984375
1.8374999,0.3411737382411957,-0.2687491476535797,9.48762321472168,-5.9814453125,-0.244140625,-0.640869140625
1.8424999000000002,0.5069721937179565,-0.31184476613998413,9.822212219238281,6.04248046875,0.1220703125,-2.13623046875
1.8474999,0.2148796021938324,-0.24121582508087158,9.881468772888184,-1.617431640625,-0.732421875,2.25830078125
1.8524999000000002,0.3687070608139038,-0.30047231912612915,9.50737476348877,-4.82177734375,-0.396728515625,-1.495361328125
1.8574999,0.43694180250167847,-0.30526071786880493,9.940725326538086,6.927490234375,0.579833984375,-1.40380859375
1.8624999000000002,0.18375498056411743,-0.28969839215278625,9.86770248413086,-3.35693359375,-0.30517578125,2.288818359375
1.8674999,0.4387374520301819,-0.3357867896556854,9.600150108337402,-2.716064453125,0.1220703125,-2.105712890625
1.8724999000000002,0.395043283700943,-0.2974795699119568,10.00955867767334,6.77490234375,0.335693359375,-0.640869140625
1.8774999,0.2082955539226532,-0.2711433470249176,9.786897659301758,-4.974365234375,-0.823974609375,1.861572265625
1.8824999000000002,0.4668693244457245,-0.29628247022628784,9.53849983215332,-0.732421875,-0.06103515625,-2.777099609375
1.8874999000000001,0.3447650372982025,-0.228047713637352,9.92097282409668,5.79833984375,0,0.152587890625
1.8924999000000002,0.1885433793067932,-0.23403321206569672,9.57979965209961,-6.40869140625,-0.457763671875,0.8544921875
1.8974999000000001,0.4213795065879822,-0.22864626348018646,9.63187313079834,3.60107421875,0.54931640625,-2.8076171875
1.9024999000000002,0.26336219906806946,-0.20709845423698425,9.95748519897461,2.532958984375,0.091552734375,1.64794921875
1.9074999000000001,0.22864626348018646,-0.25737667083740234,9.509769439697266,-6.500244140625,-0.1220703125,0.091552734375
1.9124999000000003,0.4704606235027313,-0.25677812099456787,9.73661994934082,5.06591796875,0.54931640625,-2.62451171875
1.9174999000000001,0.24361002445220947,-0.25438392162323,9.922170639038086,0.762939453125,-0.18310546875,2.227783203125
1.9224999,0.3770867586135864,-0.2693476974964142,9.434351921081543,-4.425048828125,0.18310546875,-1.64794921875
1.9274999000000002,0.1909375786781311,-0.2819172441959381,9.803657531738281,-3.387451171875,-0.30517578125,2.410888671875
1.9324999,0.4387374520301819,-0.3100491166114807,9.556455612182617,-2.44140625,0.457763671875,-2.0751953125
1.9374999000000002,0.38905778527259827,-0.2974795699119568,9.983222961425781,6.561279296875,0.1220703125,-0.823974609375
1.9424999,0.19931729137897491,-0.2777273952960968,9.773730278015137,-4.94384765625,-0.701904296875,2.0751953125
1.9474999000000002,0.4626794755458832,-0.28790274262428284,9.561842918395996,-0.42724609375,0.335693359375,-2.685546875
1.9524999,0.3531447649002075,-0.27712884545326233,9.944915771484375,5.950927734375,0.335693359375,0.18310546875
1.9574999000000002,0.24121582508087158,-0.28730419278144836,9.630077362060547,-5.79833984375,-0.579833984375,1.5869140625
1.9624999,0.42616790533065796,-0.262763649225235,9.583391189575195,1.708984375,0.6103515625,-2.86865234375
1.9674999000000002,0.2849099934101105,-0.2364274114370346,9.97065258026123,4.638671875,-0.152587890625,0.946044921875
1.9724999,0.17178396880626678,-0.22266076505184174,9.609128952026367,-6.77490234375,-0.732421875,0.91552734375
1.9774999000000002,0.40222588181495667,-0.26156654953956604,9.665990829467773,3.448486328125,0.518798828125,-2.899169921875
1.9824999,0.2472013235092163,-0.22685061395168304,9.956886291503906,2.899169921875,-0.274658203125,1.46484375
1.9874999000000002,0.47824180126190186,-0.27892449498176575,9.711481094360352,5.2490234375,0.8544921875,-2.74658203125
1.9924999,0.2555810213088989,-0.23403321206569672,9.93474006652832,0.823974609375,-0.335693359375,1.983642578125
1.9974999000000002,0.3447650372982025,-0.24361002445220947,9.48343276977539,-6.103515625,-0.42724609375,-0.6103515625
2.0024999,0.4387374520301819,-0.3076549172401428,9.92097282409668,6.805419921875,0.6103515625,-1.40380859375
2.0074999,0.18914192914962769,-0.26096799969673157,9.85034465789795,-3.204345703125,-0.396728515625,2.197265625
2.0124999000000003,0.4321534037590027,-0.3064578175544739,9.61212158203125,-2.716064453125,0.396728515625,-2.01416015625
2.0174999000000002,0.383670836687088,-0.2968810200691223,10.032303810119629,6.744384765625,0.54931640625,-0.67138671875
2.0224999,0.18974047899246216,-0.24779987335205078,9.813234329223633,-5.035400390625,-0.701904296875,2.13623046875
2.0274999,0.44173020124435425,-0.3172317147254944,9.592967987060547,-0.91552734375,-0.091552734375,-2.62451171875
2.0324999000000004,0.2232593148946762,-0.3034650683403015,9.6618013381958,-6.04248046875,-0.9765625,1.556396484375
2.0374999000000003,0.41718965768814087,-0.284311443567276,9.583989143371582,1.495361328125,0.48828125,-2.899169921875
2.0424999,0.29149407148361206,-0.2214636504650116,9.964069366455078,4.669189453125,-0.1220703125,0.9765625
2.0474999,0.1975216418504715,-0.21787235140800476,9.570821762084961,-6.927490234375,-0.701904296875,0.732421875
2.0524999,0.4273650050163269,-0.25917232036590576,9.59596061706543,3.570556640625,0.48828125,-2.899169921875
2.0574999000000003,0.284311443567276,-0.2017114907503128,9.932345390319824,3.021240234375,-0.18310546875,1.5869140625
2.0624999,0.24660277366638184,-0.2537853717803955,9.47265911102295,-6.622314453125,-0.579833984375,0.030517578125
2.0674999,0.49380409717559814,-0.27234044671058655,9.709086418151855,5.18798828125,0.30517578125,-2.685546875
2.0724999,0.2645592987537384,-0.21847090125083923,9.9185791015625,0.885009765625,-0.18310546875,2.13623046875
2.0774999000000003,0.3405751883983612,-0.25977087020874023,9.462483406066895,-5.859375,0.030517578125,-0.67138671875
2.0824999,0.5027823448181152,-0.2998737692832947,9.79527759552002,6.134033203125,0.274658203125,-2.197265625
2.0874999,0.2106897532939911,-0.23283611238002777,9.856329917907715,-1.251220703125,-0.244140625,2.288818359375
2.0924999,0.18495208024978638,-0.2819172441959381,9.860519409179688,-3.509521484375,-0.30517578125,2.410888671875
2.0974999000000003,0.4411316514015198,-0.33099839091300964,9.61451530456543,-2.777099609375,-0.1220703125,-2.197265625
2.1024999,0.3908534348011017,-0.2861070930957794,10.016741752624512,6.8359375,0.732421875,-0.48828125
2.1074999,0.20290859043598175,-0.26994624733924866,9.819818496704102,-4.791259765625,-0.244140625,2.288818359375
2.1124999,0.4578910768032074,-0.31124621629714966,9.576208114624023,-0.54931640625,0.30517578125,-2.777099609375
2.1174999000000003,0.34177228808403015,-0.24361002445220947,9.959878921508789,5.767822265625,0.030517578125,0.152587890625
2.1224999,0.228047713637352,-0.2908954918384552,9.642048835754395,-6.317138671875,-0.79345703125,1.708984375
2.1274999,0.414795458316803,-0.2555810213088989,9.564835548400879,1.739501953125,0.48828125,-3.0517578125
2.1324999,0.28790274262428284,-0.1999158412218094,9.964667320251465,4.45556640625,-0.244140625,0.91552734375
2.1374999000000003,0.18734627962112427,-0.2364274114370346,9.569025993347168,-6.8359375,-0.762939453125,0.8544921875
2.1424999000000002,0.21308395266532898,-0.26815059781074524,9.512163162231445,-6.744384765625,-0.457763671875,0.213623046875
2.1474999,0.4513070285320282,-0.26096799969673157,9.737217903137207,5.340576171875,0.79345703125,-2.532958984375
2.1524999,0.22206220030784607,-0.24899697303771973,9.924564361572266,0.67138671875,-0.42724609375,2.105712890625
2.1574999000000004,0.3058592677116394,-0.2908954918384552,9.475052833557129,-6.072998046875,-0.48828125,-0.79345703125
2.1624999000000003,0.4752490520477295,-0.30526071786880493,9.782109260559082,5.950927734375,0.54931640625,-2.13623046875
2.1674999,0.19452889263629913,-0.262763649225235,9.843161582946777,-1.52587890625,-0.244140625,2.38037109375
2.1724999,0.3579331636428833,-0.3064578175544739,9.465476036071777,-4.45556640625,0.06103515625,-1.64794921875
2.1774999000000004,0.3579331636428833,-0.3064578175544739,9.465476036071777,-4.45556640625,0.06103515625,-1.64794921875
2.1824999000000003,0.43694180250167847,-0.2861070930957794,9.894637107849121,6.8359375,0.48828125,-1.556396484375
2.1874999,0.18914192914962769,-0.2753331959247589,9.82879638671875,-3.448486328125,-0.1220703125,2.410888671875
2.1924999,0.4465186297893524,-0.3058592677116394,9.576208114624023,-2.62451171875,0.54931640625,-2.166748046875
2.1974999,0.35254621505737305,-0.23762452602386475,9.936535835266113,5.950927734375,0.030517578125,0.213623046875
2.2024999000000003,0.2454056739807129,-0.29628247022628784,9.632472038269043,-6.134033203125,-0.54931640625,1.52587890625
2.2074999,0.4291606545448303,-0.2495955228805542,9.568427085876465,1.77001953125,0.396728515625,-2.99072265625
2.2124999,0.30226796865463257,-0.2082955539226532,9.977835655212402,4.5166015625,-0.1220703125,1.068115234375
2.2174999,0.20290859043598175,-0.22266076505184174,9.587580680847168,-6.622314453125,-0.762939453125,0.91552734375
2.2224999000000003,0.42197805643081665,-0.228047713637352,9.637859344482422,3.5400390625,0.274658203125,-2.899169921875
2.2274999,0.26396074891090393,-0.1951274424791336,9.99100399017334,2.716064453125,-0.213623046875,1.678466796875
2.2324999,0.2190694510936737,-0.2579752206802368,9.537302017211914,-6.591796875,-0.67138671875,-0.030517578125
2.2374999,0.46148237586021423,-0.23822307586669922,9.776124000549316,5.18798828125,0.6103515625,-2.62451171875
2.2424999000000003,0.3298012912273407,-0.2819172441959381,9.490615844726562,-5.55419921875,-0.18310546875,-0.67138671875
2.2474999,0.3728969097137451,-0.3148375153541565,9.518148422241211,-4.82177734375,-0.091552734375,-1.5869140625
2.2524999,0.444722980260849,-0.29149407148361206,9.944915771484375,6.53076171875,0.6103515625,-1.52587890625
2.2574999,0.1843535304069519,-0.2968810200691223,9.86111831665039,-3.448486328125,-0.396728515625,2.38037109375
2.2624999000000003,0.43754035234451294,-0.333991140127182,9.605537414550781,-2.532958984375,0.579833984375,-2.0751953125
2.2674999000000002,0.3878606855869293,-0.2908954918384552,9.987412452697754,6.8359375,0.732421875,-0.701904296875
2.2724999,0.19572599232196808,-0.2849099934101105,9.774328231811523,-4.913330078125,-0.3662109375,2.13623046875
2.2774999,0.4596867263317108,-0.3130418658256531,9.533112525939941,-0.42724609375,0.91552734375,-2.50244140625
2.2824999000000004,0.3405751883983612,-0.2346317619085312,9.90361499786377,5.92041015625,0.457763671875,0.244140625
2.2874999000000003,0.22924481332302094,-0.30286651849746704,9.607333183288574,-6.4697265625,-0.48828125,1.434326171875
2.2924999,0.4141969084739685,-0.2537853717803955,9.5408935546875,1.3427734375,0.244140625,-2.8076171875
2.2974999,0.18914192914962769,-0.23702596127986908,9.59057331085205,-6.683349609375,-0.274658203125,0.9765625
2.3024999000000004,0.41778820753097534,-0.23343466222286224,9.655815124511719,3.5400390625,0.67138671875,-2.899169921875
2.3074999000000003,0.27234044671058655,-0.20470423996448517,9.982624053955078,2.99072265625,0.1220703125,1.617431640625
2.3124999,0.23163901269435883,-0.262763649225235,9.534908294677734,-6.622314453125,-0.06103515625,0.213623046875
2.3174999,0.48482584953308105,-0.24181437492370605,9.744400978088379,4.974365234375,0.6103515625,-2.716064453125
2.3224999,0.26096799969673157,-0.2346317619085312,9.935338973999023,0.640869140625,0.030517578125,1.953125
2.3274999000000003,0.34177228808403015,-0.27892449498176575,9.47265911102295,-5.950927734375,-0.335693359375,-0.762939453125
2.3324999,0.5069721937179565,-0.29388827085494995,9.790489196777344,6.53076171875,0.762939453125,-2.25830078125
2.3374999,0.2172738015651703,-0.2711433470249176,9.857526779174805,-1.0986328125,-0.30517578125,2.349853515625
2.3424999,0.3585317134857178,-0.3190273642539978,9.485228538513184,-4.364013671875,-0.213623046875,-1.40380859375
2.3474999000000003,0.44352585077285767,-0.2890998423099518,9.916783332824707,6.89697265625,0.518798828125,-1.52587890625
2.3524999,0.18734627962112427,-0.2849099934101105,9.847352027893066,-3.387451171875,-0.396728515625,2.471923828125
2.3574999,0.4082113802433014,-0.25677812099456787,9.981427192687988,6.65283203125,0.274658203125,-0.91552734375
2.3624999,0.20470423996448517,-0.25917232036590576,9.775525093078613,-4.852294921875,-0.640869140625,2.105712890625
2.3674999000000003,0.4638765752315521,-0.29867666959762573,9.548076629638672,-0.396728515625,0.30517578125,-2.716064453125
2.3724999,0.34835633635520935,-0.243011474609375,9.939528465270996,6.134033203125,0.396728515625,0
2.3774999,0.228047713637352,-0.30526071786880493,9.643245697021484,-5.950927734375,-0.48828125,1.678466796875
2.3824999,0.41539400815963745,-0.2561795711517334,9.570821762084961,1.40380859375,0.30517578125,-2.62451171875
2.3874999000000003,0.2735375463962555,-0.20231004059314728,9.965864181518555,4.57763671875,0,0.91552734375
2.3924999000000002,0.1777694821357727,-0.23582886159420013,9.59177017211914,-6.561279296875,-0.640869140625,1.007080078125
2.3974999,0.39564183354377747,-0.2298433631658554,9.61331844329834,3.35693359375,0.48828125,-2.838134765625
2.4024999,0.25677812099456787,-0.21368250250816345,9.96945571899414,3.021240234375,-0.030517578125,1.52587890625
2.4074999000000004,0.2041056901216507,-0.2735375463962555,9.531915664672852,-6.591796875,-0.396728515625,0.06103515625
2.4124999000000003,0.44771572947502136,-0.2519897222518921,9.75278091430664,4.913330078125,0.54931640625,-2.5634765625
2.4174999,0.31124621629714966,-0.29388827085494995,9.526528358459473,-6.072998046875,-0.518798828125,-0.823974609375
2.4224999,0.5021837949752808,-0.29388827085494995,9.829395294189453,6.134033203125,0.30517578125,-2.3193359375
2.4274999000000004,0.23283611238002777,-0.2669534981250763,9.877877235412598,-1.007080078125,-0.396728515625,2.410888671875
2.4324999000000003,0.3663128614425659,-0.3058592677116394,9.47265911102295,-4.608154296875,-0.335693359375,-1.434326171875
2.4374999,0.4596867263317108,-0.2753331959247589,9.906009674072266,6.8359375,0.42724609375,-1.678466796875
2.4424999,0.18375498056411743,-0.2717418968677521,9.86650562286377,-2.9296875,-0.396728515625,2.288818359375
2.4474999,0.4291606545448303,-0.2998737692832947,9.624691009521484,-2.8076171875,0.48828125,-1.861572265625
2.4524999000000003,0.40282443165779114,-0.2579752206802368,10.036493301391602,6.89697265625,0.518798828125,-0.79345703125
2.4574999,0.19452889263629913,-0.2561795711517334,9.819818496704102,-4.82177734375,-0.335693359375,2.13623046875
2.4624999,0.46088382601737976,-0.2998737692832947,9.55825138092041,-0.732421875,0.06103515625,-2.5634765625
2.4674999,0.36152446269989014,-0.2322375625371933,9.914389610290527,6.072998046875,0.335693359375,-0.06103515625
2.4724999000000003,0.24121582508087158,-0.3076549172401428,9.61212158203125,-5.828857421875,-0.6103515625,1.5869140625
2.4774999,0.29867666959762573,-0.20470423996448517,9.917980194091797,5.035400390625,0.091552734375,0.91552734375
2.4824999,0.2795230448246002,-0.20709845423698425,9.911994934082031,3.387451171875,0.152587890625,1.434326171875
2.4874999,0.21787235140800476,-0.2753331959247589,9.48343276977539,-6.65283203125,-0.091552734375,0.30517578125
2.4924999000000003,0.4578910768032074,-0.2388216257095337,9.672574996948242,4.669189453125,0.42724609375,-2.655029296875
2.4974999,0.2495955228805542,-0.23523031175136566,9.937732696533203,0.91552734375,-0.274658203125,1.983642578125
2.5024999,0.3106476664543152,-0.2801215946674347,9.470863342285156,-6.16455078125,-0.244140625,-0.762939453125
2.5074999,0.5117605924606323,-0.28311434388160706,9.78989028930664,5.9814453125,0.396728515625,-2.227783203125
2.5124999000000003,0.24241292476654053,-0.2651578485965729,9.85034465789795,-0.885009765625,-0.42724609375,2.410888671875
2.5174999000000002,0.3663128614425659,-0.30705636739730835,9.455899238586426,-5.0048828125,-0.396728515625,-1.3427734375
2.5224999,0.45908817648887634,-0.2783259451389313,9.893440246582031,7.14111328125,0.701904296875,-1.8310546875
2.5274999,0.41120412945747375,-0.31124621629714966,9.619902610778809,-3.082275390625,0.1220703125,-1.983642578125
2.5324999000000004,0.3902548849582672,-0.272938996553421,10.027515411376953,6.8359375,0.30517578125,-0.9765625
2.5374999000000003,0.17896658182144165,-0.2801215946674347,9.827000617980957,-4.608154296875,-0.6103515625,2.166748046875
2.5424999,0.4537012279033661,-0.333991140127182,9.575610160827637,-1.251220703125,0.091552734375,-2.532958984375
2.5474999,0.35913026332855225,-0.25438392162323,9.941922187805176,6.317138671875,0.6103515625,-0.30517578125
2.5524999000000004,0.23403321206569672,-0.3148375153541565,9.6618013381958,-5.79833984375,-0.18310546875,1.77001953125
2.5574999000000003,0.43993455171585083,-0.2783259451389313,9.548076629638672,0.701904296875,0.274658203125,-2.838134765625
2.5624999,0.2777273952960968,-0.19273324310779572,9.967061996459961,3.448486328125,0.06103515625,1.3427734375
2.5674999,0.21607670187950134,-0.25318682193756104,9.535507202148438,-6.591796875,-0.244140625,0.42724609375
2.5724999,0.28969839215278625,-0.28311434388160706,9.494805335998535,-5.889892578125,0.1220703125,-0.396728515625
2.5774999000000003,0.4985924959182739,-0.2801215946674347,9.79527759552002,5.859375,0.6103515625,-2.25830078125
2.5824999,0.23343466222286224,-0.2603694200515747,9.882067680358887,-0.823974609375,-0.213623046875,2.50244140625
2.5874999,0.35254621505737305,-0.30226796865463257,9.4636812210083,-5.096435546875,-0.213623046875,-1.3427734375
2.5924999,0.46148237586021423,-0.2603694200515747,9.898826599121094,6.8359375,0.518798828125,-1.739501953125
2.5974999000000003,0.18136078119277954,-0.25737667083740234,9.894038200378418,-2.655029296875,-0.42724609375,2.410888671875
2.6024999,0.4183867573738098,-0.2890998423099518,9.615114212036133,-3.2958984375,0.274658203125,-1.922607421875
2.6074999,0.4189853072166443,-0.26396074891090393,10.056245803833008,6.988525390625,0.48828125,-1.129150390625
2.6124999,0.19931729137897491,-0.26815059781074524,9.847352027893066,-4.486083984375,-0.3662109375,2.38037109375
2.6174999000000003,0.4668693244457245,-0.30526071786880493,9.61212158203125,-1.52587890625,0.213623046875,-2.50244140625
2.6224999,0.28730419278144836,-0.21787235140800476,9.964667320251465,3.570556640625,0.152587890625,1.3427734375
2.6274999,0.20709845423698425,-0.26815059781074524,9.540295600891113,-6.927490234375,0.213623046875,0.518798828125
2.6324999,0.4423287510871887,-0.24001872539520264,9.6803560256958,4.730224609375,1.068115234375,-2.62451171875
2.6374999000000003,0.24001872539520264,-0.23163901269435883,9.979032516479492,1.556396484375,-0.030517578125,1.89208984375
2.6424999000000002,0.2711433470249176,-0.28730419278144836,9.50617790222168,-6.500244140625,0,-0.274658203125
2.6474999,0.49320554733276367,-0.2974795699119568,9.797073364257812,6.011962890625,0.91552734375,-2.227783203125
2.6524999,0.24001872539520264,-0.284311443567276,9.900622367858887,-0.457763671875,-0.213623046875,2.3193359375
2.6574999000000004,0.46627077460289,-0.2861070930957794,9.87967300415039,6.591796875,0.457763671875,-1.8310546875
2.6624999000000003,0.1867477297782898,-0.26755204796791077,9.88386344909668,-2.685546875,-0.274658203125,2.44140625
2.6674999,0.40282443165779114,-0.31543606519699097,9.575011253356934,-3.326416015625,0.244140625,-1.708984375
2.6724999,0.4165911078453064,-0.2687491476535797,9.986215591430664,6.866455078125,0.732421875,-1.129150390625
2.6774999000000004,0.1885433793067932,-0.28072014451026917,9.81024169921875,-4.2724609375,-0.48828125,2.38037109375
2.6824999000000003,0.44771572947502136,-0.30466216802597046,9.548076629638672,-1.708984375,0.396728515625,-2.349853515625
2.6874999,0.3711012601852417,-0.22864626348018646,9.939528465270996,6.317138671875,0.396728515625,-0.274658203125
2.6924999,0.22026655077934265,-0.27712884545326233,9.6803560256958,-5.645751953125,-0.48828125,1.861572265625
2.6974999,0.4513070285320282,-0.2663549482822418,9.548076629638672,0.701904296875,0.42724609375,-2.74658203125
2.7024999000000003,0.3106476664543152,-0.19393034279346466,9.953893661499023,5.401611328125,0.244140625,0.457763671875
2.7074999,0.2059013396501541,-0.26575639843940735,9.618106842041016,-6.500244140625,-0.30517578125,1.3427734375
2.7124999,0.40222588181495667,-0.22924481332302094,9.59715747833252,2.38037109375,0.30517578125,-2.99072265625
2.7174999,0.19572599232196808,-0.26396074891090393,9.52473258972168,-6.65283203125,-0.6103515625,0.640869140625
2.7224999000000003,0.43335050344467163,-0.23044191300868988,9.631275177001953,4.486083984375,0.42724609375,-2.8076171875
2.7274999,0.23702596127986908,-0.21428105235099792,9.939528465270996,1.800537109375,-0.48828125,2.01416015625
2.7324999,0.26096799969673157,-0.2645592987537384,9.488221168518066,-6.40869140625,-0.823974609375,-0.457763671875
2.7374999,0.4920084476470947,-0.26815059781074524,9.762955665588379,5.828857421875,0.762939453125,-2.50244140625
2.7424999000000003,0.24839842319488525,-0.28131869435310364,9.897629737854004,-0.244140625,-0.244140625,2.349853515625
2.7474999,0.3603273630142212,-0.3292027413845062,9.486425399780273,-5.157470703125,-0.244140625,-1.15966796875
2.7524999,0.4794389009475708,-0.3016694188117981,9.867103576660156,6.744384765625,0.732421875,-1.861572265625
2.7574999,0.1933317929506302,-0.2801215946674347,9.913790702819824,-2.25830078125,-0.579833984375,2.62451171875
2.7624999000000003,0.3944447338581085,-0.314238965511322,9.575011253356934,-3.814697265625,-0.1220703125,-1.922607421875
2.7674999000000002,0.4255693554878235,-0.2759317457675934,9.999382972717285,6.744384765625,0.396728515625,-1.3427734375
2.7724999,0.18794482946395874,-0.30705636739730835,9.841964721679688,-3.936767578125,-0.67138671875,2.44140625
2.7774999,0.37469255924224854,-0.2645592987537384,9.9772367477417,6.500244140625,0.18310546875,-0.6103515625
2.7824999000000004,0.21368250250816345,-0.2968810200691223,9.728838920593262,-5.2490234375,-0.48828125,2.044677734375
2.7874999000000003,0.45669397711753845,-0.2849099934101105,9.550470352172852,0.30517578125,0.6103515625,-2.8076171875
2.7924999,0.3274070918560028,-0.20231004059314728,9.952696800231934,5.462646484375,-0.030517578125,0.30517578125
2.7974999,0.22685061395168304,-0.272938996553421,9.626486778259277,-6.53076171875,-0.3662109375,1.556396484375
2.8024999000000004,0.41718965768814087,-0.2172738015651703,9.600150108337402,2.13623046875,0.335693359375,-2.838134765625
2.8074999000000003,0.2944868206977844,-0.19871874153614044,9.97364616394043,3.875732421875,0.030517578125,0.9765625
2.8124999,0.2944868206977844,-0.19871874153614044,9.97364616394043,3.875732421875,0.030517578125,0.9765625
2.8174999,0.1999158412218094,-0.2513911724090576,9.564835548400879,-6.89697265625,-0.30517578125,0.79345703125
2.8224999,0.424970805644989,-0.23523031175136566,9.634865760803223,3.753662109375,0.579833984375,-2.74658203125
2.8274999000000003,0.24121582508087158,-0.23822307586669922,9.937732696533203,2.38037109375,0.213623046875,1.708984375
2.8324999,0.23104046285152435,-0.27653029561042786,9.488221168518066,-6.072998046875,-0.152587890625,-0.030517578125
2.8374999,0.2017114907503128,-0.25498247146606445,9.856928825378418,-1.708984375,-0.48828125,2.50244140625
2.8424999,0.3878606855869293,-0.26156654953956604,9.514557838439941,-4.33349609375,-0.06103515625,-1.800537109375
2.8474999000000003,0.4315548539161682,-0.30945056676864624,9.961674690246582,6.9580078125,0.48828125,-1.312255859375
2.8524999,0.19153612852096558,-0.243011474609375,9.819219589233398,-3.570556640625,-0.518798828125,2.471923828125
2.8574999,0.44412440061569214,-0.2950853705406189,9.579200744628906,-2.685546875,0.18310546875,-2.50244140625
2.8624999,0.37229835987091064,-0.28072014451026917,9.951498985290527,6.53076171875,0.457763671875,-0.6103515625
2.8674999000000003,0.19452889263629913,-0.2472013235092163,9.725846290588379,-4.94384765625,-0.762939453125,2.044677734375
2.8724999,0.4381389021873474,-0.30945056676864624,9.52473258972168,-0.244140625,0.091552734375,-3.0517578125
2.8774999,0.31783026456832886,-0.2669534981250763,9.911396026611328,6.072998046875,0.244140625,0.213623046875
2.8824999,0.27712884545326233,-0.21308395266532898,9.936535835266113,4.608154296875,-0.152587890625,0.885009765625
2.8874999000000003,0.1867477297782898,-0.22625206410884857,9.546280860900879,-6.591796875,-0.457763671875,0.762939453125
2.8924999000000002,0.4189853072166443,-0.2495955228805542,9.616909980773926,3.448486328125,0.42724609375,-2.838134765625
2.8974999,0.25258827209472656,-0.2059013396501541,9.928155899047852,2.655029296875,-0.335693359375,1.64794921875
2.9024999,0.2232593148946762,-0.2555810213088989,9.498994827270508,-6.439208984375,-0.579833984375,0.091552734375
2.9074999000000004,0.4692635238170624,-0.2777273952960968,9.728240013122559,5.462646484375,0.152587890625,-2.655029296875
2.9124999000000003,0.24899697303771973,-0.24001872539520264,9.913191795349121,0.762939453125,-0.518798828125,2.0751953125
2.9174999,0.3447650372982025,-0.2687491476535797,9.47265911102295,-5.859375,0.091552734375,-0.67138671875
2.9224999,0.5045779943466187,-0.29867666959762573,9.813234329223633,6.28662109375,0.640869140625,-1.89208984375
2.9274999000000004,0.2148796021938324,-0.22086510062217712,9.880870819091797,-1.556396484375,-0.48828125,2.38037109375
2.9324999000000003,0.3669114112854004,-0.28969839215278625,9.516951560974121,-4.69970703125,-0.335693359375,-1.64794921875
2.9374999,0.4291606545448303,-0.3130418658256531,9.600150108337402,-2.655029296875,0.06103515625,-2.227783203125
2.9424999,0.3794809579849243,-0.2819172441959381,9.999382972717285,6.561279296875,0.213623046875,-0.518798828125
2.9474999,0.19393034279346466,-0.27234044671058655,9.778518676757812,-4.974365234375,-0.48828125,2.227783203125
2.9524999000000003,0.4596867263317108,-0.2992752194404602,9.540295600891113,-0.67138671875,0.1220703125,-2.838134765625
2.9574999,0.34416648745536804,-0.26396074891090393,9.921571731567383,6.103515625,0.518798828125,0.1220703125
2.9624999,0.2651578485965729,-0.21667525172233582,9.942521095275879,2.838134765625,0.244140625,1.64794921875
2.9674999,0.25977087020874023,-0.25019407272338867,9.932944297790527,1.03759765625,0.06103515625,2.197265625
2.9724999000000003,0.3411737382411957,-0.27413609623908997,9.48762321472168,-5.767822265625,-0.1220703125,-0.640869140625
2.9774999,0.5117605924606323,-0.30945056676864624,9.771934509277344,5.79833984375,0.30517578125,-2.288818359375
2.9824999,0.2256535142660141,-0.23582886159420013,9.835979461669922,-1.0986328125,-0.54931640625,2.532958984375
2.9874999,0.3621230125427246,-0.2687491476535797,9.41759204864502,-4.7607421875,-0.42724609375,-1.312255859375
2.9924999000000003,0.436343252658844,-0.2974795699119568,9.852140426635742,6.53076171875,0.1220703125,-1.77001953125
2.9974999,0.18315643072128296,-0.26396074891090393,9.82879638671875,-3.082275390625,-0.6103515625,2.410888671875
3.0024999,0.4321534037590027,-0.3076549172401428,9.584588050842285,-2.86865234375,0.091552734375,-1.8310546875
3.0074999,0.4040215313434601,-0.31603461503982544,10.014347076416016,6.9580078125,0.457763671875,-0.91552734375
3.0124999000000003,0.20769700407981873,-0.2621650993824005,9.813234329223633,-4.5166015625,-0.42724609375,2.166748046875
3.0174999000000002,0.4638765752315521,-0.3058592677116394,9.569025993347168,-0.91552734375,0.274658203125,-2.5634765625
3.0224999,0.30945056676864624,-0.21607670187950134,9.961075782775879,4.974365234375,-0.030517578125,0.8544921875
3.0274999,0.1975216418504715,-0.2106897532939911,9.575610160827637,-6.65283203125,-0.48828125,1.007080078125
3.0324999000000004,0.4213795065879822,-0.2364274114370346,9.608530044555664,3.11279296875,0.6103515625,-2.777099609375
3.0374999000000003,0.28131869435310364,-0.22206220030784607,9.905410766601562,3.265380859375,-0.274658203125,1.40380859375
3.0424999,0.2190694510936737,-0.24181437492370605,9.491812705993652,-6.65283203125,-0.579833984375,0.274658203125
3.0474999,0.46627077460289,-0.26575639843940735,9.64923095703125,4.547119140625,0.244140625,-2.74658203125
3.0524999000000004,0.24361002445220947,-0.22086510062217712,9.911994934082031,1.46484375,-0.030517578125,1.800537109375
3.0574999000000003,0.3124433159828186,-0.2472013235092163,9.473855972290039,-5.889892578125,0,-0.518798828125
3.0624999,0.5093663930892944,-0.3010708689689636,9.777320861816406,5.828857421875,0.48828125,-2.0751953125
3.0674999,0.24779987335205078,-0.23762452602386475,9.876680374145508,-0.762939453125,-0.335693359375,2.166748046875
3.0724999000000004,0.4602852761745453,-0.33099839091300964,9.909601211547852,6.561279296875,0.1220703125,-1.556396484375
3.0774999000000003,0.17417816817760468,-0.28072014451026917,9.896432876586914,-2.716064453125,-0.67138671875,2.25830078125
3.0824999,0.406415730714798,-0.3280056416988373,9.636661529541016,-3.11279296875,-0.091552734375,-1.89208984375
3.0874999,0.38905778527259827,-0.3411737382411957,10.062829971313477,6.89697265625,0.701904296875,-0.79345703125
3.0924999,0.18614917993545532,-0.2735375463962555,9.851541519165039,-4.425048828125,-0.42724609375,2.288818359375
3.0974999000000003,0.45489832758903503,-0.3196259140968323,9.580398559570312,-1.5869140625,-0.244140625,-2.50244140625
3.1024999,0.365115761756897,-0.28371289372444153,9.973047256469727,6.34765625,0.579833984375,-0.152587890625
3.1074999,0.23822307586669922,-0.2753331959247589,9.65222454071045,-5.615234375,-0.3662109375,1.77001953125
3.1124999,0.43993455171585083,-0.25977087020874023,9.549273490905762,0.91552734375,0.396728515625,-2.9296875
3.1174999000000003,0.29867666959762573,-0.21847090125083923,9.926360130310059,5.06591796875,0.1220703125,0.701904296875
3.1224999,0.2106897532939911,-0.262763649225235,9.505578994750977,-6.591796875,-0.3662109375,0.6103515625
3.1274999,0.45669397711753845,-0.2890998423099518,9.682151794433594,4.486083984375,0.244140625,-2.685546875
3.1324999,0.24361002445220947,-0.25079262256622314,9.955689430236816,1.678466796875,-0.48828125,1.708984375
3.1374999000000003,0.29628247022628784,-0.272938996553421,9.493009567260742,-6.103515625,-0.3662109375,-0.396728515625
3.1424999000000002,0.4991910457611084,-0.33039984107017517,9.79527759552002,5.9814453125,0.6103515625,-2.3193359375
3.1474999,0.23343466222286224,-0.25917232036590576,9.869498252868652,-0.396728515625,-0.579833984375,2.227783203125
3.1524999,0.35254621505737305,-0.2968810200691223,9.470264434814453,-5.096435546875,-0.213623046875,-1.129150390625
3.1574999000000004,0.4429273009300232,-0.322618693113327,9.876680374145508,6.683349609375,0.518798828125,-1.77001953125
3.1624999000000003,0.166995570063591,-0.25318682193756104,9.872490882873535,-2.593994140625,-0.48828125,2.3193359375
3.1674999,0.40282443165779114,-0.29209262132644653,9.595361709594727,-3.387451171875,-0.152587890625,-1.922607421875
3.1724999,0.39803603291511536,-0.29568392038345337,9.988011360168457,7.26318359375,0.6103515625,-0.946044921875
3.1774999000000004,0.3687070608139038,-0.26096799969673157,9.877877235412598,6.7138671875,0.54931640625,0
3.1824999000000003,0.23582886159420013,-0.27234044671058655,9.607931137084961,-5.67626953125,-0.640869140625,1.8310546875
3.1874999,0.43754035234451294,-0.2819172441959381,9.501988410949707,0.67138671875,0.18310546875,-3.0517578125
3.1924999,0.2974795699119568,-0.23822307586669922,9.911994934082031,5.06591796875,0,0.732421875
3.1974999000000004,0.1909375786781311,-0.2406172752380371,9.577404975891113,-6.561279296875,-0.885009765625,1.220703125
3.2024999000000003,0.28131869435310364,-0.23523031175136566,9.964069366455078,3.631591796875,-0.274658203125,1.434326171875
3.2074999,0.2082955539226532,-0.25977087020874023,9.541492462158203,-6.683349609375,-0.79345703125,0.48828125
3.2124999,0.44352585077285767,-0.26994624733924866,9.689932823181152,4.425048828125,0.335693359375,-2.86865234375
3.2174999,0.23582886159420013,-0.21428105235099792,9.988011360168457,1.922607421875,-0.213623046875,1.861572265625
3.2224999000000003,0.272938996553421,-0.23523031175136566,9.500192642211914,-6.103515625,-0.3662109375,-0.274658203125
3.2274999,0.4620809257030487,-0.31783026456832886,9.784503936767578,6.927490234375,0.640869140625,-1.617431640625
3.2324999,0.18495208024978638,-0.2519897222518921,9.801262855529785,-2.3193359375,-0.457763671875,2.410888671875
3.2374999,0.4183867573738098,-0.3016694188117981,9.540295600891113,-3.5400390625,0.030517578125,-2.0751953125
3.2424999000000003,0.4129997789859772,-0.3256114423274994,9.987412452697754,6.8359375,0.274658203125,-1.007080078125
3.2474999,0.20051439106464386,-0.2663549482822418,9.828198432922363,-4.180908203125,-0.8544921875,2.349853515625
3.2524999,0.46327802538871765,-0.3274070918560028,9.578003883361816,-1.678466796875,0.1220703125,-2.685546875
3.2574999,0.375291109085083,-0.28311434388160706,9.951498985290527,6.28662109375,0.152587890625,-0.335693359375
3.2624999000000003,0.23702596127986908,-0.2711433470249176,9.674370765686035,-5.55419921875,-0.640869140625,1.983642578125
3.2674999000000002,0.45489832758903503,-0.26994624733924866,9.536105155944824,0.67138671875,0.91552734375,-2.86865234375
3.2724999,0.31184476613998413,-0.20111294090747833,9.924564361572266,5.462646484375,0.213623046875,0.518798828125
3.2774999,0.45489832758903503,-0.2621650993824005,9.612719535827637,4.45556640625,0.213623046875,-2.8076171875
3.2824999000000004,0.5051765441894531,-0.31842881441116333,9.733627319335938,5.950927734375,0.79345703125,-2.410888671875
3.2874999000000003,0.25079262256622314,-0.2693476974964142,9.840168952941895,-0.335693359375,-0.091552734375,2.25830078125
3.2924999,0.36810851097106934,-0.29867666959762573,9.405621528625488,-5.218505859375,-0.030517578125,-1.0986328125
3.2974999,0.4776432514190674,-0.31842881441116333,9.800664901733398,6.683349609375,0.3662109375,-1.77001953125
3.3024999000000004,0.1951274424791336,-0.23582886159420013,9.840168952941895,-2.471923828125,-0.335693359375,2.288818359375
3.3074999000000003,0.41778820753097534,-0.2801215946674347,9.555258750915527,-3.326416015625,0.152587890625,-1.89208984375
3.3124999,0.37409400939941406,-0.27892449498176575,9.970054626464844,6.53076171875,0.335693359375,-0.274658203125
3.3174999,0.22864626348018646,-0.2753331959247589,9.686341285705566,-5.401611328125,-0.67138671875,2.01416015625
3.3224999000000004,0.44771572947502136,-0.2711433470249176,9.544485092163086,0.54931640625,-0.06103515625,-2.99072265625
3.3274999000000003,0.3100491166114807,-0.20709845423698425,9.930550575256348,5.401611328125,0.030517578125,0.6103515625
3.3324999,0.19931729137897491,-0.228047713637352,9.589376449584961,-6.378173828125,-0.67138671875,1.251220703125
3.3374999,0.40282443165779114,-0.24001872539520264,9.571419715881348,2.5634765625,0.701904296875,-3.021240234375
3.3424999,0.2753331959247589,-0.2106897532939911,9.93474006652832,3.753662109375,-0.1220703125,1.3427734375
3.3474999000000003,0.1885433793067932,-0.24600422382354736,9.515155792236328,-7.01904296875,-0.48828125,0.640869140625
3.3524999,0.4321534037590027,-0.2687491476535797,9.678560256958008,4.39453125,0.640869140625,-2.74658203125
3.3574999,0.23104046285152435,-0.2190694510936737,9.989806175231934,1.708984375,-0.244140625,1.89208984375
3.3624999,0.3734954595565796,-0.29807811975479126,9.498396873474121,-5.06591796875,0.1220703125,-1.28173828125
3.3674999000000003,0.47405192255973816,-0.32620999217033386,9.882665634155273,6.561279296875,0.48828125,-1.739501953125
3.3724999,0.18614917993545532,-0.24899697303771973,9.879075050354004,-2.227783203125,-0.518798828125,2.5634765625
3.3774999,0.4082113802433014,-0.29807811975479126,9.57321548461914,-3.662109375,0.1220703125,-1.77001953125
3.3824999,0.4082113802433014,-0.29807811975479126,9.57321548461914,-3.662109375,0.1220703125,-1.77001953125
3.3874999000000003,0.3992331326007843,-0.3124433159828186,9.99220085144043,6.89697265625,0.579833984375,-1.220703125
3.3924999000000002,0.17956513166427612,-0.2621650993824005,9.803058624267578,-4.364013671875,-0.67138671875,2.288818359375
3.3974999,0.44352585077285767,-0.33099839091300964,9.565434455871582,-1.708984375,-0.213623046875,-2.410888671875
3.4024999,0.3585317134857178,-0.28072014451026917,9.941922187805176,6.65283203125,0.3662109375,-0.335693359375
3.4074999000000004,0.22206220030784607,-0.2867056429386139,9.690531730651855,-5.43212890625,-0.396728515625,1.983642578125
3.4124999000000003,0.20051439106464386,-0.2232593148946762,9.637859344482422,-6.561279296875,-0.18310546875,1.28173828125
3.4174999,0.4040215313434601,-0.23822307586669922,9.627683639526367,2.685546875,0.6103515625,-2.8076171875
3.4224999,0.27473464608192444,-0.19213469326496124,9.97065258026123,3.692626953125,0.06103515625,1.3427734375
3.4274999000000004,0.19153612852096558,-0.2472013235092163,9.535507202148438,-6.77490234375,-0.579833984375,0.518798828125
3.4324999000000003,0.4297592043876648,-0.2585737705230713,9.676166534423828,4.5166015625,0.48828125,-2.86865234375
3.4374999,0.22505496442317963,-0.21607670187950134,9.966463088989258,1.77001953125,-0.152587890625,1.861572265625
3.4424999,0.365115761756897,-0.2885012924671173,9.452906608581543,-5.340576171875,-0.3662109375,-1.220703125
3.4474999000000004,0.365115761756897,-0.2885012924671173,9.452906608581543,-5.340576171875,-0.3662109375,-1.220703125
3.4524999000000003,0.4638765752315521,-0.3058592677116394,9.871294021606445,6.77490234375,0.79345703125,-1.922607421875
3.4574999,0.406415730714798,-0.30286651849746704,9.588179588317871,-3.662109375,0.030517578125,-1.861572265625
3.4624999,0.4040215313434601,-0.3064578175544739,10.007762908935547,6.53076171875,0.396728515625,-0.946044921875
3.4674999,0.18794482946395874,-0.25977087020874023,9.803657531738281,-4.425048828125,-0.244140625,2.3193359375
3.4724999000000003,0.4602852761745453,-0.32381579279899597,9.549273490905762,-1.495361328125,0.3662109375,-2.532958984375
3.4774999,0.3734954595565796,-0.26994624733924866,9.928754806518555,6.439208984375,0.42724609375,-0.213623046875
3.4824999,0.23283611238002777,-0.292691171169281,9.657012939453125,-5.584716796875,-0.640869140625,1.708984375
3.4874999,0.4429273009300232,-0.2998737692832947,9.55825138092041,0.244140625,-0.030517578125,-2.8076171875
3.4924999000000003,0.2974795699119568,-0.23163901269435883,9.946112632751465,5.615234375,0.06103515625,0.640869140625
3.4974999,0.19632454216480255,-0.24480712413787842,9.600150108337402,-6.500244140625,-0.48828125,1.068115234375
3.5024999,0.406415730714798,-0.25318682193756104,9.580398559570312,2.838134765625,0.640869140625,-2.838134765625
3.5074999,0.2783259451389313,-0.1999158412218094,9.93593692779541,3.60107421875,0.030517578125,1.495361328125
3.5124999000000003,0.20530278980731964,-0.25318682193756104,9.513360023498535,-6.866455078125,-0.18310546875,0.48828125
3.5174999000000002,0.24480712413787842,-0.24480712413787842,9.90361499786377,-0.732421875,-0.48828125,2.3193359375
3.5224999,0.17896658182144165,-0.24361002445220947,9.84495735168457,-2.86865234375,-0.79345703125,2.288818359375
3.5274999,0.414795458316803,-0.3082534670829773,9.589376449584961,-3.2958984375,0.06103515625,-1.800537109375
3.5324999000000004,0.3998316824436188,-0.3058592677116394,10.015543937683105,6.9580078125,0.3662109375,-0.885009765625
3.5374999000000003,0.18914192914962769,-0.26156654953956604,9.825803756713867,-4.852294921875,-0.3662109375,2.13623046875
3.5424999,0.45669397711753845,-0.31783026456832886,9.589376449584961,-1.434326171875,0.42724609375,-2.532958984375
3.5474999,0.36332011222839355,-0.25019407272338867,9.975440979003906,5.889892578125,0.091552734375,-0.06103515625
3.5524999000000004,0.2968810200691223,-0.22026655077934265,9.999981880187988,5.43212890625,0.213623046875,0.762939453125
3.5574999000000003,0.2968810200691223,-0.22026655077934265,9.999981880187988,5.43212890625,0.213623046875,0.762939453125
3.5624999,0.19692309200763702,-0.24181437492370605,9.63067626953125,-6.4697265625,-0.30517578125,1.220703125
3.5674999,0.4100070297718048,-0.2561795711517334,9.61451530456543,3.082275390625,0.6103515625,-2.86865234375
3.5724999000000004,0.2753331959247589,-0.1951274424791336,9.955090522766113,3.082275390625,0.18310546875,1.46484375
3.5774999000000003,0.2106897532939911,-0.2651578485965729,9.501389503479004,-7.01904296875,-0.579833984375,0.244140625
3.5824999,0.4572925269603729,-0.25977087020874023,9.698312759399414,4.547119140625,0.274658203125,-2.5634765625
3.5874999,0.2406172752380371,-0.23702596127986908,9.951498985290527,1.15966796875,-0.152587890625,2.105712890625
3.5924999,0.3076549172401428,-0.2825157940387726,9.489418029785156,-5.7373046875,-0.274658203125,-0.67138671875
3.5974999000000003,0.49978959560394287,-0.3130418658256531,9.798270225524902,6.317138671875,0.457763671875,-2.38037109375
3.6024999,0.22445641458034515,-0.25318682193756104,9.885659217834473,-0.91552734375,-0.18310546875,2.3193359375
3.6074999,0.4345476031303406,-0.32860419154167175,9.637260437011719,-3.0517578125,-0.06103515625,-2.0751953125
3.6124999,0.3968389332294464,-0.2819172441959381,10.037690162658691,6.683349609375,0.18310546875,-0.885009765625
3.6174999000000003,0.19572599232196808,-0.27234044671058655,9.82879638671875,-4.608154296875,-0.732421875,2.25830078125
3.6224999,0.46148237586021423,-0.30885201692581177,9.57860279083252,-0.762939453125,0.396728515625,-2.471923828125
3.6274999,0.3513490855693817,-0.22744916379451752,9.947908401489258,6.2255859375,0.3662109375,0.1220703125
3.6324999,0.23283611238002777,-0.2950853705406189,9.646238327026367,-6.28662109375,-0.274658203125,1.77001953125
3.6374999000000003,0.42437225580215454,-0.2669534981250763,9.557653427124023,1.40380859375,0.54931640625,-2.960205078125
3.6424999000000002,0.2861070930957794,-0.2082955539226532,9.97364616394043,4.7607421875,0.091552734375,0.79345703125
3.6474999,0.1885433793067932,-0.25977087020874023,9.595361709594727,-6.744384765625,-0.732421875,0.9765625
3.6524999,0.4076128304004669,-0.2454056739807129,9.639056205749512,3.35693359375,0.3662109375,-3.173828125
3.6574999000000004,0.2017114907503128,-0.284311443567276,9.53969669342041,-6.744384765625,-0.244140625,0.335693359375
3.6624999000000003,0.44831427931785583,-0.25438392162323,9.773131370544434,5.218505859375,0.518798828125,-2.74658203125
3.6674999,0.23283611238002777,-0.2537853717803955,9.979032516479492,0.732421875,-0.213623046875,2.01416015625
3.6724999,0.32202014327049255,-0.2819172441959381,9.5007905960083,-5.828857421875,-0.274658203125,-0.54931640625
3.6774999000000004,0.50876784324646,-0.2825157940387726,9.824007987976074,6.40869140625,0.518798828125,-2.0751953125
3.6824999000000003,0.43335050344467163,-0.32680854201316833,9.610325813293457,-2.716064453125,0.06103515625,-2.25830078125
3.6874999,0.3800795078277588,-0.2890998423099518,10.019734382629395,6.591796875,0.579833984375,-0.457763671875
3.6924999,0.19273324310779572,-0.2998737692832947,9.803657531738281,-5.0048828125,-0.457763671875,2.166748046875
3.6974999000000004,0.3345896899700165,-0.2663549482822418,9.936535835266113,5.889892578125,0.152587890625,0.274658203125
3.7024999000000003,0.2256535142660141,-0.31124621629714966,9.619303703308105,-6.04248046875,-0.701904296875,1.556396484375
3.7074999,0.40880993008613586,-0.2669534981250763,9.543886184692383,1.46484375,0.335693359375,-2.899169921875
3.7124999,0.2849099934101105,-0.24241292476654053,9.945513725280762,4.5166015625,-0.1220703125,0.91552734375
3.7174999,0.18794482946395874,-0.24001872539520264,9.566033363342285,-6.683349609375,-0.79345703125,0.8544921875
3.7224999000000003,0.42676645517349243,-0.25079262256622314,9.62828254699707,3.60107421875,0.457763671875,-2.716064453125
3.7274999,0.26815059781074524,-0.2214636504650116,9.954492568969727,2.685546875,-0.091552734375,1.5869140625
3.7324999,0.23822307586669922,-0.25917232036590576,9.506776809692383,-6.744384765625,-0.3662109375,0.18310546875
3.7374999,0.48482584953308105,-0.25438392162323,9.739612579345703,5.096435546875,0.42724609375,-2.532958984375
3.7424999000000003,0.2555810213088989,-0.24241292476654053,9.926959037780762,0.6103515625,-0.244140625,2.13623046875
3.7474999,0.3495534360408783,-0.2621650993824005,9.498396873474121,-5.584716796875,-0.213623046875,-0.762939453125
3.7524999,0.5105634927749634,-0.3016694188117981,9.825204849243164,6.4697265625,0.54931640625,-1.983642578125
3.7574999,0.4405331015586853,-0.31124621629714966,9.961075782775879,6.77490234375,0.274658203125,-1.251220703125
3.7624999000000003,0.1825578808784485,-0.2777273952960968,9.8784761428833,-3.96728515625,-0.396728515625,2.0751953125
3.7674999000000002,0.4357447028160095,-0.314238965511322,9.620500564575195,-2.685546875,0.06103515625,-2.25830078125
3.7724999,0.3734954595565796,-0.3016694188117981,10.021530151367188,6.561279296875,0.274658203125,-0.518798828125
3.7774999,0.20470423996448517,-0.2579752206802368,9.790489196777344,-5.157470703125,-0.48828125,2.01416015625
3.7824999000000004,0.456095427274704,-0.28311434388160706,9.546280860900879,-0.54931640625,0.213623046875,-2.593994140625
3.7874999000000003,0.33518823981285095,-0.25079262256622314,9.93593692779541,6.103515625,0.3662109375,0.274658203125
3.7924999,0.2214636504650116,-0.2687491476535797,9.601945877075195,-6.04248046875,-0.335693359375,1.617431640625
3.7974999,0.3968389332294464,-0.25917232036590576,9.557653427124023,1.89208984375,0.42724609375,-2.8076171875
3.8024999000000004,0.2711433470249176,-0.23523031175136566,9.948506355285645,4.39453125,-0.244140625,0.823974609375
3.8074999000000003,0.17238251864910126,-0.23163901269435883,9.549273490905762,-6.744384765625,-0.640869140625,0.823974609375
3.8124999,0.24420857429504395,-0.24241292476654053,9.506776809692383,-6.7138671875,-0.30517578125,0.1220703125
3.8174999,0.4944026470184326,-0.27473464608192444,9.767146110534668,5.4931640625,0.732421875,-2.532958984375
3.8224999000000004,0.2579752206802368,-0.2406172752380371,9.930550575256348,0.518798828125,-0.18310546875,2.105712890625
3.8274999000000003,0.3513490855693817,-0.26994624733924866,9.496601104736328,-5.4931640625,-0.3662109375,-0.946044921875
3.8324999,0.49559974670410156,-0.3082534670829773,9.837775230407715,6.4697265625,0.3662109375,-1.922607421875
3.8374999,0.19812019169330597,-0.22924481332302094,9.8970308303833,-1.77001953125,-0.79345703125,2.44140625
3.8424999,0.38486793637275696,-0.27653029561042786,9.540295600891113,-4.302978515625,-0.42724609375,-1.739501953125
3.8474999000000003,0.42437225580215454,-0.30226796865463257,9.959280967712402,6.65283203125,0.457763671875,-1.312255859375
3.8524999,0.18375498056411743,-0.27473464608192444,9.849146842956543,-3.692626953125,-0.457763671875,2.349853515625
3.8574999,0.4471171796321869,-0.3280056416988373,9.570821762084961,-2.288818359375,0.213623046875,-2.349853515625
3.8624999,0.38067805767059326,-0.29867666959762573,9.973047256469727,6.744384765625,0.701904296875,-0.335693359375
3.8674999000000003,0.46148237586021423,-0.3010708689689636,9.519346237182617,-0.30517578125,0.213623046875,-2.777099609375
3.8724999,0.33339259028434753,-0.24480712413787842,9.914987564086914,5.7373046875,0.213623046875,0.335693359375
3.8774999,0.22385786473751068,-0.27653029561042786,9.59715747833252,-6.04248046875,-0.79345703125,1.556396484375
3.8824999,0.40880993008613586,-0.25737667083740234,9.55705451965332,1.983642578125,0.579833984375,-2.9296875
3.8874999000000003,0.2908954918384552,-0.21009120345115662,9.94970417022705,4.150390625,-0.244140625,1.129150390625
3.8924999000000002,0.19452889263629913,-0.2214636504650116,9.537900924682617,-7.049560546875,-0.579833984375,0.732421875
3.8974999,0.43275195360183716,-0.24600422382354736,9.621099472045898,3.84521484375,0.396728515625,-2.9296875
3.9024999,0.2555810213088989,-0.1999158412218094,9.926360130310059,2.410888671875,0.030517578125,1.64794921875
3.9074999000000004,0.2519897222518921,-0.24181437492370605,9.47265911102295,-6.378173828125,-0.152587890625,0
3.9124999000000003,0.4967968463897705,-0.27413609623908997,9.72165584564209,5.615234375,1.03759765625,-2.471923828125
3.9174999,0.25977087020874023,-0.23044191300868988,9.881468772888184,0.274658203125,0.1220703125,2.349853515625
3.9224999,0.4291606545448303,-0.32202014327049255,9.985616683959961,6.988525390625,0.1220703125,-1.373291015625
3.9274999000000004,0.19393034279346466,-0.2867056429386139,9.8599214553833,-3.814697265625,-0.732421875,2.197265625
3.9324999000000003,0.45250412821769714,-0.3381809890270233,9.576208114624023,-2.288818359375,0.152587890625,-2.3193359375
3.9374999,0.3800795078277588,-0.28790274262428284,9.981427192687988,6.439208984375,0.6103515625,-0.579833984375
3.9424999,0.21547815203666687,-0.25917232036590576,9.730035781860352,-5.55419921875,-0.42724609375,1.983642578125
3.9474999000000004,0.4429273009300232,-0.29568392038345337,9.536105155944824,-0.152587890625,0.396728515625,-2.655029296875
3.9524999000000003,0.3148375153541565,-0.23283611238002777,9.938331604003906,5.645751953125,0.30517578125,0.396728515625
3.9574999,0.2106897532939911,-0.27712884545326233,9.604340553283691,-6.2255859375,-0.396728515625,1.373291015625
3.9624999,0.40701428055763245,-0.2669534981250763,9.570821762084961,2.25830078125,0.67138671875,-2.899169921875
3.9674999000000004,0.2998737692832947,-0.22266076505184174,9.94970417022705,4.058837890625,-0.030517578125,1.220703125
3.9724999000000003,0.25737667083740234,-0.20290859043598175,9.951498985290527,2.3193359375,-0.244140625,1.678466796875
3.9774999,0.2621650993824005,-0.25019407272338867,9.516353607177734,-6.317138671875,-0.42724609375,-0.244140625
3.9824999,0.49619829654693604,-0.2849099934101105,9.77133560180664,5.645751953125,0.396728515625,-2.471923828125
3.9874999,0.2519897222518921,-0.24361002445220947,9.901819229125977,0.1220703125,-0.396728515625,2.3193359375
3.9924999000000003,0.3627215623855591,-0.2861070930957794,9.46727180480957,-5.523681640625,-0.091552734375,-0.91552734375
3.9974999,0.4902127981185913,-0.30466216802597046,9.820416450500488,6.378173828125,0.701904296875,-1.922607421875
4.0024999,0.4902127981185913,-0.30466216802597046,9.820416450500488,6.378173828125,0.701904296875,-1.922607421875
4.0074999,0.2064998894929886,-0.23044191300868988,9.86770248413086,-2.105712890625,-0.091552734375,2.62451171875
4.0124999,0.40940847992897034,-0.28131869435310364,9.534309387207031,-3.90625,0.274658203125,-1.77001953125
4.0174999,0.43694180250167847,-0.30466216802597046,9.952696800231934,6.805419921875,0.579833984375,-1.373291015625
4.022499900000001,0.20051439106464386,-0.284311443567276,9.834781646728516,-3.814697265625,-0.48828125,2.44140625
4.0274999000000005,0.2190694510936737,-0.2950853705406189,9.740809440612793,-5.37109375,-0.54931640625,1.953125
4.0324999,0.4513070285320282,-0.3064578175544739,9.553462982177734,0.18310546875,0.18310546875,-2.838134765625
4.0374999,0.3190273642539978,-0.22625206410884857,9.943120002746582,5.828857421875,-0.152587890625,0.335693359375
4.0424999,0.21847090125083923,-0.25258827209472656,9.624691009521484,-6.378173828125,-0.732421875,1.3427734375
4.0474999,0.4100070297718048,-0.24181437492370605,9.59057331085205,2.13623046875,0.30517578125,-3.021240234375
4.0524999,0.2944868206977844,-0.19153612852096558,9.968857765197754,4.21142578125,0.091552734375,1.007080078125
4.0574999,0.1975216418504715,-0.22266076505184174,9.544485092163086,-6.77490234375,-0.48828125,0.640869140625
4.062499900000001,0.4339490532875061,-0.2472013235092163,9.653421401977539,3.875732421875,0.48828125,-2.899169921875
4.0674999000000005,0.24181437492370605,-0.19632454216480255,9.970054626464844,2.01416015625,-0.1220703125,1.800537109375
4.0724999,0.2519897222518921,-0.25079262256622314,9.524134635925293,-6.591796875,-0.48828125,0
4.0774999,0.49978959560394287,-0.31364041566848755,9.85034465789795,6.53076171875,0.67138671875,-1.800537109375
4.0824999,0.20290859043598175,-0.24420857429504395,9.895236015319824,-2.13623046875,-0.213623046875,2.3193359375
4.0874999,0.3902548849582672,-0.2992752194404602,9.566631317138672,-3.875732421875,0,-1.8310546875
4.0924999,0.41539400815963745,-0.2932897210121155,9.99100399017334,6.683349609375,0.3662109375,-1.190185546875
4.0974999,0.17657238245010376,-0.2825157940387726,9.857526779174805,-3.84521484375,-0.6103515625,2.288818359375
4.1024999,0.4411316514015198,-0.3387795388698578,9.578003883361816,-2.01416015625,0.1220703125,-2.3193359375
4.1074999000000005,0.375291109085083,-0.26994624733924866,10.002376556396484,6.7138671875,0.244140625,-0.335693359375
4.1124999,0.22505496442317963,-0.2753331959247589,9.744400978088379,-5.462646484375,-0.823974609375,1.922607421875
4.1174999,0.46327802538871765,-0.27653029561042786,9.582792282104492,-0.1220703125,0.06103515625,-2.685546875
4.1224999,0.33279404044151306,-0.1975216418504715,9.996989250183105,5.462646484375,-0.1220703125,0.335693359375
4.1274999,0.4213795065879822,-0.23702596127986908,9.654618263244629,4.119873046875,0.640869140625,-2.74658203125
4.1324999,0.23104046285152435,-0.21428105235099792,9.95329475402832,2.044677734375,-0.152587890625,1.8310546875
4.1374999,0.2454056739807129,-0.272938996553421,9.5007905960083,-6.34765625,-0.274658203125,-0.18310546875
4.1424999,0.4908113479614258,-0.26994624733924866,9.762955665588379,5.7373046875,0.8544921875,-2.410888671875
4.147499900000001,0.25438392162323,-0.272938996553421,9.908403396606445,-0.06103515625,0.091552734375,2.197265625
4.1524999000000005,0.36152446269989014,-0.3034650683403015,9.477447509765625,-5.55419921875,-0.1220703125,-1.007080078125
4.1574999,0.4854243993759155,-0.28730419278144836,9.858723640441895,6.591796875,0.396728515625,-1.89208984375
4.1624999,0.18734627962112427,-0.28072014451026917,9.893440246582031,-4.058837890625,-0.457763671875,2.50244140625
4.1674999,0.4531026780605316,-0.3315969407558441,9.631275177001953,-1.8310546875,0.18310546875,-2.44140625
4.1724999,0.3866635859012604,-0.2669534981250763,10.029311180114746,6.65283203125,0.30517578125,-0.335693359375
4.1774999,0.2322375625371933,-0.29807811975479126,9.771934509277344,-5.4931640625,-0.518798828125,2.0751953125
4.1824999,0.4752490520477295,-0.2795230448246002,9.588179588317871,0.30517578125,0.30517578125,-2.899169921875
4.187499900000001,0.3381809890270233,-0.2059013396501541,9.964069366455078,5.4931640625,0.1220703125,0.518798828125
4.1924999000000005,0.23104046285152435,-0.2621650993824005,9.634267807006836,-6.40869140625,-0.701904296875,1.617431640625
4.1974999,0.4183867573738098,-0.2298433631658554,9.578003883361816,2.471923828125,0.6103515625,-3.082275390625
4.2024999,0.2890998423099518,-0.2064998894929886,9.944915771484375,4.150390625,-0.091552734375,1.0986328125
4.2074999,0.19153612852096558,-0.26096799969673157,9.531316757202148,-6.591796875,-0.732421875,0.701904296875
4.2124999,0.4189853072166443,-0.23762452602386475,9.621099472045898,3.997802734375,0.244140625,-3.021240234375
4.2174999,0.23104046285152435,-0.22026655077934265,9.932944297790527,2.044677734375,-0.274658203125,1.708984375
4.2224999,0.4836287498474121,-0.2759317457675934,9.747393608093262,5.706787109375,0.457763671875,-2.532958984375
4.2274999,0.2555810213088989,-0.2861070930957794,9.90361499786377,0.335693359375,-0.42724609375,2.197265625
4.2324999000000005,0.365115761756897,-0.31543606519699097,9.476848602294922,-5.340576171875,-0.54931640625,-0.8544921875
4.2374999,0.49978959560394287,-0.28969839215278625,9.84376049041748,6.65283203125,0.640869140625,-1.861572265625
4.2424999,0.2106897532939911,-0.2513911724090576,9.893440246582031,-2.044677734375,-0.54931640625,2.3193359375
4.2474999,0.3932476341724396,-0.284311443567276,9.543886184692383,-3.96728515625,-0.335693359375,-1.739501953125
4.2524999,0.4321534037590027,-0.27234044671058655,9.97603988647461,6.9580078125,0.244140625,-1.15966796875
4.2574999,0.18734627962112427,-0.29867666959762573,9.839570045471191,-3.814697265625,-0.701904296875,2.349853515625
4.2624999,0.44771572947502136,-0.3232172429561615,9.57860279083252,-2.044677734375,0.1220703125,-2.349853515625
4.2674999,0.375291109085083,-0.27653029561042786,9.97484302520752,6.53076171875,0.274658203125,-0.457763671875
4.272499900000001,0.21368250250816345,-0.2819172441959381,9.731232643127441,-5.279541015625,-0.701904296875,2.044677734375
4.2774999000000005,0.4513070285320282,-0.2777273952960968,9.544485092163086,-0.152587890625,0.274658203125,-2.655029296875
4.2824999,0.19931729137897491,-0.2825157940387726,9.624691009521484,-6.378173828125,-0.640869140625,1.3427734375
4.2874999,0.38067805767059326,-0.2454056739807129,9.610923767089844,1.861572265625,0.152587890625,-2.838134765625
4.2924999,0.26156654953956604,-0.243011474609375,9.982624053955078,4.39453125,-0.18310546875,0.946044921875
4.2974999,0.17298106849193573,-0.2454056739807129,9.579200744628906,-6.561279296875,-0.762939453125,0.67138671875
4.3024999,0.41958385705947876,-0.2621650993824005,9.657012939453125,3.662109375,0.457763671875,-2.716064453125
4.3074999,0.2472013235092163,-0.23283611238002777,9.946710586547852,2.288818359375,-0.1220703125,1.64794921875
4.312499900000001,0.24600422382354736,-0.26156654953956604,9.519944190979004,-6.500244140625,-0.335693359375,-0.06103515625
4.3174999000000005,0.497395396232605,-0.2735375463962555,9.758167266845703,5.37109375,0.6103515625,-2.44140625
4.3224999,0.1885433793067932,-0.2669534981250763,9.86111831665039,-3.5400390625,-0.42724609375,2.197265625
4.3274999,0.44532153010368347,-0.3100491166114807,9.609128952026367,-2.105712890625,0.213623046875,-2.349853515625
4.3324999,0.3800795078277588,-0.3292027413845062,10.023923873901367,6.7138671875,0.48828125,-0.457763671875
4.3374999,0.21009120345115662,-0.2801215946674347,9.800065994262695,-5.096435546875,-0.396728515625,2.197265625
4.3424999,0.4638765752315521,-0.2968810200691223,9.601346969604492,-0.42724609375,0.244140625,-2.685546875
4.3474999,0.3357867896556854,-0.28131869435310364,9.980229377746582,5.706787109375,0.18310546875,0.18310546875
4.352499900000001,0.228047713637352,-0.2717418968677521,9.658209800720215,-6.195068359375,-0.67138671875,1.52587890625
4.3574999000000005,0.4141969084739685,-0.2519897222518921,9.596558570861816,1.434326171875,0.274658203125,-2.99072265625
4.3624999,0.2825157940387726,-0.2579752206802368,9.964667320251465,4.302978515625,0.213623046875,0.9765625
4.3674999,0.18914192914962769,-0.23044191300868988,9.571419715881348,-6.591796875,-0.48828125,1.007080078125
4.3724999,0.4207809567451477,-0.2621650993824005,9.624691009521484,3.35693359375,0.3662109375,-2.8076171875
4.3774999,0.47465047240257263,-0.3034650683403015,9.73781681060791,5.126953125,0.701904296875,-2.532958984375
4.3824999,0.24361002445220947,-0.26994624733924866,9.939528465270996,0.48828125,0,2.166748046875
4.3874999,0.3381809890270233,-0.26815059781074524,9.497797966003418,-5.7373046875,-0.06103515625,-0.732421875
4.3924999,0.49380409717559814,-0.3214215636253357,9.837176322937012,6.195068359375,0.701904296875,-2.0751953125
4.397499900000001,0.20530278980731964,-0.22086510062217712,9.901819229125977,-1.40380859375,-0.18310546875,2.410888671875
4.4024999000000005,0.37648820877075195,-0.2454056739807129,9.524134635925293,-4.5166015625,0.030517578125,-1.52587890625
4.4074999,0.43335050344467163,-0.3034650683403015,9.975440979003906,6.500244140625,0.48828125,-1.52587890625
4.4124999,0.18614917993545532,-0.23582886159420013,9.845556259155273,-3.448486328125,-0.244140625,2.410888671875
4.4174999,0.4471171796321869,-0.2783259451389313,9.599552154541016,-2.62451171875,0.30517578125,-2.044677734375
4.4224999,0.38965633511543274,-0.3148375153541565,9.987412452697754,6.500244140625,0.518798828125,-0.762939453125
4.4274999,0.20889410376548767,-0.2519897222518921,9.770736694335938,-4.791259765625,-0.3662109375,2.01416015625
4.4324999,0.2298433631658554,-0.24361002445220947,9.64564037322998,-6.378173828125,-0.48828125,1.46484375
4.437499900000001,0.4159925580024719,-0.23582886159420013,9.594164848327637,1.3427734375,0.42724609375,-2.716064453125
4.4424999000000005,0.2759317457675934,-0.23283611238002777,9.95329475402832,4.69970703125,0.091552734375,1.0986328125
4.4474999,0.17298106849193573,-0.2190694510936737,9.580398559570312,-6.53076171875,-0.67138671875,0.823974609375
4.4524999,0.406415730714798,-0.27234044671058655,9.62828254699707,3.692626953125,0.579833984375,-2.86865234375
4.4574999,0.25019407272338867,-0.2406172752380371,9.938929557800293,2.960205078125,0,1.678466796875
4.4624999,0.23163901269435883,-0.24660277366638184,9.512762069702148,-6.622314453125,-0.3662109375,0.091552734375
4.4674999,0.48303020000457764,-0.2998737692832947,9.728838920593262,5.0048828125,0.640869140625,-2.50244140625
4.4724999,0.2537853717803955,-0.25318682193756104,9.947309494018555,0.79345703125,0,2.105712890625
4.477499900000001,0.34596213698387146,-0.27054479718208313,9.503783226013184,-5.67626953125,-0.1220703125,-0.732421875
4.4824999000000005,0.5045779943466187,-0.34656068682670593,9.8599214553833,6.28662109375,0.54931640625,-2.01416015625
4.4874999,0.4345476031303406,-0.31543606519699097,9.985017776489258,6.77490234375,0.18310546875,-1.251220703125
4.4924999,0.18076223134994507,-0.24779987335205078,9.88625717163086,-3.570556640625,-0.457763671875,2.288818359375
4.4974999,0.43335050344467163,-0.28311434388160706,9.606135368347168,-2.685546875,0.244140625,-2.0751953125
4.5024999,0.38307225704193115,-0.30466216802597046,10.006566047668457,6.805419921875,0.42724609375,-0.42724609375
4.5074999,0.2017114907503128,-0.23343466222286224,9.785101890563965,-4.7607421875,-0.42724609375,1.953125
4.5124999,0.4572925269603729,-0.284311443567276,9.557653427124023,-0.823974609375,0.18310546875,-2.777099609375
4.5174999,0.34356793761253357,-0.2759317457675934,9.950302124023438,5.950927734375,0.274658203125,0.30517578125
4.522499900000001,0.2322375625371933,-0.25737667083740234,9.63187313079834,-6.072998046875,-0.42724609375,1.64794921875
4.5274999000000005,0.4183867573738098,-0.2585737705230713,9.575610160827637,1.312255859375,0.42724609375,-2.86865234375
4.5324999,0.28072014451026917,-0.23104046285152435,9.962871551513672,4.547119140625,0.152587890625,1.068115234375
4.5374999,0.25737667083740234,-0.22086510062217712,9.95090103149414,3.021240234375,0.091552734375,1.64794921875
4.5424999,0.2214636504650116,-0.24181437492370605,9.50737476348877,-6.7138671875,-0.244140625,0.1220703125
4.5474999,0.47465047240257263,-0.2861070930957794,9.709086418151855,4.791259765625,0.67138671875,-2.593994140625
4.5524999,0.2472013235092163,-0.2346317619085312,9.93354320526123,1.03759765625,-0.06103515625,2.3193359375
4.5574999,0.33099839091300964,-0.2537853717803955,9.477447509765625,-6.011962890625,-0.274658203125,-0.67138671875
4.562499900000001,0.21966800093650818,-0.2190694510936737,9.872490882873535,-1.0986328125,-0.1220703125,2.50244140625
4.5674999000000005,0.36810851097106934,-0.26575639843940735,9.479243278503418,-4.69970703125,0.06103515625,-1.373291015625
4.5724999,0.4405331015586853,-0.31842881441116333,9.906607627868652,6.622314453125,0.640869140625,-1.5869140625
4.5774999,0.1735796183347702,-0.25438392162323,9.845556259155273,-3.23486328125,-0.30517578125,2.410888671875
4.5824999,0.42197805643081665,-0.3016694188117981,9.576208114624023,-3.082275390625,0.030517578125,-2.105712890625
4.5874999,0.18794482946395874,-0.24660277366638184,9.788095474243164,-4.69970703125,-0.213623046875,2.25830078125
4.5924999,0.45250412821769714,-0.30885201692581177,9.563039779663086,-0.946044921875,0.42724609375,-2.471923828125
4.5974999,0.3477577865123749,-0.28969839215278625,9.95209789276123,6.072998046875,0.091552734375,-0.152587890625
4.602499900000001,0.22864626348018646,-0.27653029561042786,9.671976089477539,-5.92041015625,-0.48828125,1.708984375
4.6074999000000005,0.42377370595932007,-0.25917232036590576,9.609128952026367,1.251220703125,0.732421875,-2.74658203125
4.6124999,0.2849099934101105,-0.22924481332302094,10.008959770202637,4.791259765625,0.1220703125,0.67138671875
4.6174999,0.18974047899246216,-0.19572599232196808,9.653421401977539,-6.65283203125,-0.579833984375,0.946044921875
4.6224999,0.18974047899246216,-0.19572599232196808,9.653421401977539,-6.65283203125,-0.579833984375,0.946044921875
4.6274999,0.4118026793003082,-0.24480712413787842,9.64564037322998,2.9296875,0.54931640625,-2.960205078125
4.6324999,0.2753331959247589,-0.2214636504650116,9.970054626464844,3.326416015625,0.1220703125,1.556396484375
4.6374999,0.2148796021938324,-0.24660277366638184,9.512762069702148,-6.7138671875,-0.335693359375,0.30517578125
4.6424999,0.46327802538871765,-0.3208230137825012,9.880271911621094,6.77490234375,0.457763671875,-1.800537109375
4.647499900000001,0.46327802538871765,-0.3208230137825012,9.880271911621094,6.77490234375,0.457763671875,-1.800537109375
4.6524999000000005,0.18375498056411743,-0.2388216257095337,9.861717224121094,-2.716064453125,-0.579833984375,2.38037109375
4.6574999,0.42197805643081665,-0.284311443567276,9.608530044555664,-3.35693359375,-0.1220703125,-1.922607421875
4.6624999,0.39384618401527405,-0.31124621629714966,10.023923873901367,6.77490234375,0.396728515625,-0.9765625
4.6674999,0.1867477297782898,-0.22625206410884857,9.819818496704102,-4.638671875,-0.701904296875,2.0751953125
4.6724999,0.4554968774318695,-0.2992752194404602,9.569623947143555,-1.3427734375,-0.030517578125,-2.471923828125
4.6774999,0.3531447649002075,-0.27413609623908997,9.95090103149414,6.28662109375,0.030517578125,0.06103515625
4.6824999,0.23163901269435883,-0.27054479718208313,9.66539192199707,-5.67626953125,-0.762939453125,1.800537109375
4.687499900000001,0.21667525172233582,-0.24181437492370605,9.480440139770508,-6.561279296875,-0.48828125,0.3662109375
4.6924999000000005,0.45908817648887634,-0.2890998423099518,9.653421401977539,4.486083984375,0.3662109375,-2.777099609375
4.6974999,0.243011474609375,-0.228047713637352,9.94970417022705,1.739501953125,-0.244140625,1.861572265625
4.7024999,0.2885012924671173,-0.2579752206802368,9.498994827270508,-6.16455078125,-0.30517578125,-0.396728515625
4.7074999,0.49140989780426025,-0.3321954905986786,9.803058624267578,5.859375,0.42724609375,-2.288818359375
4.7124999,0.22685061395168304,-0.2454056739807129,9.892841339111328,-0.48828125,-0.48828125,2.38037109375
4.7174999,0.3561375141143799,-0.28969839215278625,9.47265911102295,-5.126953125,-0.18310546875,-1.129150390625
4.7224999,0.46148237586021423,-0.32202014327049255,9.873088836669922,6.65283203125,0.335693359375,-1.8310546875
4.727499900000001,0.42197805643081665,-0.28730419278144836,9.549273490905762,-3.5400390625,0.30517578125,-1.800537109375
4.7324999000000005,0.4106055796146393,-0.314238965511322,9.97603988647461,6.8359375,0.701904296875,-1.129150390625
4.7374999,0.19393034279346466,-0.2454056739807129,9.783905029296875,-4.302978515625,-0.091552734375,2.38037109375
4.7424999,0.456095427274704,-0.31603461503982544,9.5624418258667,-1.77001953125,0.152587890625,-2.25830078125
4.7474999,0.3627215623855591,-0.28550854325294495,9.954492568969727,6.34765625,0.42724609375,-0.42724609375
4.7524999,0.2232593148946762,-0.2759317457675934,9.685144424438477,-5.767822265625,-0.274658203125,1.8310546875
4.7574999,0.4279635548591614,-0.2932897210121155,9.577404975891113,0.6103515625,0.457763671875,-2.899169921875
4.7624999,0.2861070930957794,-0.23403321206569672,9.965266227722168,5.2490234375,0.335693359375,0.48828125
4.7674999,0.18076223134994507,-0.22266076505184174,9.616909980773926,-6.591796875,-0.274658203125,1.28173828125
4.772499900000001,0.39564183354377747,-0.2561795711517334,9.588777542114258,2.471923828125,0.67138671875,-2.74658203125
4.7774999000000005,0.2825157940387726,-0.2017114907503128,9.923367500305176,3.47900390625,0.213623046875,1.251220703125
4.7824999,0.2059013396501541,-0.2537853717803955,9.49121379852295,-6.866455078125,-0.3662109375,0.67138671875
4.7874999,0.23582886159420013,-0.21188685297966003,9.914987564086914,1.77001953125,0,1.739501953125
4.7924999,0.2711433470249176,-0.24600422382354736,9.480440139770508,-6.256103515625,-0.518798828125,-0.30517578125
4.7974999,0.48961424827575684,-0.3058592677116394,9.765350341796875,5.55419921875,0.091552734375,-2.38037109375
4.8024999,0.2454056739807129,-0.23942017555236816,9.9000244140625,-0.457763671875,-0.48828125,2.13623046875
4.8074999,0.3669114112854004,-0.28790274262428284,9.480440139770508,-5.31005859375,-0.48828125,-1.03759765625
4.812499900000001,0.48303020000457764,-0.3274070918560028,9.879075050354004,6.65283203125,0.640869140625,-1.861572265625
4.8174999000000005,0.2041056901216507,-0.23582886159420013,9.895236015319824,-2.227783203125,-0.54931640625,2.25830078125
4.8224999,0.4207809567451477,-0.30466216802597046,9.589376449584961,-3.753662109375,0.1220703125,-1.800537109375
4.8274999,0.4255693554878235,-0.3124433159828186,10.022128105163574,7.01904296875,0.732421875,-1.068115234375
4.8324999,0.1933317929506302,-0.26096799969673157,9.84615421295166,-4.08935546875,-0.67138671875,2.3193359375
4.8374999,0.4495113790035248,-0.33339259028434753,9.586981773376465,-1.8310546875,-0.152587890625,-2.50244140625
4.8424999,0.36571431159973145,-0.2717418968677521,9.982025146484375,6.561279296875,0.457763671875,-0.244140625
4.8474999,0.40282443165779114,-0.24121582508087158,9.632472038269043,2.50244140625,0.457763671875,-3.021240234375
4.852499900000001,0.2861070930957794,-0.18914192914962769,9.984419822692871,3.72314453125,-0.213623046875,1.251220703125
4.8574999000000005,0.19632454216480255,-0.2495955228805542,9.555258750915527,-6.89697265625,-0.6103515625,0.6103515625
4.8624999,0.4345476031303406,-0.228047713637352,9.658807754516602,4.241943359375,0.48828125,-2.777099609375
4.8674999,0.23283611238002777,-0.21308395266532898,9.941922187805176,1.8310546875,-0.274658203125,1.953125
4.8724999,0.25737667083740234,-0.2669534981250763,9.489418029785156,-6.40869140625,-0.48828125,-0.335693359375
4.8774999,0.4878185987472534,-0.28072014451026917,9.744400978088379,5.706787109375,0.732421875,-2.532958984375
4.8824999,0.35434186458587646,-0.3034650683403015,9.476848602294922,-5.096435546875,-0.30517578125,-1.007080078125
4.8874999,0.41958385705947876,-0.3082534670829773,10.04068374633789,6.65283203125,0.274658203125,-1.190185546875
4.8924999,0.18974047899246216,-0.28730419278144836,9.875483512878418,-3.997802734375,-0.48828125,2.410888671875
4.897499900000001,0.45489832758903503,-0.32620999217033386,9.608530044555664,-1.77001953125,0.579833984375,-2.349853515625
4.9024999000000005,0.37469255924224854,-0.29568392038345337,9.988609313964844,6.622314453125,0.396728515625,-0.396728515625
4.9074999,0.22445641458034515,-0.27473464608192444,9.733627319335938,-5.4931640625,-0.579833984375,1.922607421875
4.9124999,0.45489832758903503,-0.28550854325294495,9.559449195861816,0.18310546875,0.396728515625,-2.838134765625
4.9174999,0.32620999217033386,-0.23523031175136566,9.967061996459961,5.67626953125,0.244140625,0.48828125
4.9224999,0.21667525172233582,-0.2519897222518921,9.632472038269043,-6.4697265625,-0.54931640625,1.46484375
4.9274999,0.40940847992897034,-0.23104046285152435,9.606734275817871,1.983642578125,0.244140625,-2.99072265625
4.9324999,0.2861070930957794,-0.2017114907503128,9.97603988647461,4.150390625,-0.030517578125,1.28173828125
4.937499900000001,0.42676645517349243,-0.25079262256622314,9.661202430725098,4.2724609375,0.640869140625,-2.9296875
4.9424999000000005,0.2406172752380371,-0.21847090125083923,9.962273597717285,2.044677734375,-0.213623046875,1.89208984375
4.9474999,0.24660277366638184,-0.25977087020874023,9.512762069702148,-6.378173828125,-0.518798828125,0.06103515625
4.9524999,0.49320554733276367,-0.2932897210121155,9.761758804321289,5.584716796875,0.48828125,-2.471923828125
4.9574999,0.2513911724090576,-0.25977087020874023,9.90122127532959,0.030517578125,-0.335693359375,2.197265625
4.9624999,0.36152446269989014,-0.2890998423099518,9.479243278503418,-5.401611328125,-0.335693359375,-0.946044921875
4.9674999,0.48901569843292236,-0.3064578175544739,9.832387924194336,6.591796875,0.54931640625,-1.983642578125
4.9724999,0.19572599232196808,-0.23762452602386475,9.8970308303833,-2.166748046875,-0.335693359375,2.38037109375
4.977499900000001,0.3926490843296051,-0.2663549482822418,9.546280860900879,-4.0283203125,-0.030517578125,-1.77001953125
4.9824999000000005,0.42616790533065796,-0.29388827085494995,9.974244117736816,6.988525390625,0.6103515625,-1.312255859375
4.9874999,0.19452889263629913,-0.25677812099456787,9.847352027893066,-3.692626953125,-0.42724609375,2.38037109375
4.9924999,0.4578910768032074,-0.31364041566848755,9.582193374633789,-2.105712890625,0.30517578125,-2.197265625
4.9974999,0.38307225704193115,-0.2825157940387726,9.989806175231934,6.34765625,0.244140625,-0.54931640625
5.0024999,0.22385786473751068,-0.27054479718208313,9.739612579345703,-5.523681640625,-0.579833984375,1.983642578125
5.0074999,0.4489128291606903,-0.3076549172401428,9.543886184692383,0.030517578125,0.274658203125,-2.5634765625
5.0124999,0.3190273642539978,-0.24420857429504395,9.9401273727417,5.706787109375,0.274658203125,0.335693359375
5.0174999,0.20949265360832214,-0.2795230448246002,9.607333183288574,-6.40869140625,-0.396728515625,1.556396484375
5.022499900000001,0.39803603291511536,-0.26156654953956604,9.569025993347168,1.922607421875,0.30517578125,-2.899169921875
5.0274999000000005,0.28730419278144836,-0.22086510062217712,9.94970417022705,4.0283203125,0.152587890625,1.190185546875
5.0324999,0.19692309200763702,-0.25318682193756104,9.536704063415527,-6.744384765625,-0.274658203125,0.823974609375
5.0374999,0.436343252658844,-0.2669534981250763,9.636063575744629,3.814697265625,0.518798828125,-2.62451171875
5.0424999,0.2579752206802368,-0.21966800093650818,9.951498985290527,2.349853515625,-0.06103515625,1.739501953125
5.0474999,0.25019407272338867,-0.2621650993824005,9.518148422241211,-6.561279296875,-0.274658203125,-0.1220703125
5.0524999,0.49140989780426025,-0.2735375463962555,9.771934509277344,5.401611328125,0.67138671875,-2.471923828125
5.0574999,0.48961424827575684,-0.3076549172401428,9.797073364257812,6.378173828125,0.3662109375,-1.89208984375
5.062499900000001,0.1999158412218094,-0.24600422382354736,9.852140426635742,-1.739501953125,-0.091552734375,2.3193359375
5.0674999000000005,0.38127660751342773,-0.27653029561042786,9.476250648498535,-4.33349609375,0.213623046875,-1.678466796875
5.0724999,0.4273650050163269,-0.28790274262428284,9.92097282409668,7.080078125,0.762939453125,-1.28173828125
5.0774999,0.18315643072128296,-0.262763649225235,9.832986831665039,-3.753662109375,-0.30517578125,2.349853515625
5.0824999,0.44532153010368347,-0.3172317147254944,9.601346969604492,-2.471923828125,0.18310546875,-2.227783203125
5.0874999,0.3794809579849243,-0.284311443567276,10.02452278137207,6.500244140625,0.518798828125,-0.518798828125
5.0924999,0.2148796021938324,-0.2759317457675934,9.803657531738281,-5.279541015625,-0.42724609375,2.197265625
5.0974999,0.45250412821769714,-0.3166331648826599,9.57441234588623,-0.30517578125,0.244140625,-2.685546875
5.102499900000001,0.32680854201316833,-0.24899697303771973,9.96825885772705,5.859375,0.335693359375,0.244140625
5.1074999000000005,0.2106897532939911,-0.292691171169281,9.618705749511719,-6.34765625,-0.396728515625,1.617431640625
5.1124999,0.2759317457675934,-0.20470423996448517,9.949105262756348,4.21142578125,0.30517578125,0.91552734375
5.1174999,0.17956513166427612,-0.23283611238002777,9.536105155944824,-6.89697265625,-0.3662109375,0.885009765625
5.1224999,0.4159925580024719,-0.25318682193756104,9.594164848327637,3.84521484375,0.457763671875,-2.777099609375
5.1274999,0.25019407272338867,-0.2148796021938324,9.911994934082031,2.288818359375,0.152587890625,1.556396484375
5.1324999,0.23822307586669922,-0.27234044671058655,9.473258018493652,-6.34765625,-0.30517578125,0.091552734375
5.1374999,0.4884171485900879,-0.2795230448246002,9.728838920593262,5.401611328125,0.48828125,-2.44140625
5.1424999,0.2579752206802368,-0.2561795711517334,9.925761222839355,0.42724609375,-0.06103515625,2.25830078125
5.147499900000001,0.3585317134857178,-0.2902969419956207,9.502586364746094,-5.615234375,0.1220703125,-0.701904296875
5.1524999000000005,0.5039794445037842,-0.30885201692581177,9.843161582946777,6.378173828125,0.823974609375,-2.01416015625
5.1574999,0.21547815203666687,-0.24899697303771973,9.914389610290527,-1.617431640625,-0.30517578125,2.593994140625
5.1624999,0.383670836687088,-0.29149407148361206,9.528923034667969,-4.5166015625,-0.1220703125,-1.556396484375
5.1674999,0.4345476031303406,-0.29867666959762573,9.963470458984375,6.866455078125,0.518798828125,-1.556396484375
5.1724999,0.43335050344467163,-0.3345896899700165,9.587580680847168,-2.62451171875,0.396728515625,-2.166748046875
5.1774999,0.37888240814208984,-0.28550854325294495,9.997588157653809,6.7138671875,0.335693359375,-0.48828125
5.1824999,0.20290859043598175,-0.27653029561042786,9.767146110534668,-5.096435546875,-0.518798828125,2.13623046875
5.187499900000001,0.46327802538871765,-0.30705636739730835,9.545681953430176,-0.244140625,0.30517578125,-2.777099609375
5.1924999000000005,0.34656068682670593,-0.23523031175136566,9.932345390319824,5.645751953125,0.274658203125,0.274658203125
5.1974999,0.23762452602386475,-0.28371289372444153,9.619303703308105,-6.2255859375,-0.396728515625,1.556396484375
5.2024999,0.4183867573738098,-0.2555810213088989,9.570222854614258,1.617431640625,0.579833984375,-2.716064453125
5.2074999,0.2861070930957794,-0.1999158412218094,9.976638793945312,4.608154296875,0.244140625,0.9765625
5.2124999,0.17956513166427612,-0.23942017555236816,9.581595420837402,-6.53076171875,-0.30517578125,0.885009765625
5.2174999,0.4106055796146393,-0.24181437492370605,9.643245697021484,3.875732421875,0.8544921875,-2.716064453125
5.2224999,0.25258827209472656,-0.20111294090747833,9.967659950256348,2.5634765625,-0.030517578125,1.556396484375
5.227499900000001,0.23044191300868988,-0.26575639843940735,9.5223388671875,-6.439208984375,-0.1220703125,0.06103515625
5.2324999000000005,0.25677812099456787,-0.24779987335205078,9.947908401489258,0.701904296875,-0.335693359375,2.227783203125
5.2374999,0.3471592366695404,-0.2885012924671173,9.50617790222168,-5.43212890625,0,-0.823974609375
5.2424999,0.5039794445037842,-0.2890998423099518,9.835979461669922,6.622314453125,0.640869140625,-2.044677734375
