# Time (seconds),Accel_X,Accel_Y,Accel_Z,Gyro_X,Gyro_Y,Gyro_Z
0.0024999,0.8643068075180054,-0.24899697303771973,9.790489196777344,-0.335693359375,0.274658203125,0.48828125
0.0074999,0.8643068075180054,-0.24899697303771973,9.790489196777344,-0.335693359375,0.274658203125,0.48828125
0.012499900000000001,0.8212111592292786,-0.22026655077934265,9.683348655700684,0.823974609375,0.79345703125,-0.30517578125
0.0174999,0.8535329103469849,-0.1933317929506302,9.722254753112793,-0.30517578125,0.762939453125,0.732421875
0.0224999,0.8565256595611572,-0.2232593148946762,9.851541519165039,-0.9765625,-0.762939453125,-0.946044921875
0.0274999,0.861314058303833,-0.18555063009262085,9.712079048156738,0.9765625,0.457763671875,-0.30517578125
0.0324999,0.8900445103645325,-0.2017114907503128,9.747393608093262,-0.06103515625,0.30517578125,0.6103515625
0.0374999,0.8924387097358704,-0.23044191300868988,9.88745403289795,-0.732421875,-1.15966796875,-1.007080078125
0.0424999,0.8547300100326538,-0.20290859043598175,9.75278091430664,1.068115234375,-0.152587890625,-0.518798828125
0.0474999,0.8972271084785461,-0.22026655077934265,9.742605209350586,0.152587890625,0.152587890625,0.67138671875
0.0524999,0.871489405632019,-0.22385786473751068,9.88745403289795,-0.762939453125,-1.0986328125,-0.8544921875
0.0574999,0.8756792545318604,-0.2172738015651703,9.699509620666504,0.6103515625,0.518798828125,0.762939453125
0.0624999,0.849941611289978,-0.1885433793067932,9.836577415466309,-0.79345703125,-0.762939453125,-0.6103515625
0.0674999,0.8361749649047852,-0.18734627962112427,9.701904296875,0.946044921875,0.18310546875,-0.79345703125
0.0724999,0.861314058303833,-0.18734627962112427,9.687539100646973,0.396728515625,0.9765625,0.67138671875
0.0774999,0.8589198589324951,-0.15682020783424377,9.82640266418457,-0.885009765625,-0.42724609375,-0.579833984375
0.0824999,0.8325836658477783,-0.1933317929506302,9.747393608093262,0.6103515625,0.274658203125,-0.8544921875
0.0874999,0.8475474119186401,-0.20231004059314728,9.696516990661621,0.335693359375,1.007080078125,0.640869140625
0.0924999,0.8619126081466675,-0.21847090125083923,9.841365814208984,-1.0986328125,-0.518798828125,-0.30517578125
0.0974999,0.8146271109580994,-0.2364274114370346,9.782109260559082,0.274658203125,0.244140625,-0.8544921875
0.1024999,0.8373720645904541,-0.26994624733924866,9.68933391571045,0.579833984375,1.0986328125,0.640869140625
0.1074999,0.8475474119186401,-0.25318682193756104,9.834183692932129,-1.190185546875,-0.335693359375,-0.274658203125
0.1124999,0.7841010689735413,-0.24361002445220947,9.784503936767578,0.213623046875,0.091552734375,-0.9765625
0.1174999,0.8349778652191162,-0.19393034279346466,9.834781646728516,-1.190185546875,-0.48828125,-0.18310546875
0.1224999,0.7936778664588928,-0.17717093229293823,9.791686058044434,0.152587890625,-0.213623046875,-0.946044921875
0.1274999,0.8529343605041504,-0.1825578808784485,9.694721221923828,0.701904296875,0.8544921875,0.457763671875
0.1324999,0.849941611289978,-0.16101007163524628,9.834781646728516,-0.91552734375,-0.6103515625,-0.274658203125
0.1374999,0.8236053586006165,-0.18974047899246216,9.814431190490723,-0.06103515625,-0.54931640625,-1.007080078125
0.1424999,0.8696937561035156,-0.21308395266532898,9.713275909423828,0.9765625,0.6103515625,0.396728515625
0.1474999,0.8601169586181641,-0.21787235140800476,9.806051254272461,-1.03759765625,-0.54931640625,-0.1220703125
0.1524999,0.829590916633606,-0.2561795711517334,9.840168952941895,0,-0.732421875,-1.3427734375
0.1574999,0.851138710975647,-0.26156654953956604,9.710283279418945,1.15966796875,0.762939453125,0.274658203125
0.1624999,0.8248024582862854,-0.24779987335205078,9.797073364257812,-0.640869140625,-0.457763671875,0.152587890625
0.1674999,0.7882909178733826,-0.24660277366638184,9.86770248413086,-0.06103515625,-0.9765625,-1.15966796875
0.1724999,0.8140285611152649,-0.20470423996448517,9.714473724365234,0.79345703125,0.48828125,0.1220703125
0.17749990000000002,0.8098387122154236,-0.16879121959209442,9.8784761428833,-0.18310546875,-1.007080078125,-1.220703125
0.1824999,0.8535329103469849,-0.17238251864910126,9.711481094360352,1.068115234375,0.457763671875,0.06103515625
0.1874999,0.8637082576751709,-0.17956513166427612,9.775525093078613,-0.518798828125,-0.274658203125,0.335693359375
0.1924999,0.8792705535888672,-0.18734627962112427,9.88625717163086,-0.3662109375,-0.946044921875,-1.312255859375
0.1974999,0.8876502513885498,-0.2124854028224945,9.707889556884766,1.15966796875,0.54931640625,-0.06103515625
0.2024999,0.882861852645874,-0.22385786473751068,9.762955665588379,-0.335693359375,0,0.54931640625
0.20749990000000001,0.8577227592468262,-0.25318682193756104,9.871294021606445,-0.396728515625,-1.007080078125,-1.129150390625
0.2124999,0.8361749649047852,-0.24361002445220947,9.691129684448242,1.068115234375,0.48828125,-0.030517578125
0.2174999,0.8367735147476196,-0.26156654953956604,9.762357711791992,-0.396728515625,-0.030517578125,0.518798828125
0.2224999,0.8026561141014099,-0.2519897222518921,9.870096206665039,-0.823974609375,-1.129150390625,-1.28173828125
0.2274999,0.8104372620582581,-0.23762452602386475,9.698312759399414,0.91552734375,0.42724609375,-0.213623046875
0.2324999,0.8367735147476196,-0.22685061395168304,9.746196746826172,-0.213623046875,0.213623046875,0.67138671875
0.2374999,0.8481459617614746,-0.2064998894929886,9.684545516967773,0.9765625,0.701904296875,-0.274658203125
0.2424999,0.8750807046890259,-0.181959331035614,9.730035781860352,-0.18310546875,0.54931640625,0.67138671875
0.2474999,0.861314058303833,-0.22385786473751068,9.857526779174805,-1.0986328125,-0.823974609375,-0.640869140625
0.2524999,0.8571242094039917,-0.18614917993545532,9.712079048156738,0.8544921875,0.518798828125,-0.396728515625
0.2574999,0.8834604024887085,-0.20350714027881622,9.734225273132324,-0.030517578125,0.457763671875,0.579833984375
0.2624999,0.861314058303833,-0.25318682193756104,9.864709854125977,-1.129150390625,-0.79345703125,-0.79345703125
0.2674999,0.8409633636474609,-0.21368250250816345,9.724050521850586,0.579833984375,0.701904296875,-0.579833984375
0.2724999,0.8649053573608398,-0.243011474609375,9.733028411865234,-0.152587890625,0.8544921875,0.701904296875
0.2774999,0.8475474119186401,-0.23762452602386475,9.873687744140625,-1.0986328125,-0.42724609375,-0.579833984375
0.2824999,0.812831461429596,-0.20290859043598175,9.744400978088379,0.6103515625,0.67138671875,-0.579833984375
0.28749990000000003,0.8535329103469849,-0.21547815203666687,9.723451614379883,0.152587890625,1.190185546875,0.91552734375
0.2924999,0.8415619134902954,-0.17238251864910126,9.871294021606445,-1.190185546875,-0.457763671875,-0.732421875
0.2974999,0.8661024570465088,-0.17537526786327362,9.710882186889648,0.3662109375,1.03759765625,0.9765625
0.3024999,0.8667010068893433,-0.15322890877723694,9.850942611694336,-1.007080078125,-0.518798828125,-0.79345703125
0.3074999,0.8457517623901367,-0.19572599232196808,9.748590469360352,0.885009765625,0.18310546875,-0.732421875
0.3124999,0.8541314601898193,-0.2082955539226532,9.70549488067627,0.640869140625,1.03759765625,0.79345703125
0.3174999,0.8541314601898193,-0.2082955539226532,9.70549488067627,0.640869140625,1.03759765625,0.79345703125
0.3224999,0.8349778652191162,-0.24660277366638184,9.827000617980957,-0.885009765625,-0.640869140625,-0.457763671875
0.3274999,0.7817068696022034,-0.2454056739807129,9.77253246307373,0.823974609375,-0.48828125,-1.068115234375
0.3324999,0.8277952671051025,-0.2519897222518921,9.657012939453125,1.03759765625,0.54931640625,0.6103515625
0.3374999,0.8439561128616333,-0.20470423996448517,9.808445930480957,-0.762939453125,-0.79345703125,-0.274658203125
0.3424999,0.8170213103294373,-0.18076223134994507,9.818621635437012,0.3662109375,-0.701904296875,-1.068115234375
0.34749990000000003,0.8170213103294373,-0.18076223134994507,9.818621635437012,0.3662109375,-0.701904296875,-1.068115234375
0.35249990000000003,0.8601169586181641,-0.1999158412218094,9.721057891845703,1.190185546875,0.518798828125,0.579833984375
0.3574999,0.8529343605041504,-0.19692309200763702,9.823410034179688,-0.762939453125,-0.67138671875,-0.030517578125
0.3624999,0.8152256608009338,-0.22864626348018646,9.825803756713867,0.18310546875,-0.885009765625,-1.28173828125
0.3674999,0.8427590131759644,-0.24181437492370605,9.710283279418945,0.91552734375,0.48828125,0.396728515625
0.3724999,0.8158242106437683,-0.2561795711517334,9.791088104248047,-0.823974609375,-0.6103515625,-0.030517578125
0.3774999,0.7805097699165344,-0.2561795711517334,9.860519409179688,0.091552734375,-0.946044921875,-1.007080078125
0.3824999,0.8170213103294373,-0.2537853717803955,9.722254753112793,0.8544921875,0.579833984375,0.335693359375
0.3874999,0.8032546639442444,-0.21847090125083923,9.788095474243164,-0.67138671875,-0.244140625,0.091552734375
0.3924999,0.8762778043746948,-0.2148796021938324,9.771934509277344,-0.640869140625,0.274658203125,0.518798828125
0.3974999,0.8720879554748535,-0.22864626348018646,9.8970308303833,-0.885009765625,-0.6103515625,-0.9765625
0.4024999,0.8152256608009338,-0.25677812099456787,9.906009674072266,-0.701904296875,-0.518798828125,-0.732421875
0.4074999,0.7954735159873962,-0.25917232036590576,9.732429504394531,1.0986328125,1.0986328125,-0.213623046875
0.41249990000000003,0.812831461429596,-0.23283611238002777,9.79647445678711,-0.42724609375,0.518798828125,0.396728515625
0.41749990000000003,0.7906851172447205,-0.23104046285152435,9.886856079101562,-0.91552734375,-0.335693359375,-0.8544921875
0.4224999,0.8433575630187988,-0.18375498056411743,9.743802070617676,-0.274658203125,0.518798828125,0.67138671875
0.4274999,0.8379706144332886,-0.22266076505184174,9.849146842956543,-0.91552734375,-0.457763671875,-1.03759765625
0.4324999,0.8565256595611572,-0.19213469326496124,9.692925453186035,1.0986328125,0.79345703125,-0.335693359375
0.4374999,0.8918401598930359,-0.1999158412218094,9.726444244384766,-0.030517578125,0.732421875,0.640869140625
0.4424999,0.8930372595787048,-0.23822307586669922,9.849745750427246,-0.79345703125,-0.579833984375,-0.79345703125
0.4474999,0.8780734539031982,-0.21368250250816345,9.722254753112793,1.007080078125,0.518798828125,-0.335693359375
0.4524999,0.9085995554924011,-0.23942017555236816,9.738415718078613,0.244140625,0.762939453125,0.640869140625
0.4574999,0.8792705535888672,-0.2645592987537384,9.876680374145508,-0.762939453125,-0.6103515625,-0.91552734375
0.4624999,0.8331822156906128,-0.228047713637352,9.75517463684082,1.007080078125,0.42724609375,-0.67138671875
0.4674999,0.8577227592468262,-0.23762452602386475,9.733627319335938,0.396728515625,0.732421875,0.54931640625
0.47249990000000003,0.8254010081291199,-0.20709845423698425,9.882067680358887,-0.701904296875,-0.640869140625,-0.823974609375
0.47749990000000003,0.7966706156730652,-0.18555063009262085,9.742006301879883,1.068115234375,-0.091552734375,-0.67138671875
0.4824999,0.8331822156906128,-0.1496376097202301,9.851541519165039,-1.007080078125,-0.946044921875,-0.732421875
0.4874999,0.8301894664764404,-0.1693897694349289,9.725846290588379,1.007080078125,-0.244140625,-0.885009765625
0.4924999,0.8643068075180054,-0.1867477297782898,9.692327499389648,0.701904296875,0.396728515625,0.67138671875
0.4974999,0.8667010068893433,-0.1909375786781311,9.830592155456543,-0.701904296875,-0.9765625,-0.732421875
0.5024999,0.839766263961792,-0.22206220030784607,9.748590469360352,0.640869140625,-0.518798828125,-0.8544921875
0.5074999,0.8493430614471436,-0.2519897222518921,9.688735961914062,0.79345703125,0.579833984375,0.518798828125
0.5124999,0.851138710975647,-0.2388216257095337,9.82759952545166,-0.732421875,-1.03759765625,-0.6103515625
0.5174999,0.7942764163017273,-0.24241292476654053,9.769539833068848,0.518798828125,-0.640869140625,-0.9765625
0.5224999,0.8254010081291199,-0.2603694200515747,9.683947563171387,0.823974609375,0.6103515625,0.54931640625
0.5274999,0.8391677141189575,-0.21667525172233582,9.821614265441895,-0.91552734375,-0.946044921875,-0.396728515625
0.5324999,0.7912836670875549,-0.2017114907503128,9.77791976928711,0.1220703125,-0.48828125,-1.007080078125
0.5374999,0.8487445116043091,-0.21368250250816345,9.676166534423828,0.762939453125,0.91552734375,0.67138671875
0.5424999,0.8176198601722717,-0.18315643072128296,9.786299705505371,-0.06103515625,-0.457763671875,-1.15966796875
0.5474999,0.8822633028030396,-0.19273324310779572,9.68694019317627,0.701904296875,1.129150390625,0.48828125
0.5524999,0.8762778043746948,-0.18555063009262085,9.816226959228516,-1.007080078125,-0.335693359375,-0.06103515625
0.5574999,0.839766263961792,-0.2106897532939911,9.807847023010254,-0.18310546875,-0.030517578125,-1.068115234375
0.5624999,0.8684966564178467,-0.23702596127986908,9.706093788146973,0.823974609375,1.251220703125,0.54931640625
0.5674999000000001,0.8373720645904541,-0.24779987335205078,9.806051254272461,-0.9765625,-0.06103515625,0.152587890625
0.5724999000000001,0.7990648150444031,-0.2669534981250763,9.841365814208984,-0.091552734375,-0.18310546875,-1.0986328125
0.5774999000000001,0.8224082589149475,-0.2693476974964142,9.717466354370117,1.03759765625,0.946044921875,0.3662109375
0.5824999,0.8098387122154236,-0.24361002445220947,9.797672271728516,-0.6103515625,-0.152587890625,0.1220703125
0.5874999,0.788889467716217,-0.23343466222286224,9.877877235412598,0.213623046875,-0.396728515625,-1.251220703125
0.5924999,0.8236053586006165,-0.21428105235099792,9.729436874389648,1.129150390625,0.762939453125,0.30517578125
0.5974999,0.8146271109580994,-0.18375498056411743,9.789292335510254,-0.3662109375,-0.335693359375,0.213623046875
0.6024999,0.8822633028030396,-0.21128830313682556,9.694122314453125,1.15966796875,0.640869140625,-0.213623046875
0.6074999,0.8816647529602051,-0.2322375625371933,9.784503936767578,-0.579833984375,0.396728515625,0.54931640625
0.6124999,0.8649053573608398,-0.24899697303771973,9.896432876586914,-1.007080078125,-0.244140625,-0.9765625
0.6174999,0.8469488620758057,-0.25737667083740234,9.733627319335938,0.946044921875,1.28173828125,0.152587890625
0.6224999,0.8469488620758057,-0.2603694200515747,9.801861763000488,-0.30517578125,0.457763671875,0.54931640625
0.6274999,0.8050503134727478,-0.2579752206802368,9.893440246582031,-0.579833984375,-0.579833984375,-1.220703125
0.6324999,0.8098387122154236,-0.23942017555236816,9.710882186889648,1.15966796875,0.457763671875,-0.213623046875
0.6374999,0.8313865661621094,-0.2124854028224945,9.75637149810791,0.1220703125,0.06103515625,0.42724609375
0.6424999,0.8170213103294373,-0.2256535142660141,9.854534149169922,-0.6103515625,-1.007080078125,-1.007080078125
0.6474999,0.8756792545318604,-0.18315643072128296,9.729436874389648,0,0.213623046875,0.518798828125
0.6524999,0.8696937561035156,-0.2106897532939911,9.844358444213867,-0.885009765625,-0.885009765625,-1.03759765625
0.6574999,0.8684966564178467,-0.18914192914962769,9.701305389404297,0.885009765625,0.732421875,-0.42724609375
0.6624999,0.8882488012313843,-0.19871874153614044,9.738415718078613,-0.3662109375,0.732421875,0.732421875
0.6674999,0.8696937561035156,-0.25917232036590576,9.870695114135742,-1.068115234375,-0.42724609375,-0.79345703125
0.6724999,0.8379706144332886,-0.22685061395168304,9.742605209350586,0.9765625,0.701904296875,-0.54931640625
0.6774999,0.8690952062606812,-0.25258827209472656,9.75397777557373,0.274658203125,0.518798828125,0.701904296875
0.6824999,0.8529343605041504,-0.2537853717803955,9.881468772888184,-0.67138671875,-0.8544921875,-0.732421875
0.6874999,0.8158242106437683,-0.22445641458034515,9.746196746826172,1.007080078125,-0.06103515625,-0.701904296875
0.6924999000000001,0.768538773059845,-0.3908534348011017,9.609128952026367,0.06103515625,-0.18310546875,1.3427734375
0.6974999000000001,0.6171054840087891,-1.3186066150665283,9.220669746398926,-8.453369140625,-6.744384765625,12.359619140625
0.7024999000000001,0.33937808871269226,-2.321178436279297,8.2127103805542,-20.263671875,-23.681640625,69.88525390625
0.7074999,0.5237316489219666,-4.444835662841797,5.994482517242432,56.57958984375,-57.18994140625,248.71826171875
0.7124999,-0.1777694821357727,-4.777030944824219,5.904699802398682,53.3447265625,-103.69873046875,320.220947265625
0.7174999,0.34177228808403015,-3.179499864578247,4.289810657501221,92.437744140625,-69.7021484375,315.24658203125
0.7224999,-1.047463297843933,-0.26994624733924866,3.9588124752044678,113.311767578125,-5.859375,209.53369140625
0.7274999,-1.3988122940063477,0.375291109085083,4.455609321594238,61.859130859375,-4.39453125,155.1513671875
0.7324999,-1.1204863786697388,1.5286977291107178,4.22277307510376,39.520263671875,9.94873046875,112.48779296875
0.7374999,-0.33698388934135437,1.8614917993545532,4.186860084533691,-7.659912109375,14.34326171875,84.991455078125
0.7424999,0.5578489899635315,1.9578584432601929,3.9270894527435303,-48.980712890625,19.500732421875,76.080322265625
0.7474999,1.4957774877548218,1.7962498664855957,3.953425645828247,-90.789794921875,24.169921875,58.990478515625
0.7524999,2.5462334156036377,1.9865888357162476,4.246116638183594,-113.83056640625,32.1044921875,53.64990234375
0.7574999,4.181473255157471,2.6402058601379395,6.435015678405762,-111.2060546875,17.791748046875,28.9306640625
0.7624999,5.428253650665283,1.6801310777664185,7.858967304229736,-17.913818359375,33.050537109375,-7.568359375
0.7674999,4.285621166229248,1.4640543460845947,7.096413612365723,-42.633056640625,32.379150390625,-11.871337890625
0.7724999,3.5464112758636475,1.6801310777664185,6.965929985046387,-38.604736328125,44.61669921875,-17.913818359375
0.7774999,3.095104217529297,1.7956513166427612,8.233060836791992,-16.265869140625,47.943115234375,-30.76171875
0.7824999,2.760514497756958,1.933916449546814,9.584588050842285,13.73291015625,35.919189453125,-24.0478515625
0.7874999,2.3110032081604004,1.5430630445480347,10.713454246520996,13.702392578125,17.120361328125,-29.47998046875
0.7924999,1.5909470319747925,1.0211269855499268,10.98040771484375,5.157470703125,10.009765625,-25.482177734375
0.7974999,0.7428010702133179,0.39564183354377747,10.710461616516113,-4.180908203125,9.552001953125,-32.318115234375
0.8024999,-0.5608417391777039,-0.8852560520172119,9.961674690246582,-5.645751953125,10.345458984375,-21.240234375
0.8074999,-0.8188169598579407,-1.3221979141235352,9.819219589233398,-3.41796875,-0.67138671875,-6.65283203125
0.8124999,-0.7481880187988281,-1.7280150651931763,9.879075050354004,0.457763671875,-10.040283203125,-1.5869140625
0.8174999000000001,-0.43993455171585083,-1.6944962739944458,9.917980194091797,-2.25830078125,-10.650634765625,3.387451171875
0.8224999000000001,-0.010175357572734356,-1.5017629861831665,9.8599214553833,-0.457763671875,-12.969970703125,-0.762939453125
0.8274999000000001,0.5692214369773865,-1.0301052331924438,9.927556991577148,-3.47900390625,-8.97216796875,-1.556396484375
0.8324999000000001,1.062427043914795,-0.5596446394920349,9.660005569458008,0.67138671875,-3.387451171875,-1.708984375
0.8374999,1.5442601442337036,-0.22924481332302094,9.828198432922363,-2.899169921875,0.091552734375,-2.288818359375
0.8424999,1.7621324062347412,-0.017956512048840523,9.44752025604248,1.434326171875,2.86865234375,-0.335693359375
0.8474999,1.8100165128707886,-0.06464344263076782,9.767146110534668,-0.946044921875,5.4931640625,-1.77001953125
0.8524999,1.634641170501709,-0.05506663769483566,9.450512886047363,3.90625,6.34765625,0.823974609375
0.8574999,1.3239935636520386,-0.22385786473751068,9.833584785461426,-0.335693359375,3.23486328125,-2.838134765625
0.8624999,1.0396820306777954,-0.1735796183347702,9.567230224609375,3.60107421875,3.265380859375,1.708984375
0.8674999,0.7523778676986694,-0.25498247146606445,9.892841339111328,-1.64794921875,-0.885009765625,-2.410888671875
0.8724999,0.6548141837120056,-0.1562216579914093,9.636063575744629,1.556396484375,0.335693359375,2.5634765625
0.8774999,0.5997475385665894,-0.1843535304069519,9.88745403289795,-2.38037109375,-3.265380859375,-2.50244140625
0.8824999,0.6865373253822327,-0.16639702022075653,9.680954933166504,1.0986328125,-0.213623046875,2.86865234375
0.8874999,0.7817068696022034,-0.23044191300868988,9.882665634155273,-2.227783203125,-3.35693359375,-2.655029296875
0.8924999,0.910993754863739,-0.2867056429386139,9.725846290588379,1.800537109375,1.312255859375,2.838134765625
0.8974999,0.9983820915222168,-0.34835633635520935,9.876082420349121,-1.556396484375,-2.0751953125,-2.86865234375
0.9024999,1.081580638885498,-0.33758243918418884,9.724050521850586,1.953125,2.50244140625,2.716064453125
0.9074999,1.0845733880996704,-0.3357867896556854,9.855133056640625,-1.312255859375,-0.8544921875,-2.838134765625
0.9124999,1.0977414846420288,-0.27653029561042786,9.695918083190918,1.953125,3.23486328125,2.50244140625
0.9174999,1.0319008827209473,-0.2555810213088989,9.835380554199219,-1.129150390625,-1.434326171875,-2.9296875
0.9224999,1.0109516382217407,-0.21966800093650818,9.675567626953125,1.800537109375,2.74658203125,2.716064453125
0.9274999,0.9594763517379761,-0.27473464608192444,9.807249069213867,-1.52587890625,-1.89208984375,-2.9296875
0.9324999,0.9965864419937134,-0.284311443567276,9.6618013381958,1.77001953125,2.38037109375,2.166748046875
0.9374999,0.9929951429367065,-0.2992752194404602,9.847949981689453,-1.373291015625,-1.434326171875,-2.86865234375
0.9424999000000001,1.0109516382217407,-0.2795230448246002,9.668384552001953,1.922607421875,1.89208984375,2.105712890625
0.9474999000000001,0.970848798751831,-0.2687491476535797,9.888052940368652,-1.40380859375,-1.312255859375,-2.227783203125
0.9524999000000001,0.9696516990661621,-0.22685061395168304,9.658807754516602,1.922607421875,1.495361328125,2.044677734375
0.9574999000000001,0.9247604012489319,-0.23104046285152435,9.910798072814941,-1.5869140625,-1.495361328125,-2.197265625
0.9624999,0.960673451423645,-0.19931729137897491,9.600749015808105,1.861572265625,0.457763671875,1.46484375
0.9674999,0.960673451423645,-0.19931729137897491,9.600749015808105,1.861572265625,0.457763671875,1.46484375
0.9724999,0.9289502501487732,-0.28371289372444153,9.96825885772705,-1.678466796875,-0.79345703125,-1.312255859375
0.9774999,0.9552865028381348,-0.24839842319488525,9.615114212036133,1.8310546875,0.18310546875,0.762939453125
0.9824999,0.9355342984199524,-0.3489548861980438,9.965864181518555,-1.434326171875,0.244140625,-0.9765625
0.9874999,0.9457096457481384,-0.28730419278144836,9.659406661987305,1.64794921875,-0.030517578125,0.30517578125
0.9924999,1.0169371366500854,-0.33339259028434753,9.993996620178223,-1.28173828125,0.79345703125,-0.396728515625
0.9974999,0.9989806413650513,-0.26396074891090393,9.740211486816406,1.495361328125,-0.67138671875,-0.3662109375
1.0024999,1.0564415454864502,-0.21368250250816345,9.914987564086914,-0.885009765625,1.495361328125,0.30517578125
1.0074999000000002,0.9738415479660034,-0.20889410376548767,9.741408348083496,1.03759765625,-1.617431640625,-0.823974609375
1.0124999000000001,0.9391255974769592,-0.18794482946395874,9.740211486816406,-0.762939453125,1.922607421875,1.007080078125
1.0174999000000002,0.8505401611328125,-0.22685061395168304,9.698312759399414,0.396728515625,-1.861572265625,-1.708984375
1.0224999000000001,0.9534908533096313,-0.25438392162323,9.633668899536133,0.30517578125,2.349853515625,1.77001953125
1.0274999,0.9534908533096313,-0.25438392162323,9.633668899536133,0.30517578125,2.349853515625,1.77001953125
1.0324999000000001,0.9792284965515137,-0.23582886159420013,9.817423820495605,-0.54931640625,-2.8076171875,-2.62451171875
1.0374999,1.0779893398284912,-0.23942017555236816,9.734824180603027,1.0986328125,2.166748046875,2.044677734375
1.0424999000000001,1.0043675899505615,-0.24181437492370605,9.849745750427246,-1.0986328125,-2.44140625,-2.197265625
1.0474999,1.0127472877502441,-0.2885012924671173,9.714473724365234,1.617431640625,2.38037109375,1.861572265625
1.0524999000000002,0.921169102191925,-0.28730419278144836,9.86650562286377,-1.46484375,-1.52587890625,-2.288818359375
1.0574999,0.9289502501487732,-0.29568392038345337,9.618106842041016,1.800537109375,2.01416015625,1.495361328125
1.0624999000000002,0.8780734539031982,-0.29149407148361206,9.959280967712402,-1.556396484375,-0.885009765625,-1.373291015625
1.0674999,0.899621307849884,-0.2651578485965729,9.655217170715332,1.800537109375,0.396728515625,0.6103515625
1.0724999000000002,0.9175778031349182,-0.3010708689689636,10.063427925109863,-1.434326171875,0.213623046875,-0.54931640625
1.0774999,0.9133879542350769,-0.27892449498176575,9.798270225524902,1.3427734375,-0.48828125,-0.335693359375
1.0824999000000002,0.9235633015632629,-0.20709845423698425,9.785101890563965,-0.9765625,-2.410888671875,-2.227783203125
1.0874999,1.0229226350784302,-0.22505496442317963,9.701904296875,0.946044921875,2.471923828125,1.739501953125
1.0924999000000002,0.9594763517379761,-0.20889410376548767,9.8784761428833,-1.46484375,-1.800537109375,-2.13623046875
1.0974999,0.9774328470230103,-0.24779987335205078,9.621099472045898,1.40380859375,1.52587890625,1.251220703125
1.1024999000000002,0.9139865040779114,-0.2825157940387726,9.950302124023438,-1.64794921875,-0.67138671875,-1.068115234375
1.1074999,0.9247604012489319,-0.2561795711517334,9.68274974822998,1.373291015625,0.42724609375,0.1220703125
1.1124999000000002,0.9564836025238037,-0.25498247146606445,9.940725326538086,-1.068115234375,0.518798828125,-0.213623046875
1.1174999,0.9163807034492493,-0.2454056739807129,9.79647445678711,1.220703125,-1.129150390625,-0.823974609375
1.1224999000000002,0.9888052940368652,-0.23822307586669922,9.692925453186035,0.640869140625,2.410888671875,1.64794921875
1.1274999,0.9115923047065735,-0.2232593148946762,9.813833236694336,-0.823974609375,-2.0751953125,-2.13623046875
1.1324999000000002,0.9768342971801758,-0.23822307586669922,9.667187690734863,1.373291015625,1.617431640625,1.556396484375
1.1374999000000001,0.900818407535553,-0.2472013235092163,9.8784761428833,-1.617431640625,-1.556396484375,-1.77001953125
1.1424999000000002,0.9205705523490906,-0.25498247146606445,9.616311073303223,1.678466796875,0.67138671875,0.6103515625
1.1474999000000001,0.9534908533096313,-0.26096799969673157,9.995193481445312,-1.312255859375,-0.67138671875,-0.54931640625
1.1524999000000002,0.9445125460624695,-0.23582886159420013,9.73542308807373,1.220703125,-1.007080078125,-0.457763671875
1.1574999000000001,0.993593692779541,-0.25079262256622314,9.922170639038086,-0.54931640625,1.3427734375,0.640869140625
1.1624999,0.9427168965339661,-0.23582886159420013,9.80904483795166,0.30517578125,-1.556396484375,-1.708984375
1.1674999000000001,1.0127472877502441,-0.2519897222518921,9.724050521850586,0.396728515625,2.13623046875,1.434326171875
1.1724999,0.9313444495201111,-0.23104046285152435,9.768342971801758,-0.67138671875,-1.77001953125,-2.105712890625
1.1774999000000002,0.9457096457481384,-0.24361002445220947,9.822212219238281,-1.40380859375,-1.434326171875,-1.46484375
1.1824999,0.961870551109314,-0.2717418968677521,9.576807022094727,1.922607421875,0.640869140625,0.54931640625
1.1874999000000002,0.9810241460800171,-0.243011474609375,9.9185791015625,-1.0986328125,0.06103515625,-0.335693359375
1.1924999,0.9127894043922424,-0.2759317457675934,9.750985145568848,0.946044921875,-0.79345703125,-0.823974609375
1.1974999000000002,0.9534908533096313,-0.21787235140800476,9.79288387298584,-0.213623046875,1.0986328125,0.823974609375
1.2024999,0.9846154451370239,-0.375291109085083,9.895236015319824,-1.373291015625,-0.9765625,-1.007080078125
1.2074999000000002,0.9660604000091553,-0.3357867896556854,9.652822494506836,1.3427734375,-0.579833984375,-0.457763671875
1.2124999,0.9882067441940308,-0.36810851097106934,9.873088836669922,-0.67138671875,1.007080078125,0.6103515625
1.2174999000000002,1.0085574388504028,-0.20231004059314728,9.747992515563965,0.579833984375,1.861572265625,1.129150390625
1.2224999,0.9163807034492493,-0.19033902883529663,9.853337287902832,-0.91552734375,-1.8310546875,-1.983642578125
1.2274999000000002,0.9858125448226929,-0.15682020783424377,9.604938507080078,1.129150390625,2.044677734375,1.220703125
1.2324999,0.9169792532920837,-0.25498247146606445,9.909601211547852,-1.15966796875,-0.67138671875,-0.946044921875
1.2374999000000002,0.9433154463768005,-0.1999158412218094,9.68274974822998,1.312255859375,0.30517578125,-0.30517578125
1.2424999,0.9427168965339661,-0.2645592987537384,9.926959037780762,-0.823974609375,0.823974609375,0.396728515625
1.2474999000000002,0.9181763529777527,-0.1909375786781311,9.874286651611328,0.396728515625,-1.220703125,-1.434326171875
1.2524999,0.9894038438796997,-0.16160862147808075,9.79647445678711,0.579833984375,2.105712890625,1.40380859375
1.2574999000000002,0.8948329091072083,-0.17537526786327362,9.879075050354004,-0.946044921875,-1.77001953125,-1.800537109375
1.2624999000000001,0.9570821523666382,-0.18794482946395874,9.59835433959961,1.190185546875,1.52587890625,1.068115234375
1.2674999000000002,0.9289502501487732,-0.27712884545326233,9.8970308303833,-1.495361328125,-0.67138671875,-0.762939453125
1.2724999000000001,0.9103952050209045,-0.2687491476535797,9.638457298278809,1.15966796875,0.091552734375,-0.48828125
1.2774999000000002,1.0127472877502441,-0.2172738015651703,9.851541519165039,-1.129150390625,0.091552734375,-0.396728515625
1.2824999000000001,0.9283517003059387,-0.2555810213088989,9.710283279418945,0.732421875,-0.091552734375,-0.823974609375
1.2874999,0.9804255962371826,-0.21966800093650818,9.73781681060791,0.030517578125,1.678466796875,0.8544921875
1.2924999000000001,0.8690952062606812,-0.24839842319488525,9.818621635437012,-0.274658203125,-1.52587890625,-1.77001953125
1.2974999,0.9265560507774353,-0.25258827209472656,9.570821762084961,0.946044921875,1.953125,1.40380859375
1.3024999000000002,0.8667010068893433,-0.2861070930957794,9.882067680358887,-1.3427734375,-1.03759765625,-1.03759765625
1.3074999,0.9463081955909729,-0.2472013235092163,9.676166534423828,1.373291015625,0.579833984375,-0.1220703125
1.3124999000000002,0.9427168965339661,-0.2861070930957794,9.928155899047852,-0.732421875,0.67138671875,0.335693359375
1.3174999,1.0420763492584229,-0.2190694510936737,9.756970405578613,0.579833984375,1.52587890625,1.220703125
1.3224999000000002,0.9624691009521484,-0.2364274114370346,9.882067680358887,-1.068115234375,-1.46484375,-1.708984375
1.3274999,1.0121487379074097,-0.2364274114370346,9.59476375579834,1.0986328125,1.312255859375,0.640869140625
1.3324999000000002,0.9864110946655273,-0.23343466222286224,9.78869342803955,-1.03759765625,-0.274658203125,-0.18310546875
1.3374999,0.9085995554924011,-0.272938996553421,9.683947563171387,0.946044921875,-0.9765625,-1.15966796875
1.3424999000000002,1.0043675899505615,-0.2537853717803955,9.702502250671387,-0.091552734375,1.953125,1.068115234375
1.3474999,0.8750807046890259,-0.27473464608192444,9.824007987976074,-0.54931640625,-1.220703125,-1.556396484375
1.3524999000000002,0.9582792520523071,-0.28072014451026917,9.598953247070312,1.15966796875,1.861572265625,1.129150390625
1.3574999,0.9421183466911316,-0.3064578175544739,9.938331604003906,-1.312255859375,-0.640869140625,-0.701904296875
1.3624999000000002,0.899621307849884,-0.2819172441959381,9.68574333190918,0.91552734375,-0.18310546875,-0.6103515625
1.3674999,0.9409212470054626,-0.2801215946674347,9.801861763000488,-0.335693359375,1.28173828125,0.732421875
1.3724999000000002,0.8738836050033569,-0.22625206410884857,9.806650161743164,-0.244140625,-1.373291015625,-1.556396484375
1.3774999,0.9115923047065735,-0.22026655077934265,9.907805442810059,-1.068115234375,-1.03759765625,-1.0986328125
1.3824999000000002,0.9714473485946655,-0.1867477297782898,9.725846290588379,1.007080078125,0.152587890625,-0.30517578125
1.3874999000000001,0.9594763517379761,-0.25737667083740234,9.90361499786377,-0.640869140625,0.732421875,0.54931640625
1.3924999000000002,0.945111095905304,-0.21607670187950134,9.915586471557617,0,-1.312255859375,-1.5869140625
1.3974999000000001,0.9720458984375,-0.23163901269435883,9.715670585632324,0.823974609375,1.708984375,1.190185546875
1.4024999000000002,0.9002198576927185,-0.22864626348018646,9.954492568969727,-1.03759765625,-1.0986328125,-1.190185546875
1.4074999000000001,0.9852139949798584,-0.24660277366638184,9.731232643127441,1.068115234375,0.640869140625,-0.1220703125
1.4124999,0.9534908533096313,-0.2621650993824005,9.864709854125977,-0.54931640625,0.67138671875,0.274658203125
1.4174999000000001,0.982221245765686,-0.26156654953956604,9.829395294189453,0.274658203125,-1.129150390625,-1.312255859375
1.4224999,1.0330979824066162,-0.27054479718208313,9.657012939453125,0.732421875,1.739501953125,1.0986328125
1.4274999000000002,0.93254154920578,-0.26336219906806946,9.86770248413086,-0.885009765625,-1.434326171875,-1.434326171875
1.4324999,0.9852139949798584,-0.2687491476535797,9.652822494506836,1.0986328125,1.0986328125,0.213623046875
1.4374999000000002,0.9307458996772766,-0.24361002445220947,9.79647445678711,0.06103515625,-1.007080078125,-1.617431640625
1.4424999,0.9487023949623108,-0.22445641458034515,9.782708168029785,0.1220703125,-1.40380859375,-1.46484375
1.4474999000000002,0.9259575009346008,-0.25977087020874023,9.877279281616211,-1.03759765625,-0.823974609375,-1.0986328125
1.4524999,0.960673451423645,-0.2472013235092163,9.666589736938477,1.28173828125,0.640869140625,-0.244140625
1.4574999000000002,0.9127894043922424,-0.26755204796791077,9.7605619430542,-0.6103515625,0.9765625,0.42724609375
1.4624999,0.9062053561210632,-0.24600422382354736,9.78989028930664,-0.335693359375,-1.15966796875,-1.434326171875
1.4674999000000002,0.9433154463768005,-0.22625206410884857,9.529520988464355,1.0986328125,1.007080078125,1.007080078125
1.4724999,0.970848798751831,-0.29568392038345337,9.904812812805176,-0.9765625,-0.9765625,-1.03759765625
1.4774999000000002,0.9433154463768005,-0.27892449498176575,9.671378135681152,0.946044921875,-0.030517578125,-0.48828125
1.4824999,1.006163239479065,-0.3172317147254944,9.834781646728516,-0.30517578125,0.91552734375,0.8544921875
1.4874999000000002,0.8876502513885498,-0.28730419278144836,9.864709854125977,-0.457763671875,-1.556396484375,-1.52587890625
1.4924999,0.9349357485771179,-0.2472013235092163,9.622296333312988,1.15966796875,0.732421875,0.732421875
1.4974999000000002,0.9510966539382935,-0.19033902883529663,9.940725326538086,-0.885009765625,-0.42724609375,-0.48828125
1.5024999,0.9097966551780701,-0.22206220030784607,9.78989028930664,0.701904296875,-0.152587890625,-0.701904296875
1.5074999000000002,0.9193734526634216,-0.2214636504650116,9.943120002746582,-0.6103515625,-1.40380859375,-1.617431640625
1.5124999000000001,0.9193734526634216,-0.2214636504650116,9.943120002746582,-0.6103515625,-1.40380859375,-1.617431640625
1.5174999000000002,0.99479079246521,-0.24899697303771973,9.695918083190918,1.190185546875,0.946044921875,0.732421875
1.5224999000000001,0.9570821523666382,-0.25917232036590576,9.852738380432129,-0.91552734375,0.030517578125,0.06103515625
1.5274999000000002,0.9295487999916077,-0.284311443567276,9.769539833068848,0.396728515625,-0.762939453125,-1.312255859375
1.5324999000000001,1.0199298858642578,-0.26575639843940735,9.68155288696289,0.42724609375,1.0986328125,1.007080078125
1.5374999000000003,0.9080010056495667,-0.2561795711517334,9.881468772888184,-0.91552734375,-1.03759765625,-1.220703125
1.5424999000000001,1.0085574388504028,-0.24480712413787842,9.655217170715332,0.885009765625,0.823974609375,0.152587890625
1.5474999,0.9169792532920837,-0.2346317619085312,9.721057891845703,-0.701904296875,0.762939453125,0.48828125
1.5524999000000002,0.9241618514060974,-0.22924481332302094,9.737217903137207,-0.1220703125,-1.0986328125,-1.46484375
1.5574999,0.9582792520523071,-0.23582886159420013,9.485228538513184,0.67138671875,1.28173828125,0.885009765625
1.5624999000000002,0.9744400978088379,-0.2753331959247589,9.856928825378418,-1.03759765625,-0.732421875,-0.8544921875
1.5674999,1.0127472877502441,-0.22685061395168304,9.642048835754395,0.3662109375,0.91552734375,1.068115234375
1.5724999000000002,0.9020155072212219,-0.22625206410884857,9.88506031036377,-0.885009765625,-1.190185546875,-1.190185546875
1.5774999,0.9894038438796997,-0.23403321206569672,9.662399291992188,1.0986328125,0.640869140625,0.030517578125
1.5824999000000002,0.9014169573783875,-0.22625206410884857,9.733627319335938,-0.274658203125,0.335693359375,0.42724609375
1.5874999,0.9145850539207458,-0.25318682193756104,9.764751434326172,0.091552734375,-1.495361328125,-1.495361328125
1.5924999000000002,0.9361328482627869,-0.2555810213088989,9.526528358459473,1.03759765625,0.823974609375,0.732421875
1.5974999,0.9858125448226929,-0.243011474609375,9.871294021606445,-0.823974609375,-0.518798828125,-0.579833984375
1.6024999000000002,1.0618284940719604,-0.2124854028224945,9.832986831665039,0.030517578125,1.190185546875,0.8544921875
1.6074999,0.9062053561210632,-0.2472013235092163,9.9772367477417,-0.701904296875,-1.28173828125,-1.40380859375
1.6124999000000002,1.002571940422058,-0.23582886159420013,9.776124000549316,1.068115234375,0.213623046875,0.335693359375
1.6174999,0.9295487999916077,-0.24361002445220947,9.873687744140625,-0.762939453125,0.30517578125,0.244140625
1.6224999000000002,0.9319429993629456,-0.24779987335205078,9.844358444213867,0,-0.67138671875,-1.373291015625
1.6274999,0.9786299467086792,-0.24420857429504395,9.594164848327637,0.579833984375,1.739501953125,1.15966796875
1.6324999000000002,0.9888052940368652,-0.24600422382354736,9.913790702819824,-1.03759765625,-0.518798828125,-0.701904296875
1.6374999000000001,0.9600749015808105,-0.2753331959247589,9.653421401977539,0.701904296875,0.213623046875,-0.457763671875
1.6424999000000002,1.0660183429718018,-0.25737667083740234,9.786299705505371,-0.1220703125,1.068115234375,0.946044921875
1.6474999000000001,0.9265560507774353,-0.284311443567276,9.855133056640625,-0.6103515625,-1.312255859375,-1.495361328125
1.6524999000000002,1.0007762908935547,-0.2645592987537384,9.650428771972656,1.3427734375,0.579833984375,0.396728515625
1.6574999000000001,0.9349357485771179,-0.2561795711517334,9.815030097961426,-0.732421875,0.030517578125,0.274658203125
1.6624999000000003,0.945111095905304,-0.22026655077934265,9.631275177001953,0.42724609375,1.495361328125,0.8544921875
1.6674999000000001,0.9510966539382935,-0.22266076505184174,9.959878921508789,-0.9765625,-0.762939453125,-0.79345703125
1.6724999,0.9175778031349182,-0.243011474609375,9.668983459472656,0.54931640625,-0.274658203125,-0.518798828125
1.6774999000000002,1.0295066833496094,-0.243011474609375,9.780912399291992,0,0.48828125,0.79345703125
1.6824999,0.8966285586357117,-0.2825157940387726,9.84376049041748,-0.6103515625,-1.312255859375,-1.617431640625
1.6874999000000002,0.99479079246521,-0.26575639843940735,9.642048835754395,1.15966796875,0.732421875,0.18310546875
1.6924999,0.9289502501487732,-0.25917232036590576,9.757569313049316,-0.67138671875,0.18310546875,0.335693359375
1.6974999000000002,0.9241618514060974,-0.2519897222518921,9.7791166305542,-0.030517578125,-1.03759765625,-1.3427734375
1.7024999,0.9463081955909729,-0.24660277366638184,9.57860279083252,0.54931640625,1.953125,1.007080078125
1.7074999000000002,0.960673451423645,-0.21009120345115662,9.889249801635742,-0.762939453125,-0.396728515625,-0.6103515625
1.7124999,0.9068039059638977,-0.25737667083740234,9.68155288696289,0.67138671875,-0.091552734375,-0.732421875
1.7174999000000002,1.0295066833496094,-0.21128830313682556,9.77133560180664,0,1.739501953125,0.885009765625
1.7224999,0.9756371974945068,-0.24241292476654053,9.709685325622559,0.732421875,0.823974609375,0.213623046875
1.7274999000000002,0.8720879554748535,-0.25079262256622314,9.758766174316406,-0.274658203125,-0.06103515625,0.244140625
1.7324999,0.9020155072212219,-0.28790274262428284,9.806051254272461,0.091552734375,-1.5869140625,-1.40380859375
1.7374999000000002,0.9265560507774353,-0.2783259451389313,9.570222854614258,0.3662109375,1.678466796875,0.91552734375
1.7424999,0.9684545993804932,-0.2801215946674347,9.795876502990723,-0.732421875,-0.213623046875,-0.48828125
1.7474999000000002,0.9546879529953003,-0.2759317457675934,9.750985145568848,0.732421875,-0.54931640625,-1.068115234375
1.7524999,1.0666168928146362,-0.25258827209472656,9.731232643127441,0.732421875,1.007080078125,0.8544921875
1.7574999000000002,0.9911994934082031,-0.26994624733924866,9.987412452697754,-0.6103515625,-1.007080078125,-1.251220703125
1.7624999000000001,0.9774328470230103,-0.27234044671058655,9.75397777557373,1.068115234375,0.1220703125,-0.335693359375
1.7674999000000002,0.9953893423080444,-0.2783259451389313,9.852738380432129,-0.1220703125,1.3427734375,0.732421875
1.7724999000000001,0.8637082576751709,-0.26156654953956604,9.852738380432129,-0.274658203125,-0.946044921875,-1.373291015625
1.7774999000000002,0.9469067454338074,-0.2651578485965729,9.683947563171387,0.762939453125,0.732421875,0.48828125
1.7824999000000001,0.9923965930938721,-0.2106897532939911,9.648633003234863,0.42724609375,1.28173828125,0.885009765625
1.7874999000000003,1.006163239479065,-0.18495208024978638,9.947908401489258,-0.9765625,-0.274658203125,-0.640869140625
1.7924999000000001,0.9534908533096313,-0.23762452602386475,9.679159164428711,0.640869140625,0.1220703125,-0.6103515625
1.7974999,1.0606313943862915,-0.2082955539226532,9.758766174316406,0.091552734375,1.434326171875,0.946044921875
1.8024999000000002,0.871489405632019,-0.2579752206802368,9.897629737854004,-0.823974609375,-0.732421875,-1.28173828125
1.8074999,0.9630676507949829,-0.26815059781074524,9.640851974487305,0.946044921875,0.640869140625,0.030517578125
1.8124999000000002,0.8888474106788635,-0.2663549482822418,9.73781681060791,-0.579833984375,0.946044921875,0.732421875
1.8174999,0.8702923059463501,-0.30466216802597046,9.810839653015137,-0.3662109375,-1.007080078125,-1.46484375
1.8224999000000002,0.945111095905304,-0.3064578175544739,9.632472038269043,0.91552734375,0.396728515625,0.579833984375
1.8274999,0.945111095905304,-0.2735375463962555,9.891644477844238,-0.701904296875,-0.091552734375,0
1.8324999000000002,0.9642647504806519,-0.2717418968677521,9.843161582946777,0.30517578125,-0.701904296875,-1.190185546875
1.8374999,1.0432734489440918,-0.2190694510936737,9.713275909423828,0.48828125,1.15966796875,0.9765625
1.8424999000000002,1.0660183429718018,-0.20769700407981873,9.767744064331055,0.213623046875,0.885009765625,0.79345703125
1.8474999,0.8750807046890259,-0.25258827209472656,9.88506031036377,-0.42724609375,-1.373291015625,-1.373291015625
1.8524999000000002,0.9594763517379761,-0.2579752206802368,9.608530044555664,1.129150390625,-0.06103515625,-0.06103515625
1.8574999,0.8852560520172119,-0.24660277366638184,9.718663215637207,-0.213623046875,0.457763671875,0.518798828125
1.8624999000000002,0.8547300100326538,-0.2819172441959381,9.77672290802002,-0.30517578125,-1.434326171875,-1.251220703125
1.8674999,0.9331400990486145,-0.2867056429386139,9.632472038269043,0.91552734375,0.8544921875,0.518798828125
1.8724999000000002,0.9187749028205872,-0.25737667083740234,9.851541519165039,-0.701904296875,0.244140625,-0.152587890625
1.8774999,0.9481038451194763,-0.2585737705230713,9.816226959228516,0.274658203125,-0.640869140625,-1.190185546875
1.8824999000000002,1.015141487121582,-0.23582886159420013,9.680954933166504,0.732421875,0.8544921875,0.79345703125
1.8874999000000001,1.0307037830352783,-0.19931729137897491,9.906009674072266,-0.823974609375,-0.335693359375,-0.762939453125
1.8924999000000002,1.072602391242981,-0.2388216257095337,9.701904296875,0.396728515625,0.732421875,1.007080078125
1.8974999000000001,0.9534908533096313,-0.272938996553421,9.905410766601562,-0.732421875,-1.15966796875,-1.28173828125
1.9024999000000002,0.9552865028381348,-0.3064578175544739,9.674370765686035,0.54931640625,0.152587890625,-0.244140625
1.9074999000000001,0.9923965930938721,-0.3076549172401428,9.809642791748047,-0.54931640625,1.0986328125,0.885009765625
1.9124999000000003,0.8702923059463501,-0.30466216802597046,9.844358444213867,-0.457763671875,-0.79345703125,-1.251220703125
1.9174999000000001,0.9792284965515137,-0.27892449498176575,9.718663215637207,0.823974609375,1.28173828125,0.152587890625
1.9224999,0.9097966551780701,-0.2519897222518921,9.789292335510254,-0.06103515625,-0.946044921875,-1.068115234375
1.9274999000000002,0.9199720025062561,-0.22924481332302094,9.604340553283691,0.640869140625,0.9765625,0.823974609375
1.9324999,0.9331400990486145,-0.24779987335205078,9.823410034179688,-0.640869140625,-0.42724609375,-0.396728515625
1.9374999000000002,0.933738648891449,-0.24839842319488525,9.782109260559082,0.762939453125,-1.190185546875,-1.129150390625
1.9424999,1.0217255353927612,-0.22505496442317963,9.698312759399414,0.274658203125,1.861572265625,0.9765625
1.9474999000000002,1.01753568649292,-0.22744916379451752,10.052056312561035,-0.946044921875,-0.640869140625,-0.701904296875
1.9524999,0.9624691009521484,-0.2495955228805542,9.748590469360352,0.946044921875,-1.007080078125,-0.640869140625
1.9574999000000002,1.060032844543457,-0.22445641458034515,9.792284965515137,-0.030517578125,1.46484375,0.91552734375
1.9624999,0.8918401598930359,-0.26336219906806946,9.903017044067383,-0.762939453125,-0.640869140625,-1.0986328125
1.9674999000000002,0.9433154463768005,-0.2621650993824005,9.588777542114258,1.0986328125,0.457763671875,-0.091552734375
1.9724999,0.945111095905304,-0.2717418968677521,9.734824180603027,-0.030517578125,0.42724609375,0.732421875
1.9774999000000002,0.8667010068893433,-0.2908954918384552,9.766547203063965,-0.18310546875,-1.495361328125,-1.40380859375
1.9824999,0.9876081943511963,-0.2974795699119568,9.674968719482422,1.068115234375,0.091552734375,0.06103515625
1.9874999000000002,0.9181763529777527,-0.25079262256622314,9.727043151855469,-0.244140625,-0.18310546875,-0.1220703125
1.9924999,0.9415197968482971,-0.27234044671058655,9.773730278015137,0.335693359375,-1.556396484375,-1.15966796875
1.9974999000000002,0.9516952037811279,-0.2472013235092163,9.608530044555664,0.885009765625,0.6103515625,0.701904296875
2.0024999,1.0073603391647339,-0.1933317929506302,10.050858497619629,-0.823974609375,-0.9765625,-0.67138671875
2.0074999,0.950498104095459,-0.2106897532939911,9.742605209350586,0.732421875,-1.007080078125,-0.8544921875
2.0124999000000003,1.0534487962722778,-0.22026655077934265,9.77133560180664,-0.091552734375,1.953125,0.885009765625
2.0174999000000002,0.9469067454338074,-0.2825157940387726,9.905410766601562,-0.579833984375,-0.823974609375,-0.946044921875
2.0224999,0.945111095905304,-0.3058592677116394,9.619303703308105,1.15966796875,-0.67138671875,-0.3662109375
2.0274999,1.002571940422058,-0.30526071786880493,9.716269493103027,-0.30517578125,0.885009765625,0.701904296875
2.0324999000000004,0.8475474119186401,-0.3064578175544739,9.807249069213867,-0.6103515625,-0.79345703125,-1.220703125
2.0374999000000003,0.9612720012664795,-0.2603694200515747,9.665990829467773,0.823974609375,1.0986328125,0.335693359375
2.0424999,0.8738836050033569,-0.2148796021938324,9.720458984375,-0.42724609375,0.762939453125,0.518798828125
2.0474999,0.8732850551605225,-0.23044191300868988,9.821614265441895,-0.244140625,-0.823974609375,-1.46484375
2.0524999,0.9295487999916077,-0.23343466222286224,9.663596153259277,0.946044921875,1.007080078125,0.701904296875
2.0574999000000003,0.9768342971801758,-0.23942017555236816,9.743204116821289,0.152587890625,-0.8544921875,-1.068115234375
2.0624999,1.0468647480010986,-0.2190694510936737,9.658209800720215,0.762939453125,0.48828125,0.732421875
2.0674999,1.013944387435913,-0.20111294090747833,10.017339706420898,-0.732421875,-0.732421875,-0.946044921875
2.0724999,0.9493009448051453,-0.2172738015651703,9.73781681060791,0.42724609375,0.244140625,-0.640869140625
2.0774999000000003,1.035492181777954,-0.23343466222286224,9.786299705505371,0.335693359375,0.701904296875,0.732421875
2.0824999,0.9959878921508789,-0.32381579279899597,10.002376556396484,-0.579833984375,-1.007080078125,-1.800537109375
2.0874999,1.213860273361206,-0.8702923059463501,9.812037467956543,1.708984375,2.838134765625,-4.21142578125
2.0924999,1.7717092037200928,-1.4059948921203613,10.146626472473145,9.70458984375,16.937255859375,-20.1416015625
2.0974999000000003,2.4618380069732666,-2.8215668201446533,9.123106002807617,18.798828125,43.5791015625,-64.14794921875
2.1024999,4.572925090789795,-5.762245178222656,5.783194065093994,-27.587890625,76.0498046875,-98.968505859375
2.1074999,5.188833713531494,-6.4080810546875,4.055179119110107,-18.402099609375,47.54638671875,0.54931640625
2.1124999,4.930259704589844,-5.692214488983154,2.3505074977874756,40.802001953125,12.5732421875,125.48828125
2.1174999000000003,3.3488895893096924,-4.566939830780029,1.6514005661010742,48.828125,-41.748046875,199.920654296875
2.1224999,1.5322890281677246,-1.489791989326477,1.8920178413391113,30.609130859375,-97.59521484375,174.1943359375
2.1274999,-0.7218518257141113,0.7954735159873962,2.632424831390381,7.904052734375,-71.990966796875,127.166748046875
2.1324999,-2.321777105331421,3.2106244564056396,4.042609691619873,-8.1787109375,-65.85693359375,85.052490234375
2.1374999000000003,-2.9706058502197266,4.912901878356934,5.61799430847168,-27.16064453125,-69.915771484375,85.38818359375
2.1424999000000002,-2.801814556121826,5.876567840576172,7.2783732414245605,-15.533447265625,-31.036376953125,79.010009765625
2.1474999,-2.123656988143921,6.0303955078125,8.837596893310547,4.180908203125,9.857177734375,57.891845703125
2.1524999,-1.0630255937576294,5.6640825271606445,9.638457298278809,32.65380859375,30.76171875,52.337646484375
2.1574999000000004,-1.0630255937576294,5.6640825271606445,9.638457298278809,32.65380859375,30.76171875,52.337646484375
2.1624999000000003,1.6711528301239014,2.4402899742126465,8.89685344696045,-16.4794921875,10.07080078125,-27.52685546875
2.1674999,1.9345149993896484,1.789067268371582,9.279925346374512,-11.322021484375,21.942138671875,-25.69580078125
2.1724999,1.9369091987609863,0.8595184087753296,9.551667213439941,0.274658203125,23.712158203125,-29.9072265625
2.1774999000000004,1.7256208658218384,-0.34596213698387146,10.069414138793945,-7.87353515625,15.716552734375,-34.72900390625
2.1824999000000003,1.449090600013733,-1.3449428081512451,10.195109367370605,-3.631591796875,9.3994140625,-22.216796875
2.1874999,0.9816226959228516,-2.1074960231781006,10.145429611206055,1.28173828125,6.134033203125,-27.587890625
2.1924999,0.6655880808830261,-2.491166830062866,10.263343811035156,-2.532958984375,2.62451171875,-17.27294921875
2.1974999,0.4165911078453064,-2.3959972858428955,9.859322547912598,2.8076171875,-4.425048828125,-11.8408203125
2.2024999000000003,1.3078327178955078,-0.1256955862045288,9.816226959228516,-3.72314453125,0.823974609375,3.143310546875
2.2074999,1.3078327178955078,-0.1256955862045288,9.816226959228516,-3.72314453125,0.823974609375,3.143310546875
2.2124999,1.5364789962768555,0.14604631066322327,9.452308654785156,2.716064453125,-1.312255859375,0.48828125
2.2174999,1.5514427423477173,0.22625206410884857,9.725247383117676,-4.21142578125,3.173828125,-4.180908203125
2.2224999000000003,1.5765818357467651,0.04369417950510979,9.563638687133789,2.01416015625,6.34765625,3.11279296875
2.2274999,1.303044319152832,-0.14664486050605774,9.692327499389648,1.8310546875,0.152587890625,-7.537841796875
2.2324999,1.1988965272903442,-0.32441434264183044,9.850942611694336,-1.40380859375,7.32421875,3.35693359375
2.2374999,0.9971849918365479,-0.42197805643081665,9.62828254699707,4.33349609375,-2.38037109375,-1.77001953125
2.2424999000000003,0.838569164276123,-0.39145198464393616,9.998186111450195,-3.509521484375,1.678466796875,0.091552734375
2.2474999,0.8762778043746948,-0.3489548861980438,9.676764488220215,3.11279296875,0.1220703125,3.570556640625
2.2524999,0.768538773059845,-0.26336219906806946,9.946710586547852,-1.495361328125,-4.33349609375,-4.791259765625
2.2574999,0.9085995554924011,-0.23044191300868988,9.697713851928711,2.0751953125,-4.791259765625,-4.8828125
2.2624999000000003,0.9828197956085205,-0.23822307586669922,9.901819229125977,-3.23486328125,3.753662109375,2.25830078125
2.2674999000000002,1.0426748991012573,-0.2908954918384552,9.546280860900879,3.84521484375,-2.01416015625,-0.79345703125
2.2724999,0.9762357473373413,-0.2711433470249176,9.912593841552734,-3.11279296875,0.030517578125,-2.593994140625
2.2774999,1.106719732284546,-0.2998737692832947,9.649829864501953,2.105712890625,2.532958984375,4.0283203125
2.2824999000000004,0.982221245765686,-0.2687491476535797,9.867103576660156,-0.244140625,-3.72314453125,-5.523681640625
2.2874999000000003,1.1019313335418701,-0.26755204796791077,9.85034465789795,-1.03759765625,4.913330078125,5.126953125
2.2924999,0.9906009435653687,-0.26096799969673157,9.682151794433594,2.471923828125,-4.241943359375,-5.06591796875
2.2974999,1.0007762908935547,-0.22625206410884857,9.888651847839355,-3.173828125,3.936767578125,2.5634765625
2.3024999000000004,1.0205284357070923,-0.25977087020874023,9.506776809692383,3.448486328125,-2.044677734375,-1.007080078125
2.3074999000000003,0.9271546006202698,-0.2298433631658554,9.895833969116211,-3.11279296875,-0.06103515625,-1.251220703125
2.3124999,1.058835744857788,-0.30226796865463257,9.566631317138672,2.471923828125,1.312255859375,2.99072265625
2.3174999,1.0690110921859741,-0.314238965511322,9.763554573059082,0.18310546875,4.0283203125,5.0048828125
2.3224999,1.0833762884140015,-0.3148375153541565,9.934141159057617,-1.617431640625,4.33349609375,4.608154296875
2.3274999000000003,1.0055646896362305,-0.30466216802597046,9.62947940826416,2.62451171875,-3.570556640625,-3.72314453125
2.3324999,1.037886381149292,-0.27892449498176575,9.95329475402832,-2.960205078125,2.9296875,1.89208984375
2.3374999,1.0678139925003052,-0.28730419278144836,9.530119895935059,3.173828125,-1.220703125,-0.946044921875
2.3424999,0.9744400978088379,-0.22266076505184174,9.906607627868652,-2.9296875,0.30517578125,-1.678466796875
2.3474999000000003,1.0564415454864502,-0.24660277366638184,9.567230224609375,2.593994140625,1.373291015625,2.50244140625
2.3524999,0.9163807034492493,-0.23762452602386475,9.952696800231934,-1.800537109375,-2.227783203125,-4.0283203125
2.3574999,1.048660397529602,-0.3016694188117981,9.790489196777344,1.495361328125,3.41796875,4.547119140625
2.3624999,0.9229647517204285,-0.24600422382354736,9.888651847839355,-0.42724609375,-3.2958984375,-5.828857421875
2.3674999000000003,1.070208191871643,-0.28790274262428284,9.849146842956543,-0.30517578125,4.180908203125,4.913330078125
2.3724999,1.0899603366851807,-0.2603694200515747,9.876680374145508,-1.861572265625,3.5400390625,4.39453125
2.3774999,1.0564415454864502,-0.24839842319488525,9.592369079589844,2.532958984375,-3.90625,-3.47900390625
2.3824999,1.1528080701828003,-0.15023615956306458,9.970054626464844,-1.77001953125,1.40380859375,4.425048828125
2.3874999000000003,1.2874820232391357,-0.01735796220600605,9.608530044555664,3.936767578125,-1.007080078125,1.434326171875
2.3924999000000002,1.2407950162887573,0.10714052617549896,9.880870819091797,-3.509521484375,-3.509521484375,5.462646484375
2.3974999,1.382651448249817,0.1999158412218094,9.502586364746094,3.96728515625,3.753662109375,6.9580078125
2.4024999,1.2611457109451294,0.09217676520347595,9.521739959716797,1.617431640625,2.349853515625,7.598876953125
2.4074999000000004,1.0749965906143188,-0.10833762586116791,9.99339771270752,-1.40380859375,-2.62451171875,2.593994140625
2.4124999000000003,1.213860273361206,-0.035913024097681046,9.633668899536133,3.41796875,0.18310546875,10.284423828125
2.4174999,1.1228805780410767,-0.08379705995321274,9.931148529052734,1.373291015625,-5.06591796875,4.39453125
2.4224999,1.3623007535934448,0.09816227108240128,9.731831550598145,2.471923828125,-2.44140625,14.862060546875
2.4274999000000004,1.4951789379119873,0.28131869435310364,9.716269493103027,0.9765625,-0.885009765625,16.387939453125
2.4324999000000003,1.4347254037857056,0.21368250250816345,9.718064308166504,0.9765625,2.50244140625,9.46044921875
2.4374999,1.5286977291107178,0.3315969407558441,9.626486778259277,0.518798828125,-0.885009765625,18.49365234375
2.4424999,1.469441294670105,0.08200141042470932,9.4636812210083,2.960205078125,3.570556640625,12.87841796875
2.4474999,1.467047095298767,0.08499415963888168,9.604340553283691,1.40380859375,1.40380859375,20.477294921875
2.4524999000000003,1.3120225667953491,-0.2519897222518921,9.353547096252441,2.593994140625,7.4462890625,14.739990234375
2.4574999,1.2665326595306396,-0.18495208024978638,9.586981773376465,0.885009765625,1.03759765625,20.538330078125
2.4624999,1.0833762884140015,-0.414795458316803,9.372700691223145,4.33349609375,6.134033203125,16.11328125
2.4674999,1.0283095836639404,-0.31124621629714966,9.724648475646973,0.732421875,2.0751953125,19.287109375
2.4724999000000003,0.8427590131759644,-0.5530605912208557,9.52114200592041,6.7138671875,6.866455078125,13.458251953125
2.4774999,0.7841010689735413,-0.5506663918495178,10.001777648925781,-2.685546875,3.570556640625,13.61083984375
2.4824999,0.2753331959247589,-1.0546458959579468,10.099940299987793,-2.777099609375,0.1220703125,7.232666015625
2.4874999,0.14784196019172668,-1.0342950820922852,9.610923767089844,4.39453125,-0.1220703125,4.119873046875
2.4924999000000003,0.27892449498176575,-0.8068459630012512,9.86770248413086,-1.708984375,-2.349853515625,4.45556640625
2.4974999,0.3082534670829773,-0.7092822790145874,9.386467933654785,4.94384765625,-2.99072265625,1.434326171875
2.5024999,0.5410895943641663,-0.3842693865299225,9.533711433410645,-2.471923828125,-0.8544921875,2.8076171875
2.5074999,0.6290764808654785,-0.3387795388698578,9.068038940429688,1.678466796875,-0.457763671875,-2.471923828125
2.5124999000000003,0.8667010068893433,-0.15741875767707825,9.38048267364502,-2.685546875,0.030517578125,0.244140625
2.5174999000000002,0.9014169573783875,-0.21128830313682556,9.023147583007812,2.50244140625,0.579833984375,-2.8076171875
2.5224999,1.0516531467437744,-0.17298106849193573,9.37629222869873,-2.349853515625,0.152587890625,0.9765625
2.5274999,1.0013748407363892,-0.304063618183136,9.020753860473633,2.288818359375,-0.244140625,-2.86865234375
2.5324999000000004,0.8786720037460327,-0.375291109085083,9.028534889221191,0.823974609375,-1.068115234375,-3.448486328125
2.5374999000000003,1.0091559886932373,-0.20530278980731964,9.469067573547363,-0.518798828125,0.579833984375,2.166748046875
2.5424999,0.9235633015632629,-0.31603461503982544,9.206902503967285,-0.1220703125,-0.762939453125,-3.11279296875
2.5474999,1.0642226934432983,-0.1280897855758667,9.624691009521484,0.030517578125,0.030517578125,3.265380859375
2.5524999000000004,1.0540473461151123,-0.19033902883529663,9.384073257446289,-0.48828125,-1.03759765625,-2.9296875
2.5574999000000003,1.1665748357772827,-0.07841010391712189,9.517550468444824,1.251220703125,-0.152587890625,4.241943359375
2.5624999,1.1336544752120972,-0.13347674906253815,9.316437721252441,-1.556396484375,-0.640869140625,-2.593994140625
2.5674999,1.2132617235183716,-0.1430535465478897,9.4014310836792,1.8310546875,-0.823974609375,5.2490234375
2.5724999,1.0684125423431396,-0.21607670187950134,9.288904190063477,-2.593994140625,0.152587890625,-2.01416015625
2.5774999000000003,1.138442873954773,-0.2059013396501541,9.430760383605957,2.74658203125,-0.9765625,5.523681640625
2.5824999,1.0552444458007812,-0.40282443165779114,9.510367393493652,5.67626953125,1.03759765625,2.8076171875
2.5874999,1.0097545385360718,-0.4554968774318695,9.810839653015137,-9.1552734375,3.692626953125,1.708984375
2.5924999,0.945111095905304,-0.4321534037590027,9.904812812805176,4.69970703125,0.91552734375,0.640869140625
2.5974999000000003,1.0073603391647339,-0.4596867263317108,10.108319282531738,-10.498046875,3.265380859375,1.800537109375
2.6024999,0.8331822156906128,-0.365115761756897,9.955689430236816,2.532958984375,-0.3662109375,-0.335693359375
2.6074999,0.9283517003059387,-0.30885201692581177,9.931747436523438,-9.765625,2.01416015625,3.509521484375
2.6124999,0.8026561141014099,-0.4010287821292877,9.600749015808105,-3.875732421875,1.007080078125,-3.60107421875
2.6174999000000003,0.9929951429367065,-0.4058171808719635,9.643844604492188,3.387451171875,-0.67138671875,0.30517578125
2.6224999,0.812831461429596,-0.49799394607543945,9.4822359085083,-3.47900390625,1.373291015625,-3.448486328125
2.6274999,0.9355342984199524,-0.4381389021873474,9.482834815979004,10.6201171875,-1.8310546875,-1.495361328125
2.6324999,0.8631097078323364,-0.524330198764801,9.501988410949707,-0.30517578125,0.8544921875,-3.082275390625
2.6374999000000003,0.8720879554748535,-0.48482584953308105,9.434351921081543,16.29638671875,-2.471923828125,-3.7841796875
2.6424999000000002,0.9570821523666382,-0.5027823448181152,9.701904296875,4.8828125,-0.030517578125,-3.387451171875
2.6474999,0.8732850551605225,-0.3860650360584259,9.41639518737793,9.490966796875,1.64794921875,-6.683349609375
2.6524999,1.0342950820922852,-0.1538274586200714,9.493009567260742,-0.762939453125,1.861572265625,-4.119873046875
2.6574999000000004,1.058835744857788,0.13587094843387604,9.10574722290039,1.190185546875,-2.655029296875,0.762939453125
2.6624999000000003,0.8361749649047852,-0.2064998894929886,9.454702377319336,-2.777099609375,-1.5869140625,-5.828857421875
2.6674999,0.8798691034317017,-0.24480712413787842,9.059061050415039,1.739501953125,-1.89208984375,-2.9296875
2.6724999,0.8864531517028809,-0.33758243918418884,9.602544784545898,-3.265380859375,0.42724609375,-5.2490234375
2.6774999000000004,0.8684966564178467,-0.3800795078277588,9.252392768859863,1.220703125,-2.3193359375,-5.0048828125
2.6824999000000003,1.0187327861785889,-0.3489548861980438,9.744999885559082,-1.89208984375,0.67138671875,-3.47900390625
2.6874999,0.9510966539382935,-0.37409400939941406,9.701305389404297,0.579833984375,-1.251220703125,-7.659912109375
2.6924999,1.0666168928146362,-0.25498247146606445,9.706692695617676,-1.617431640625,0.54931640625,-2.99072265625
2.6974999,0.9415197968482971,-0.3064578175544739,9.881468772888184,-0.91552734375,-0.6103515625,-8.209228515625
2.7024999000000003,1.1444283723831177,-0.2777273952960968,9.571419715881348,-0.3662109375,0.244140625,-2.3193359375
2.7074999,1.3263877630233765,-0.3908534348011017,9.444527626037598,2.044677734375,1.007080078125,3.5400390625
2.7124999,1.3934253454208374,-0.45848962664604187,9.925761222839355,-2.655029296875,0.823974609375,4.486083984375
2.7174999,1.3970166444778442,-0.5620388388633728,9.547477722167969,3.11279296875,3.448486328125,4.08935546875
2.7224999000000003,1.4036006927490234,-0.5488707423210144,9.856329917907715,0.518798828125,2.593994140625,5.035400390625
2.7274999,1.171961784362793,-0.5464765429496765,9.740211486816406,4.82177734375,2.471923828125,1.52587890625
2.7324999,1.2246341705322266,-0.3148375153541565,9.672574996948242,1.5869140625,3.753662109375,8.30078125
2.7374999,1.058835744857788,-0.26156654953956604,9.904812812805176,1.434326171875,1.708984375,5.462646484375
2.7424999000000003,1.1713632345199585,-0.05985504388809204,9.528324127197266,2.471923828125,2.74658203125,12.054443359375
2.7474999,1.1713632345199585,-0.05985504388809204,9.528324127197266,2.471923828125,2.74658203125,12.054443359375
2.7524999,1.0085574388504028,-0.12210428714752197,10.022128105163574,-0.885009765625,2.227783203125,7.232666015625
2.7574999,1.0295066833496094,-0.09217676520347595,9.552266120910645,2.99072265625,3.936767578125,7.232666015625
2.7624999000000003,1.0097545385360718,-0.16160862147808075,10.016741752624512,-1.068115234375,1.739501953125,9.09423828125
2.7674999000000002,0.9103952050209045,-0.38905778527259827,9.840168952941895,0.30517578125,1.068115234375,8.97216796875
2.7724999,0.9840168952941895,-0.3148375153541565,9.375694274902344,3.90625,2.532958984375,11.77978515625
2.7774999,0.9385270476341248,-0.2753331959247589,9.861717224121094,-0.518798828125,0.67138671875,10.68115234375
2.7824999000000004,0.8098387122154236,-0.21787235140800476,9.734824180603027,3.47900390625,1.434326171875,6.2255859375
2.7874999000000003,0.8271966576576233,-0.10175357013940811,9.84615421295166,0.18310546875,2.62451171875,7.99560546875
2.7924999,0.536899745464325,-0.09397241473197937,10.02691650390625,0.6103515625,1.007080078125,-0.762939453125
2.7974999,0.6087257862091064,-0.07242459803819656,9.642647743225098,0.579833984375,0.762939453125,3.387451171875
2.8024999000000004,0.3645172119140625,-0.10115502029657364,9.963470458984375,-1.953125,-2.105712890625,-0.885009765625
2.8074999000000003,0.50876784324646,-0.1735796183347702,9.545083999633789,1.190185546875,-3.72314453125,0.6103515625
2.8124999,0.9552865028381348,-0.1975216418504715,9.680954933166504,-1.922607421875,-2.532958984375,1.678466796875
2.8174999,0.9552865028381348,-0.1975216418504715,9.680954933166504,-1.922607421875,-2.532958984375,1.678466796875
2.8224999,0.9050082564353943,-0.20530278980731964,9.921571731567383,-1.28173828125,-3.875732421875,-4.119873046875
2.8274999000000003,1.1288660764694214,-0.2711433470249176,9.533112525939941,0.18310546875,-1.40380859375,-0.457763671875
2.8324999,1.062427043914795,-0.2944868206977844,10.020332336425781,-2.197265625,-1.739501953125,-3.204345703125
2.8374999,1.0330979824066162,-0.3477577865123749,9.632472038269043,1.556396484375,-2.50244140625,-3.5400390625
2.8424999,1.0468647480010986,-0.2974795699119568,9.873687744140625,-2.25830078125,-0.1220703125,-0.823974609375
2.8474999000000003,0.8750807046890259,-0.3280056416988373,9.753378868103027,0.335693359375,-2.105712890625,-5.157470703125
2.8524999,1.0247182846069336,-0.30226796865463257,9.527725219726562,-0.762939453125,-0.244140625,-0.30517578125
2.8574999,0.8643068075180054,-0.2711433470249176,9.827000617980957,-1.312255859375,-1.220703125,-4.608154296875
2.8624999,1.0743980407714844,-0.3728969097137451,9.474454879760742,1.0986328125,-0.946044921875,-0.54931640625
2.8674999000000003,1.1001356840133667,-0.28550854325294495,9.92097282409668,-1.5869140625,-0.213623046875,0.42724609375
2.8724999,1.3048399686813354,-0.2801215946674347,9.813234329223633,-0.67138671875,1.5869140625,3.11279296875
2.8774999,1.083974838256836,-0.24241292476654053,9.972448348999023,-0.42724609375,-0.54931640625,-2.044677734375
2.8824999,1.01753568649292,-0.31783026456832886,9.598953247070312,1.5869140625,-0.244140625,1.129150390625
2.8874999000000003,1.0564415454864502,-0.284311443567276,9.906607627868652,-1.373291015625,-0.885009765625,5.767822265625
2.8924999000000002,0.8852560520172119,-0.37229835987091064,9.759963035583496,-0.1220703125,-0.8544921875,0.8544921875
2.8974999,1.0199298858642578,-0.28790274262428284,9.497200012207031,1.373291015625,-0.54931640625,6.134033203125
2.9024999,0.8702923059463501,-0.2819172441959381,9.601346969604492,-2.3193359375,-0.54931640625,1.8310546875
2.9074999000000004,0.9498994946479797,-0.2759317457675934,9.061454772949219,2.288818359375,0.579833984375,3.814697265625
2.9124999000000003,0.9516952037811279,-0.16400282084941864,9.254786491394043,-1.617431640625,0.457763671875,4.2724609375
2.9174999,0.9157821536064148,-0.17717093229293823,8.93037223815918,-0.152587890625,1.129150390625,0.732421875
2.9224999,0.8750807046890259,-0.2454056739807129,9.072827339172363,-2.99072265625,0.885009765625,-0.30517578125
2.9274999000000004,0.950498104095459,-0.25917232036590576,8.843582153320312,3.509521484375,-0.91552734375,2.50244140625
2.9324999000000003,0.8690952062606812,-0.27413609623908997,8.973467826843262,-2.62451171875,-0.396728515625,2.532958984375
2.9374999,0.862511157989502,-0.3603273630142212,8.668207168579102,0.335693359375,-0.823974609375,1.03759765625
2.9424999,1.047463297843933,-0.2106897532939911,8.83819580078125,1.861572265625,-1.77001953125,5.645751953125
2.9474999,0.9995791912078857,-0.3208230137825012,8.867524147033691,-3.47900390625,0.48828125,1.28173828125
2.9524999000000003,1.116895079612732,-0.24001872539520264,8.809465408325195,5.06591796875,-0.701904296875,3.96728515625
2.9574999,1.1402385234832764,-0.19812019169330597,9.06863784790039,-3.021240234375,1.678466796875,1.678466796875
2.9624999,0.9911994934082031,-0.24600422382354736,8.69753646850586,1.983642578125,1.617431640625,-0.3662109375
2.9674999,1.0785878896713257,-0.17896658182144165,8.719083786010742,1.373291015625,0.213623046875,2.288818359375
2.9724999000000003,0.8026561141014099,-0.37828385829925537,8.427590370178223,-4.0283203125,1.40380859375,-0.67138671875
2.9774999,0.8349778652191162,-0.2603694200515747,8.240243911743164,5.645751953125,-1.312255859375,1.983642578125
2.9824999,0.8487445116043091,-0.3932476341724396,8.359953880310059,-3.753662109375,0.732421875,-0.213623046875
2.9874999,0.7481880187988281,-0.3555389642715454,8.122329711914062,3.509521484375,0.244140625,-2.685546875
2.9924999000000003,0.970848798751831,-0.3495534360408783,8.478466987609863,1.800537109375,0.42724609375,-0.335693359375
2.9974999,0.8517372608184814,-0.4141969084739685,8.503006935119629,-1.617431640625,0.42724609375,-4.180908203125
3.0024999,0.9481038451194763,-0.3345896899700165,8.333617210388184,3.692626953125,-0.91552734375,0.06103515625
3.0074999,0.9654618501663208,-0.22445641458034515,8.73344898223877,-1.373291015625,0.030517578125,0.152587890625
3.0124999000000003,0.9846154451370239,-0.2256535142660141,8.570643424987793,0.213623046875,-1.52587890625,-2.74658203125
3.0174999000000002,1.0690110921859741,-0.12090718746185303,8.693944931030273,0.91552734375,-1.190185546875,2.838134765625
3.0224999,0.9403226971626282,-0.15741875767707825,8.91301441192627,-1.556396484375,-0.640869140625,-1.77001953125
3.0274999,1.002571940422058,-0.25019407272338867,8.651448249816895,1.861572265625,0.152587890625,0.030517578125
3.0324999000000004,0.9199720025062561,-0.181959331035614,8.884882926940918,-0.732421875,-0.152587890625,-0.640869140625
3.0374999000000003,0.8571242094039917,-0.39803603291511536,8.740632057189941,0.518798828125,0.1220703125,-3.5400390625
3.0424999,0.829590916633606,-0.3172317147254944,9.023147583007812,-3.35693359375,0.457763671875,-4.913330078125
3.0474999,0.8469488620758057,-0.2472013235092163,8.804078102111816,0.946044921875,0.152587890625,-3.509521484375
3.0524999000000004,0.9080010056495667,-0.1346738487482071,9.050082206726074,-2.01416015625,1.0986328125,-3.814697265625
3.0574999000000003,0.7924807667732239,-0.27653029561042786,8.811859130859375,-2.655029296875,0,-5.126953125
3.0624999,1.004966139793396,-0.24839842319488525,9.032724380493164,3.021240234375,-1.800537109375,0.3662109375
3.0674999,1.0564415454864502,-0.3908534348011017,9.174580574035645,-6.40869140625,1.64794921875,-2.288818359375
3.0724999000000004,1.0636241436004639,-0.4423287510871887,9.232041358947754,6.378173828125,-0.06103515625,-2.410888671875
3.0774999000000003,1.2557587623596191,-0.4034229815006256,9.55825138092041,-2.8076171875,2.38037109375,-1.800537109375
3.0824999,1.0097545385360718,-0.4405331015586853,9.454702377319336,1.983642578125,3.72314453125,-5.2490234375
3.0874999,1.0869675874710083,-0.3208230137825012,9.622895240783691,2.655029296875,2.166748046875,-3.082275390625
3.0924999,0.9762357473373413,-0.4010287821292877,9.812037467956543,-3.60107421875,2.838134765625,-4.45556640625
3.0974999000000003,0.8152256608009338,-0.2621650993824005,9.555258750915527,3.35693359375,0.701904296875,-6.011962890625
3.1024999,0.606930136680603,-0.27413609623908997,9.396642684936523,-2.86865234375,1.007080078125,-8.4228515625
3.1074999,0.646434485912323,-0.04369417950510979,8.88907241821289,3.082275390625,-1.953125,-7.537841796875
3.1124999,0.5901707410812378,-0.07062894850969315,9.021950721740723,-2.25830078125,-1.556396484375,-9.1552734375
3.1174999000000003,0.5919663906097412,-0.020949264988303185,8.864531517028809,-0.06103515625,-2.74658203125,-11.962890625
3.1224999,0.7912836670875549,0.06404489278793335,8.848969459533691,-2.13623046875,-3.814697265625,-7.659912109375
3.1274999,0.8505401611328125,-0.028730420395731926,9.57441234588623,-3.082275390625,-2.777099609375,-10.8642578125
3.1324999,0.9828197956085205,-0.090979665517807,9.394847869873047,-2.01416015625,-6.256103515625,-7.904052734375
3.1374999000000003,1.1312602758407593,-0.1215057373046875,9.832387924194336,-3.631591796875,-3.5400390625,-5.0048828125
3.1424999000000002,1.0911574363708496,-0.25677812099456787,9.95748519897461,-1.739501953125,-3.204345703125,-7.87353515625
3.1474999,1.238999366760254,-0.2645592987537384,9.690531730651855,-1.28173828125,-1.800537109375,-5.31005859375
3.1524999,1.2234370708465576,-0.3693056106567383,10.11430549621582,-2.410888671875,1.251220703125,-8.514404296875
3.1574999000000004,1.183334231376648,-0.4040215313434601,9.865307807922363,-0.30517578125,-0.213623046875,-9.27734375
3.1624999000000003,1.0360907316207886,-0.44592007994651794,9.988609313964844,-1.068115234375,1.678466796875,-8.392333984375
3.1674999,1.0229226350784302,-0.4339490532875061,9.513360023498535,1.3427734375,-0.152587890625,-5.37109375
3.1724999,0.9798270463943481,-0.3992331326007843,9.724050521850586,-1.068115234375,1.28173828125,-3.997802734375
3.1774999000000004,0.8918401598930359,-0.4411316514015198,9.64803409576416,0.3662109375,-1.068115234375,-5.584716796875
3.1824999000000003,1.037886381149292,-0.3357867896556854,9.412205696105957,-0.091552734375,-0.30517578125,-0.762939453125
3.1874999,1.0456676483154297,-0.3734954595565796,9.927556991577148,-0.9765625,0.244140625,-3.0517578125
3.1924999,1.0845733880996704,-0.3321954905986786,9.606734275817871,1.3427734375,-1.15966796875,-3.509521484375
3.1974999000000004,1.2258312702178955,-0.2711433470249176,9.791686058044434,-1.28173828125,1.5869140625,-0.91552734375
3.2024999000000003,1.0133458375930786,-0.23403321206569672,9.94970417022705,-0.67138671875,0.9765625,-5.0048828125
3.2074999,1.071405291557312,-0.20350714027881622,9.535507202148438,0.640869140625,0.244140625,-1.64794921875
3.2124999,0.9187749028205872,-0.1472434103488922,9.832387924194336,-1.678466796875,1.220703125,-1.52587890625
3.2174999,0.8367735147476196,-0.26396074891090393,9.743204116821289,0.457763671875,-0.91552734375,-3.997802734375
3.2224999000000003,0.9271546006202698,-0.345363587141037,10.037690162658691,-1.129150390625,0,-3.173828125
3.2274999,0.9816226959228516,-0.39803603291511536,9.706093788146973,1.129150390625,-0.823974609375,-2.86865234375
3.2324999,1.139639973640442,-0.2885012924671173,9.836577415466309,-0.8544921875,0.579833984375,-0.18310546875
3.2374999,0.9726444482803345,-0.2663549482822418,9.908403396606445,-0.518798828125,-0.274658203125,-3.997802734375
3.2424999000000003,1.0893617868423462,-0.1825578808784485,9.463082313537598,1.15966796875,-0.030517578125,-1.007080078125
3.2474999,0.960673451423645,-0.12928688526153564,9.73661994934082,-1.251220703125,1.129150390625,-1.52587890625
3.2524999,0.8936358094215393,-0.2513911724090576,9.671378135681152,0.3662109375,-0.457763671875,-4.08935546875
3.2574999,0.9570821523666382,-0.2992752194404602,9.54209041595459,0.091552734375,0.396728515625,-0.18310546875
3.2624999000000003,0.9163807034492493,-0.3776853084564209,10.06462574005127,-1.5869140625,0.091552734375,-3.082275390625
3.2674999000000002,0.9313444495201111,-0.47644615173339844,9.730035781860352,1.617431640625,-1.007080078125,-2.99072265625
3.2724999,1.0791864395141602,-0.353743314743042,9.824007987976074,-0.244140625,0.396728515625,-0.244140625
3.2774999,0.9373299479484558,-0.36092591285705566,9.904812812805176,-0.396728515625,0.274658203125,-3.96728515625
3.2824999000000004,0.9917980432510376,-0.1430535465478897,9.68274974822998,-1.0986328125,1.52587890625,-1.46484375
3.2874999000000003,0.9205705523490906,-0.1843535304069519,9.619303703308105,0.732421875,-0.1220703125,-4.241943359375
3.2924999,1.0414776802062988,-0.1646013706922531,9.376891136169434,0.518798828125,1.15966796875,-0.152587890625
3.2974999,1.0097545385360718,-0.22206220030784607,9.898228645324707,-1.434326171875,1.52587890625,-2.62451171875
3.3024999000000004,1.0145429372787476,-0.3166331648826599,9.624092102050781,1.556396484375,-0.335693359375,-3.35693359375
3.3074999000000003,1.1240776777267456,-0.29568392038345337,9.758167266845703,-0.274658203125,0,0.335693359375
3.3124999,0.9385270476341248,-0.37648820877075195,10.070012092590332,-1.190185546875,-0.579833984375,-3.41796875
3.3174999,0.9241618514060974,-0.33937808871269226,9.603142738342285,1.068115234375,-0.885009765625,-1.52587890625
3.3224999000000004,0.922366201877594,-0.2711433470249176,9.824007987976074,-1.64794921875,0,-0.274658203125
3.3274999000000003,0.7882909178733826,-0.26755204796791077,9.801262855529785,-0.244140625,-1.15966796875,-3.875732421875
3.3324999,0.9864110946655273,-0.15442600846290588,9.53849983215332,0.42724609375,-0.91552734375,-0.518798828125
3.3374999,0.9558850526809692,-0.14484919607639313,9.886856079101562,-1.251220703125,-0.030517578125,-1.8310546875
3.3424999,1.0911574363708496,-0.2663549482822418,9.606734275817871,0.091552734375,0.79345703125,0.54931640625
3.3474999000000003,1.0426748991012573,-0.3597288131713867,10.010157585144043,-0.701904296875,0.1220703125,-2.86865234375
3.3524999,1.0660183429718018,-0.4387374520301819,9.647436141967773,1.800537109375,0.3662109375,-1.983642578125
3.3574999,1.1653777360916138,-0.3405751883983612,9.758766174316406,-0.48828125,1.40380859375,0.30517578125
3.3624999,1.026513934135437,-0.27054479718208313,9.479243278503418,1.64794921875,0.396728515625,-0.54931640625
3.3674999000000003,0.9570821523666382,-0.15143325924873352,9.723451614379883,-1.251220703125,0.762939453125,0.274658203125
3.3724999,0.8343793153762817,-0.20530278980731964,9.706093788146973,0.244140625,-0.213623046875,-2.8076171875
3.3774999,0.9864110946655273,-0.13108254969120026,9.482834815979004,0.457763671875,0.518798828125,1.129150390625
3.3824999,0.9331400990486145,-0.1843535304069519,9.929951667785645,-1.434326171875,0.18310546875,-1.007080078125
3.3874999000000003,0.9445125460624695,-0.3010708689689636,9.758766174316406,1.007080078125,-0.54931640625,-2.288818359375
3.3924999000000002,1.0654197931289673,-0.33099839091300964,9.743204116821289,0.274658203125,0.885009765625,1.708984375
3.3974999,1.0779893398284912,-0.30885201692581177,9.706692695617676,-0.213623046875,1.28173828125,1.40380859375
3.4024999,0.9187749028205872,-0.30226796865463257,9.581595420837402,-0.762939453125,-0.030517578125,-2.3193359375
3.4074999000000004,1.0187327861785889,-0.20889410376548767,9.133280754089355,1.373291015625,0.91552734375,0.6103515625
3.4124999000000003,1.0001777410507202,-0.10235211998224258,9.277531623840332,-0.946044921875,0.48828125,0.946044921875
3.4174999,0.8756792545318604,-0.12749123573303223,9.117119789123535,-0.213623046875,-0.640869140625,-2.288818359375
3.4224999,0.8756792545318604,-0.12749123573303223,9.117119789123535,-0.213623046875,-0.640869140625,-2.288818359375
3.4274999000000004,0.9840168952941895,-0.19452889263629913,8.960299491882324,1.220703125,0.518798828125,1.373291015625
3.4324999000000003,0.912190854549408,-0.2041056901216507,9.317035675048828,-1.251220703125,-0.30517578125,-0.579833984375
3.4374999,0.8822633028030396,-0.3926490843296051,9.158419609069824,0.6103515625,-0.6103515625,-2.044677734375
3.4424999,0.9415197968482971,-0.31124621629714966,9.105149269104004,-1.251220703125,-0.762939453125,-2.105712890625
3.4474999000000004,0.9780313968658447,-0.2322375625371933,8.760383605957031,1.251220703125,0.030517578125,-0.06103515625
3.4524999000000003,0.9929951429367065,-0.14006079733371735,8.913613319396973,-1.068115234375,0.213623046875,0.885009765625
3.4574999,0.8607155084609985,-0.15263035893440247,8.833407402038574,-0.579833984375,-1.556396484375,-2.50244140625
3.4624999,0.9600749015808105,-0.1711854189634323,8.617929458618164,1.3427734375,0.06103515625,0.79345703125
3.4674999,0.9421183466911316,-0.02513911761343479,9.058462142944336,-1.312255859375,0.6103515625,-0.8544921875
3.4724999000000003,0.9528923034667969,-0.03890577703714371,8.835801124572754,-2.044677734375,2.716064453125,-5.79833984375
3.4774999,1.0324994325637817,0.08200141042470932,9.144054412841797,1.251220703125,2.99072265625,-3.35693359375
3.4824999,1.0971429347991943,0.04010287672281265,9.452308654785156,-5.279541015625,2.960205078125,-5.889892578125
3.4874999,0.8696937561035156,-0.19931729137897491,9.20211410522461,0.06103515625,1.739501953125,-6.34765625
3.4924999000000003,1.004966139793396,-0.26815059781074524,9.459490776062012,0.946044921875,-0.274658203125,-5.767822265625
3.4974999,0.767341673374176,-0.517746090888977,9.116521835327148,6.65283203125,-2.86865234375,-5.55419921875
3.5024999,0.767341673374176,-0.517746090888977,9.116521835327148,6.65283203125,-2.86865234375,-5.55419921875
3.5074999,0.9888052940368652,-0.6572083830833435,9.359533309936523,0.762939453125,0.30517578125,-3.692626953125
3.5124999000000003,0.9660604000091553,-1.3114240169525146,8.941145896911621,-8.026123046875,7.6904296875,-15.19775390625
3.5174999000000002,1.725022315979004,-2.518101692199707,8.110358238220215,-2.532958984375,32.806396484375,-39.825439453125
3.5224999,1.912368655204773,-3.309385299682617,6.950367450714111,-63.629150390625,59.02099609375,-7.965087890625
3.5274999,2.453458309173584,-3.8355112075805664,5.230731964111328,-34.027099609375,14.556884765625,123.9013671875
3.5324999000000004,1.4071919918060303,-2.650381326675415,3.070563793182373,82.70263671875,-34.72900390625,160.21728515625
3.5374999000000003,0.2651578485965729,-0.558447539806366,2.8137855529785156,-16.845703125,-48.40087890625,207.611083984375
3.5424999,-0.9457096457481384,0.7164648771286011,2.8993782997131348,48.004150390625,-92.7734375,197.44873046875
3.5474999,0.06224924325942993,0.2645592987537384,5.050568580627441,197.998046875,-73.394775390625,84.197998046875
3.5524999000000004,2.1051018238067627,-0.667982280254364,7.645883083343506,264.434814453125,73.66943359375,4.364013671875
3.5574999000000003,5.581482887268066,-1.7950527667999268,9.865307807922363,334.04541015625,142.39501953125,-70.49560546875
3.5624999,6.922235488891602,6.3715691566467285,9.855731010437012,235.504150390625,-95.367431640625,-49.041748046875
3.5674999,5.129577159881592,6.9940619468688965,9.041104316711426,190.887451171875,-110.992431640625,-24.383544921875
3.5724999000000004,3.5428199768066406,6.340444564819336,8.317456245422363,142.669677734375,-116.27197265625,-0.946044921875
3.5774999000000003,2.185906171798706,5.119401931762695,7.632116317749023,107.086181640625,-119.62890625,11.65771484375
3.5824999,1.1492167711257935,3.8534677028656006,6.719326972961426,82.916259765625,-112.4267578125,10.528564453125
3.5874999,0.45429977774620056,2.8113913536071777,5.58986234664917,53.741455078125,-97.16796875,4.425048828125
3.5924999,0.08978256583213806,2.1062989234924316,4.1862616539001465,39.093017578125,-88.37890625,0.762939453125
3.5974999000000003,0.025737667456269264,1.4754267930984497,2.6647465229034424,26.85546875,-91.949462890625,-0.3662109375
3.6024999,0.3130418658256531,0.5404910445213318,0.15801730751991272,7.8125,-112.823486328125,-3.143310546875
3.6074999,0.46327802538871765,0.3076549172401428,-0.4129997789859772,-3.47900390625,-123.443603515625,-6.256103515625
3.6124999,0.8098387122154236,0.5997475385665894,0.3489548861980438,-27.89306640625,-134.6435546875,-9.918212890625
3.6174999000000003,1.0899603366851807,0.8535329103469849,0.5877765417098999,-187.835693359375,-77.178955078125,-6.8359375
3.6224999,1.8225860595703125,0.9702502489089966,1.688510775566101,-341.552734375,-19.500732421875,-7.26318359375
3.6274999,2.230198860168457,1.1593921184539795,1.8489222526550293,-312.255859375,19.22607421875,2.8076171875
3.6324999,2.7036523818969727,0.9343371987342834,2.168548107147217,-312.43896484375,115.966796875,-7.2021484375
3.6374999000000003,2.8113913536071777,1.0402805805206299,2.160168409347534,-351.13525390625,221.61865234375,-23.193359375
3.6424999000000002,2.52109432220459,1.3958195447921753,2.5438392162323,-341.97998046875,268.798828125,-42.633056640625
3.6474999,2.212841033935547,1.7262194156646729,2.937685489654541,-382.6904296875,272.15576171875,-60.089111328125
3.6524999,2.139219284057617,2.117671489715576,4.344278812408447,-414.215087890625,247.4365234375,-81.298828125
3.6574999000000004,1.734000563621521,1.0576386451721191,6.488884925842285,-196.563720703125,139.434814453125,-86.273193359375
3.6624999000000003,1.6675615310668945,0.13108254969120026,7.6985554695129395,236.602783203125,-67.7490234375,-56.09130859375
3.6674999,1.048660397529602,-2.230797529220581,7.21791934967041,165.1611328125,-81.451416015625,-31.463623046875
3.6724999,0.8948329091072083,-2.2451627254486084,5.3145294189453125,84.381103515625,-92.010498046875,-26.092529296875
3.6774999000000004,0.8948329091072083,-1.6041151285171509,4.198831081390381,33.111572265625,-93.68896484375,-15.106201171875
3.6824999000000003,0.8744821548461914,-1.161187767982483,3.689464807510376,-14.556884765625,-76.019287109375,-14.70947265625
3.6874999,0.9343371987342834,-0.7212532758712769,3.643376350402832,-44.464111328125,-16.4794921875,-14.373779296875
3.6924999,0.9726444482803345,-0.606930136680603,3.9677908420562744,-77.972412109375,32.318115234375,-12.14599609375
3.6974999000000004,1.1522095203399658,-0.5704185366630554,4.343680381774902,-110.2294921875,83.282470703125,-12.969970703125
3.7024999000000003,1.2300211191177368,-0.4944026470184326,5.0014872550964355,-146.91162109375,111.968994140625,-7.2021484375
3.7074999,1.3976151943206787,-0.4213795065879822,6.505644798278809,-166.19873046875,129.638671875,-17.913818359375
3.7124999,1.0313023328781128,-1.2413935661315918,8.971672058105469,-100.28076171875,114.532470703125,-29.47998046875
3.7174999,0.5734112858772278,-2.0644004344940186,11.261127471923828,67.2607421875,20.843505859375,-29.876708984375
3.7224999000000003,-0.1454477459192276,-3.3213562965393066,12.81975269317627,103.118896484375,-27.496337890625,-27.28271484375
3.7274999,-1.2509703636169434,-3.0388405323028564,8.252813339233398,-28.74755859375,-16.204833984375,-30.33447265625
3.7324999,-0.9917980432510376,-1.789067268371582,7.015010833740234,-46.539306640625,17.39501953125,-22.705078125
3.7374999,-0.4728548228740692,-0.5805938839912415,7.117362976074219,-43.365478515625,42.388916015625,-7.2021484375
3.7424999000000003,0.06584054976701736,0.22924481332302094,8.373720169067383,-10.80322265625,23.49853515625,1.953125
3.7474999,0.49619829654693604,0.6147112846374512,9.828198432922363,15.7470703125,-9.979248046875,4.94384765625
3.7524999,0.6997054219245911,0.48482584953308105,10.868478775024414,12.63427734375,-11.199951171875,4.2724609375
3.7574999,0.7835025191307068,0.1430535465478897,11.101913452148438,-0.518798828125,-3.387451171875,4.547119140625
3.7624999000000003,0.800261914730072,-0.10953472554683685,10.72722053527832,-4.730224609375,-5.035400390625,-0.1220703125
3.7674999000000002,0.9157821536064148,-0.24600422382354736,10.272920608520508,-3.23486328125,-4.638671875,-2.899169921875
3.7724999,1.0211269855499268,-0.2621650993824005,9.888052940368652,-1.556396484375,-2.38037109375,0.885009765625
3.7774999,1.1971008777618408,-0.3190273642539978,9.633668899536133,0.701904296875,-0.54931640625,1.77001953125
3.7824999000000004,1.2611457109451294,-0.3693056106567383,9.489418029785156,0.48828125,6.2255859375,-1.52587890625
3.7874999000000003,1.2318167686462402,-0.33997663855552673,9.511565208435059,2.5634765625,4.547119140625,1.007080078125
3.7924999,1.0594342947006226,-0.243011474609375,9.560646057128906,1.5869140625,2.838134765625,-1.373291015625
3.7974999,0.8900445103645325,-0.23343466222286224,9.791088104248047,-0.579833984375,1.28173828125,0
3.8024999000000004,0.7667431235313416,-0.16579847037792206,9.80904483795166,1.46484375,-1.922607421875,1.739501953125
3.8074999000000003,0.6877344250679016,-0.08499415963888168,9.947908401489258,-0.9765625,-1.617431640625,-0.885009765625
3.8124999,0.6847416758537292,-0.14903905987739563,9.920374870300293,-1.129150390625,0.54931640625,0.3662109375
3.8174999,0.7751228213310242,-0.2059013396501541,9.864709854125977,1.77001953125,-0.579833984375,-0.244140625
3.8224999000000004,0.8361749649047852,-0.23163901269435883,9.870695114135742,-1.15966796875,1.068115234375,-2.86865234375
3.8274999000000003,0.8756792545318604,-0.31603461503982544,9.79527759552002,-0.06103515625,2.74658203125,0.274658203125
3.8324999,0.9684545993804932,-0.30047231912612915,9.691129684448242,1.617431640625,-0.274658203125,-0.030517578125
3.8374999,0.9385270476341248,-0.1909375786781311,9.72285270690918,-2.349853515625,1.800537109375,-0.946044921875
3.8424999,0.8607155084609985,-0.2693476974964142,9.783905029296875,2.471923828125,-1.129150390625,0.762939453125
3.8474999000000003,0.9187749028205872,-0.2298433631658554,9.851541519165039,-0.396728515625,-0.3662109375,-2.716064453125
3.8524999,0.9546879529953003,-0.23343466222286224,9.865906715393066,-1.8310546875,1.52587890625,-0.6103515625
3.8574999,0.9564836025238037,-0.14903905987739563,9.771934509277344,1.617431640625,-0.48828125,-0.42724609375
3.8624999,0.9457096457481384,-0.10773907601833344,9.806051254272461,-2.105712890625,1.28173828125,0.30517578125
3.8674999000000003,0.9074024558067322,-0.18914192914962769,9.783905029296875,0.885009765625,-1.861572265625,2.227783203125
3.8724999,0.8409633636474609,-0.18495208024978638,9.829395294189453,0.54931640625,-2.685546875,-1.373291015625
3.8774999,0.9038111567497253,-0.30526071786880493,9.913790702819824,-1.434326171875,0.1220703125,-0.42724609375
3.8824999,0.9780313968658447,-0.3196259140968323,9.77253246307373,2.655029296875,-0.335693359375,0.396728515625
3.8874999000000003,1.1019313335418701,-0.09816227108240128,9.782109260559082,-3.631591796875,1.89208984375,1.007080078125
3.8924999000000002,1.4496891498565674,0.4812345504760742,9.627084732055664,-0.48828125,-8.4228515625,17.608642578125
3.8974999,1.4646528959274292,0.7134721279144287,9.718064308166504,-4.5166015625,-7.99560546875,27.252197265625
3.9024999,1.3479355573654175,0.6979097723960876,9.726444244384766,0.091552734375,-4.180908203125,24.0478515625
3.9074999000000004,1.0295066833496094,0.49380409717559814,9.830592155456543,-1.89208984375,-3.84521484375,11.444091796875
3.9124999000000003,0.8379706144332886,0.04967968538403511,9.84495735168457,-1.953125,-1.617431640625,3.021240234375
3.9174999,0.6356605291366577,-0.383670836687088,9.919178009033203,-3.35693359375,2.593994140625,-1.0986328125
3.9224999,0.838569164276123,-0.645237386226654,10.138845443725586,-6.8359375,-4.7607421875,9.09423828125
3.9274999000000004,1.0438719987869263,-0.3016694188117981,10.055048942565918,-12.8173828125,-1.77001953125,6.439208984375
3.9324999000000003,1.371279001235962,0.005386953707784414,10.119093894958496,-21.240234375,4.57763671875,9.735107421875
3.9374999,1.5825673341751099,0.18495208024978638,10.256759643554688,-25.634765625,2.86865234375,20.050048828125
3.9424999,1.5825673341751099,0.06584054976701736,10.192116737365723,-20.172119140625,0.518798828125,23.25439453125
3.9474999000000004,1.511339783668518,-0.01975216343998909,10.196905136108398,-24.169921875,3.35693359375,18.341064453125
3.9524999000000003,1.404199242591858,-0.11611878126859665,10.090961456298828,-32.440185546875,5.43212890625,19.439697265625
3.9574999,1.282094955444336,-0.23702596127986908,9.854534149169922,-35.125732421875,8.819580078125,16.632080078125
3.9624999,1.115697979927063,-0.4710591733455658,9.815628051757812,-28.167724609375,2.532958984375,25.299072265625
3.9674999000000004,0.8433575630187988,-0.628477931022644,9.61212158203125,-21.636962890625,-2.8076171875,29.35791015625
3.9724999000000003,0.5704185366630554,-0.9361328482627869,9.783307075500488,-25.299072265625,2.105712890625,18.798828125
3.9774999,0.3866635859012604,-0.707486629486084,9.68274974822998,-29.083251953125,8.72802734375,9.979248046875
3.9824999,0.09038111567497253,-0.7386112213134766,9.84256362915039,-35.46142578125,10.833740234375,-0.91552734375
3.9874999,-0.07541735470294952,-0.45010992884635925,9.931747436523438,-29.72412109375,11.932373046875,-0.30517578125
3.9924999000000003,-0.33518823981285095,-0.304063618183136,9.976638793945312,-28.717041015625,8.30078125,-5.340576171875
3.9974999,0.5404910445213318,-0.7852981686592102,10.083779335021973,-35.491943359375,15.899658203125,-23.62060546875
4.0024999,1.7471686601638794,-1.037886381149292,9.996989250183105,-37.872314453125,34.912109375,-25.45166015625
4.0074999,2.0853497982025146,-0.8846575021743774,9.750386238098145,-31.768798828125,37.445068359375,-14.34326171875
4.0124999,2.2385785579681396,-0.8212111592292786,9.757569313049316,-22.857666015625,37.750244140625,-10.162353515625
4.0174999,2.381632089614868,-0.6967126727104187,9.797672271728516,-18.1884765625,38.482666015625,-9.33837890625
4.022499900000001,2.252345323562622,-0.5219359993934631,9.782708168029785,-21.8505859375,45.074462890625,-11.71875
4.0274999000000005,2.05123233795166,-0.4734533727169037,9.825204849243164,-26.763916015625,49.86572265625,-6.2255859375
4.0324999,1.5783774852752686,-0.4638765752315521,9.797073364257812,-21.270751953125,50.47607421875,-3.84521484375
4.0374999,1.0720038414001465,-0.6159083843231201,9.944316864013672,-20.93505859375,46.875,-10.955810546875
4.0424999,0.578798234462738,-0.7823054194450378,9.932944297790527,-20.751953125,46.81396484375,-17.76123046875
4.0474999,0.035913024097681046,-1.0468647480010986,9.978434562683105,-25.848388671875,52.67333984375,-20.44677734375
4.0524999,-0.32202014327049255,-1.2120646238327026,10.004171371459961,-22.39990234375,49.8046875,-13.946533203125
4.0574999,-0.7463923692703247,-1.371279001235962,9.886856079101562,-15.472412109375,37.4755859375,-17.02880859375
4.062499900000001,-0.7463923692703247,-1.371279001235962,9.886856079101562,-15.472412109375,37.4755859375,-17.02880859375
4.0674999000000005,-0.8888474106788635,-1.4981716871261597,9.86889934539795,-17.08984375,27.191162109375,-22.430419921875
4.0724999,-0.9858125448226929,-1.4652514457702637,9.709086418151855,-17.333984375,22.918701171875,-21.91162109375
4.0774999,-0.9331400990486145,-1.5131354331970215,9.63187313079834,-17.51708984375,21.331787109375,-12.20703125
4.0824999,-0.8032546639442444,-1.4215573072433472,9.497200012207031,-5.92041015625,20.233154296875,-4.486083984375
4.0874999,-0.7068880796432495,-1.467047095298767,9.475651741027832,-0.8544921875,17.669677734375,-8.697509765625
4.0924999,-0.45429977774620056,-1.3820528984069824,9.442731857299805,-0.701904296875,11.566162109375,-4.791259765625
4.0974999,-0.017956512048840523,-1.213860273361206,9.570222854614258,17.059326171875,17.88330078125,17.578125
4.1024999,-0.017956512048840523,-1.213860273361206,9.570222854614258,17.059326171875,17.88330078125,17.578125
4.1074999000000005,0.14425064623355865,-1.1234791278839111,9.59596061706543,28.9306640625,21.240234375,18.61572265625
4.1124999,0.37469255924224854,-1.0749965906143188,9.707889556884766,27.740478515625,13.427734375,21.240234375
4.1174999,0.5722141861915588,-1.0348936319351196,9.68694019317627,36.07177734375,7.415771484375,30.853271484375
4.1224999,0.690727174282074,-1.1336544752120972,9.628880500793457,46.875,9.063720703125,31.31103515625
4.1274999,0.9085995554924011,-1.1713632345199585,9.490615844726562,52.1240234375,6.866455078125,24.932861328125
4.1324999,0.9229647517204285,-1.2635399103164673,9.345766067504883,49.591064453125,3.143310546875,18.12744140625
4.1374999,1.07379949092865,-1.2946646213531494,9.251194953918457,49.896240234375,3.570556640625,20.721435546875
4.1424999,1.0785878896713257,-1.238999366760254,9.082404136657715,57.2509765625,10.955810546875,14.801025390625
4.147499900000001,1.0648212432861328,-1.1037269830703735,8.994417190551758,45.684814453125,9.94873046875,2.01416015625
4.1524999000000005,1.003769040107727,-0.8990227580070496,8.886079788208008,33.02001953125,2.99072265625,-1.190185546875
4.1574999,0.8864531517028809,-0.690727174282074,8.789712905883789,26.0009765625,3.448486328125,-3.35693359375
4.1624999,0.3423708379268646,-0.33937808871269226,8.67598819732666,-5.523681640625,-3.662109375,-10.68115234375
4.1674999,0.3423708379268646,-0.33937808871269226,8.67598819732666,-5.523681640625,-3.662109375,-10.68115234375
4.1724999,0.14425064623355865,-0.30885201692581177,8.654440879821777,-4.33349609375,2.838134765625,-7.965087890625
4.1774999,-0.013766659423708916,-0.3321954905986786,8.751405715942383,-13.702392578125,2.5634765625,-13.24462890625
4.1824999,-0.15801730751991272,-0.3597288131713867,8.814851760864258,-22.674560546875,-3.90625,-9.1552734375
4.187499900000001,-0.23822307586669922,-0.4429273009300232,8.98543930053711,-22.491455078125,-1.373291015625,-1.77001953125
4.1924999000000005,-0.25977087020874023,-0.49559974670410156,9.015366554260254,-17.120361328125,1.8310546875,-0.213623046875
4.1974999,-0.363918662071228,-0.5859808921813965,9.153631210327148,-23.193359375,-3.72314453125,-4.2724609375
4.2024999,-0.30885201692581177,-0.645237386226654,9.355941772460938,-25.7568359375,-9.33837890625,4.791259765625
4.2074999,-0.28371289372444153,-0.6362590789794922,9.419387817382812,-15.411376953125,-2.44140625,6.622314453125
4.2124999,-0.25079262256622314,-0.6871358752250671,9.552865028381348,-18.37158203125,-5.4931640625,1.220703125
4.2174999,0.08738835901021957,-1.0791864395141602,9.810839653015137,0.091552734375,-15.380859375,9.33837890625
4.2224999,0.14185644686222076,-1.0564415454864502,9.785101890563965,13.214111328125,-10.55908203125,2.349853515625
4.2274999,0.2603694200515747,-1.1528080701828003,10.005369186401367,9.918212890625,-16.082763671875,-3.173828125
4.2324999000000005,0.3477577865123749,-1.1552022695541382,10.051457405090332,20.233154296875,-16.7236328125,2.13623046875
4.2374999,0.4339490532875061,-1.2258312702178955,10.122684478759766,32.40966796875,-10.80322265625,-2.593994140625
4.2424999,0.43035775423049927,-1.2216414213180542,10.013150215148926,33.843994140625,-11.65771484375,-8.36181640625
4.2474999,0.38965633511543274,-1.2198457717895508,9.999981880187988,35.400390625,-12.176513671875,-5.462646484375
4.2524999,0.47465047240257263,-1.1288660764694214,9.750985145568848,45.074462890625,-9.521484375,-4.150390625
4.2574999,0.3016694188117981,-0.9762357473373413,9.518747329711914,40.863037109375,-9.613037109375,-12.39013671875
4.2624999,0.3363853394985199,-0.535702645778656,9.78869342803955,50.1708984375,-18.402099609375,-1.46484375
4.2674999,0.31124621629714966,-0.5231330990791321,9.660603523254395,48.614501953125,-20.01953125,-8.819580078125
4.272499900000001,0.36810851097106934,-0.5380968451499939,9.780313491821289,45.196533203125,-21.97265625,-0.6103515625
4.2774999000000005,0.49320554733276367,-0.4692635238170624,9.580398559570312,56.09130859375,-24.5361328125,0.8544921875
4.2824999,0.345363587141037,-0.45010992884635925,9.642647743225098,49.285888671875,-20.56884765625,-6.988525390625
4.2874999,0.46148237586021423,-0.38486793637275696,9.709086418151855,48.27880859375,-26.123046875,4.33349609375
4.2924999,0.7930793166160583,0.49799394607543945,9.904812812805176,23.956298828125,-2.532958984375,6.34765625
4.2974999,0.9696516990661621,0.8547300100326538,10.158597946166992,2.349853515625,10.650634765625,-9.918212890625
4.3024999,0.9379284977912903,1.1641805171966553,10.040084838867188,0.67138671875,1.861572265625,-16.632080078125
4.3074999,0.8409633636474609,1.094150185585022,9.864110946655273,2.13623046875,2.38037109375,-6.103515625
4.312499900000001,0.6619967818260193,0.365115761756897,9.670180320739746,1.3427734375,-0.18310546875,-8.056640625
4.3174999000000005,0.4770447015762329,-0.1496376097202301,9.65222454071045,-3.509521484375,1.953125,-2.044677734375
4.3224999,0.46746787428855896,-0.6943184733390808,9.641449928283691,2.349853515625,3.936767578125,1.434326171875
4.3274999,0.4100070297718048,-0.9588778018951416,9.702502250671387,2.685546875,1.03759765625,-8.026123046875
4.3324999,0.36810851097106934,-1.0857704877853394,9.99220085144043,0.335693359375,5.4931640625,-1.708984375
4.3374999,0.5452794432640076,-1.0408791303634644,9.807847023010254,6.89697265625,3.204345703125,-1.52587890625
4.3424999,0.4728548228740692,-0.8661024570465088,9.981427192687988,3.23486328125,3.7841796875,-7.659912109375
4.3474999,0.6811503767967224,-0.5159504413604736,9.771934509277344,9.124755859375,2.5634765625,-1.708984375
4.352499900000001,0.6320692300796509,-0.4489128291606903,9.95209789276123,2.716064453125,8.819580078125,-2.38037109375
4.3574999000000005,0.7158663272857666,-0.4034229815006256,9.88625717163086,11.932373046875,11.322021484375,5.401611328125
4.3624999,0.5919663906097412,-0.2998737692832947,9.797672271728516,10.1318359375,5.523681640625,-4.7607421875
4.3674999,0.4991910457611084,-0.2867056429386139,9.987412452697754,2.197265625,12.51220703125,1.190185546875
4.3724999,0.41359832882881165,-0.15741875767707825,9.611522674560547,10.43701171875,7.87353515625,3.326416015625
4.3774999,0.19452889263629913,-0.01496376097202301,9.768941879272461,4.364013671875,0.701904296875,-4.608154296875
4.3824999,0.18794482946395874,0.07003039866685867,9.676764488220215,3.60107421875,6.89697265625,5.462646484375
4.3874999,0.12090718746185303,0.16819266974925995,9.610923767089844,6.988525390625,0.42724609375,0.579833984375
4.3924999,0.14065934717655182,0.19273324310779572,9.809642791748047,-3.96728515625,0.91552734375,1.434326171875
4.397499900000001,0.28730419278144836,0.2585737705230713,9.662399291992188,1.434326171875,2.44140625,6.7138671875
4.4024999000000005,0.6661866307258606,0.21128830313682556,9.849146842956543,-0.79345703125,1.495361328125,-3.35693359375
4.4074999,0.6590040326118469,0.08738835901021957,9.744999885559082,-1.77001953125,4.852294921875,5.615234375
4.4124999,0.4967968463897705,0.16819266974925995,9.695918083190918,2.899169921875,-1.739501953125,0.640869140625
4.4174999,0.34177228808403015,0.0071826050989329815,9.924564361572266,-6.256103515625,-0.518798828125,3.662109375
4.4224999,0.3597288131713867,0.09516951441764832,9.649829864501953,2.105712890625,-2.44140625,6.34765625
4.4274999,0.18914192914962769,0.06883329898118973,9.946710586547852,-5.096435546875,-5.9814453125,0.67138671875
4.4324999,0.37648820877075195,-0.04908113554120064,9.816226959228516,-2.777099609375,-1.953125,9.735107421875
4.437499900000001,0.30705636739730835,0.020949264988303185,9.758167266845703,-0.244140625,-8.209228515625,2.25830078125
4.4424999000000005,0.4076128304004669,-0.16759411990642548,10.025120735168457,-7.080078125,-4.08935546875,8.514404296875
4.4474999,0.6386532783508301,-0.0975637212395668,9.749788284301758,1.15966796875,-1.15966796875,9.613037109375
4.4524999,0.49799394607543945,-0.018555063754320145,9.837176322937012,-2.105712890625,-7.293701171875,2.50244140625
4.4574999,0.6458359360694885,-0.1173158809542656,9.82640266418457,-4.8828125,-1.678466796875,11.41357421875
4.4624999,0.5416881442070007,0.008379706181585789,9.672574996948242,0.9765625,-6.378173828125,5.706787109375
4.4674999,0.5081692934036255,-0.08140286058187485,9.949105262756348,-7.965087890625,-7.049560546875,10.68115234375
4.4724999,0.578798234462738,0.028131870552897453,9.649829864501953,0.457763671875,-7.110595703125,11.810302734375
4.477499900000001,0.44412440061569214,-0.008379706181585789,9.968857765197754,-7.32421875,-11.3525390625,9.70458984375
4.4824999000000005,0.619499683380127,0.0347159244120121,9.684545516967773,-3.448486328125,-8.30078125,16.845703125
4.4874999,0.4100070297718048,0.03770867735147476,9.788095474243164,-5.2490234375,-12.969970703125,9.490966796875
4.4924999,0.5811924338340759,0.0005985504249110818,9.804854393005371,-6.103515625,-5.584716796875,14.678955078125
4.4974999,0.363918662071228,0.005386953707784414,9.6803560256958,-0.9765625,-9.429931640625,6.195068359375
4.5024999,0.33937808871269226,-0.03950432687997818,9.673172950744629,0.579833984375,-8.636474609375,6.591796875
4.5074999,0.21547815203666687,0.017956512048840523,9.979631423950195,-10.528564453125,-16.6015625,6.561279296875
4.5124999,0.3190273642539978,-0.023343466222286224,9.612719535827637,-5.157470703125,-13.153076171875,10.345458984375
4.5174999,0.1322796493768692,-0.02274491637945175,9.872490882873535,-10.467529296875,-20.355224609375,6.53076171875
4.522499900000001,0.3034650683403015,-0.04249707981944084,9.641449928283691,-11.04736328125,-21.209716796875,14.22119140625
4.5274999000000005,0.15801730751991272,-0.058059390634298325,9.733627319335938,-10.345458984375,-24.139404296875,7.598876953125
4.5324999,0.39803603291511536,-0.06763619929552078,9.832986831665039,-13.092041015625,-19.775390625,11.993408203125
4.5374999,0.37469255924224854,-0.09935937076807022,9.715071678161621,-7.354736328125,-22.39990234375,5.096435546875
4.5424999,0.6021417379379272,-0.03172317147254944,9.947908401489258,-15.869140625,-25.634765625,9.735107421875
4.5474999,0.6919242739677429,-0.11192893236875534,9.774328231811523,-8.636474609375,-18.61572265625,7.01904296875
4.5524999,0.706289529800415,-0.013766659423708916,10.061633110046387,-15.625,-20.172119140625,6.378173828125
4.5574999,0.872686505317688,-0.019153613597154617,9.951498985290527,-8.819580078125,-16.7236328125,6.439208984375
4.562499900000001,1.07379949092865,0.023343466222286224,10.230423927307129,-18.98193359375,-4.608154296875,-0.18310546875
4.5674999000000005,1.313219666481018,0.08140286058187485,10.231620788574219,-15.350341796875,-3.082275390625,5.43212890625
4.5724999,1.1683704853057861,-0.028131870552897453,10.102334022521973,-18.00537109375,0.8544921875,-1.89208984375
4.5774999,1.2443863153457642,-0.04189852997660637,10.165780067443848,-17.822265625,2.01416015625,3.997802734375
4.5824999,1.0295066833496094,-0.2059013396501541,9.827000617980957,-15.44189453125,4.45556640625,-1.89208984375
4.5874999,1.016338586807251,-0.26336219906806946,9.979032516479492,-18.157958984375,4.150390625,2.44140625
4.5924999,0.8463503122329712,-0.40282443165779114,9.61212158203125,-12.542724609375,4.913330078125,-2.227783203125
4.5974999,0.7691373229026794,-0.39803603291511536,9.791088104248047,-18.00537109375,3.662109375,0.701904296875
4.602499900000001,0.6991068720817566,-0.5111620426177979,9.518747329711914,-10.284423828125,3.90625,-0.701904296875
4.6074999000000005,0.5811924338340759,-0.4471171796321869,9.718064308166504,-17.669677734375,2.9296875,0.1220703125
4.6124999,0.606930136680603,-0.5261258482933044,9.524134635925293,-8.97216796875,1.708984375,0.823974609375
4.6174999,0.6512228846549988,-0.4207809567451477,9.65222454071045,-8.819580078125,-3.692626953125,4.302978515625
4.6224999,0.5363011956214905,-0.3345896899700165,9.791686058044434,-15.869140625,-3.11279296875,-0.030517578125
4.6274999,0.7445967197418213,-0.37888240814208984,9.655217170715332,-8.758544921875,-5.126953125,5.645751953125
4.6324999,0.6153098344802856,-0.42018240690231323,9.738415718078613,-14.190673828125,-3.72314453125,0.3662109375
4.6374999,0.8349778652191162,-0.3878606855869293,9.612719535827637,-7.8125,-4.45556640625,6.134033203125
4.6424999,0.7044938206672668,-0.47884035110473633,9.640851974487305,-10.8642578125,-2.50244140625,0.030517578125
4.647499900000001,0.8750807046890259,-0.3842693865299225,9.636063575744629,-5.645751953125,-3.082275390625,5.18798828125
4.6524999000000005,0.7338228225708008,-0.4513070285320282,9.604938507080078,-7.537841796875,-0.457763671875,-1.15966796875
4.6574999,0.8523358106613159,-0.36152446269989014,9.694721221923828,-4.150390625,-0.885009765625,4.2724609375
4.6624999,0.7230489253997803,-0.43993455171585083,9.668983459472656,-4.730224609375,0.579833984375,-2.25830078125
4.6674999,0.7003039717674255,-0.3076549172401428,9.764751434326172,-1.617431640625,-1.617431640625,3.509521484375
4.6724999,0.5776011347770691,-0.41958385705947876,9.619902610778809,-0.946044921875,-1.800537109375,-2.410888671875
4.6774999,0.6883329749107361,-0.363918662071228,9.786299705505371,-0.54931640625,-2.471923828125,2.74658203125
4.6824999,0.5722141861915588,-0.4638765752315521,9.59835433959961,0.518798828125,-2.960205078125,-2.960205078125
4.687499900000001,0.7026981711387634,-0.40462008118629456,9.767146110534668,0.8544921875,-3.326416015625,2.471923828125
4.6924999000000005,0.5913678407669067,-0.46627077460289,9.584588050842285,1.190185546875,-3.936767578125,-2.960205078125
4.6974999,0.7260416746139526,-0.38726213574409485,9.757569313049316,1.251220703125,-3.72314453125,2.74658203125
4.7024999,0.6847416758537292,-0.4225766062736511,9.632472038269043,3.082275390625,-5.615234375,-3.204345703125
4.7074999,0.8271966576576233,-0.3585317134857178,9.733627319335938,4.0283203125,-5.218505859375,2.62451171875
4.7124999,0.750582218170166,-0.41778820753097534,9.661202430725098,3.692626953125,-5.37109375,-3.265380859375
4.7174999,0.8792705535888672,-0.3519476354122162,9.702502250671387,5.645751953125,-5.401611328125,2.288818359375
4.7224999,0.7852981686592102,-0.40701428055763245,9.648633003234863,5.126953125,-5.37109375,-3.41796875
4.727499900000001,0.9367313981056213,-0.3321954905986786,9.70310115814209,6.805419921875,-4.82177734375,2.8076171875
4.7324999000000005,0.8445546627044678,-0.4118026793003082,9.698312759399414,4.7607421875,-2.62451171875,-2.50244140625
4.7374999,1.0492589473724365,-0.2950853705406189,9.787496566772461,6.77490234375,-2.13623046875,2.50244140625
4.7424999,0.8990227580070496,-0.406415730714798,9.88506031036377,2.86865234375,-1.64794921875,-2.74658203125
4.7474999,1.072602391242981,-0.2753331959247589,9.855731010437012,5.67626953125,-1.89208984375,2.471923828125
4.7524999,0.8403648138046265,-0.41958385705947876,9.99459457397461,1.708984375,-1.007080078125,-2.44140625
4.7574999,0.812831461429596,-0.42616790533065796,9.832387924194336,3.814697265625,-2.44140625,-0.06103515625
4.7624999,0.9199720025062561,-0.3100491166114807,9.594164848327637,10.25390625,-3.41796875,1.28173828125
4.7674999,0.9882067441940308,-0.26815059781074524,9.888651847839355,3.143310546875,-2.0751953125,1.800537109375
4.772499900000001,0.9714473485946655,-0.21547815203666687,9.667187690734863,9.124755859375,-2.349853515625,0.579833984375
4.7774999000000005,1.0313023328781128,-0.2232593148946762,9.93593692779541,2.9296875,-0.244140625,2.197265625
4.7824999,0.8924387097358704,-0.23582886159420013,9.694721221923828,7.537841796875,-1.251220703125,-0.701904296875
4.7874999,0.8337807655334473,-0.29209262132644653,9.99339771270752,0.79345703125,-0.030517578125,0.640869140625
4.7924999,0.9768342971801758,-0.1867477297782898,9.763554573059082,5.92041015625,-0.335693359375,3.41796875
4.7974999,0.828393816947937,-0.24181437492370605,10.014945983886719,-0.9765625,0.762939453125,0.946044921875
4.8024999,0.8774749040603638,-0.20290859043598175,9.752182006835938,1.495361328125,-0.06103515625,1.312255859375
4.8074999,1.0169371366500854,-0.20949265360832214,9.909601211547852,-0.823974609375,0.732421875,5.2490234375
4.812499900000001,0.8583213090896606,-0.3064578175544739,9.786299705505371,-0.42724609375,0.67138671875,0.8544921875
4.8174999000000005,1.026513934135437,-0.25917232036590576,9.733028411865234,0.79345703125,1.0986328125,5.31005859375
4.8224999,0.8451532125473022,-0.37648820877075195,9.832387924194336,-2.197265625,1.617431640625,0.79345703125
4.8274999,0.970848798751831,-0.304063618183136,9.643245697021484,1.64794921875,1.46484375,4.425048828125
4.8324999,0.7805097699165344,-0.4141969084739685,9.925163269042969,-3.5400390625,1.373291015625,1.0986328125
4.8374999,0.8301894664764404,-0.34835633635520935,9.675567626953125,1.953125,0.885009765625,3.35693359375
4.8424999,0.7703344225883484,-0.3944447338581085,10.047266960144043,-4.33349609375,1.77001953125,2.655029296875
4.8474999,0.7451952695846558,-0.3280056416988373,9.719860076904297,0.42724609375,0.9765625,2.0751953125
4.852499900000001,0.8313865661621094,-0.2753331959247589,10.039485931396484,-4.608154296875,1.0986328125,3.7841796875
4.8574999000000005,0.7248445749282837,-0.3148375153541565,9.79288387298584,-2.410888671875,0.79345703125,0.9765625
4.8624999,0.7894880175590515,-0.46148237586021423,10.029311180114746,-8.514404296875,2.410888671875,2.62451171875
4.8674999,0.8960300087928772,-0.333991140127182,9.829395294189453,-4.39453125,2.44140625,5.43212890625
4.8724999,0.8158242106437683,-0.36810851097106934,10.17176628112793,-12.0849609375,4.119873046875,3.692626953125
4.8774999,0.8146271109580994,-0.20470423996448517,9.871891975402832,-8.453369140625,3.41796875,3.265380859375
4.8824999,0.861314058303833,-0.27413609623908997,10.105326652526855,-14.5263671875,3.875732421875,5.0048828125
4.8874999,0.6356605291366577,-0.2908954918384552,9.651625633239746,-13.73291015625,2.349853515625,2.74658203125
4.8924999,0.2801215946674347,-0.8415619134902954,8.710704803466797,-19.04296875,-1.007080078125,13.824462890625
4.897499900000001,-1.2336124181747437,-1.7232266664505005,7.287351608276367,-37.04833984375,-26.275634765625,44.158935546875
4.9024999000000005,-2.7090392112731934,-2.253542423248291,5.72633171081543,-36.0107421875,-101.1962890625,165.283203125
4.9074999,-4.3855791091918945,-2.8329391479492188,3.88818359375,0.152587890625,-194.793701171875,274.322509765625
4.9124999,-4.9170918464660645,-0.8792705535888672,2.7748796939849854,220.03173828125,-32.8369140625,350.03662109375
4.9174999,-3.688267707824707,0.42377370595932007,4.215590476989746,276.031494140625,146.66748046875,280.609130859375
4.9224999,0.8086416125297546,2.0476410388946533,5.925649166107178,373.199462890625,158.905029296875,231.38427734375
4.9274999,5.944802761077881,2.83174204826355,8.577227592468262,340.118408203125,134.307861328125,85.906982421875
4.9324999,11.641206741333008,3.427299737930298,11.341333389282227,304.01611328125,71.136474609375,-68.878173828125
4.937499900000001,15.856199264526367,3.5063083171844482,12.715006828308105,301.025390625,3.72314453125,-135.986328125
4.9424999000000005,17.457321166992188,3.20404052734375,11.798027038574219,278.717041015625,-44.403076171875,-158.447265625
4.9474999,16.184803009033203,3.026869535446167,9.469666481018066,200.592041015625,-115.3564453125,-165.435791015625
4.9524999,12.738349914550781,2.7329812049865723,5.982511520385742,125.48828125,-169.0673828125,-157.012939453125
4.9574999,8.531139373779297,2.3780407905578613,2.8862102031707764,72.021484375,-150.421142578125,-140.777587890625
4.9624999,4.54419469833374,1.622071623802185,1.0259153842926025,28.99169921875,-98.9990234375,-133.575439453125
4.9674999,1.4664485454559326,0.8816647529602051,0.4357447028160095,-8.23974609375,-38.543701171875,-137.542724609375
4.9724999,-1.857301950454712,-0.1604115068912506,1.3066356182098389,-97.259521484375,31.524658203125,-161.1328125
4.977499900000001,-2.454655408859253,-0.15083470940589905,2.008735179901123,-145.416259765625,43.64013671875,-173.095703125
4.9824999000000005,-2.5318682193756104,0.1412578970193863,2.6180596351623535,-197.998046875,44.219970703125,-178.52783203125
4.9874999,-2.2254104614257812,0.7583633661270142,3.074753522872925,-251.678466796875,38.02490234375,-176.544189453125
4.9924999,-1.7405846118927002,1.2330138683319092,3.307589530944824,-297.271728515625,27.069091796875,-170.806884765625
4.9974999,-1.1438298225402832,1.5388731956481934,3.688267707824707,-344.146728515625,18.24951171875,-165.6494140625
5.0024999,-0.5285200476646423,1.3718775510787964,3.8935704231262207,-389.09912109375,15.56396484375,-158.75244140625
5.0074999,-0.031124621629714966,0.778714120388031,4.333505153656006,-432.159423828125,11.993408203125,-142.4560546875
5.0124999,0.35015198588371277,-0.07541735470294952,4.773439407348633,-465.301513671875,9.033203125,-121.978759765625
5.0174999,0.49320554733276367,-0.921169102191925,5.337872505187988,-489.80712890625,3.204345703125,-99.853515625
5.022499900000001,0.39384618401527405,-1.4981716871261597,6.333860397338867,-509.552001953125,-6.317138671875,-77.423095703125
5.0274999000000005,-0.6003460884094238,-3.136404275894165,8.60655689239502,-454.132080078125,-17.9443359375,-56.182861328125
5.0324999,-2.784456491470337,-7.222109317779541,13.550582885742188,230.40771484375,38.818359375,14.862060546875
5.0374999,-3.5637693405151367,-8.284536361694336,14.626776695251465,139.6484375,41.839599609375,19.805908203125
5.0424999,-1.5897499322891235,-1.5933412313461304,8.311470985412598,11.1083984375,0.335693359375,24.383544921875
5.0474999,-0.6655880808830261,-0.7122750282287598,7.0341644287109375,27.77099609375,31.06689453125,51.116943359375
5.0524999,0.10773907601833344,-0.7320271730422974,6.289567947387695,39.73388671875,62.255859375,71.77734375
5.0574999,0.7475894689559937,-0.9247604012489319,6.007051944732666,56.732177734375,76.690673828125,90.6982421875
5.062499900000001,1.0845733880996704,-1.1803414821624756,6.28896951675415,59.75341796875,72.723388671875,101.959228515625
5.0674999000000005,1.1085153818130493,-1.2485761642456055,6.893505096435547,57.281494140625,57.586669921875,103.82080078125
5.0724999,0.8888474106788635,-1.1558008193969727,7.757213592529297,50.048828125,41.3818359375,98.6328125
5.0774999,0.6374561786651611,-0.8846575021743774,8.694543838500977,39.36767578125,32.53173828125,92.22412109375
5.0824999,0.4381389021873474,-0.6123170852661133,9.494206428527832,27.77099609375,27.618408203125,82.611083984375
5.0874999,0.39624038338661194,-0.3405751883983612,10.079588890075684,22.979736328125,22.918701171875,74.462890625
5.0924999,0.5027823448181152,-0.16759411990642548,10.240599632263184,26.092529296875,20.599365234375,67.32177734375
5.0974999,0.7230489253997803,-0.13407529890537262,10.238204956054688,28.13720703125,17.15087890625,59.87548828125
5.102499900000001,0.9882067441940308,-0.15083470940589905,9.973047256469727,36.041259765625,12.786865234375,56.7626953125
5.1074999000000005,1.2258312702178955,-0.1693897694349289,9.64683723449707,47.36328125,11.1083984375,53.863525390625
5.1124999,1.3838485479354858,-0.12090718746185303,9.309853553771973,55.35888671875,11.932373046875,47.9736328125
5.1174999,1.4520833492279053,-0.06224924325942993,9.046490669250488,57.342529296875,12.51220703125,42.572021484375
5.1224999,1.4472949504852295,0.12090718746185303,8.83699893951416,60.85205078125,13.702392578125,37.567138671875
5.1274999,1.3335703611373901,0.23942017555236816,8.704718589782715,61.21826171875,17.364501953125,29.388427734375
5.1324999,1.2413935661315918,0.3669114112854004,8.653841972351074,56.182861328125,18.85986328125,23.681640625
5.1374999,1.1426327228546143,0.46627077460289,8.598775863647461,55.694580078125,19.744873046875,19.866943359375
5.1424999,1.05105459690094,0.5386953949928284,8.513781547546387,52.581787109375,21.697998046875,14.434814453125
5.147499900000001,1.0384849309921265,0.5740098357200623,8.452729225158691,47.4853515625,21.697998046875,11.932373046875
5.1524999000000005,1.0606313943862915,0.5997475385665894,8.311470985412598,46.173095703125,22.796630859375,8.880615234375
5.1574999,1.0881646871566772,0.6548141837120056,8.214506149291992,40.618896484375,24.993896484375,3.875732421875
5.1624999,1.170764684677124,0.702099621295929,8.173206329345703,33.050537109375,25.08544921875,2.50244140625
5.1674999,1.1905168294906616,0.8409633636474609,8.128912925720215,26.031494140625,26.55029296875,-1.5869140625
5.1724999,1.1563993692398071,0.9493009448051453,8.219294548034668,11.810302734375,27.679443359375,-5.18798828125
5.1774999,1.0444705486297607,1.0743980407714844,8.288127899169922,-0.244140625,28.656005859375,-4.669189453125
5.1824999,0.8074445128440857,1.0965443849563599,8.323442459106445,-12.298583984375,30.975341796875,-6.256103515625
5.187499900000001,0.641047477722168,1.1192892789840698,8.416815757751465,-25.390625,29.083251953125,-3.60107421875
5.1924999000000005,0.3932476341724396,1.0576386451721191,8.407837867736816,-33.233642578125,24.96337890625,0.457763671875
5.1974999,0.2555810213088989,0.899621307849884,8.583212852478027,-44.158935546875,17.852783203125,4.57763671875
5.2024999,0.17178396880626678,0.7368155717849731,8.712499618530273,-48.40087890625,14.16015625,7.354736328125
5.2074999,-0.060453593730926514,-0.1933317929506302,8.994417190551758,-55.7861328125,14.6484375,-1.708984375
5.2124999,-0.06404489278793335,-0.5398924946784973,9.096769332885742,-60.11962890625,12.542724609375,-3.84521484375
5.2174999,-0.0347159244120121,-0.6997054219245911,9.008782386779785,-58.65478515625,10.43701171875,-2.8076171875
5.2224999,-0.050876785069704056,-0.8684966564178467,9.099761962890625,-58.074951171875,11.71875,-3.936767578125
5.227499900000001,0.02992752194404602,-0.9169792532920837,9.239224433898926,-56.396484375,11.5966796875,-1.739501953125
5.2324999000000005,-0.013766659423708916,-0.9056068062782288,9.379284858703613,-51.971435546875,13.275146484375,-3.23486328125
5.2374999,0.076015904545784,-0.9163807034492493,9.617507934570312,-53.070068359375,11.199951171875,-5.126953125
