# Time (seconds),Accel_X,Accel_Y,Accel_Z,Gyro_X,Gyro_Y,Gyro_Z
0.0024999,0.1472434103488922,0.10833762586116791,10.078990936279297,2.716064453125,3.265380859375,3.082275390625
0.0074999,0.20530278980731964,0.17896658182144165,9.694122314453125,-2.716064453125,-2.44140625,-2.471923828125
0.012499900000000001,0.24121582508087158,0.02992752194404602,10.018536567687988,2.655029296875,1.861572265625,0.946044921875
0.0174999,0.09217676520347595,-0.01975216343998909,9.769539833068848,-2.3193359375,-1.15966796875,0.091552734375
0.0224999,0.31184476613998413,-0.1711854189634323,9.951498985290527,2.044677734375,0.274658203125,-1.434326171875
0.0274999,-0.06643909960985184,-0.1777694821357727,9.815628051757812,-1.739501953125,0.3662109375,2.50244140625
0.0324999,0.3411737382411957,-0.21368250250816345,9.837176322937012,1.373291015625,-1.28173828125,-3.72314453125
0.0374999,-0.11911153793334961,-0.10295066982507706,9.797073364257812,-0.9765625,1.861572265625,4.547119140625
0.0424999,0.3687070608139038,-0.07422025501728058,9.642048835754395,0.6103515625,-2.593994140625,-5.462646484375
0.0474999,-0.08319851011037827,0.08559270948171616,9.68813705444336,-0.091552734375,3.265380859375,6.134033203125
0.0524999,0.4626794755458832,0.013168109580874443,9.454702377319336,-0.335693359375,-3.72314453125,-6.805419921875
0.0574999,0.0011971008498221636,0.09876082092523575,9.616311073303223,0.91552734375,4.058837890625,6.89697265625
0.0624999,0.547075092792511,-0.0520738884806633,9.332598686218262,-1.251220703125,-4.33349609375,-7.26318359375
0.0674999,0.026336219161748886,-0.07003039866685867,9.745597839355469,1.5869140625,4.57763671875,7.14111328125
0.0724999,0.4902127981185913,-0.17298106849193573,9.3643217086792,-1.983642578125,-4.913330078125,-7.26318359375
0.0774999,0.046088382601737976,-0.15801730751991272,10.034697532653809,2.349853515625,4.638671875,6.34765625
0.0824999,0.34177228808403015,-0.11432313174009323,9.48343276977539,-2.50244140625,-4.39453125,-6.34765625
0.0874999,0.0933738648891449,-0.040701430290937424,10.152013778686523,2.8076171875,4.119873046875,5.035400390625
0.0924999,0.23523031175136566,0.11552023142576218,9.583989143371582,-2.716064453125,-3.753662109375,-4.547119140625
0.0974999,0.14425064623355865,0.09457096457481384,10.092757225036621,2.899169921875,3.23486328125,3.204345703125
0.1024999,0.20530278980731964,0.166995570063591,9.699509620666504,-2.685546875,-2.655029296875,-2.38037109375
0.1074999,0.2346317619085312,0.020350715145468712,10.032901763916016,2.5634765625,1.8310546875,1.129150390625
0.1124999,0.09397241473197937,-0.023343466222286224,9.77013874053955,-2.50244140625,-1.15966796875,-0.06103515625
0.1174999,0.3010708689689636,-0.17178396880626678,9.955689430236816,2.197265625,0.42724609375,-1.40380859375
0.1224999,-0.06703764945268631,-0.17058686912059784,9.808445930480957,-1.708984375,0.335693359375,2.288818359375
0.1274999,-0.06703764945268631,-0.17058686912059784,9.808445930480957,-1.708984375,0.335693359375,2.288818359375
0.1324999,0.32860419154167175,-0.20889410376548767,9.84376049041748,1.373291015625,-1.0986328125,-3.509521484375
0.1374999,-0.12928688526153564,-0.10354922711849213,9.794678688049316,-1.03759765625,1.861572265625,4.364013671875
0.1424999,0.3603273630142212,-0.07302315533161163,9.643844604492188,0.6103515625,-2.532958984375,-5.4931640625
0.1474999,-0.08738835901021957,0.08140286058187485,9.68274974822998,-0.152587890625,3.082275390625,6.011962890625
0.1524999,0.4626794755458832,0.017956512048840523,9.440936088562012,-0.335693359375,-3.47900390625,-6.7138671875
0.1574999,0.0035913025494664907,0.10893617570400238,9.599552154541016,0.762939453125,4.150390625,6.9580078125
0.1624999,0.5422866940498352,-0.043095629662275314,9.327211380004883,-1.129150390625,-4.21142578125,-7.38525390625
0.1674999,0.011971008032560349,-0.06703764945268631,9.732429504394531,1.495361328125,4.608154296875,7.110595703125
0.1724999,0.47465047240257263,-0.18136078119277954,9.372102737426758,-1.983642578125,-4.82177734375,-7.32421875
0.17749990000000002,0.020350715145468712,-0.17717093229293823,10.04068374633789,2.25830078125,4.730224609375,6.53076171875
0.1824999,0.322618693113327,-0.1430535465478897,9.504382133483887,-2.593994140625,-4.33349609375,-6.28662109375
0.1874999,0.06703764945268631,-0.07242459803819656,10.1753568649292,2.593994140625,4.241943359375,5.126953125
0.1924999,0.2172738015651703,0.09277531504631042,9.597756385803223,-2.685546875,-3.72314453125,-4.69970703125
0.1974999,0.1280897855758667,0.07841010391712189,10.10173511505127,2.8076171875,3.326416015625,3.265380859375
0.2024999,0.20769700407981873,0.16519992053508759,9.683348655700684,-2.685546875,-2.777099609375,-2.777099609375
0.20749990000000001,0.23343466222286224,0.02214636653661728,10.026318550109863,2.5634765625,2.13623046875,1.0986328125
0.2124999,0.11432313174009323,-0.01496376097202301,9.763554573059082,-2.410888671875,-1.251220703125,-0.30517578125
0.2174999,0.2992752194404602,-0.16819266974925995,9.967659950256348,2.197265625,0.54931640625,-1.190185546875
0.2224999,-0.0586579404771328,-0.1646013706922531,9.822212219238281,-1.8310546875,0.274658203125,2.044677734375
0.2274999,0.3130418658256531,-0.21368250250816345,9.876082420349121,1.556396484375,-0.946044921875,-3.387451171875
0.2324999,-0.14185644686222076,-0.11671733111143112,9.810839653015137,-1.03759765625,1.708984375,4.2724609375
0.2374999,0.3423708379268646,-0.09038111567497253,9.679757118225098,0.640869140625,-2.471923828125,-5.31005859375
0.2424999,-0.10115502029657364,0.055665191262960434,9.704896926879883,-0.244140625,2.838134765625,5.767822265625
0.2474999,0.4602852761745453,-0.0065840547904372215,9.455899238586426,-0.152587890625,-3.692626953125,-6.622314453125
0.2524999,0.010175357572734356,0.10534487664699554,9.601945877075195,0.54931640625,3.84521484375,6.866455078125
0.2574999,0.5548562407493591,-0.0347159244120121,9.327211380004883,-1.0986328125,-4.45556640625,-7.293701171875
0.2624999,0.023343466222286224,-0.0347159244120121,9.706692695617676,1.434326171875,4.5166015625,6.988525390625
0.2674999,0.4884171485900879,-0.1472434103488922,9.360730171203613,-1.800537109375,-4.730224609375,-7.32421875
0.2724999,0.008978256024420261,-0.1562216579914093,10.013748168945312,2.105712890625,4.547119140625,6.53076171875
0.2774999,0.3321954905986786,-0.14664486050605774,9.488221168518066,-2.50244140625,-4.5166015625,-6.591796875
0.2824999,0.04908113554120064,-0.09457096457481384,10.170568466186523,2.685546875,4.33349609375,5.279541015625
0.28749990000000003,0.22266076505184174,0.06224924325942993,9.581595420837402,-2.62451171875,-3.753662109375,-4.94384765625
0.2924999,0.12629413604736328,0.04728548228740692,10.096946716308594,2.960205078125,3.570556640625,3.814697265625
0.2974999,0.22744916379451752,0.16101007163524628,9.651625633239746,-2.593994140625,-2.86865234375,-2.960205078125
0.3024999,0.24361002445220947,0.01975216343998909,10.018536567687988,2.716064453125,2.227783203125,1.28173828125
0.3074999,0.14484919607639313,0.0077811554074287415,9.747992515563965,-2.44140625,-1.312255859375,-0.640869140625
0.3124999,0.29209262132644653,-0.14903905987739563,9.973047256469727,2.25830078125,0.732421875,-0.79345703125
0.3174999,-0.04967968538403511,-0.14365209639072418,9.82879638671875,-1.983642578125,-0.06103515625,1.708984375
0.3224999,0.2974795699119568,-0.2041056901216507,9.904213905334473,1.52587890625,-0.732421875,-3.0517578125
0.3274999,-0.13946224749088287,-0.12689268589019775,9.831191062927246,-1.15966796875,1.5869140625,4.058837890625
0.3324999,0.35434186458587646,-0.10474632680416107,9.716867446899414,0.762939453125,-2.13623046875,-5.126953125
0.3374999,-0.08619125932455063,0.02992752194404602,9.723451614379883,-0.3662109375,2.9296875,5.584716796875
0.3424999,0.4770447015762329,-0.01735796220600605,9.46727180480957,-0.06103515625,-3.387451171875,-6.4697265625
0.34749990000000003,0.020949264988303185,0.11312603205442429,9.59596061706543,0.457763671875,3.631591796875,6.744384765625
0.35249990000000003,0.5560533404350281,-0.013168109580874443,9.343372344970703,-0.9765625,-4.2724609375,-7.26318359375
0.3574999,0.016759412363171577,-0.005985504016280174,9.688735961914062,1.495361328125,4.39453125,7.080078125
0.3624999,0.4770447015762329,-0.1149216815829277,9.369110107421875,-1.52587890625,-4.69970703125,-7.38525390625
0.3674999,-0.019153613597154617,-0.14784196019172668,9.988609313964844,2.01416015625,4.5166015625,6.805419921875
0.3724999,0.33099839091300964,-0.14664486050605774,9.486425399780273,-2.166748046875,-4.547119140625,-6.561279296875
0.3774999,0.02992752194404602,-0.11911153793334961,10.166977882385254,2.685546875,4.364013671875,5.615234375
0.3824999,0.24121582508087158,0.03711012750864029,9.570222854614258,-2.62451171875,-3.96728515625,-5.18798828125
0.3874999,0.1346738487482071,0.02513911761343479,10.096348762512207,2.86865234375,3.5400390625,3.875732421875
0.3924999,0.25019407272338867,0.16759411990642548,9.616909980773926,-2.5634765625,-2.960205078125,-3.326416015625
0.3974999,0.24480712413787842,0.03770867735147476,10.010157585144043,2.716064453125,2.44140625,1.708984375
0.4024999,0.16759411990642548,0.055665191262960434,9.73781681060791,-2.38037109375,-1.5869140625,-1.251220703125
0.4074999,0.27054479718208313,-0.11013327538967133,9.996989250183105,2.410888671875,1.129150390625,-0.48828125
0.41249990000000003,-0.040701430290937424,-0.1107318252325058,9.846753120422363,-2.105712890625,-0.152587890625,1.40380859375
0.41749990000000003,0.27712884545326233,-0.19871874153614044,9.943717956542969,1.617431640625,-0.54931640625,-2.777099609375
0.4224999,-0.1412578970193863,-0.1430535465478897,9.855133056640625,-1.28173828125,1.28173828125,3.509521484375
0.4274999,0.3477577865123749,-0.1412578970193863,9.749189376831055,1.007080078125,-1.861572265625,-4.638671875
0.4324999,-0.07900865375995636,-0.01496376097202301,9.740809440612793,-0.335693359375,2.349853515625,5.43212890625
0.4374999,0.47584760189056396,-0.04189852997660637,9.481039047241211,0.152587890625,-3.173828125,-6.2255859375
0.4424999,0.026336219161748886,0.09876082092523575,9.582193374633789,0.335693359375,3.753662109375,6.40869140625
0.4474999,0.5482721924781799,0.009576806798577309,9.34157657623291,-0.732421875,-3.96728515625,-7.26318359375
0.4524999,0.019153613597154617,0.02214636653661728,9.64683723449707,1.312255859375,4.33349609375,7.01904296875
0.4574999,0.47644615173339844,-0.07003039866685867,9.354744911193848,-1.556396484375,-4.547119140625,-7.110595703125
0.4624999,-0.014365210197865963,-0.12988543510437012,9.941922187805176,1.800537109375,4.638671875,6.561279296875
0.4674999,0.3495534360408783,-0.14245499670505524,9.481039047241211,-2.166748046875,-4.364013671875,-6.622314453125
0.47249990000000003,0.03890577703714371,-0.14903905987739563,10.152612686157227,2.471923828125,4.150390625,5.584716796875
0.47749990000000003,0.2537853717803955,0.012569558806717396,9.584588050842285,-2.44140625,-3.96728515625,-5.18798828125
0.4824999,0.14185644686222076,-0.013168109580874443,10.105925559997559,2.5634765625,3.60107421875,4.0283203125
0.4874999,0.23822307586669922,0.17417816817760468,9.621698379516602,-2.62451171875,-3.021240234375,-3.204345703125
0.4924999,0.23822307586669922,0.17417816817760468,9.621698379516602,-2.62451171875,-3.021240234375,-3.204345703125
0.4974999,0.23343466222286224,0.04249707981944084,10.013748168945312,2.50244140625,2.410888671875,1.77001953125
0.5024999,0.1538274586200714,0.10773907601833344,9.739612579345703,-2.349853515625,-1.617431640625,-1.312255859375
0.5074999,0.2495955228805542,-0.07661445438861847,9.989208221435547,2.25830078125,0.946044921875,-0.457763671875
0.5124999,-0.03950432687997818,-0.04967968538403511,9.825204849243164,-1.89208984375,-0.30517578125,1.46484375
0.5174999,0.27473464608192444,-0.19692309200763702,9.93593692779541,1.5869140625,-0.54931640625,-2.838134765625
0.5224999,-0.1322796493768692,-0.12988543510437012,9.818621635437012,-1.373291015625,1.220703125,3.265380859375
0.5274999,0.36092591285705566,-0.18974047899246216,9.758167266845703,0.885009765625,-1.861572265625,-4.730224609375
0.5324999,-0.07841010391712189,-0.04010287672281265,9.730634689331055,-0.518798828125,2.716064453125,5.218505859375
0.5374999,0.45848962664604187,-0.08080431073904037,9.512762069702148,0.091552734375,-3.082275390625,-6.34765625
0.5424999,-0.0077811554074287415,0.09816227108240128,9.59596061706543,0.244140625,3.47900390625,6.591796875
0.5474999,0.5057750940322876,-0.0005985504249110818,9.391256332397461,-0.823974609375,-3.936767578125,-7.38525390625
0.5524999,-0.016759412363171577,0.05446808785200119,9.639056205749512,0.91552734375,4.302978515625,6.9580078125
0.5574999,0.46986207365989685,-0.06823474913835526,9.369708061218262,-1.52587890625,-4.547119140625,-7.537841796875
0.5624999,-0.021547814831137657,-0.12090718746185303,9.892841339111328,1.922607421875,4.669189453125,6.927490234375
0.5674999000000001,0.3992331326007843,-0.166995570063591,9.454702377319336,-2.13623046875,-4.57763671875,-7.049560546875
0.5724999000000001,0.05446808785200119,-0.17058686912059784,10.123882293701172,2.349853515625,4.486083984375,5.92041015625
0.5774999000000001,0.30047231912612915,-0.03890577703714371,9.548076629638672,-2.471923828125,-4.150390625,-5.615234375
0.5824999,0.13407529890537262,-0.02274491637945175,10.114903450012207,2.655029296875,3.7841796875,4.39453125
0.5874999,0.23403321206569672,0.17657238245010376,9.606135368347168,-2.5634765625,-3.326416015625,-3.997802734375
0.5924999,0.1885433793067932,0.08559270948171616,10.040084838867188,2.593994140625,2.86865234375,2.288818359375
0.5974999,0.16160862147808075,0.152031809091568,9.734824180603027,-2.50244140625,-2.01416015625,-1.5869140625
0.6024999,0.23044191300868988,-0.028131870552897453,10.011953353881836,2.44140625,1.495361328125,0.091552734375
0.6074999,0.0017956512747332454,-0.04967968538403511,9.81143856048584,-1.983642578125,-0.640869140625,0.6103515625
0.6124999,0.2825157940387726,-0.20290859043598175,9.943120002746582,1.77001953125,-0.06103515625,-2.227783203125
0.6174999,-0.10295066982507706,-0.1711854189634323,9.81263542175293,-1.46484375,0.946044921875,3.143310546875
0.6224999,0.3585317134857178,-0.21787235140800476,9.768941879272461,1.220703125,-1.678466796875,-4.2724609375
0.6274999,-0.08259996026754379,-0.0736217051744461,9.736021041870117,-0.579833984375,2.227783203125,4.8828125
0.6324999,0.4279635548591614,-0.08559270948171616,9.537302017211914,0.1220703125,-2.99072265625,-5.889892578125
0.6374999,-0.03531447425484657,0.10773907601833344,9.61571216583252,0.18310546875,3.47900390625,6.317138671875
0.6424999,0.4800374507904053,0.023343466222286224,9.413402557373047,-0.640869140625,-3.936767578125,-7.14111328125
0.6474999,-0.013766659423708916,0.08918401598930359,9.62828254699707,1.0986328125,4.119873046875,6.988525390625
0.6524999,0.48722004890441895,-0.04728548228740692,9.3643217086792,-1.40380859375,-4.547119140625,-7.476806640625
0.6574999,-0.002992752008140087,-0.09816227108240128,9.833584785461426,1.8310546875,4.638671875,7.01904296875
0.6624999,0.4273650050163269,-0.1693897694349289,9.425373077392578,-1.922607421875,-4.638671875,-6.8359375
0.6674999,0.053270988166332245,-0.166995570063591,10.086771965026855,2.38037109375,4.425048828125,5.9814453125
0.6724999,0.30945056676864624,-0.06344634294509888,9.531316757202148,-2.50244140625,-4.2724609375,-5.767822265625
0.6774999,0.1256955862045288,-0.02454056777060032,10.129268646240234,2.62451171875,3.875732421875,4.608154296875
0.6824999,0.2298433631658554,0.16519992053508759,9.615114212036133,-2.655029296875,-3.326416015625,-3.997802734375
0.6874999,0.1759738177061081,0.09516951441764832,10.063427925109863,2.74658203125,2.777099609375,2.74658203125
0.6924999000000001,0.17058686912059784,0.16759411990642548,9.740809440612793,-2.38037109375,-2.25830078125,-1.861572265625
0.6974999000000001,0.23343466222286224,-0.013766659423708916,10.019734382629395,2.38037109375,1.495361328125,0.213623046875
0.7024999000000001,0.03411737456917763,-0.033518824726343155,9.79527759552002,-2.0751953125,-0.823974609375,0.579833984375
0.7074999,0.2992752194404602,-0.20530278980731964,9.93593692779541,1.861572265625,0.030517578125,-1.983642578125
0.7124999,-0.08439560979604721,-0.1693897694349289,9.791088104248047,-1.5869140625,0.79345703125,2.8076171875
0.7174999,0.3555389642715454,-0.23403321206569672,9.788095474243164,1.190185546875,-1.617431640625,-4.119873046875
0.7224999,-0.09935937076807022,-0.09217676520347595,9.749189376831055,-0.762939453125,2.197265625,4.82177734375
0.7274999,0.3998316824436188,-0.09038111567497253,9.589376449584961,0.3662109375,-2.8076171875,-5.859375
0.7324999,-0.05925649031996727,0.10055647045373917,9.655815124511719,0.152587890625,3.265380859375,6.16455078125
0.7374999,0.46746787428855896,0.017956512048840523,9.444527626037598,-0.48828125,-3.875732421875,-6.9580078125
0.7424999,-0.009576806798577309,0.11192893236875534,9.625887870788574,0.885009765625,4.0283203125,7.049560546875
0.7474999,0.5051765441894531,-0.05027823522686958,9.359533309936523,-1.312255859375,-4.39453125,-7.354736328125
0.7524999,0.002394201699644327,-0.076015904545784,9.793481826782227,1.739501953125,4.425048828125,7.110595703125
0.7574999,0.4405331015586853,-0.1867477297782898,9.41100788116455,-1.953125,-4.669189453125,-7.171630859375
0.7624999,0.03411737456917763,-0.17717093229293823,10.073004722595215,2.288818359375,4.547119140625,6.195068359375
0.7674999,0.3016694188117981,-0.11252748221158981,9.522936820983887,-2.410888671875,-4.302978515625,-5.950927734375
0.7724999,0.08918401598930359,-0.053270988166332245,10.145429611206055,2.716064453125,3.936767578125,4.94384765625
0.7774999,0.2082955539226532,0.13527239859104156,9.603741645812988,-2.593994140625,-3.47900390625,-4.2724609375
0.7824999,0.15083470940589905,0.08798690885305405,10.065223693847656,2.62451171875,3.021240234375,2.960205078125
0.7874999,0.18734627962112427,0.1759738177061081,9.710283279418945,-2.62451171875,-2.471923828125,-2.227783203125
0.7924999,0.24779987335205078,-0.002394201699644327,10.00836181640625,2.410888671875,1.64794921875,0.823974609375
0.7974999,0.08259996026754379,-0.02513911761343479,9.774328231811523,-2.105712890625,-0.79345703125,0.244140625
0.8024999,0.31543606519699097,-0.2082955539226532,9.936535835266113,1.953125,0.244140625,-1.678466796875
0.8074999,-0.06224924325942993,-0.17058686912059784,9.801861763000488,-1.617431640625,0.48828125,2.532958984375
0.8124999,0.3447650372982025,-0.2406172752380371,9.824007987976074,1.373291015625,-1.251220703125,-3.936767578125
0.8174999000000001,-0.11192893236875534,-0.08858546614646912,9.787496566772461,-0.823974609375,1.983642578125,4.608154296875
0.8224999000000001,0.37648820877075195,-0.08918401598930359,9.64683723449707,0.335693359375,-2.50244140625,-5.828857421875
0.8274999000000001,-0.07302315533161163,0.10534487664699554,9.695918083190918,0,3.23486328125,6.134033203125
0.8324999000000001,0.4668693244457245,0.012569558806717396,9.470264434814453,-0.42724609375,-3.692626953125,-6.77490234375
0.8374999,0.010175357572734356,0.12090718746185303,9.625887870788574,0.91552734375,4.0283203125,6.9580078125
0.8424999,0.5392939448356628,-0.048482585698366165,9.358335494995117,-1.15966796875,-4.39453125,-7.50732421875
0.8474999,0.02454056777060032,-0.058059390634298325,9.746794700622559,1.556396484375,4.608154296875,7.110595703125
0.8524999,0.4686649739742279,-0.17717093229293823,9.379284858703613,-1.983642578125,-4.547119140625,-7.14111328125
0.8574999,0.4686649739742279,-0.17717093229293823,9.379284858703613,-1.983642578125,-4.547119140625,-7.14111328125
0.8624999,0.0347159244120121,-0.1646013706922531,10.02452278137207,2.13623046875,4.547119140625,6.40869140625
0.8674999,0.3124433159828186,-0.11671733111143112,9.496002197265625,-2.410888671875,-4.33349609375,-6.2255859375
0.8724999,0.07900865375995636,-0.05147533491253853,10.148422241210938,2.62451171875,4.21142578125,5.06591796875
0.8774999,0.20889410376548767,0.12449848651885986,9.605537414550781,-2.685546875,-3.509521484375,-4.486083984375
0.8824999,0.1412578970193863,0.08738835901021957,10.085575103759766,2.74658203125,3.265380859375,3.173828125
0.8874999,0.19931729137897491,0.18136078119277954,9.692327499389648,-2.593994140625,-2.593994140625,-2.532958984375
0.8924999,0.24420857429504395,0.0065840547904372215,10.012551307678223,2.38037109375,1.983642578125,1.03759765625
0.8974999,0.10295066982507706,-0.008379706181585789,9.756970405578613,-2.197265625,-1.15966796875,-0.06103515625
0.9024999,0.2992752194404602,-0.19572599232196808,9.943120002746582,1.922607421875,0.640869140625,-1.434326171875
0.9074999,-0.07062894850969315,-0.1538274586200714,9.799467086791992,-1.861572265625,0.457763671875,2.13623046875
0.9124999,0.3076549172401428,-0.23702596127986908,9.849146842956543,1.373291015625,-1.068115234375,-3.509521484375
0.9174999,-0.14185644686222076,-0.08499415963888168,9.79408073425293,-0.946044921875,1.77001953125,4.21142578125
0.9224999,0.34356793761253357,-0.09816227108240128,9.672574996948242,0.457763671875,-2.410888671875,-5.43212890625
0.9274999,-0.08379705995321274,0.08918401598930359,9.704896926879883,-0.091552734375,2.960205078125,6.04248046875
0.9324999,0.4644751250743866,-0.014365210197865963,9.457695007324219,-0.274658203125,-3.570556640625,-6.805419921875
0.9374999,0.02753331884741783,0.12030863761901855,9.604938507080078,0.762939453125,3.814697265625,6.77490234375
0.9424999000000001,0.5512649416923523,-0.05147533491253853,9.336189270019531,-1.3427734375,-4.241943359375,-7.354736328125
0.9474999000000001,0.026336219161748886,-0.03172317147254944,9.703699111938477,1.373291015625,4.547119140625,7.2021484375
0.9524999000000001,0.46567222476005554,-0.16340427100658417,9.370306968688965,-1.800537109375,-4.7607421875,-7.476806640625
0.9574999000000001,0.004189853090792894,-0.15741875767707825,10.00955867767334,2.166748046875,4.39453125,6.4697265625
0.9624999,0.3076549172401428,-0.14844051003456116,9.509170532226562,-2.38037109375,-4.39453125,-6.317138671875
0.9674999,0.05506663769483566,-0.08918401598930359,10.178948402404785,2.593994140625,4.2724609375,5.37109375
0.9724999,0.22206220030784607,0.07841010391712189,9.621698379516602,-2.685546875,-3.90625,-4.8828125
0.9774999,0.152031809091568,0.06224924325942993,10.109517097473145,2.74658203125,3.2958984375,3.570556640625
0.9824999,0.23942017555236816,0.1885433793067932,9.670180320739746,-2.685546875,-2.74658203125,-2.9296875
0.9874999,0.26755204796791077,0.03411737456917763,10.01075553894043,2.44140625,2.13623046875,1.373291015625
0.9924999,0.14006079733371735,0.04369417950510979,9.741408348083496,-2.410888671875,-1.495361328125,-0.30517578125
0.9974999,0.28790274262428284,-0.14784196019172668,9.955689430236816,2.105712890625,0.6103515625,-0.823974609375
1.0024999,-0.076015904545784,-0.11133038252592087,9.812037467956543,-1.77001953125,0.030517578125,1.861572265625
1.0074999000000002,0.27653029561042786,-0.22685061395168304,9.900622367858887,1.46484375,-0.885009765625,-3.326416015625
1.0124999000000001,-0.15801730751991272,-0.11013327538967133,9.810839653015137,-1.28173828125,1.617431640625,3.90625
1.0174999000000002,0.3429693877696991,-0.1472434103488922,9.716867446899414,0.701904296875,-2.25830078125,-5.126953125
1.0224999000000001,-0.08200141042470932,0.03411737456917763,9.70429801940918,-0.3662109375,2.716064453125,5.67626953125
1.0274999,0.4770447015762329,-0.05506663769483566,9.470863342285156,-0.06103515625,-3.387451171875,-6.7138671875
1.0324999000000001,0.020949264988303185,0.13527239859104156,9.583391189575195,0.54931640625,3.84521484375,6.744384765625
1.0374999,0.5494692921638489,-0.02992752194404602,9.36013126373291,-0.9765625,-4.425048828125,-7.537841796875
1.0424999000000001,0.005985504016280174,0.03950432687997818,9.674968719482422,1.373291015625,4.57763671875,7.26318359375
1.0474999,0.4734533727169037,-0.12330138683319092,9.385869026184082,-1.800537109375,-4.7607421875,-7.537841796875
1.0524999000000002,-0.02214636653661728,-0.1173158809542656,9.980828285217285,1.953125,4.82177734375,6.89697265625
1.0574999,0.365115761756897,-0.181959331035614,9.493009567260742,-2.349853515625,-4.730224609375,-6.9580078125
1.0624999000000002,0.04489128291606903,-0.11611878126859665,10.176554679870605,2.62451171875,4.730224609375,5.92041015625
1.0674999,0.2849099934101105,-0.0065840547904372215,9.548674583435059,-2.716064453125,-4.180908203125,-5.7373046875
1.0724999000000002,0.14185644686222076,0.03232172131538391,10.097545623779297,3.021240234375,3.875732421875,4.180908203125
1.0774999,0.2537853717803955,0.166995570063591,9.579200744628906,-2.8076171875,-3.2958984375,-3.570556640625
1.0824999000000002,0.21607670187950134,0.07721300423145294,10.01075553894043,2.960205078125,2.74658203125,2.288818359375
1.0874999,0.15682020783424377,0.08798690885305405,9.72165584564209,-2.62451171875,-1.77001953125,-1.52587890625
1.0924999000000002,0.23702596127986908,-0.0628477931022644,10.005369186401367,2.50244140625,1.40380859375,-0.244140625
1.0974999,-0.035913024097681046,-0.09935937076807022,9.829395294189453,-2.13623046875,-0.335693359375,1.15966796875
1.1024999000000002,0.27653029561042786,-0.1951274424791336,9.959280967712402,1.89208984375,-0.18310546875,-2.532958984375
1.1074999,-0.12270283699035645,-0.17537526786327362,9.836577415466309,-1.495361328125,1.190185546875,3.387451171875
1.1124999000000002,0.36750996112823486,-0.16819266974925995,9.774927139282227,1.190185546875,-1.708984375,-4.425048828125
1.1174999,-0.07661445438861847,-0.0454898327589035,9.745597839355469,-0.732421875,2.38037109375,5.035400390625
1.1224999000000002,0.4572925269603729,-0.04249707981944084,9.518747329711914,0.244140625,-2.9296875,-6.256103515625
1.1274999,-0.01735796220600605,0.1215057373046875,9.609128952026367,0.274658203125,3.5400390625,6.34765625
1.1324999000000002,0.5033808946609497,0.02753331884741783,9.388263702392578,-0.579833984375,-3.96728515625,-7.2021484375
1.1374999000000001,-0.028730420395731926,0.07302315533161163,9.637859344482422,1.129150390625,4.486083984375,6.927490234375
1.1424999000000002,0.4686649739742279,-0.06344634294509888,9.351153373718262,-1.434326171875,-4.638671875,-7.50732421875
1.1474999000000001,-0.03770867735147476,-0.10953472554683685,9.87967300415039,1.983642578125,4.547119140625,6.9580078125
1.1524999000000002,0.4040215313434601,-0.17896658182144165,9.425971984863281,-2.197265625,-4.669189453125,-7.049560546875
1.1574999000000001,0.047884032130241394,-0.15682020783424377,10.11550235748291,2.471923828125,4.669189453125,6.103515625
1.1624999,0.3166331648826599,-0.05626374110579491,9.517550468444824,-2.593994140625,-4.21142578125,-5.767822265625
1.1674999000000001,0.14245499670505524,-0.004788403399288654,10.117298126220703,2.899169921875,3.875732421875,4.5166015625
1.1724999,0.2495955228805542,0.1628057211637497,9.584588050842285,-2.74658203125,-3.387451171875,-3.96728515625
1.1774999000000002,0.18974047899246216,0.0999579206109047,10.055646896362305,2.8076171875,2.86865234375,2.685546875
1.1824999,0.1711854189634323,0.14006079733371735,9.738415718078613,-2.74658203125,-2.227783203125,-1.617431640625
1.1874999000000002,0.228047713637352,-0.01735796220600605,10.046070098876953,2.532958984375,1.434326171875,0.30517578125
1.1924999,0.013168109580874443,-0.06643909960985184,9.829395294189453,-2.227783203125,-0.762939453125,0.732421875
1.1974999000000002,0.29149407148361206,-0.1933317929506302,9.978434562683105,1.983642578125,-0.1220703125,-1.953125
1.2024999,-0.08619125932455063,-0.18794482946395874,9.82999324798584,-1.556396484375,0.8544921875,2.9296875
1.2074999000000002,0.37229835987091064,-0.19632454216480255,9.798270225524902,1.251220703125,-1.64794921875,-4.21142578125
1.2124999,-0.07841010391712189,-0.08140286058187485,9.75517463684082,-0.8544921875,2.166748046875,4.730224609375
1.2174999000000002,0.4291606545448303,-0.05506663769483566,9.55705451965332,0.518798828125,-2.86865234375,-5.92041015625
1.2224999,-0.043095629662275314,0.10534487664699554,9.631275177001953,0.091552734375,3.326416015625,6.256103515625
1.2274999000000002,-0.043095629662275314,0.10534487664699554,9.631275177001953,0.091552734375,3.326416015625,6.256103515625
1.2324999,0.4794389009475708,0.03531447425484657,9.41759204864502,-0.6103515625,-3.814697265625,-6.927490234375
1.2374999000000002,-0.021547814831137657,0.07541735470294952,9.630077362060547,0.946044921875,4.058837890625,7.110595703125
1.2424999,0.49559974670410156,-0.050876785069704056,9.35893440246582,-1.251220703125,-4.669189453125,-7.415771484375
1.2474999000000002,-0.0071826050989329815,-0.12330138683319092,9.834183692932129,1.8310546875,4.5166015625,6.805419921875
1.2524999,0.4381389021873474,-0.18734627962112427,9.422979354858398,-2.01416015625,-4.547119140625,-6.805419921875
1.2574999000000002,0.05686229094862938,-0.19572599232196808,10.094552993774414,2.3193359375,4.39453125,6.2255859375
1.2624999000000001,0.3214215636253357,-0.07900865375995636,9.531915664672852,-2.288818359375,-4.241943359375,-6.011962890625
1.2674999000000002,0.1280897855758667,-0.04010287672281265,10.136451721191406,2.716064453125,3.96728515625,4.69970703125
1.2724999000000001,0.23822307586669922,0.17537526786327362,9.606734275817871,-2.62451171875,-3.41796875,-3.997802734375
1.2774999000000002,0.17058686912059784,0.10295066982507706,10.068815231323242,2.655029296875,3.021240234375,2.685546875
1.2824999000000001,0.1735796183347702,0.19273324310779572,9.738415718078613,-2.38037109375,-2.3193359375,-2.0751953125
1.2874999,0.2298433631658554,0.0011971008498221636,10.026318550109863,2.349853515625,1.64794921875,0.213623046875
1.2924999000000001,0.0347159244120121,-0.02274491637945175,9.812037467956543,-2.166748046875,-0.54931640625,0.457763671875
1.2974999,0.3016694188117981,-0.19931729137897491,9.947908401489258,1.64794921875,0.244140625,-1.953125
1.3024999000000002,-0.07960720360279083,-0.16998831927776337,9.818621635437012,-1.40380859375,0.885009765625,2.86865234375
1.3074999,0.3585317134857178,-0.2346317619085312,9.79527759552002,1.220703125,-1.434326171875,-4.21142578125
1.3124999000000002,-0.090979665517807,-0.08259996026754379,9.765350341796875,-0.579833984375,2.288818359375,4.82177734375
1.3174999,0.4010287821292877,-0.0933738648891449,9.59177017211914,0.244140625,-2.777099609375,-5.889892578125
1.3224999000000002,-0.05746084079146385,0.09876082092523575,9.657610893249512,0.091552734375,3.41796875,6.500244140625
1.3274999,0.46327802538871765,0.010175357572734356,9.44871711730957,-0.42724609375,-3.90625,-7.080078125
1.3324999000000002,-0.010773907415568829,0.09516951441764832,9.637859344482422,1.0986328125,4.08935546875,6.866455078125
1.3374999,0.5051765441894531,-0.05446808785200119,9.368511199951172,-1.40380859375,-4.486083984375,-7.476806640625
1.3424999000000002,0.019153613597154617,-0.08918401598930359,9.810839653015137,1.77001953125,4.39453125,7.110595703125
1.3474999,0.4537012279033661,-0.17717093229293823,9.41400146484375,-1.953125,-4.669189453125,-7.14111328125
1.3524999000000002,0.07302315533161163,-0.16998831927776337,10.0765962600708,2.25830078125,4.5166015625,6.011962890625
1.3574999,0.32022446393966675,-0.08080431073904037,9.52353572845459,-2.44140625,-4.21142578125,-5.79833984375
1.3624999000000002,0.12270283699035645,-0.030526071786880493,10.138845443725586,2.593994140625,3.936767578125,4.669189453125
1.3674999,0.21607670187950134,0.16819266974925995,9.626486778259277,-2.74658203125,-3.23486328125,-4.2724609375
1.3724999000000002,0.15921440720558167,0.10235211998224258,10.07779312133789,2.471923828125,3.173828125,2.716064453125
1.3774999,0.16579847037792206,0.1909375786781311,9.743802070617676,-2.593994140625,-2.105712890625,-1.861572265625
1.3824999000000002,0.23523031175136566,-0.0017956512747332454,10.026318550109863,2.25830078125,1.861572265625,0.3662109375
1.3874999000000001,0.04728548228740692,-0.02274491637945175,9.785700798034668,-1.953125,-0.823974609375,0.42724609375
1.3924999000000002,0.31124621629714966,-0.21308395266532898,9.931148529052734,1.89208984375,0.152587890625,-1.800537109375
1.3974999000000001,-0.0736217051744461,-0.17537526786327362,9.783905029296875,-1.617431640625,0.91552734375,2.716064453125
1.4024999000000002,0.3627215623855591,-0.25318682193756104,9.779715538024902,1.007080078125,-1.373291015625,-4.180908203125
1.4074999000000001,-0.09576806426048279,-0.09038111567497253,9.73661994934082,-0.823974609375,2.0751953125,4.82177734375
1.4124999,0.3932476341724396,-0.1041477769613266,9.583989143371582,0.396728515625,-2.8076171875,-5.615234375
1.4174999000000001,-0.05985504388809204,0.11013327538967133,9.64803409576416,0.1220703125,3.2958984375,6.16455078125
1.4224999,0.46148237586021423,0.012569558806717396,9.445125579833984,-0.701904296875,-3.90625,-7.049560546875
1.4274999000000002,0,0.11911153793334961,9.633070945739746,0.91552734375,4.150390625,6.89697265625
1.4324999,0.5093663930892944,-0.05386953800916672,9.365518569946289,-1.373291015625,-4.57763671875,-7.415771484375
1.4374999000000002,0.015562310814857483,-0.07302315533161163,9.798270225524902,1.800537109375,4.5166015625,6.988525390625
1.4424999,0.44412440061569214,-0.18734627962112427,9.406818389892578,-2.01416015625,-4.57763671875,-6.988525390625
1.4474999000000002,0.05027823522686958,-0.16879121959209442,10.06582260131836,2.349853515625,4.547119140625,6.16455078125
1.4524999,0.3034650683403015,-0.10235211998224258,9.517550468444824,-2.50244140625,-4.302978515625,-5.9814453125
1.4574999000000002,0.11372458189725876,-0.04189852997660637,10.137648582458496,2.532958984375,3.997802734375,4.669189453125
1.4624999,0.21308395266532898,0.14185644686222076,9.61571216583252,-2.685546875,-3.35693359375,-4.180908203125
1.4674999000000002,0.1693897694349289,0.09157821536064148,10.070611000061035,2.716064453125,2.9296875,2.716064453125
1.4724999,0.18495208024978638,0.17477671802043915,9.724050521850586,-2.655029296875,-2.288818359375,-2.044677734375
1.4774999000000002,0.24899697303771973,-0.0011971008498221636,10.011354446411133,2.50244140625,1.64794921875,0.42724609375
1.4824999,0.06165069341659546,-0.01496376097202301,9.77133560180664,-2.166748046875,-0.79345703125,0.54931640625
1.4874999000000002,0.3148375153541565,-0.20231004059314728,9.928754806518555,1.89208984375,0.18310546875,-2.01416015625
1.4924999,-0.08140286058187485,-0.15502455830574036,9.790489196777344,-1.556396484375,0.823974609375,2.5634765625
1.4974999000000002,0.3477577865123749,-0.2495955228805542,9.803058624267578,1.190185546875,-1.373291015625,-4.08935546875
1.5024999,-0.1173158809542656,-0.08200141042470932,9.764153480529785,-0.732421875,2.105712890625,4.913330078125
1.5074999000000002,0.375291109085083,-0.11671733111143112,9.617507934570312,0.335693359375,-2.74658203125,-5.950927734375
1.5124999000000001,-0.076015904545784,0.10654197633266449,9.665990829467773,0.152587890625,3.35693359375,6.195068359375
1.5174999000000002,0.4513070285320282,-0.013766659423708916,9.455301284790039,-0.518798828125,-3.90625,-6.927490234375
1.5224999000000001,-0.0065840547904372215,0.1173158809542656,9.621698379516602,1.007080078125,4.150390625,6.988525390625
1.5274999000000002,0.5063736438751221,-0.076015904545784,9.352350234985352,-1.28173828125,-4.45556640625,-7.4462890625
1.5324999000000001,0.011372458189725876,-0.06703764945268631,9.784503936767578,1.861572265625,4.608154296875,7.14111328125
1.5374999000000003,0.44592007994651794,-0.20111294090747833,9.391256332397461,-2.197265625,-4.69970703125,-7.01904296875
1.5424999000000001,0.0520738884806633,-0.15562310814857483,10.05923843383789,2.3193359375,4.730224609375,6.2255859375
1.5474999,0.3064578175544739,-0.10714052617549896,9.506776809692383,-2.532958984375,-4.241943359375,-5.889892578125
1.5524999000000002,0.1173158809542656,-0.02693476900458336,10.132261276245117,2.655029296875,3.814697265625,4.791259765625
1.5574999,0.2082955539226532,0.1364694982767105,9.612719535827637,-2.685546875,-3.448486328125,-4.150390625
1.5624999000000002,0.16759411990642548,0.1041477769613266,10.078392028808594,2.899169921875,3.082275390625,2.655029296875
1.5674999,0.1711854189634323,0.152031809091568,9.734225273132324,-2.62451171875,-2.25830078125,-1.64794921875
1.5724999000000002,0.24001872539520264,0.011971008032560349,10.037690162658691,2.471923828125,1.5869140625,0.30517578125
1.5774999,0.053270988166332245,-0.050876785069704056,9.792284965515137,-2.349853515625,-0.701904296875,0.30517578125
1.5824999000000002,0.3076549172401428,-0.17956513166427612,9.962871551513672,2.13623046875,0.18310546875,-1.89208984375
1.5874999,0.3076549172401428,-0.17956513166427612,9.962871551513672,2.13623046875,0.18310546875,-1.89208984375
1.5924999000000002,-0.08200141042470932,-0.19273324310779572,9.807249069213867,-1.5869140625,0.518798828125,2.50244140625
1.5974999,0.3555389642715454,-0.20530278980731964,9.817423820495605,1.46484375,-1.3427734375,-3.875732421875
1.6024999000000002,-0.10893617570400238,-0.11432313174009323,9.759963035583496,-0.9765625,2.01416015625,4.974365234375
1.6074999,0.395043283700943,-0.05746084079146385,9.59057331085205,0.640869140625,-2.655029296875,-5.67626953125
1.6124999000000002,-0.06763619929552078,0.07781155407428741,9.640851974487305,-0.091552734375,3.265380859375,6.072998046875
1.6174999,0.46986207365989685,0.04429273307323456,9.41400146484375,-0.30517578125,-3.814697265625,-6.77490234375
1.6224999000000002,-0.010773907415568829,0.07841010391712189,9.604938507080078,0.79345703125,3.96728515625,6.988525390625
1.6274999,0.5207388401031494,-0.0347159244120121,9.327211380004883,-1.129150390625,-4.33349609375,-7.38525390625
1.6324999000000002,0.014365210197865963,-0.11192893236875534,9.783307075500488,1.64794921875,4.486083984375,6.866455078125
1.6374999000000001,0.4596867263317108,-0.17537526786327362,9.387065887451172,-1.922607421875,-4.608154296875,-6.8359375
1.6424999000000002,0.06404489278793335,-0.1885433793067932,10.062829971313477,2.410888671875,4.33349609375,6.04248046875
1.6474999000000001,0.3196259140968323,-0.08978256583213806,9.518747329711914,-2.38037109375,-4.058837890625,-5.767822265625
1.6524999000000002,0.12090718746185303,-0.05027823522686958,10.135852813720703,2.62451171875,3.997802734375,4.5166015625
1.6574999000000001,0.22026655077934265,0.15263035893440247,9.625887870788574,-2.593994140625,-3.5400390625,-4.180908203125
1.6624999000000003,0.16101007163524628,0.09038111567497253,10.072406768798828,2.685546875,2.899169921875,2.50244140625
1.6674999000000001,0.1628057211637497,0.1777694821357727,9.739013671875,-2.532958984375,-2.197265625,-1.8310546875
1.6724999,0.2322375625371933,-0.004189853090792894,10.021530151367188,2.3193359375,1.495361328125,0.30517578125
1.6774999000000002,0.038307227194309235,-0.02454056777060032,9.792284965515137,-2.01416015625,-0.732421875,0.457763671875
1.6824999,0.30885201692581177,-0.20290859043598175,9.942521095275879,1.800537109375,0.1220703125,-2.25830078125
1.6874999000000002,-0.08080431073904037,-0.17058686912059784,9.80904483795166,-1.46484375,0.9765625,2.9296875
1.6924999,0.3561375141143799,-0.2364274114370346,9.798270225524902,1.068115234375,-1.373291015625,-4.180908203125
1.6974999000000002,-0.10474632680416107,-0.08559270948171616,9.765350341796875,-0.762939453125,2.13623046875,4.913330078125
1.7024999,0.3902548849582672,-0.0999579206109047,9.594164848327637,0.274658203125,-2.899169921875,-5.859375
1.7074999000000002,-0.07122749835252762,0.10893617570400238,9.654019355773926,0.18310546875,3.35693359375,6.500244140625
1.7124999,0.4531026780605316,0.009576806798577309,9.443928718566895,-0.518798828125,-3.90625,-6.988525390625
1.7174999000000002,-0.025737667456269264,0.1041477769613266,9.628880500793457,0.91552734375,4.241943359375,7.080078125
1.7224999,0.4878185987472534,-0.06344634294509888,9.35654067993164,-1.40380859375,-4.486083984375,-7.4462890625
1.7274999000000002,-0.0011971008498221636,-0.08499415963888168,9.819219589233398,1.89208984375,4.547119140625,6.9580078125
1.7324999,0.4339490532875061,-0.19572599232196808,9.406818389892578,-2.0751953125,-4.69970703125,-6.89697265625
1.7374999000000002,0.05985504388809204,-0.16819266974925995,10.080187797546387,2.349853515625,4.5166015625,6.072998046875
1.7424999,0.31364041566848755,-0.090979665517807,9.515754699707031,-2.593994140625,-4.302978515625,-5.859375
1.7474999000000002,0.12928688526153564,-0.02693476900458336,10.119093894958496,2.74658203125,3.936767578125,4.5166015625
1.7524999,0.2232593148946762,0.15083470940589905,9.600749015808105,-2.62451171875,-3.35693359375,-3.936767578125
1.7574999000000002,0.17298106849193573,0.09816227108240128,10.059837341308594,2.593994140625,2.899169921875,2.5634765625
1.7624999000000001,0.15801730751991272,0.1604115068912506,9.744400978088379,-2.62451171875,-2.13623046875,-1.861572265625
1.7674999000000002,0.23343466222286224,-0.011372458189725876,10.032303810119629,2.471923828125,1.46484375,0
1.7724999000000001,0.019153613597154617,-0.03651157766580582,9.816226959228516,-2.044677734375,-0.42724609375,0.762939453125
1.7774999000000002,0.3010708689689636,-0.20111294090747833,9.955090522766113,1.983642578125,0.06103515625,-2.044677734375
1.7824999000000001,-0.09277531504631042,-0.17657238245010376,9.81024169921875,-1.312255859375,0.946044921875,3.204345703125
1.7874999000000003,0.3669114112854004,-0.2364274114370346,9.786299705505371,1.251220703125,-1.739501953125,-4.39453125
1.7924999000000001,-0.09217676520347595,-0.07841010391712189,9.750985145568848,-0.701904296875,2.13623046875,5.096435546875
1.7974999,0.41718965768814087,-0.09935937076807022,9.564237594604492,0.213623046875,-2.99072265625,-6.195068359375
1.8024999000000002,-0.050876785069704056,0.11851298063993454,9.630077362060547,0.152587890625,3.509521484375,6.53076171875
1.8074999,0.4644751250743866,0.012569558806717396,9.424176216125488,-0.67138671875,-4.08935546875,-7.01904296875
1.8124999000000002,-0.02454056777060032,0.10055647045373917,9.638457298278809,1.220703125,4.08935546875,6.9580078125
1.8174999,0.4752490520477295,-0.06643909960985184,9.368511199951172,-1.3427734375,-4.57763671875,-7.4462890625
1.8224999000000002,-0.0011971008498221636,-0.0999579206109047,9.870695114135742,1.77001953125,4.57763671875,6.9580078125
1.8274999,0.4207809567451477,-0.20111294090747833,9.436745643615723,-2.166748046875,-4.69970703125,-6.927490234375
1.8324999000000002,0.07062894850969315,-0.17717093229293823,10.111311912536621,2.50244140625,4.547119140625,5.950927734375
1.8374999,0.31364041566848755,-0.0867898091673851,9.527725219726562,-2.593994140625,-4.364013671875,-5.706787109375
1.8424999000000002,0.1472434103488922,-0.023942016065120697,10.110115051269531,2.716064453125,3.692626953125,4.39453125
1.8474999,0.2364274114370346,0.14185644686222076,9.588777542114258,-2.777099609375,-3.41796875,-3.753662109375
1.8524999000000002,0.19452889263629913,0.090979665517807,10.034697532653809,2.685546875,2.899169921875,2.38037109375
1.8574999,0.14844051003456116,0.13587094843387604,9.728838920593262,-2.50244140625,-1.8310546875,-1.40380859375
1.8624999000000002,0.23044191300868988,-0.017956512048840523,10.013150215148926,2.593994140625,1.373291015625,-0.213623046875
1.8674999,-0.01496376097202301,-0.04668693244457245,9.819219589233398,-2.0751953125,-0.6103515625,0.946044921875
1.8724999000000002,0.28371289372444153,-0.181959331035614,9.948506355285645,1.89208984375,-0.213623046875,-2.288818359375
1.8774999,-0.10953472554683685,-0.16519992053508759,9.824007987976074,-1.495361328125,1.068115234375,3.265380859375
1.8824999000000002,0.36990416049957275,-0.2017114907503128,9.769539833068848,1.129150390625,-1.861572265625,-4.547119140625
1.8874999000000001,-0.07481880486011505,-0.06584054976701736,9.738415718078613,-0.518798828125,2.471923828125,5.0048828125
1.8924999000000002,0.4495113790035248,-0.07900865375995636,9.522936820983887,0.18310546875,-3.11279296875,-6.378173828125
1.8974999000000001,-0.020949264988303185,0.10953472554683685,9.603741645812988,0.30517578125,3.509521484375,6.65283203125
1.9024999000000002,0.49380409717559814,0.010773907415568829,9.39245319366455,-0.701904296875,-4.119873046875,-7.26318359375
1.9074999000000001,-0.02274491637945175,0.0736217051744461,9.649829864501953,1.220703125,4.39453125,6.9580078125
1.9124999000000003,0.46806642413139343,-0.07841010391712189,9.370306968688965,-1.617431640625,-4.69970703125,-7.4462890625
1.9174999000000001,-0.013168109580874443,-0.11133038252592087,9.916783332824707,1.89208984375,4.57763671875,6.683349609375
1.9224999,0.3908534348011017,-0.18136078119277954,9.453505516052246,-2.13623046875,-4.608154296875,-6.8359375
1.9274999000000002,0.06643909960985184,-0.1496376097202301,10.137049674987793,2.471923828125,4.547119140625,5.79833984375
1.9324999,0.2998737692832947,-0.031124621629714966,9.54209041595459,-2.716064453125,-4.058837890625,-5.401611328125
1.9374999000000002,0.15801730751991272,0.0077811554074287415,10.104129791259766,2.838134765625,3.692626953125,4.08935546875
1.9424999,0.25498247146606445,0.16639702022075653,9.59715747833252,-2.716064453125,-3.082275390625,-3.47900390625
1.9474999000000002,0.22206220030784607,0.07960720360279083,10.02571964263916,2.716064453125,2.685546875,2.01416015625
1.9524999,0.22206220030784607,0.07960720360279083,10.02571964263916,2.716064453125,2.685546875,2.01416015625
1.9574999000000002,0.1454477459192276,0.10833762586116791,9.737217903137207,-2.5634765625,-1.739501953125,-1.0986328125
1.9624999,0.24181437492370605,-0.0586579404771328,10.00955867767334,2.38037109375,1.0986328125,-0.3662109375
1.9674999000000002,-0.05386953800916672,-0.07422025501728058,9.830592155456543,-2.0751953125,-0.213623046875,1.251220703125
1.9724999,0.272938996553421,-0.19632454216480255,9.937732696533203,1.739501953125,-0.54931640625,-2.716064453125
1.9774999000000002,-0.12988543510437012,-0.15322890877723694,9.819219589233398,-1.220703125,1.3427734375,3.662109375
1.9824999,0.3663128614425659,-0.17657238245010376,9.739013671875,1.129150390625,-1.922607421875,-4.852294921875
1.9874999000000002,-0.0628477931022644,-0.031124621629714966,9.71926212310791,-0.48828125,2.471923828125,5.401611328125
1.9924999,0.4752490520477295,-0.07003039866685867,9.489418029785156,0.06103515625,-3.265380859375,-6.34765625
1.9974999000000002,0.010175357572734356,0.1107318252325058,9.59596061706543,0.30517578125,3.692626953125,6.4697265625
2.0024999,0.5195417404174805,-0.011372458189725876,9.362525939941406,-0.946044921875,-3.997802734375,-7.354736328125
2.0074999,-0.013168109580874443,0.03890577703714371,9.66539192199707,1.28173828125,4.425048828125,7.01904296875
2.0124999000000003,0.45190557837486267,-0.1041477769613266,9.35654067993164,-1.678466796875,-4.791259765625,-7.415771484375
2.0174999000000002,-0.019153613597154617,-0.12928688526153564,9.95090103149414,2.044677734375,4.57763671875,6.622314453125
2.0224999,0.3489548861980438,-0.17717093229293823,9.457695007324219,-2.3193359375,-4.45556640625,-6.561279296875
2.0274999,0.06344634294509888,-0.13527239859104156,10.149619102478027,2.50244140625,4.302978515625,5.67626953125
2.0324999000000004,0.2759317457675934,-0.002394201699644327,9.560047149658203,-2.685546875,-3.875732421875,-5.035400390625
2.0374999000000003,0.16639702022075653,0.014365210197865963,10.099940299987793,2.838134765625,3.5400390625,3.7841796875
2.0424999,0.262763649225235,0.1538274586200714,9.626486778259277,-2.716064453125,-2.99072265625,-3.11279296875
2.0474999,0.25079262256622314,0.04189852997660637,10.02691650390625,2.74658203125,2.50244140625,1.556396484375
2.0524999,0.14425064623355865,0.053270988166332245,9.758167266845703,-2.471923828125,-1.46484375,-0.732421875
2.0574999000000003,0.2663549482822418,-0.10953472554683685,10.005967140197754,2.288818359375,1.007080078125,-0.640869140625
2.0624999,-0.07122749835252762,-0.10594342648983002,9.85034465789795,-1.922607421875,-0.091552734375,1.739501953125
2.0674999,0.272938996553421,-0.1999158412218094,9.932345390319824,1.678466796875,-0.579833984375,-3.11279296875
2.0724999,-0.14784196019172668,-0.12928688526153564,9.82999324798584,-1.220703125,1.739501953125,3.84521484375
2.0774999000000003,0.34656068682670593,-0.13347674906253815,9.721057891845703,0.732421875,-2.3193359375,-5.31005859375
2.0824999,-0.07841010391712189,0.019153613597154617,9.713275909423828,-0.457763671875,2.593994140625,5.55419921875
2.0874999,0.47584760189056396,-0.03292027488350868,9.46607494354248,-0.091552734375,-3.448486328125,-6.53076171875
2.0924999,0.02513911761343479,0.11851298063993454,9.59715747833252,0.54931640625,3.84521484375,6.77490234375
2.0974999000000003,0.5482721924781799,-0.016759412363171577,9.340977668762207,-0.885009765625,-4.21142578125,-7.354736328125
2.1024999,0.014365210197865963,0.0065840547904372215,9.694122314453125,1.434326171875,4.45556640625,7.01904296875
2.1074999,0.4638765752315521,-0.12689268589019775,9.363722801208496,-1.556396484375,-4.69970703125,-7.14111328125
2.1124999,-0.0065840547904372215,-0.1388636976480484,10.004770278930664,2.0751953125,4.57763671875,6.65283203125
2.1174999000000003,0.32022446393966675,-0.152031809091568,9.492411613464355,-2.410888671875,-4.608154296875,-6.40869140625
2.1224999,0.05446808785200119,-0.09636662155389786,10.18493366241455,2.716064453125,4.21142578125,5.340576171875
2.1274999,0.23702596127986908,0.04908113554120064,9.600150108337402,-2.655029296875,-3.936767578125,-4.913330078125
2.1324999,0.15442600846290588,0.05027823522686958,10.114903450012207,2.838134765625,3.326416015625,3.72314453125
2.1374999000000003,0.2513911724090576,0.15921440720558167,9.658209800720215,-2.685546875,-2.960205078125,-2.960205078125
2.1424999000000002,0.26994624733924866,0.021547814831137657,10.019135475158691,2.5634765625,2.25830078125,1.15966796875
2.1474999,0.14484919607639313,0.010175357572734356,9.747393608093262,-2.532958984375,-1.068115234375,-0.3662109375
2.1524999,0.30526071786880493,-0.15322890877723694,9.968857765197754,2.166748046875,0.640869140625,-1.03759765625
2.1574999000000004,-0.06703764945268631,-0.14844051003456116,9.82759952545166,-1.77001953125,0.1220703125,1.953125
2.1624999000000003,0.2974795699119568,-0.21607670187950134,9.894637107849121,1.46484375,-0.91552734375,-3.5400390625
2.1674999,-0.1412578970193863,-0.11971008777618408,9.831191062927246,-1.190185546875,1.708984375,4.150390625
2.1724999,0.34596213698387146,-0.10354922711849213,9.710283279418945,0.762939453125,-2.410888671875,-5.37109375
2.1774999000000004,-0.07960720360279083,0.0586579404771328,9.727043151855469,-0.30517578125,2.9296875,5.79833984375
2.1824999000000003,0.47824180126190186,-0.004788403399288654,9.478644371032715,-0.335693359375,-3.5400390625,-6.744384765625
2.1874999,0.03172317147254944,0.11372458189725876,9.616909980773926,0.6103515625,3.90625,6.866455078125
2.1924999,0.5644330382347107,-0.040701430290937424,9.338583946228027,-1.129150390625,-4.364013671875,-7.38525390625
2.1974999,0.02992752194404602,-0.03651157766580582,9.728240013122559,1.52587890625,4.486083984375,7.080078125
2.2024999000000003,0.47824180126190186,-0.16579847037792206,9.37509536743164,-1.739501953125,-4.730224609375,-7.2021484375
2.2074999,0.01735796220600605,-0.1586158573627472,10.039485931396484,2.13623046875,4.608154296875,6.4697265625
2.2124999,0.32202014327049255,-0.14664486050605774,9.501389503479004,-2.349853515625,-4.547119140625,-6.317138671875
2.2174999,0.07541735470294952,-0.07481880486011505,10.177152633666992,2.8076171875,4.2724609375,5.218505859375
2.2224999000000003,0.2322375625371933,0.0867898091673851,9.589975357055664,-2.655029296875,-3.662109375,-4.669189453125
2.2274999,0.15801730751991272,0.0802057534456253,10.097545623779297,2.777099609375,3.2958984375,3.2958984375
2.2324999,0.23582886159420013,0.17657238245010376,9.679159164428711,-2.655029296875,-2.8076171875,-2.471923828125
2.2374999,0.2693476974964142,0.028131870552897453,10.02571964263916,2.655029296875,1.922607421875,1.007080078125
2.2424999000000003,0.13287819921970367,-0.0071826050989329815,9.763554573059082,-2.38037109375,-1.15966796875,0
2.2474999,0.32202014327049255,-0.17238251864910126,9.962273597717285,2.197265625,0.54931640625,-1.312255859375
2.2524999,-0.0628477931022644,-0.17178396880626678,9.817423820495605,-1.678466796875,0.335693359375,2.25830078125
2.2574999,0.3190273642539978,-0.22744916379451752,9.856329917907715,1.495361328125,-1.068115234375,-3.509521484375
2.2624999000000003,-0.14365209639072418,-0.1149216815829277,9.806051254272461,-0.9765625,1.861572265625,4.57763671875
2.2674999000000002,0.3381809890270233,-0.10115502029657364,9.658807754516602,0.79345703125,-2.62451171875,-5.55419921875
2.2724999,-0.10175357013940811,0.06643909960985184,9.696516990661621,-0.1220703125,3.0517578125,6.04248046875
2.2774999,0.4429273009300232,-0.004788403399288654,9.449316024780273,-0.335693359375,-3.5400390625,-6.866455078125
2.2824999000000004,-0.0005985504249110818,0.10055647045373917,9.61212158203125,0.732421875,3.936767578125,6.866455078125
2.2874999000000003,0.5363011956214905,-0.04429273307323456,9.333196640014648,-1.373291015625,-4.364013671875,-7.50732421875
2.2924999,0.023942016065120697,-0.055665191262960434,9.747992515563965,1.5869140625,4.608154296875,6.8359375
2.2974999,0.4728548228740692,-0.1628057211637497,9.38048267364502,-1.800537109375,-4.57763671875,-7.171630859375
2.3024999000000004,0.04010287672281265,-0.15263035893440247,10.047865867614746,2.25830078125,4.45556640625,6.16455078125
2.3074999000000003,0.31603461503982544,-0.10714052617549896,9.5007905960083,-2.44140625,-4.33349609375,-6.317138671875
2.3124999,0.08858546614646912,-0.04010287672281265,10.159195899963379,2.716064453125,4.150390625,4.974365234375
2.3174999,0.08858546614646912,-0.04010287672281265,10.159195899963379,2.716064453125,4.150390625,4.974365234375
2.3224999,0.21607670187950134,0.12749123573303223,9.600150108337402,-2.685546875,-3.662109375,-4.241943359375
2.3274999000000003,0.14484919607639313,0.10055647045373917,10.093356132507324,2.655029296875,3.143310546875,3.11279296875
2.3324999,0.20111294090747833,0.16519992053508759,9.715670585632324,-2.74658203125,-2.288818359375,-2.197265625
2.3374999,0.2454056739807129,0.013766659423708916,10.035296440124512,2.655029296875,1.89208984375,0.640869140625
2.3424999,0.09157821536064148,-0.03651157766580582,9.789292335510254,-2.349853515625,-1.068115234375,0.244140625
2.3474999000000003,0.3166331648826599,-0.1843535304069519,9.962273597717285,2.13623046875,0.1220703125,-1.46484375
2.3524999,-0.0694318488240242,-0.18136078119277954,9.822811126708984,-1.617431640625,0.579833984375,2.655029296875
2.3574999,0.3405751883983612,-0.21368250250816345,9.831789016723633,1.312255859375,-1.15966796875,-3.90625
2.3624999,-0.11851298063993454,-0.10055647045373917,9.789292335510254,-0.91552734375,2.166748046875,4.547119140625
2.3674999000000003,0.3669114112854004,-0.0736217051744461,9.624092102050781,0.457763671875,-2.8076171875,-5.706787109375
2.3724999,-0.07900865375995636,0.09038111567497253,9.677961349487305,0.030517578125,3.11279296875,6.103515625
2.3774999,0.45489832758903503,0.020949264988303185,9.45410442352295,-0.335693359375,-3.7841796875,-6.927490234375
2.3824999,-0.002394201699644327,0.09457096457481384,9.634865760803223,0.91552734375,4.119873046875,7.01904296875
2.3874999000000003,0.5237316489219666,-0.058059390634298325,9.358335494995117,-1.15966796875,-4.425048828125,-7.4462890625
2.3924999000000002,0.02454056777060032,-0.0999579206109047,9.800065994262695,1.708984375,4.364013671875,6.89697265625
2.3974999,0.46627077460289,-0.20111294090747833,9.39784049987793,-2.105712890625,-4.638671875,-7.01904296875
2.4024999,0.0628477931022644,-0.19033902883529663,10.070012092590332,2.3193359375,4.547119140625,6.16455078125
2.4074999000000004,0.32441434264183044,-0.11671733111143112,9.509170532226562,-2.471923828125,-4.058837890625,-5.859375
2.4124999000000003,0.11671733111143112,-0.04429273307323456,10.141240119934082,2.685546875,4.0283203125,4.69970703125
2.4174999,0.22086510062217712,0.1346738487482071,9.602544784545898,-2.716064453125,-3.60107421875,-4.150390625
2.4224999,0.15801730751991272,0.10235211998224258,10.081384658813477,2.8076171875,2.899169921875,2.777099609375
2.4274999000000004,0.1693897694349289,0.17298106849193573,9.737217903137207,-2.532958984375,-2.44140625,-1.861572265625
2.4324999000000003,0.2322375625371933,0.014365210197865963,10.036493301391602,2.471923828125,1.64794921875,0.335693359375
2.4374999,0.04728548228740692,-0.0347159244120121,9.81263542175293,-2.25830078125,-0.48828125,0.457763671875
2.4424999,0.3064578175544739,-0.18614917993545532,9.95748519897461,1.953125,0.152587890625,-2.0751953125
2.4474999,-0.07781155407428741,-0.19033902883529663,9.815628051757812,-1.5869140625,0.640869140625,2.838134765625
2.4524999000000003,0.3597288131713867,-0.22744916379451752,9.79647445678711,1.129150390625,-1.556396484375,-4.180908203125
2.4574999,-0.09217676520347595,-0.09816227108240128,9.758766174316406,-0.823974609375,2.105712890625,4.974365234375
2.4624999,0.4076128304004669,-0.08738835901021957,9.57860279083252,0.335693359375,-2.655029296875,-5.950927734375
2.4674999,-0.0520738884806633,0.09636662155389786,9.65222454071045,0.1220703125,3.387451171875,6.317138671875
2.4724999000000003,0.4692635238170624,0.01735796220600605,9.443329811096191,-0.579833984375,-3.936767578125,-7.049560546875
2.4774999,-0.015562310814857483,0.08259996026754379,9.64683723449707,0.91552734375,4.0283203125,7.080078125
2.4824999,0.4950011968612671,-0.06165069341659546,9.367314338684082,-1.46484375,-4.486083984375,-7.354736328125
2.4874999,0.0017956512747332454,-0.1149216815829277,9.84376049041748,1.800537109375,4.547119140625,6.866455078125
2.4924999000000003,0.4339490532875061,-0.19393034279346466,9.419387817382812,-2.0751953125,-4.638671875,-6.9580078125
2.4974999,0.0628477931022644,-0.18495208024978638,10.092757225036621,2.349853515625,4.547119140625,6.011962890625
2.5024999,0.3130418658256531,-0.08080431073904037,9.524134635925293,-2.471923828125,-4.302978515625,-5.706787109375
2.5074999,0.13527239859104156,-0.02454056777060032,10.119691848754883,2.777099609375,3.692626953125,4.547119140625
2.5124999000000003,0.23403321206569672,0.1586158573627472,9.59835433959961,-2.685546875,-3.23486328125,-3.753662109375
2.5174999000000002,0.18375498056411743,0.10354922711849213,10.057442665100098,2.62451171875,2.9296875,2.44140625
2.5224999,0.1628057211637497,0.1562216579914093,9.742605209350586,-2.593994140625,-2.13623046875,-1.708984375
2.5274999,0.23343466222286224,-0.010175357572734356,10.035296440124512,2.410888671875,1.46484375,0.06103515625
2.5324999000000004,0.01496376097202301,-0.05686229094862938,9.824007987976074,-2.288818359375,-0.701904296875,0.79345703125
2.5374999000000003,0.3016694188117981,-0.20051439106464386,9.95748519897461,1.922607421875,-0.213623046875,-2.227783203125
2.5424999,-0.08499415963888168,-0.1909375786781311,9.815628051757812,-1.556396484375,0.91552734375,3.021240234375
2.5474999,0.3770867586135864,-0.21966800093650818,9.768941879272461,1.190185546875,-1.495361328125,-4.45556640625
2.5524999000000004,-0.07242459803819656,-0.08140286058187485,9.736021041870117,-0.6103515625,2.288818359375,4.913330078125
2.5574999000000003,0.4345476031303406,-0.08200141042470932,9.531316757202148,0.213623046875,-2.899169921875,-6.16455078125
2.5624999,-0.030526071786880493,0.1041477769613266,9.61571216583252,0,3.326416015625,6.40869140625
2.5674999,0.48063600063323975,0.014365210197865963,9.407417297363281,-0.762939453125,-3.753662109375,-7.171630859375
2.5724999,-0.016759412363171577,0.07003039866685867,9.645041465759277,0.9765625,4.45556640625,7.110595703125
2.5774999000000003,0.47465047240257263,-0.06883329898118973,9.370306968688965,-1.556396484375,-4.486083984375,-7.4462890625
2.5824999,-0.0071826050989329815,-0.12210428714752197,9.889249801635742,1.8310546875,4.547119140625,6.744384765625
2.5874999,0.40462008118629456,-0.18495208024978638,9.446322441101074,-2.166748046875,-4.547119140625,-6.805419921875
2.5924999,0.061052143573760986,-0.1693897694349289,10.120290756225586,2.593994140625,4.33349609375,6.011962890625
2.5974999000000003,0.30286651849746704,-0.04967968538403511,9.533711433410645,-2.62451171875,-4.119873046875,-5.55419921875
2.6024999,0.1496376097202301,-0.0071826050989329815,10.107721328735352,2.777099609375,3.631591796875,4.21142578125
2.6074999,0.24779987335205078,0.17298106849193573,9.59596061706543,-2.8076171875,-3.23486328125,-3.662109375
2.6124999,0.20769700407981873,0.09397241473197937,10.04307746887207,2.655029296875,2.777099609375,2.197265625
2.6174999000000003,0.1538274586200714,0.14065934717655182,9.752182006835938,-2.44140625,-2.044677734375,-1.495361328125
2.6224999,0.22924481332302094,-0.0347159244120121,10.029311180114746,2.38037109375,1.220703125,-0.1220703125
2.6274999,-0.02992752194404602,-0.06643909960985184,9.840168952941895,-1.922607421875,-0.244140625,1.15966796875
2.6324999,0.27712884545326233,-0.2017114907503128,9.959280967712402,1.861572265625,-0.18310546875,-2.532958984375
2.6374999000000003,-0.11372458189725876,-0.17896658182144165,9.82999324798584,-1.373291015625,1.220703125,3.41796875
2.6424999000000002,0.3711012601852417,-0.20290859043598175,9.765948295593262,0.946044921875,-1.739501953125,-4.730224609375
2.6474999,-0.06703764945268631,-0.06404489278793335,9.737217903137207,-0.701904296875,2.288818359375,5.2490234375
2.6524999,0.45429977774620056,-0.07481880486011505,9.517550468444824,0.152587890625,-3.021240234375,-6.28662109375
2.6574999000000004,-0.008978256024420261,0.10594342648983002,9.603741645812988,0.30517578125,3.631591796875,6.40869140625
2.6624999000000003,0.497395396232605,0.014365210197865963,9.39245319366455,-0.640869140625,-4.0283203125,-7.110595703125
2.6674999,-0.017956512048840523,0.06643909960985184,9.657610893249512,1.190185546875,4.180908203125,6.988525390625
2.6724999,0.4620809257030487,-0.06165069341659546,9.372102737426758,-1.46484375,-4.5166015625,-7.26318359375
2.6774999000000004,-0.016160860657691956,-0.11192893236875534,9.920374870300293,1.983642578125,4.57763671875,6.8359375
2.6824999000000003,-0.016160860657691956,-0.11192893236875534,9.920374870300293,1.983642578125,4.57763671875,6.8359375
2.6874999,0.3818751573562622,-0.16579847037792206,9.455899238586426,-2.044677734375,-4.57763671875,-6.805419921875
2.6924999,0.0628477931022644,-0.1604115068912506,10.129867553710938,2.44140625,4.45556640625,5.7373046875
2.6974999,0.292691171169281,-0.033518824726343155,9.543886184692383,-2.62451171875,-3.997802734375,-5.523681640625
2.7024999000000003,0.15502455830574036,-0.016759412363171577,10.102334022521973,2.8076171875,3.5400390625,3.997802734375
2.7074999,0.25258827209472656,0.15801730751991272,9.608530044555664,-2.655029296875,-3.204345703125,-3.631591796875
2.7124999,0.22625206410884857,0.05746084079146385,10.037092208862305,2.532958984375,2.44140625,2.01416015625
2.7174999,0.15502455830574036,0.10594342648983002,9.758167266845703,-2.5634765625,-1.8310546875,-1.007080078125
2.7224999000000003,0.24839842319488525,-0.06584054976701736,10.022727012634277,2.5634765625,1.15966796875,-0.396728515625
2.7274999,-0.041299980133771896,-0.07122749835252762,9.852738380432129,-2.01416015625,-0.152587890625,1.190185546875
2.7324999,0.2753331959247589,-0.19153612852096558,9.95209789276123,1.617431640625,-0.457763671875,-2.8076171875
2.7374999,-0.12509703636169434,-0.1454477459192276,9.837775230407715,-1.15966796875,1.068115234375,3.5400390625
2.7424999000000003,0.36152446269989014,-0.17058686912059784,9.745597839355469,0.946044921875,-1.89208984375,-4.852294921875
2.7474999,-0.0586579404771328,-0.02513911761343479,9.717466354370117,-0.518798828125,2.532958984375,5.462646484375
2.7524999,0.47584760189056396,-0.06344634294509888,9.475651741027832,0.244140625,-3.23486328125,-6.317138671875
2.7574999,0.026336219161748886,0.10833762586116791,9.577404975891113,0.396728515625,3.72314453125,6.65283203125
2.7624999000000003,0.5339069962501526,-0.0077811554074287415,9.355941772460938,-0.91552734375,-4.08935546875,-7.110595703125
2.7674999000000002,0.005985504016280174,0.03950432687997818,9.661202430725098,1.190185546875,4.241943359375,7.110595703125
2.7724999,0.46327802538871765,-0.09157821536064148,9.370905876159668,-1.617431640625,-4.608154296875,-7.38525390625
2.7774999,-0.018555063754320145,-0.12210428714752197,9.951498985290527,2.044677734375,4.608154296875,6.65283203125
2.7824999000000004,0.3423708379268646,-0.1586158573627472,9.469666481018066,-2.166748046875,-4.45556640625,-6.591796875
2.7874999000000003,0.04668693244457245,-0.1346738487482071,10.146028518676758,2.593994140625,4.302978515625,5.7373046875
2.7924999,0.25677812099456787,0.0071826050989329815,9.563039779663086,-2.44140625,-4.08935546875,-5.18798828125
2.7974999,0.15083470940589905,0.009576806798577309,10.090363502502441,2.716064453125,3.570556640625,3.72314453125
2.8024999000000004,0.25019407272338867,0.17477671802043915,9.613917350769043,-2.685546875,-3.11279296875,-3.021240234375
2.8074999000000003,0.24660277366638184,0.05446808785200119,10.002974510192871,2.593994140625,2.3193359375,1.5869140625
2.8124999,0.15143325924873352,0.08918401598930359,9.740809440612793,-2.288818359375,-1.434326171875,-0.732421875
2.8174999,0.2687491476535797,-0.08918401598930359,9.989208221435547,2.3193359375,1.007080078125,-0.54931640625
2.8224999,-0.05626374110579491,-0.08499415963888168,9.84376049041748,-1.8310546875,-0.213623046875,1.708984375
2.8274999000000003,0.2735375463962555,-0.20350714027881622,9.93354320526123,1.556396484375,-0.6103515625,-3.082275390625
2.8324999,-0.1412578970193863,-0.12689268589019775,9.834781646728516,-1.190185546875,1.52587890625,3.84521484375
2.8374999,0.34835633635520935,-0.1430535465478897,9.736021041870117,0.67138671875,-1.89208984375,-5.06591796875
2.8424999,-0.06883329898118973,0.010773907415568829,9.728240013122559,-0.48828125,2.960205078125,5.645751953125
2.8474999000000003,0.4770447015762329,-0.04429273307323456,9.480440139770508,-0.06103515625,-3.265380859375,-6.561279296875
2.8524999,0.0347159244120121,0.11671733111143112,9.607333183288574,0.579833984375,3.448486328125,6.744384765625
2.8574999,0.5392939448356628,-0.02753331884741783,9.360730171203613,-0.946044921875,-4.150390625,-6.988525390625
2.8624999,0.01496376097202301,0.004189853090792894,9.695918083190918,1.40380859375,4.364013671875,7.01904296875
2.8674999000000003,0.4507084786891937,-0.12988543510437012,9.382277488708496,-1.40380859375,-4.547119140625,-7.38525390625
2.8724999,-0.008978256024420261,-0.14784196019172668,9.992799758911133,2.105712890625,4.5166015625,6.4697265625
2.8774999,0.32202014327049255,-0.15801730751991272,9.494206428527832,-2.38037109375,-4.45556640625,-6.317138671875
2.8824999,0.06344634294509888,-0.11312603205442429,10.170568466186523,2.38037109375,4.2724609375,5.43212890625
2.8874999000000003,0.2537853717803955,0.04249707981944084,9.600150108337402,-2.655029296875,-3.814697265625,-4.94384765625
2.8924999000000002,0.1693897694349289,0.031124621629714966,10.10053825378418,2.685546875,3.35693359375,3.41796875
2.8974999,0.25977087020874023,0.1693897694349289,9.64564037322998,-2.685546875,-2.74658203125,-2.8076171875
2.9024999,0.27054479718208313,0.020949264988303185,10.003573417663574,2.532958984375,2.166748046875,1.373291015625
2.9074999000000004,0.14664486050605774,0.04967968538403511,9.741408348083496,-2.197265625,-1.40380859375,-0.48828125
2.9124999000000003,0.28730419278144836,-0.13826514780521393,9.965864181518555,2.044677734375,0.79345703125,-1.0986328125
2.9174999,-0.07182604819536209,-0.09576806426048279,9.837176322937012,-1.89208984375,0.274658203125,2.01416015625
2.9224999,0.272938996553421,-0.2064998894929886,9.910199165344238,1.46484375,-0.762939453125,-3.509521484375
2.9274999000000004,-0.15682020783424377,-0.09038111567497253,9.82999324798584,-1.03759765625,1.64794921875,4.21142578125
2.9324999000000003,0.33099839091300964,-0.12928688526153564,9.71926212310791,0.701904296875,-2.38037109375,-5.157470703125
2.9374999,-0.07960720360279083,0.04908113554120064,9.707889556884766,-0.213623046875,2.716064453125,5.92041015625
2.9424999,0.47644615173339844,-0.053270988166332245,9.455899238586426,-0.06103515625,-3.509521484375,-6.683349609375
2.9474999,0.043095629662275314,0.1149216815829277,9.580398559570312,0.701904296875,3.96728515625,6.866455078125
2.9524999000000003,0.5638344883918762,-0.06464344263076782,9.329007148742676,-0.946044921875,-4.364013671875,-7.50732421875
2.9574999,0.033518824726343155,-0.004189853090792894,9.697115898132324,1.556396484375,4.45556640625,7.080078125
2.9624999,0.4710591733455658,-0.1586158573627472,9.37748908996582,-1.77001953125,-4.730224609375,-7.26318359375
2.9674999,-0.0005985504249110818,-0.13048399984836578,10.02571964263916,2.13623046875,4.5166015625,6.805419921875
2.9724999000000003,0.3148375153541565,-0.15442600846290588,9.501988410949707,-2.532958984375,-4.57763671875,-6.439208984375
2.9774999,0.04967968538403511,-0.07062894850969315,10.182539939880371,2.532958984375,4.33349609375,5.523681640625
2.9824999,0.22924481332302094,0.05626374110579491,9.57321548461914,-2.685546875,-3.84521484375,-5.0048828125
2.9874999,0.1454477459192276,0.07781155407428741,10.086771965026855,2.9296875,3.47900390625,3.692626953125
2.9924999000000003,0.24241292476654053,0.1604115068912506,9.618705749511719,-2.716064453125,-2.9296875,-2.9296875
2.9974999,0.25498247146606445,0.04668693244457245,9.998186111450195,2.655029296875,2.288818359375,1.3427734375
3.0024999,0.13706804811954498,0.0071826050989329815,9.727641105651855,-2.532958984375,-1.46484375,-0.518798828125
3.0074999,0.28969839215278625,-0.13168109953403473,9.96945571899414,2.349853515625,0.8544921875,-1.068115234375
3.0124999000000003,-0.07481880486011505,-0.1586158573627472,9.825803756713867,-2.0751953125,0.213623046875,1.77001953125
3.0174999000000002,0.2849099934101105,-0.20350714027881622,9.906607627868652,1.678466796875,-0.732421875,-3.326416015625
3.0224999,-0.15502455830574036,-0.14185644686222076,9.831789016723633,-1.190185546875,1.52587890625,4.08935546875
3.0274999,0.333991140127182,-0.0999579206109047,9.707889556884766,0.885009765625,-2.197265625,-5.401611328125
3.0324999000000004,-0.09217676520347595,0.03172317147254944,9.720458984375,-0.48828125,2.99072265625,5.767822265625
3.0374999000000003,0.46627077460289,-0.002992752008140087,9.462483406066895,0.091552734375,-3.47900390625,-6.622314453125
3.0424999,0.017956512048840523,0.10714052617549896,9.603741645812988,0.640869140625,3.90625,6.805419921875
3.0474999,0.017956512048840523,0.10714052617549896,9.603741645812988,0.640869140625,3.90625,6.805419921875
3.0524999000000004,0.5596446394920349,-0.02214636653661728,9.330204010009766,-0.946044921875,-4.302978515625,-7.32421875
3.0574999000000003,0.02214636653661728,-0.02513911761343479,9.712079048156738,1.556396484375,4.302978515625,7.049560546875
3.0624999,0.48303020000457764,-0.14006079733371735,9.361329078674316,-1.861572265625,-4.69970703125,-7.232666015625
3.0674999,0.010773907415568829,-0.15502455830574036,10.020931243896484,2.0751953125,4.57763671875,6.500244140625
3.0724999000000004,0.322618693113327,-0.1388636976480484,9.48462963104248,-2.38037109375,-4.425048828125,-6.16455078125
3.0774999000000003,0.061052143573760986,-0.09038111567497253,10.16757583618164,2.74658203125,4.150390625,5.31005859375
3.0824999,0.2214636504650116,0.07182604819536209,9.583391189575195,-2.5634765625,-3.84521484375,-4.57763671875
3.0874999,0.13706804811954498,0.05925649031996727,10.095151901245117,2.685546875,3.204345703125,3.173828125
3.0924999,0.22026655077934265,0.16220717132091522,9.673172950744629,-2.593994140625,-2.62451171875,-2.62451171875
3.0974999000000003,0.25258827209472656,0.025737667456269264,10.025120735168457,2.655029296875,2.13623046875,1.068115234375
3.1024999,0.12988543510437012,-0.0017956512747332454,9.768342971801758,-2.410888671875,-1.129150390625,-0.152587890625
3.1074999,0.3190273642539978,-0.15322890877723694,9.96945571899414,2.0751953125,0.48828125,-1.40380859375
3.1124999,-0.050876785069704056,-0.16160862147808075,9.82759952545166,-1.8310546875,0.244140625,2.105712890625
3.1174999000000003,0.3214215636253357,-0.20530278980731964,9.861717224121094,1.373291015625,-0.91552734375,-3.570556640625
3.1224999,-0.13108254969120026,-0.11432313174009323,9.80904483795166,-1.068115234375,1.77001953125,4.33349609375
3.1274999,0.34835633635520935,-0.08080431073904037,9.660005569458008,0.67138671875,-2.44140625,-5.55419921875
3.1324999,-0.08439560979604721,0.06224924325942993,9.703699111938477,-0.152587890625,2.99072265625,6.011962890625
3.1374999000000003,0.4602852761745453,0.011372458189725876,9.45410442352295,-0.274658203125,-3.692626953125,-6.7138671875
3.1424999000000002,0.015562310814857483,0.0933738648891449,9.617507934570312,0.885009765625,3.90625,6.805419921875
3.1474999,0.5428852438926697,-0.04249707981944084,9.335591316223145,-1.007080078125,-4.08935546875,-7.354736328125
3.1524999,0.03411737456917763,-0.07541735470294952,9.746196746826172,1.495361328125,4.547119140625,7.110595703125
3.1574999000000004,0.46806642413139343,-0.16759411990642548,9.378686904907227,-1.800537109375,-4.608154296875,-7.110595703125
3.1624999000000003,0.03770867735147476,-0.17717093229293823,10.038887977600098,2.13623046875,4.364013671875,6.256103515625
3.1674999,0.304063618183136,-0.10773907601833344,9.505578994750977,-2.38037109375,-4.2724609375,-5.92041015625
3.1724999,0.07841010391712189,-0.05626374110579491,10.148422241210938,2.593994140625,4.0283203125,4.8828125
3.1774999000000004,0.20051439106464386,0.13407529890537262,9.607333183288574,-2.593994140625,-3.35693359375,-4.2724609375
3.1824999000000003,0.14245499670505524,0.09457096457481384,10.08198356628418,2.593994140625,3.143310546875,3.082275390625
3.1874999,0.18614917993545532,0.1843535304069519,9.713874816894531,-2.38037109375,-2.532958984375,-2.0751953125
3.1924999,0.243011474609375,0.01496376097202301,10.021530151367188,2.50244140625,1.64794921875,0.732421875
3.1974999000000004,0.08259996026754379,-0.025737667456269264,9.782708168029785,-2.288818359375,-0.823974609375,0.30517578125
3.2024999000000003,0.314238965511322,-0.1951274424791336,9.948506355285645,1.8310546875,0.3662109375,-1.89208984375
3.2074999,-0.06584054976701736,-0.18495208024978638,9.821614265441895,-1.52587890625,0.48828125,2.593994140625
3.2124999,0.33997663855552673,-0.23762452602386475,9.824606895446777,1.28173828125,-1.190185546875,-3.90625
3.2174999,-0.11133038252592087,-0.10714052617549896,9.79647445678711,-0.701904296875,1.861572265625,4.791259765625
3.2224999000000003,0.36810851097106934,-0.08858546614646912,9.637260437011719,0.335693359375,-2.593994140625,-5.859375
3.2274999,-0.07422025501728058,0.08559270948171616,9.68813705444336,0,3.326416015625,6.04248046875
3.2324999,0.44831427931785583,0.02693476900458336,9.4636812210083,-0.48828125,-3.631591796875,-7.080078125
3.2374999,-0.0035913025494664907,0.09876082092523575,9.63067626953125,0.885009765625,3.96728515625,6.866455078125
3.2424999000000003,0.5093663930892944,-0.03770867735147476,9.351153373718262,-1.373291015625,-4.180908203125,-7.4462890625
3.2474999,0.02693476900458336,-0.0867898091673851,9.7791166305542,1.678466796875,4.547119140625,6.89697265625
3.2524999,0.4531026780605316,-0.16819266974925995,9.390657424926758,-1.922607421875,-4.39453125,-6.866455078125
3.2574999,0.06524199992418289,-0.17178396880626678,10.046070098876953,2.197265625,4.425048828125,6.072998046875
3.2624999000000003,0.30885201692581177,-0.07661445438861847,9.514557838439941,-2.288818359375,-4.2724609375,-5.79833984375
3.2674999000000002,0.12090718746185303,-0.03651157766580582,10.123882293701172,2.5634765625,3.692626953125,4.5166015625
3.2724999,0.2172738015651703,0.16340427100658417,9.633070945739746,-2.471923828125,-3.204345703125,-4.0283203125
3.2774999,0.17298106849193573,0.09516951441764832,10.078990936279297,2.50244140625,2.99072265625,2.5634765625
3.2824999000000004,0.16998831927776337,0.16879121959209442,9.7605619430542,-2.532958984375,-2.044677734375,-1.739501953125
3.2874999000000003,0.2406172752380371,-0.018555063754320145,10.025120735168457,2.38037109375,1.495361328125,0.30517578125
3.2924999,0.038307227194309235,-0.053270988166332245,9.797672271728516,-1.89208984375,-0.9765625,0.579833984375
3.2974999,0.3124433159828186,-0.21607670187950134,9.921571731567383,1.861572265625,0.030517578125,-2.0751953125
3.3024999000000004,-0.07003039866685867,-0.18734627962112427,9.782109260559082,-1.46484375,1.007080078125,3.173828125
3.3074999000000003,0.36990416049957275,-0.22864626348018646,9.75637149810791,1.03759765625,-1.434326171875,-4.425048828125
3.3124999,-0.076015904545784,-0.07541735470294952,9.731831550598145,-0.54931640625,2.227783203125,4.913330078125
3.3174999,0.4082113802433014,-0.07841010391712189,9.559449195861816,0.244140625,-2.838134765625,-5.950927734375
3.3224999000000004,-0.05027823522686958,0.11552023142576218,9.634865760803223,0.274658203125,3.143310546875,6.195068359375
3.3274999000000003,0.45669397711753845,0.02214636653661728,9.43375301361084,-0.67138671875,-3.692626953125,-7.26318359375
3.3324999,-0.013168109580874443,0.08619125932455063,9.640851974487305,0.946044921875,4.2724609375,7.080078125
3.3374999,0.4800374507904053,-0.0628477931022644,9.37629222869873,-1.28173828125,-4.302978515625,-7.2021484375
3.3424999,0.01975216343998909,-0.11372458189725876,9.852140426635742,1.739501953125,4.33349609375,6.805419921875
3.3474999000000003,0.4231751561164856,-0.19033902883529663,9.44752025604248,-1.983642578125,-4.57763671875,-6.77490234375
3.3524999,0.07781155407428741,-0.18974047899246216,10.103530883789062,2.3193359375,4.302978515625,5.92041015625
3.3574999,0.30047231912612915,-0.07960720360279083,9.55705451965332,-2.410888671875,-4.150390625,-5.43212890625
3.3624999,0.1430535465478897,-0.043095629662275314,10.131064414978027,2.777099609375,3.7841796875,4.45556640625
3.3674999000000003,0.22026655077934265,0.15682020783424377,9.640851974487305,-2.44140625,-3.021240234375,-3.60107421875
3.3724999,0.1909375786781311,0.08379705995321274,10.05923843383789,2.5634765625,2.593994140625,2.13623046875
3.3774999,0.14365209639072418,0.15741875767707825,9.765948295593262,-2.3193359375,-2.01416015625,-1.46484375
3.3824999,0.23942017555236816,-0.023343466222286224,10.016142845153809,2.13623046875,1.251220703125,-0.18310546875
3.3874999000000003,0.0011971008498221636,-0.038307227194309235,9.819219589233398,-1.89208984375,-0.42724609375,1.068115234375
3.3924999000000002,0.30945056676864624,-0.20769700407981873,9.93593692779541,1.5869140625,-0.030517578125,-2.62451171875
3.3974999,-0.08080431073904037,-0.15502455830574036,9.806051254272461,-1.373291015625,1.068115234375,3.265380859375
3.4024999,0.38127660751342773,-0.23343466222286224,9.758766174316406,0.9765625,-1.556396484375,-4.57763671875
3.4074999000000004,-0.06584054976701736,-0.055665191262960434,9.725247383117676,-0.518798828125,2.3193359375,5.2490234375
3.4124999000000003,-0.06584054976701736,-0.055665191262960434,9.725247383117676,-0.518798828125,2.3193359375,5.2490234375
3.4174999,0.4321534037590027,-0.10953472554683685,9.533711433410645,0.06103515625,-3.082275390625,-6.2255859375
3.4224999,-0.02992752194404602,0.10953472554683685,9.609128952026367,0.274658203125,3.509521484375,6.40869140625
3.4274999000000004,0.47465047240257263,-0.010175357572734356,9.412803649902344,-0.640869140625,-3.875732421875,-7.415771484375
3.4324999000000003,-0.010175357572734356,0.08918401598930359,9.639654159545898,1.129150390625,4.2724609375,6.988525390625
3.4374999,0.47165772318840027,-0.07302315533161163,9.372700691223145,-1.5869140625,-4.364013671875,-7.50732421875
3.4424999,0.0077811554074287415,-0.09457096457481384,9.875483512878418,1.983642578125,4.2724609375,6.8359375
3.4474999000000004,0.4016273319721222,-0.18555063009262085,9.445724487304688,-2.044677734375,-4.69970703125,-6.8359375
3.4524999000000003,0.06883329898118973,-0.16220717132091522,10.106523513793945,2.44140625,4.39453125,5.79833984375
3.4574999,0.28790274262428284,-0.07182604819536209,9.543886184692383,-2.349853515625,-3.96728515625,-5.462646484375
3.4624999,0.15083470940589905,-0.015562310814857483,10.104728698730469,2.655029296875,3.997802734375,4.180908203125
3.4674999,0.2232593148946762,0.14425064623355865,9.618106842041016,-2.62451171875,-3.11279296875,-3.72314453125
3.4724999000000003,0.20889410376548767,0.08080431073904037,10.035296440124512,2.62451171875,2.685546875,1.953125
3.4774999,0.14664486050605774,0.1256955862045288,9.744400978088379,-2.5634765625,-1.89208984375,-1.220703125
3.4824999,0.2472013235092163,-0.041299980133771896,10.005967140197754,2.288818359375,1.28173828125,-0.274658203125
3.4874999,-0.0077811554074287415,-0.0628477931022644,9.807847023010254,-2.105712890625,-0.42724609375,1.129150390625
3.4924999000000003,0.2992752194404602,-0.2106897532939911,9.942521095275879,1.800537109375,-0.335693359375,-2.593994140625
3.4974999,-0.10175357013940811,-0.1693897694349289,9.806051254272461,-1.312255859375,1.007080078125,3.448486328125
3.5024999,0.3705027103424072,-0.2172738015651703,9.765948295593262,1.03759765625,-1.8310546875,-4.669189453125
3.5074999,-0.08259996026754379,-0.0586579404771328,9.727043151855469,-0.640869140625,2.44140625,5.31005859375
3.5124999000000003,0.43933600187301636,-0.08140286058187485,9.534309387207031,0.30517578125,-2.99072265625,-6.500244140625
3.5174999000000002,-0.030526071786880493,0.11911153793334961,9.604938507080078,0.091552734375,3.60107421875,6.65283203125
3.5224999,0.49380409717559814,0.020350715145468712,9.415796279907227,-0.67138671875,-4.0283203125,-7.32421875
3.5274999,-0.013766659423708916,0.08738835901021957,9.64564037322998,1.129150390625,4.21142578125,7.171630859375
3.5324999000000004,0.48901569843292236,-0.061052143573760986,9.38048267364502,-1.434326171875,-4.57763671875,-7.354736328125
3.5374999000000003,-0.005985504016280174,-0.10354922711849213,9.898826599121094,1.8310546875,4.730224609375,6.9580078125
3.5424999,0.4231751561164856,-0.18974047899246216,9.453505516052246,-2.197265625,-4.7607421875,-7.110595703125
3.5474999,0.061052143573760986,-0.1646013706922531,10.129867553710938,2.471923828125,4.364013671875,6.04248046875
3.5524999000000004,0.31783026456832886,-0.07182604819536209,9.530718803405762,-2.62451171875,-4.2724609375,-5.79833984375
3.5574999000000003,0.14604631066322327,-0.0065840547904372215,10.112509727478027,2.74658203125,3.997802734375,4.364013671875
3.5624999,0.25019407272338867,0.1472434103488922,9.57441234588623,-2.8076171875,-3.23486328125,-3.692626953125
3.5674999,0.19692309200763702,0.09516951441764832,10.035296440124512,2.716064453125,2.99072265625,2.410888671875
3.5724999000000004,0.16639702022075653,0.11911153793334961,9.725846290588379,-2.62451171875,-2.01416015625,-1.708984375
3.5774999000000003,0.2298433631658554,-0.026336219161748886,10.022727012634277,2.410888671875,1.495361328125,0.06103515625
3.5824999,-0.002992752008140087,-0.08619125932455063,9.843161582946777,-2.166748046875,-0.54931640625,0.885009765625
3.5874999,0.2885012924671173,-0.19153612852096558,9.978434562683105,1.983642578125,-0.274658203125,-2.3193359375
3.5924999,-0.09516951441764832,-0.19213469326496124,9.8599214553833,-1.434326171875,0.762939453125,3.326416015625
3.5974999000000003,0.37828385829925537,-0.20111294090747833,9.788095474243164,1.03759765625,-1.64794921875,-4.486083984375
3.6024999,-0.0586579404771328,-0.06823474913835526,9.75278091430664,-0.732421875,2.593994140625,5.035400390625
3.6074999,0.4572925269603729,-0.076015904545784,9.521739959716797,0.213623046875,-2.8076171875,-6.256103515625
3.6124999,-0.0071826050989329815,0.10534487664699554,9.59715747833252,0.396728515625,3.387451171875,6.500244140625
3.6174999000000003,0.497395396232605,0.01496376097202301,9.3828763961792,-0.640869140625,-4.08935546875,-7.110595703125
3.6224999,-0.008978256024420261,0.06823474913835526,9.63187313079834,1.129150390625,4.058837890625,7.080078125
3.6274999,0.46567222476005554,-0.06464344263076782,9.355941772460938,-1.434326171875,-4.486083984375,-7.415771484375
3.6324999,-0.005386953707784414,-0.11671733111143112,9.892841339111328,1.922607421875,4.638671875,6.927490234375
3.6374999000000003,0.38486793637275696,-0.1777694821357727,9.449316024780273,-2.0751953125,-4.5166015625,-6.591796875
3.6424999000000002,0.06464344263076782,-0.17178396880626678,10.119691848754883,2.5634765625,4.2724609375,5.79833984375
3.6474999,0.292691171169281,-0.04189852997660637,9.551069259643555,-2.471923828125,-4.0283203125,-5.37109375
3.6524999,0.16160862147808075,-0.01496376097202301,10.096946716308594,2.655029296875,3.60107421875,4.119873046875
3.6574999000000004,0.25079262256622314,0.16400282084941864,9.611522674560547,-2.593994140625,-3.082275390625,-3.326416015625
3.6624999000000003,0.22864626348018646,0.07182604819536209,10.02452278137207,2.716064453125,2.532958984375,1.922607421875
3.6674999,0.14844051003456116,0.11372458189725876,9.748590469360352,-2.410888671875,-1.708984375,-1.220703125
3.6724999,0.24181437492370605,-0.05925649031996727,10.006566047668457,2.349853515625,1.220703125,-0.48828125
3.6774999000000004,-0.03531447425484657,-0.076015904545784,9.834781646728516,-1.861572265625,-0.30517578125,1.220703125
3.6824999000000003,0.2783259451389313,-0.2017114907503128,9.943717956542969,1.64794921875,-0.213623046875,-2.685546875
3.6874999,-0.11432313174009323,-0.1604115068912506,9.82640266418457,-1.46484375,1.129150390625,3.47900390625
3.6924999,0.3693056106567383,-0.18734627962112427,9.75397777557373,1.007080078125,-1.983642578125,-4.8828125
3.6974999000000004,-0.06224924325942993,-0.041299980133771896,9.725846290588379,-0.42724609375,2.38037109375,5.2490234375
3.7024999000000003,0.4596867263317108,-0.07541735470294952,9.504382133483887,0.091552734375,-3.0517578125,-6.195068359375
3.7074999,-0.0005985504249110818,0.10893617570400238,9.595361709594727,0.335693359375,3.60107421875,6.591796875
3.7124999,0.49799394607543945,-0.004788403399288654,9.383475303649902,-0.6103515625,-3.84521484375,-7.14111328125
3.7174999,-0.012569558806717396,0.050876785069704056,9.661202430725098,1.28173828125,4.2724609375,7.2021484375
3.7224999000000003,0.45489832758903503,-0.07841010391712189,9.379883766174316,-1.52587890625,-4.608154296875,-7.32421875
3.7274999,-0.010773907415568829,-0.12030863761901855,9.932345390319824,1.953125,4.45556640625,6.77490234375
3.7324999,0.37469255924224854,-0.16160862147808075,9.475052833557129,-1.983642578125,-4.5166015625,-6.7138671875
3.7374999,0.06584054976701736,-0.14365209639072418,10.13525390625,2.471923828125,4.33349609375,5.7373046875
3.7424999000000003,0.2867056429386139,-0.012569558806717396,9.55705451965332,-2.471923828125,-3.90625,-5.340576171875
3.7474999,0.16639702022075653,0.0071826050989329815,10.085575103759766,2.716064453125,3.753662109375,3.936767578125
3.7524999,0.25438392162323,0.1759738177061081,9.603741645812988,-2.532958984375,-3.082275390625,-3.41796875
3.7574999,0.2388216257095337,0.07900865375995636,10.004770278930664,2.50244140625,2.593994140625,1.861572265625
3.7624999000000003,0.15322890877723694,0.11791443079710007,9.738415718078613,-2.349853515625,-1.800537109375,-0.9765625
3.7674999000000002,0.2513911724090576,-0.05386953800916672,9.99339771270752,2.227783203125,1.129150390625,-0.457763671875
3.7724999,0.2513911724090576,-0.05386953800916672,9.99339771270752,2.227783203125,1.129150390625,-0.457763671875
3.7774999,-0.04189852997660637,-0.06464344263076782,9.831789016723633,-1.983642578125,-0.42724609375,1.190185546875
3.7824999000000004,0.28072014451026917,-0.19393034279346466,9.940725326538086,1.64794921875,-0.396728515625,-2.716064453125
3.7874999000000003,-0.12030863761901855,-0.14784196019172668,9.82999324798584,-1.373291015625,1.312255859375,3.5400390625
3.7924999,0.3669114112854004,-0.1825578808784485,9.75278091430664,0.885009765625,-1.861572265625,-5.035400390625
3.7974999,-0.06224924325942993,-0.03950432687997818,9.726444244384766,-0.396728515625,2.410888671875,5.55419921875
3.8024999000000004,0.46806642413139343,-0.08439560979604721,9.498396873474121,0.030517578125,-3.11279296875,-6.378173828125
3.8074999000000003,0.011372458189725876,0.09876082092523575,9.589975357055664,0.3662109375,3.60107421875,6.53076171875
3.8124999,0.5171475410461426,-0.010175357572734356,9.37389850616455,-0.732421875,-4.08935546875,-7.293701171875
3.8174999,0.0017956512747332454,0.05027823522686958,9.658209800720215,1.220703125,4.150390625,7.080078125
3.8224999000000004,0.4602852761745453,-0.07721300423145294,9.375694274902344,-1.617431640625,-4.547119140625,-7.354736328125
3.8274999000000003,-0.0077811554074287415,-0.10893617570400238,9.9371337890625,1.861572265625,4.547119140625,6.683349609375
3.8324999,0.36571431159973145,-0.15442600846290588,9.476250648498535,-2.13623046875,-4.547119140625,-6.622314453125
3.8374999,0.06524199992418289,-0.13766659796237946,10.1382474899292,2.471923828125,4.39453125,5.67626953125
3.8424999,0.2801215946674347,-0.011372458189725876,9.564237594604492,-2.532958984375,-3.936767578125,-5.340576171875
3.8474999000000003,0.16579847037792206,0.0065840547904372215,10.094552993774414,2.5634765625,3.631591796875,3.997802734375
3.8524999,0.2519897222518921,0.16340427100658417,9.621698379516602,-2.685546875,-2.960205078125,-3.326416015625
3.8574999,0.24001872539520264,0.06584054976701736,10.019734382629395,2.532958984375,2.50244140625,1.861572265625
3.8624999,0.14844051003456116,0.09696517139673233,9.75517463684082,-2.50244140625,-1.922607421875,-0.946044921875
3.8674999000000003,0.2495955228805542,-0.07003039866685867,10.003573417663574,2.288818359375,0.823974609375,-0.54931640625
3.8724999,-0.05446808785200119,-0.07661445438861847,9.840168952941895,-1.77001953125,-0.3662109375,1.40380859375
3.8774999,0.272938996553421,-0.1933317929506302,9.941324234008789,1.708984375,-0.48828125,-2.716064453125
3.8824999,-0.12689268589019775,-0.1412578970193863,9.825204849243164,-1.312255859375,1.373291015625,3.60107421875
3.8874999000000003,0.3645172119140625,-0.17238251864910126,9.740809440612793,1.0986328125,-1.678466796875,-4.974365234375
3.8924999000000002,-0.058059390634298325,-0.030526071786880493,9.712079048156738,-0.335693359375,2.593994140625,5.523681640625
3.8974999,0.47405192255973816,-0.07781155407428741,9.484031677246094,0.030517578125,-3.173828125,-6.317138671875
3.9024999,0.018555063754320145,0.10594342648983002,9.576208114624023,0.54931640625,3.5400390625,6.622314453125
3.9074999000000004,0.5213374495506287,-0.01735796220600605,9.367314338684082,-0.823974609375,-4.150390625,-7.415771484375
3.9124999000000003,0.0005985504249110818,0.05686229094862938,9.64923095703125,1.129150390625,4.150390625,6.9580078125
3.9174999,0.4626794755458832,-0.09397241473197937,9.367912292480469,-1.52587890625,-4.45556640625,-7.32421875
3.9224999,-0.016160860657691956,-0.10474632680416107,9.93354320526123,2.0751953125,4.69970703125,6.9580078125
3.9274999000000004,0.3711012601852417,-0.1759738177061081,9.469067573547363,-2.25830078125,-4.57763671875,-6.988525390625
3.9324999000000003,0.0586579404771328,-0.12749123573303223,10.148422241210938,2.471923828125,4.425048828125,5.67626953125
3.9374999,0.284311443567276,-0.019153613597154617,9.566033363342285,-2.655029296875,-3.90625,-5.340576171875
3.9424999,0.16220717132091522,0.02753331884741783,10.107721328735352,2.74658203125,3.72314453125,3.997802734375
3.9474999000000004,0.2472013235092163,0.16759411990642548,9.622296333312988,-2.777099609375,-3.021240234375,-3.631591796875
3.9524999000000003,0.228047713637352,0.09457096457481384,10.016741752624512,2.838134765625,2.471923828125,1.64794921875
3.9574999,0.16579847037792206,0.10534487664699554,9.734824180603027,-2.5634765625,-1.89208984375,-1.373291015625
3.9624999,0.23163901269435883,-0.03651157766580582,9.977835655212402,2.410888671875,1.312255859375,-0.54931640625
3.9674999000000004,-0.0071826050989329815,-0.06763619929552078,9.783307075500488,-2.0751953125,-0.42724609375,0.274658203125
3.9724999000000003,0.28550854325294495,-0.19931729137897491,9.926360130310059,1.861572265625,0,-2.86865234375
3.9774999,-0.076015904545784,-0.18315643072128296,9.78989028930664,-1.708984375,0.885009765625,1.922607421875
3.9824999,0.39863458275794983,-0.2885012924671173,9.832986831665039,1.52587890625,-1.190185546875,-5.2490234375
3.9874999,-0.05925649031996727,-0.17657238245010376,9.765350341796875,-0.9765625,2.0751953125,2.50244140625
3.9924999000000003,0.5135562419891357,-0.24600422382354736,9.68155288696289,0.8544921875,-2.3193359375,-7.4462890625
3.9974999,0.023343466222286224,0.02274491637945175,9.732429504394531,0.518798828125,2.410888671875,1.5869140625
4.0024999,0.7015010714530945,-0.06404489278793335,9.579200744628906,-1.28173828125,-2.166748046875,-9.765625
4.0074999,0.1454477459192276,0.09576806426048279,9.727641105651855,0.396728515625,6.317138671875,1.52587890625
4.0124999,0.8164227604866028,-0.010175357572734356,9.634267807006836,-1.0986328125,-2.716064453125,-15.411376953125
4.0174999,0.21128830313682556,0.06224924325942993,9.783307075500488,1.312255859375,5.828857421875,-5.340576171875
4.022499900000001,0.7056909799575806,0.055665191262960434,9.75517463684082,-2.410888671875,1.678466796875,-15.07568359375
4.0274999000000005,0.25438392162323,0.05746084079146385,9.905410766601562,0.732421875,3.11279296875,-11.3525390625
4.0324999,0.5608417391777039,0.02214636653661728,9.751583099365234,-0.48828125,6.195068359375,-15.289306640625
4.0374999,0.4076128304004669,0.05985504388809204,9.693524360656738,0.06103515625,4.39453125,-14.892578125
4.0424999,0.547075092792511,-0.014365210197865963,9.290101051330566,1.28173828125,11.962890625,-15.838623046875
4.0474999,0.5339069962501526,0.2059013396501541,9.463082313537598,-0.6103515625,11.04736328125,-16.7236328125
4.0524999,0.5009866952896118,0.17417816817760468,9.244611740112305,3.265380859375,22.918701171875,-13.36669921875
4.0574999,0.5668272376060486,0.014365210197865963,9.410409927368164,-2.62451171875,18.00537109375,-15.80810546875
4.062499900000001,0.4920084476470947,0.2322375625371933,9.646238327026367,2.899169921875,25.57373046875,-14.251708984375
4.0674999000000005,0.4381389021873474,-0.44532153010368347,9.4014310836792,-1.861572265625,26.458740234375,-15.07568359375
4.0724999,0.49140989780426025,-0.03770867735147476,9.559449195861816,-0.06103515625,25.2685546875,-15.93017578125
4.0774999,0.30226796865463257,-0.7697358727455139,9.257779121398926,1.708984375,34.85107421875,-16.754150390625
4.0824999,0.2908954918384552,-0.6422445774078369,9.211092948913574,-2.227783203125,30.548095703125,-13.580322265625
4.0874999,0.1933317929506302,-0.7056909799575806,9.074623107910156,-0.274658203125,30.059814453125,-15.533447265625
4.0924999,-0.10354922711849213,-0.579995334148407,9.210494041442871,1.77001953125,34.48486328125,-13.916015625
4.0974999,0.009576806798577309,-0.2603694200515747,8.75080680847168,-1.3427734375,23.681640625,-7.080078125
4.1024999,-0.19931729137897491,0.1759738177061081,8.85435676574707,-2.5634765625,10.711669921875,-14.678955078125
4.1074999000000005,-0.27712884545326233,0.5482721924781799,8.356362342834473,-0.06103515625,13.24462890625,-19.22607421875
4.1124999,-0.6488286852836609,1.0211269855499268,8.309077262878418,1.28173828125,15.045166015625,-9.918212890625
4.1174999,-1.2108675241470337,1.4185645580291748,8.295310020446777,-0.6103515625,0.48828125,-6.439208984375
4.1224999,-1.4544775485992432,1.148618221282959,8.04691219329834,-3.875732421875,-14.83154296875,-16.387939453125
4.1274999,-1.1007342338562012,0.8439561128616333,8.06666374206543,5.889892578125,-22.003173828125,-23.040771484375
4.1324999,-1.3060370683670044,0.5877765417098999,8.258200645446777,-2.197265625,-15.716552734375,-18.829345703125
4.1374999,-1.3060370683670044,0.5877765417098999,8.258200645446777,-2.197265625,-15.716552734375,-18.829345703125
4.1424999,-0.6625953316688538,0.0867898091673851,8.109759330749512,3.082275390625,-10.8642578125,-4.2724609375
4.147499900000001,-0.9780313968658447,0.6147112846374512,8.483853340148926,0.762939453125,-24.84130859375,2.99072265625
4.1524999000000005,-1.0121487379074097,0.07122749835252762,8.571840286254883,-3.0517578125,-30.670166015625,-6.500244140625
4.1574999,-0.7146692276000977,0.656609833240509,8.584410667419434,5.0048828125,-37.628173828125,-8.331298828125
4.1624999,0.3926490843296051,-0.23582886159420013,9.062053680419922,-3.997802734375,-26.0009765625,0.823974609375
4.1674999,0.8373720645904541,-1.1516109704971313,9.891644477844238,-4.82177734375,-37.933349609375,-57.80029296875
4.1724999,1.6478092670440674,-0.7835025191307068,10.536881446838379,11.41357421875,3.90625,-37.078857421875
4.1774999,1.0121487379074097,-0.960673451423645,10.989984512329102,2.960205078125,42.572021484375,50.750732421875
4.1824999,-0.09157821536064148,0.45250412821769714,10.508749961853027,-9.27734375,32.989501953125,60.85205078125
4.187499900000001,-0.6937199234962463,1.324592113494873,9.48462963104248,0.885009765625,-23.223876953125,17.4560546875
4.1924999000000005,-0.8307880163192749,1.5741876363754272,8.620323181152344,-1.28173828125,-50.59814453125,-28.594970703125
4.1974999,0.020949264988303185,0.8194155097007751,8.514978408813477,1.89208984375,-37.506103515625,-48.919677734375
4.2024999,0.6805518269538879,0.19632454216480255,9.252392768859863,1.251220703125,-0.274658203125,-28.9306640625
4.2074999,0.8756792545318604,-0.3693056106567383,9.914987564086914,0.91552734375,21.78955078125,13.641357421875
4.2124999,0.28072014451026917,-0.5069721937179565,10.181343078613281,-1.190185546875,4.82177734375,16.204833984375
4.2174999,-0.5746083855628967,-0.365115761756897,9.800065994262695,-0.1220703125,-20.263671875,5.06591796875
4.2224999,-1.2701239585876465,-0.2190694510936737,9.243413925170898,-0.30517578125,-40.069580078125,-0.1220703125
4.2274999,-1.4293384552001953,-0.10235211998224258,8.986037254333496,0.030517578125,-44.830322265625,1.708984375
4.2324999000000005,-0.5404910445213318,-0.19273324310779572,9.548076629638672,2.86865234375,-32.1044921875,4.791259765625
4.2374999,0.152031809091568,-0.06823474913835526,9.841964721679688,-0.6103515625,11.16943359375,18.707275390625
4.2424999,1.2611457109451294,-0.03172317147254944,10.56261920928955,-1.495361328125,7.354736328125,3.814697265625
4.2474999,1.5269020795822144,0.03770867735147476,10.53029727935791,0.244140625,-2.044677734375,-3.23486328125
4.2524999,1.392826795578003,0.12689268589019775,10.365097999572754,-0.42724609375,0.152587890625,0.152587890625
4.2574999,0.9870096445083618,0.11133038252592087,10.085575103759766,0.48828125,-0.091552734375,-0.091552734375
4.2624999,0.5680243372917175,0.005386953707784414,9.857526779174805,-0.244140625,-0.091552734375,0
4.2674999,0.27892449498176575,0.02214636653661728,9.731232643127441,0.06103515625,0.091552734375,-0.518798828125
4.272499900000001,0.07003039866685867,-0.040701430290937424,9.654618263244629,0.091552734375,0.3662109375,-0.30517578125
4.2774999000000005,0.0011971008498221636,-0.05147533491253853,9.641449928283691,-0.152587890625,-0.18310546875,-0.091552734375
4.2824999,-0.002992752008140087,-0.04429273307323456,9.658807754516602,0.030517578125,-0.1220703125,-0.1220703125
4.2874999,0.035913024097681046,-0.07182604819536209,9.695918083190918,-0.030517578125,-0.152587890625,0.06103515625
4.2924999,0.09696517139673233,-0.05686229094862938,9.734225273132324,0.030517578125,-0.18310546875,0
4.2974999,0.14365209639072418,-0.05446808785200119,9.751583099365234,0.1220703125,-0.1220703125,-0.091552734375
4.3024999,0.1801636815071106,-0.05446808785200119,9.756970405578613,0,-0.274658203125,0.030517578125
4.3074999,0.20470423996448517,-0.03411737456917763,9.75278091430664,0.091552734375,-0.42724609375,-0.244140625
4.312499900000001,0.21547815203666687,-0.04010287672281265,9.750386238098145,-0.030517578125,0.091552734375,-0.30517578125
4.3174999000000005,0.2172738015651703,-0.03531447425484657,9.75397777557373,-0.18310546875,0.1220703125,-0.30517578125
4.3224999,0.21368250250816345,-0.03770867735147476,9.753378868103027,-0.030517578125,0.030517578125,-0.1220703125
4.3274999,0.20051439106464386,-0.03531447425484657,9.747992515563965,-0.030517578125,0.1220703125,-0.152587890625
4.3324999,0.18375498056411743,-0.03292027488350868,9.740809440612793,0.030517578125,-0.030517578125,-0.274658203125
4.3374999,0.17896658182144165,-0.04189852997660637,9.742605209350586,0,-0.1220703125,-0.1220703125
4.3424999,0.17058686912059784,-0.03411737456917763,9.746794700622559,0.1220703125,0.18310546875,-0.274658203125
4.3474999,0.16519992053508759,-0.04967968538403511,9.747992515563965,-0.06103515625,0.244140625,-0.42724609375
4.352499900000001,0.16519992053508759,-0.04908113554120064,9.747393608093262,-0.030517578125,-0.152587890625,-0.091552734375
4.3574999000000005,0.16998831927776337,-0.046088382601737976,9.742605209350586,0.091552734375,-0.274658203125,-0.18310546875
4.3624999,0.16579847037792206,-0.058059390634298325,9.73542308807373,0.091552734375,0,-0.18310546875
4.3674999,0.17058686912059784,-0.04728548228740692,9.73542308807373,0.091552734375,-0.091552734375,-0.06103515625
4.3724999,0.18136078119277954,-0.04728548228740692,9.743204116821289,0.06103515625,-0.3662109375,-0.030517578125
4.3774999,0.17657238245010376,-0.04489128291606903,9.741408348083496,0,-0.091552734375,-0.244140625
4.3824999,0.1801636815071106,-0.035913024097681046,9.745597839355469,-0.030517578125,-0.152587890625,-0.18310546875
4.3874999,0.18375498056411743,-0.046088382601737976,9.747992515563965,0.152587890625,-0.42724609375,-0.091552734375
4.3924999,0.1735796183347702,-0.04369417950510979,9.744999885559082,0.18310546875,-0.152587890625,0.091552734375
4.397499900000001,0.17896658182144165,-0.047884032130241394,9.747992515563965,0.091552734375,-0.18310546875,0.030517578125
4.4024999000000005,0.17657238245010376,-0.047884032130241394,9.749189376831055,0.06103515625,-0.244140625,0
4.4074999,0.1825578808784485,-0.04189852997660637,9.750985145568848,0.18310546875,-0.1220703125,-0.091552734375
4.4124999,0.18315643072128296,-0.046088382601737976,9.753378868103027,0.1220703125,-0.152587890625,-0.152587890625
4.4174999,0.18375498056411743,-0.04668693244457245,9.75517463684082,0.030517578125,-0.1220703125,-0.274658203125
4.4224999,0.18495208024978638,-0.04489128291606903,9.758167266845703,0.091552734375,0,-0.152587890625
4.4274999,0.1867477297782898,-0.05147533491253853,9.758167266845703,0.091552734375,0.030517578125,-0.1220703125
4.4324999,0.1843535304069519,-0.0454898327589035,9.758766174316406,0.030517578125,0.1220703125,-0.213623046875
4.437499900000001,0.19033902883529663,-0.060453593730926514,9.756970405578613,-0.030517578125,0,0.030517578125
4.4424999000000005,0.1825578808784485,-0.04369417950510979,9.753378868103027,0.213623046875,-0.030517578125,-0.18310546875
4.4474999,0.181959331035614,-0.058059390634298325,9.750985145568848,0.030517578125,-0.244140625,-0.091552734375
4.4524999,0.1777694821357727,-0.047884032130241394,9.746196746826172,-0.06103515625,-0.091552734375,-0.091552734375
4.4574999,0.17058686912059784,-0.04489128291606903,9.75278091430664,-0.06103515625,-0.06103515625,-0.274658203125
4.4624999,0.17178396880626678,-0.043095629662275314,9.741408348083496,0.213623046875,0,-0.335693359375
4.4674999,0.17238251864910126,-0.04489128291606903,9.750386238098145,-0.091552734375,0.091552734375,0.030517578125
4.4724999,0.17298106849193573,-0.03651157766580582,9.747393608093262,0,-0.1220703125,-0.1220703125
4.477499900000001,0.18495208024978638,-0.04429273307323456,9.753378868103027,0.213623046875,-0.18310546875,-0.091552734375
4.4824999000000005,0.18315643072128296,-0.03411737456917763,9.756970405578613,-0.030517578125,0.18310546875,-0.213623046875
4.4874999,0.1867477297782898,-0.04429273307323456,9.7605619430542,-0.06103515625,0.1220703125,-0.1220703125
4.4924999,0.18136078119277954,-0.01975216343998909,9.758766174316406,0,-0.06103515625,-0.30517578125
4.4974999,0.1843535304069519,-0.04369417950510979,9.764751434326172,0,-0.030517578125,-0.091552734375
4.5024999,0.1843535304069519,-0.04369417950510979,9.764751434326172,0,-0.030517578125,-0.091552734375
4.5074999,0.16759411990642548,-0.031124621629714966,9.758167266845703,0,0.244140625,-0.18310546875
4.5124999,0.17717093229293823,-0.053270988166332245,9.762357711791992,0.06103515625,-0.152587890625,-0.030517578125
4.5174999,0.16819266974925995,-0.046088382601737976,9.758167266845703,0.1220703125,-0.152587890625,-0.244140625
4.522499900000001,0.16400282084941864,-0.05147533491253853,9.755773544311523,-0.1220703125,0.274658203125,-0.244140625
4.5274999000000005,0.17717093229293823,-0.05267243832349777,9.75517463684082,0,0.091552734375,-0.1220703125
4.5324999,0.1735796183347702,-0.03411737456917763,9.75637149810791,0.18310546875,0.030517578125,-0.274658203125
4.5374999,0.17836803197860718,-0.05027823522686958,9.75397777557373,0,0.213623046875,-0.3662109375
4.5424999,0.19572599232196808,-0.02753331884741783,9.754576683044434,-0.030517578125,-0.091552734375,-0.030517578125
4.5474999,0.1825578808784485,-0.04249707981944084,9.752182006835938,0.030517578125,0.06103515625,-0.06103515625
4.5524999,0.19393034279346466,-0.040701430290937424,9.750985145568848,-0.18310546875,0.030517578125,-0.030517578125
4.5574999,0.1867477297782898,-0.03651157766580582,9.75278091430664,-0.030517578125,-0.152587890625,-0.152587890625
4.562499900000001,0.17238251864910126,-0.05985504388809204,9.744400978088379,-0.091552734375,0.030517578125,-0.152587890625
4.5674999000000005,0.17956513166427612,-0.031124621629714966,9.7605619430542,0,0.030517578125,-0.1220703125
4.5724999,0.1843535304069519,-0.0628477931022644,9.75517463684082,0.030517578125,-0.152587890625,0
4.5774999,0.18076223134994507,-0.040701430290937424,9.761159896850586,0.030517578125,0.06103515625,-0.152587890625
4.5824999,0.19931729137897491,-0.06165069341659546,9.757569313049316,0.06103515625,0.1220703125,-0.213623046875
4.5874999,0.1867477297782898,-0.04010287672281265,9.758766174316406,0.030517578125,0,-0.335693359375
4.5924999,0.1909375786781311,-0.055665191262960434,9.746196746826172,-0.091552734375,0.152587890625,0.06103515625
4.5974999,0.18076223134994507,-0.03292027488350868,9.75278091430664,0.030517578125,0.1220703125,-0.213623046875
4.602499900000001,0.18076223134994507,-0.0293289702385664,9.749788284301758,0.091552734375,-0.091552734375,-0.18310546875
4.6074999000000005,0.1735796183347702,-0.0454898327589035,9.748590469360352,-0.1220703125,0.030517578125,-0.091552734375
4.6124999,0.17058686912059784,-0.0011971008498221636,9.7605619430542,0.244140625,-0.06103515625,-0.335693359375
4.6174999,0.1777694821357727,-0.04728548228740692,9.758167266845703,-0.18310546875,-0.152587890625,-0.18310546875
4.6224999,0.1711854189634323,-0.016160860657691956,9.775525093078613,-0.030517578125,0.06103515625,-0.244140625
4.6274999,0.1735796183347702,-0.04249707981944084,9.75936508178711,0.091552734375,0,0
4.6324999,0.16819266974925995,-0.03890577703714371,9.768342971801758,-0.06103515625,0,0
4.6374999,0.16759411990642548,-0.03531447425484657,9.742006301879883,0.06103515625,0,-0.091552734375
4.6424999,0.1735796183347702,-0.05925649031996727,9.745597839355469,0,0.274658203125,-0.1220703125
4.647499900000001,0.17178396880626678,-0.013168109580874443,9.728838920593262,0.152587890625,0.244140625,-0.48828125
4.6524999000000005,0.181959331035614,-0.08140286058187485,9.730035781860352,-0.06103515625,-0.152587890625,-0.06103515625
4.6574999,0.17836803197860718,-0.017956512048840523,9.737217903137207,0.1220703125,-0.030517578125,-0.30517578125
4.6624999,0.1759738177061081,-0.0694318488240242,9.73661994934082,-0.06103515625,0.213623046875,-0.152587890625
4.6674999,0.1951274424791336,-0.025737667456269264,9.743204116821289,-0.030517578125,-0.244140625,-0.06103515625
4.6724999,0.1843535304069519,-0.0520738884806633,9.75397777557373,0.152587890625,0.091552734375,-0.1220703125
4.6774999,0.2082955539226532,-0.021547814831137657,9.75637149810791,0,0.06103515625,0
4.6824999,0.20530278980731964,-0.04728548228740692,9.759963035583496,0.091552734375,-0.030517578125,-0.335693359375
4.687499900000001,0.19153612852096558,-0.020350715145468712,9.753378868103027,-0.18310546875,0.3662109375,-0.457763671875
4.6924999000000005,0.17956513166427612,-0.06224924325942993,9.733028411865234,-0.06103515625,-0.335693359375,-0.1220703125
4.6974999,0.17298106849193573,-0.026336219161748886,9.732429504394531,0.18310546875,-0.30517578125,-0.3662109375
4.7024999,0.14664486050605774,-0.07721300423145294,9.716867446899414,-0.18310546875,0.244140625,-0.1220703125
4.7074999,0.16998831927776337,-0.05267243832349777,9.742605209350586,-0.06103515625,-0.1220703125,0
4.7124999,0.15502455830574036,-0.08259996026754379,9.733028411865234,0.18310546875,0.213623046875,-0.152587890625
4.7174999,0.18914192914962769,-0.053270988166332245,9.753378868103027,0.030517578125,0.030517578125,0
4.7224999,0.17298106849193573,-0.058059390634298325,9.721057891845703,-0.030517578125,0.213623046875,-0.48828125
4.727499900000001,0.1867477297782898,-0.04010287672281265,9.739013671875,-0.18310546875,0.1220703125,-0.335693359375
4.7324999000000005,0.18375498056411743,-0.005386953707784414,9.732429504394531,0.213623046875,-0.54931640625,-0.152587890625
4.7374999,0.17298106849193573,-0.040701430290937424,9.743802070617676,0,0,0.030517578125
4.7424999,0.18974047899246216,-0.016160860657691956,9.757569313049316,-0.1220703125,0,-0.030517578125
4.7474999,0.1885433793067932,-0.053270988166332245,9.750985145568848,0.091552734375,0.213623046875,-0.18310546875
4.7524999,0.2017114907503128,-0.047884032130241394,9.767744064331055,0.18310546875,0.06103515625,-0.274658203125
4.7574999,0.17238251864910126,-0.09397241473197937,9.743204116821289,-0.213623046875,0.30517578125,-0.3662109375
4.7624999,0.18375498056411743,-0.04189852997660637,9.767146110534668,0.030517578125,-0.42724609375,-0.518798828125
4.7674999,0.15322890877723694,-0.0694318488240242,9.747992515563965,0.30517578125,-0.274658203125,0
4.772499900000001,0.17537526786327362,-0.04429273307323456,9.759963035583496,-0.18310546875,-0.18310546875,0.152587890625
4.7774999000000005,0.16759411990642548,-0.023942016065120697,9.738415718078613,0.30517578125,0.274658203125,-0.18310546875
4.7824999,0.20949265360832214,-0.04429273307323456,9.762955665588379,-0.030517578125,0.213623046875,-0.213623046875
4.7874999,0.17537526786327362,-0.0293289702385664,9.733028411865234,-0.091552734375,0.18310546875,-0.396728515625
4.7924999,0.2064998894929886,-0.028131870552897453,9.754576683044434,-0.1220703125,-0.54931640625,-0.3662109375
4.7974999,0.181959331035614,-0.025737667456269264,9.740809440612793,0.244140625,-0.335693359375,-0.18310546875
4.8024999,0.1909375786781311,-0.03770867735147476,9.73781681060791,-0.18310546875,0.06103515625,0.274658203125
4.8074999,0.18734627962112427,-0.03232172131538391,9.724648475646973,0.274658203125,0.42724609375,-0.091552734375
4.812499900000001,0.181959331035614,-0.03711012750864029,9.733627319335938,0.091552734375,0.3662109375,-0.518798828125
4.8174999000000005,0.16879121959209442,-0.06883329898118973,9.730634689331055,-0.18310546875,0.06103515625,-0.18310546875
4.8224999,0.1586158573627472,-0.005985504016280174,9.75936508178711,0.1220703125,-0.6103515625,-0.42724609375
4.8274999,0.181959331035614,-0.09457096457481384,9.768342971801758,-0.06103515625,-0.1220703125,0.274658203125
4.8324999,0.19213469326496124,-0.04189852997660637,9.767744064331055,0.030517578125,0.244140625,0.244140625
4.8374999,0.21128830313682556,-0.09576806426048279,9.768342971801758,0.06103515625,0.457763671875,-0.335693359375
4.8424999,0.16998831927776337,-0.07003039866685867,9.724050521850586,-0.030517578125,0.244140625,-0.701904296875
4.8474999,0.1735796183347702,-0.060453593730926514,9.736021041870117,0,-0.885009765625,-0.213623046875
4.852499900000001,0.14844051003456116,-0.03651157766580582,9.725846290588379,0.1220703125,-0.274658203125,0.18310546875
4.8574999000000005,0.15143325924873352,-0.03770867735147476,9.753378868103027,0.030517578125,0.30517578125,0.152587890625
4.8624999,0.2082955539226532,-0.030526071786880493,9.759963035583496,0.274658203125,0.396728515625,-0.335693359375
4.8674999,0.2082955539226532,-0.030526071786880493,9.759963035583496,0.274658203125,0.396728515625,-0.335693359375
4.8724999,0.15562310814857483,-0.04369417950510979,9.767146110534668,-0.06103515625,0.48828125,-0.579833984375
4.8774999,0.18136078119277954,-0.0293289702385664,9.756970405578613,-0.152587890625,-0.8544921875,-0.54931640625
4.8824999,0.181959331035614,-0.04369417950510979,9.754576683044434,0.152587890625,-0.54931640625,0.396728515625
4.8874999,0.17417816817760468,-0.02693476900458336,9.738415718078613,-0.06103515625,0.6103515625,0.274658203125
4.8924999,0.23163901269435883,-0.060453593730926514,9.783905029296875,0.091552734375,0.54931640625,-0.48828125
4.897499900000001,0.17298106849193573,-0.04668693244457245,9.726444244384766,-0.18310546875,0.54931640625,-0.701904296875
4.9024999000000005,0.18734627962112427,-0.04967968538403511,9.765350341796875,0.030517578125,-1.129150390625,-0.457763671875
4.9074999,0.18974047899246216,-0.07302315533161163,9.740809440612793,0.06103515625,-0.579833984375,0.640869140625
4.9124999,0.1693897694349289,-0.01975216343998909,9.725846290588379,0.030517578125,0.732421875,0.091552734375
4.9174999,0.19931729137897491,-0.0628477931022644,9.734225273132324,0.06103515625,0.762939453125,-0.946044921875
4.9224999,0.1693897694349289,-0.06584054976701736,9.737217903137207,-0.091552734375,-0.18310546875,-0.244140625
4.9274999,0.16160862147808075,-0.04728548228740692,9.727043151855469,0.1220703125,-1.129150390625,-0.030517578125
4.9324999,0.1646013706922531,-0.12330138683319092,9.740809440612793,0,0.152587890625,0.396728515625
4.937499900000001,0.19572599232196808,-0.06224924325942993,9.724050521850586,0.244140625,1.190185546875,0.213623046875
4.9424999000000005,0.1628057211637497,-0.08259996026754379,9.714473724365234,-0.06103515625,0.640869140625,-0.6103515625
4.9474999,0.20530278980731964,-0.04668693244457245,9.741408348083496,-0.1220703125,-1.15966796875,-0.6103515625
4.9524999,0.21009120345115662,-0.05386953800916672,9.750985145568848,0.06103515625,-0.48828125,0.732421875
4.9574999,0.22385786473751068,-0.05746084079146385,9.758766174316406,0.030517578125,0.885009765625,0.48828125
4.9624999,0.23044191300868988,-0.05386953800916672,9.761758804321289,0.030517578125,0.8544921875,-1.15966796875
4.9674999,0.1999158412218094,-0.09696517139673233,9.747393608093262,-0.274658203125,-0.42724609375,-0.48828125
4.9724999,0.16579847037792206,-0.03232172131538391,9.744400978088379,0.244140625,-1.5869140625,0.3662109375
4.977499900000001,0.1801636815071106,-0.06763619929552078,9.75637149810791,-0.06103515625,0.396728515625,0.42724609375
4.9824999000000005,0.16519992053508759,-0.014365210197865963,9.799467086791992,0.06103515625,1.3427734375,-0.701904296875
4.9874999,0.1430535465478897,-0.04668693244457245,9.779715538024902,-0.213623046875,0.1220703125,-0.701904296875
4.9924999,0.1412578970193863,0.0017956512747332454,9.800065994262695,0.1220703125,-1.64794921875,-0.152587890625
4.9974999,0.1472434103488922,-0.08619125932455063,9.806650161743164,0.06103515625,-0.06103515625,0.701904296875
5.0024999,0.16160862147808075,-0.01496376097202301,9.780912399291992,0.152587890625,1.556396484375,-0.244140625
5.0074999,0.14245499670505524,-0.09516951441764832,9.759963035583496,-0.213623046875,0.579833984375,-1.03759765625
5.0124999,0.181959331035614,-0.02274491637945175,9.75936508178711,0.18310546875,-1.953125,-0.152587890625
5.0174999,0.16220717132091522,-0.08379705995321274,9.755773544311523,0.091552734375,-0.396728515625,0.946044921875
5.022499900000001,0.19452889263629913,-0.0077811554074287415,9.75397777557373,0,1.8310546875,-0.518798828125
5.0274999000000005,0.16519992053508759,-0.06344634294509888,9.754576683044434,-0.18310546875,0.701904296875,-1.3427734375
5.0324999,0.19452889263629913,0.004788403399288654,9.748590469360352,-0.030517578125,-1.89208984375,0.030517578125
5.0374999,0.1951274424791336,-0.04967968538403511,9.731232643127441,0.18310546875,-0.274658203125,1.03759765625
5.0424999,0.18914192914962769,0.0077811554074287415,9.747992515563965,-0.030517578125,2.044677734375,-0.518798828125
5.0474999,0.19931729137897491,-0.03411737456917763,9.75637149810791,-0.152587890625,0.335693359375,-1.495361328125
5.0524999,0.18495208024978638,-0.01735796220600605,9.77133560180664,-0.06103515625,-2.105712890625,0.335693359375
5.0574999,0.17956513166427612,-0.06404489278793335,9.743204116821289,0.335693359375,-0.06103515625,1.220703125
5.062499900000001,0.18555063009262085,-0.05267243832349777,9.739013671875,0.091552734375,2.0751953125,-0.8544921875
5.0674999000000005,0.20290859043598175,-0.08080431073904037,9.724648475646973,-0.030517578125,-0.030517578125,-1.495361328125
5.0724999,0.19692309200763702,-0.05267243832349777,9.721057891845703,-0.091552734375,-2.01416015625,0.946044921875
5.0774999,0.18974047899246216,-0.0454898327589035,9.747992515563965,0.274658203125,0.48828125,1.007080078125
5.0824999,0.14065934717655182,-0.011372458189725876,9.743204116821289,0,2.105712890625,-1.64794921875
5.0874999,0.16879121959209442,-0.031124621629714966,9.765948295593262,-0.152587890625,-1.007080078125,-1.129150390625
5.0924999,0.1628057211637497,-0.03172317147254944,9.783307075500488,0.152587890625,-1.8310546875,1.739501953125
5.0974999,0.166995570063591,-0.05746084079146385,9.779715538024902,0.091552734375,1.3427734375,0.3662109375
5.102499900000001,0.14664486050605774,-0.0347159244120121,9.75936508178711,0.152587890625,1.708984375,-2.288818359375
5.1074999000000005,0.1843535304069519,-0.07242459803819656,9.765948295593262,-0.06103515625,-1.983642578125,-0.30517578125
5.1124999,0.21368250250816345,-0.04010287672281265,9.730634689331055,0.18310546875,-1.03759765625,2.288818359375
5.1174999,0.18136078119277954,-0.06584054976701736,9.72165584564209,-0.06103515625,2.532958984375,-0.762939453125
5.1224999,0.21547815203666687,-0.06165069341659546,9.734824180603027,0.030517578125,0.579833984375,-2.62451171875
5.1274999,0.20111294090747833,-0.07422025501728058,9.728838920593262,0,-2.471923828125,1.434326171875
5.1324999,0.21009120345115662,-0.028730420395731926,9.756970405578613,0.244140625,0.30517578125,1.495361328125
5.1374999,0.1388636976480484,-0.04369417950510979,9.73542308807373,-0.30517578125,3.082275390625,-2.3193359375
5.1424999,0.17657238245010376,-0.0347159244120121,9.77013874053955,-0.030517578125,-1.434326171875,-1.129150390625
5.147499900000001,0.22086510062217712,-0.07900865375995636,9.767146110534668,0.213623046875,-2.227783203125,2.99072265625
5.1524999000000005,0.1496376097202301,-0.048482585698366165,9.752182006835938,0.030517578125,2.13623046875,-0.762939453125
5.1574999,0.1867477297782898,-0.09876082092523575,9.764153480529785,-0.274658203125,1.739501953125,-3.265380859375
5.1624999,0.19871874153614044,-0.07062894850969315,9.747992515563965,-0.152587890625,-2.899169921875,1.89208984375
5.1674999,0.19572599232196808,-0.08080431073904037,9.75936508178711,0.335693359375,-0.54931640625,1.8310546875
5.1724999,0.11671733111143112,-0.03411737456917763,9.737217903137207,-0.091552734375,3.448486328125,-3.11279296875
5.1774999,0.1711854189634323,-0.06464344263076782,9.758766174316406,-0.3662109375,-1.28173828125,-0.8544921875
5.1824999,0.2214636504650116,-0.02753331884741783,9.774927139282227,0.244140625,-2.44140625,3.5400390625
5.187499900000001,0.13168109953403473,-0.04429273307323456,9.768941879272461,0.152587890625,2.38037109375,-1.373291015625
5.1924999000000005,0.18495208024978638,-0.07182604819536209,9.797073364257812,-0.091552734375,1.434326171875,-3.173828125
5.1974999,0.2106897532939911,-0.06464344263076782,9.769539833068848,0.06103515625,-2.960205078125,3.11279296875
5.2024999,0.20111294090747833,-0.023942016065120697,9.779715538024902,0.30517578125,-0.18310546875,1.129150390625
5.2074999,0.14425064623355865,-0.03411737456917763,9.712677955627441,-0.244140625,3.173828125,-3.60107421875
5.2124999,0.20470423996448517,-0.005985504016280174,9.743802070617676,-0.244140625,-1.8310546875,0.732421875
5.2174999,0.2388216257095337,-0.03172317147254944,9.750985145568848,0.396728515625,-2.13623046875,3.173828125
