# Time (seconds),Accel_X,Accel_Y,Accel_Z,Gyro_X,Gyro_Y,Gyro_Z
0.0024999,2.981978178024292,1.4718354940414429,9.578003883361816,0.3662109375,1.0986328125,-91.217041015625
0.0074999,1.875258445739746,1.0301052331924438,9.616311073303223,-1.77001953125,-4.425048828125,-94.54345703125
0.012499900000000001,0.6757634282112122,0.628477931022644,9.655217170715332,-1.52587890625,-2.9296875,-95.367431640625
0.0174999,-0.13826514780521393,0.011372458189725876,9.723451614379883,-0.885009765625,-2.105712890625,-79.4677734375
0.0224999,-0.8936358094215393,-0.5829881429672241,9.814431190490723,-2.777099609375,1.068115234375,-63.53759765625
0.0274999,-1.5825673341751099,-1.2342109680175781,9.870096206665039,-1.40380859375,1.373291015625,-31.951904296875
0.0324999,-1.8351556062698364,-1.6328455209732056,9.897629737854004,-0.732421875,-3.204345703125,7.9345703125
0.0374999,-2.053626537322998,-1.8710685968399048,9.86770248413086,-0.885009765625,-5.218505859375,31.25
0.0424999,-1.9955670833587646,-1.8213889598846436,9.86889934539795,0.42724609375,-0.762939453125,50.567626953125
0.0474999,-1.8842366933822632,-1.5807716846466064,9.821614265441895,1.190185546875,0,79.4677734375
0.0524999,-1.9734207391738892,-1.1264718770980835,9.797672271728516,1.068115234375,0.8544921875,107.666015625
0.0574999,-1.9865888357162476,-0.7649474143981934,9.697115898132324,1.708984375,2.99072265625,118.2861328125
0.0624999,-1.723825216293335,-0.24361002445220947,9.694122314453125,1.312255859375,-0.42724609375,131.2255859375
0.0674999,-0.8433575630187988,0.06763619929552078,9.677363395690918,3.875732421875,-1.007080078125,106.719970703125
0.0724999,0.595557689666748,0.5165489912033081,9.758167266845703,1.28173828125,3.326416015625,65.582275390625
0.0774999,2.2691047191619873,0.9816226959228516,9.84256362915039,1.03759765625,3.814697265625,5.279541015625
0.0824999,3.560776472091675,1.426345705986023,9.736021041870117,3.875732421875,6.622314453125,-51.666259765625
0.0874999,4.2993879318237305,1.680729627609253,9.758766174316406,-0.42724609375,-2.777099609375,-82.122802734375
0.0924999,4.045003890991211,1.6741455793380737,9.636063575744629,-3.814697265625,0.152587890625,-92.529296875
0.0974999,3.1896753311157227,1.492186188697815,9.582193374633789,-0.274658203125,1.617431640625,-91.36962890625
0.1024999,2.1045033931732178,1.0767922401428223,9.643245697021484,-1.312255859375,-3.814697265625,-91.033935546875
0.1074999,0.8870517015457153,0.6823474764823914,9.606135368347168,-1.77001953125,-2.86865234375,-94.78759765625
0.1124999,-0.013766659423708916,0.10354922711849213,9.697115898132324,-0.946044921875,-2.62451171875,-79.65087890625
0.1174999,-0.7134721279144287,-0.5309142470359802,9.736021041870117,-2.044677734375,0.274658203125,-65.032958984375
0.1224999,-1.400607943534851,-1.1635819673538208,9.809642791748047,-2.13623046875,1.983642578125,-38.57421875
0.1274999,-1.7447744607925415,-1.6226701736450195,9.817423820495605,-0.79345703125,-1.373291015625,-0.152587890625
0.1324999,-1.9357120990753174,-1.867477297782898,9.806650161743164,-0.823974609375,-6.28662109375,28.99169921875
0.1374999,-2.0470423698425293,-1.8166005611419678,9.835979461669922,0.213623046875,-1.220703125,45.501708984375
0.1424999,-1.9620482921600342,-1.5825673341751099,9.817423820495605,0.91552734375,0.54931640625,74.188232421875
0.1474999,-2.142810583114624,-1.1623848676681519,9.80904483795166,0.9765625,0.8544921875,105.77392578125
0.1524999,-2.094926595687866,-0.788889467716217,9.717466354370117,1.40380859375,2.44140625,115.66162109375
0.1574999,-1.932719349861145,-0.34416648745536804,9.703699111938477,1.129150390625,0.54931640625,130.645751953125
0.1624999,-0.9953893423080444,-0.009576806798577309,9.68574333190918,4.0283203125,-1.40380859375,112.091064453125
0.1674999,0.39145198464393616,0.4076128304004669,9.791686058044434,1.251220703125,2.532958984375,73.486328125
0.1724999,2.137423515319824,0.8864531517028809,9.849146842956543,1.64794921875,3.84521484375,14.95361328125
0.17749990000000002,3.4811692237854004,1.3569138050079346,9.784503936767578,2.5634765625,6.072998046875,-45.623779296875
0.1824999,3.4811692237854004,1.3569138050079346,9.784503936767578,2.5634765625,6.072998046875,-45.623779296875
0.1874999,4.31135892868042,1.647210717201233,9.77133560180664,0.274658203125,-1.129150390625,-79.65087890625
0.1924999,4.173692226409912,1.6639702320098877,9.627683639526367,-2.197265625,-0.396728515625,-90.4541015625
0.1974999,3.397970676422119,1.4724340438842773,9.665990829467773,-1.861572265625,1.312255859375,-91.796875
0.2024999,2.2433669567108154,1.0522516965866089,9.695918083190918,-0.885009765625,-3.35693359375,-90.301513671875
0.20749990000000001,1.0504560470581055,0.6386532783508301,9.713275909423828,-1.739501953125,-2.655029296875,-95.15380859375
0.2124999,-0.031124621629714966,0.11791443079710007,9.797672271728516,-1.15966796875,-2.655029296875,-81.268310546875
0.2174999,-0.7565677165985107,-0.4704606235027313,9.761159896850586,-1.678466796875,-0.9765625,-66.009521484375
0.2224999,-1.4000093936920166,-1.028908133506775,9.784503936767578,-2.13623046875,1.739501953125,-41.259765625
0.2274999,-1.7962498664855957,-1.4269442558288574,9.662399291992188,-1.15966796875,-0.274658203125,-6.591796875
0.2324999,-1.8860323429107666,-1.6927006244659424,9.680954933166504,-0.823974609375,-6.16455078125,22.4609375
0.2374999,-2.0410568714141846,-1.6927006244659424,9.651026725769043,0.42724609375,-2.044677734375,40.374755859375
0.2424999,-1.9375077486038208,-1.5203180313110352,9.743802070617676,0.579833984375,0.335693359375,72.93701171875
0.2474999,-1.9596540927886963,-1.2419921159744263,9.797073364257812,0.701904296875,1.922607421875,103.729248046875
0.2524999,-2.010530948638916,-0.8750807046890259,9.786897659301758,1.15966796875,1.800537109375,111.236572265625
0.2574999,-1.7908629179000854,-0.48482584953308105,9.809642791748047,1.46484375,0.67138671875,125.67138671875
0.2624999,-1.0552444458007812,-0.10055647045373917,9.762955665588379,4.33349609375,-0.732421875,110.931396484375
0.2674999,0.19871874153614044,0.2908954918384552,9.832387924194336,0.8544921875,2.01416015625,76.2939453125
0.2724999,1.9003976583480835,0.751779317855835,9.854534149169922,2.197265625,3.662109375,22.3388671875
0.2774999,3.2597055435180664,1.2270283699035645,9.75517463684082,2.50244140625,5.43212890625,-35.64453125
0.2824999,4.133589267730713,1.5233107805252075,9.783307075500488,-0.030517578125,0.67138671875,-73.486328125
0.28749990000000003,4.172494888305664,1.6406266689300537,9.596558570861816,-1.190185546875,-1.617431640625,-88.80615234375
0.2924999,3.445256233215332,1.5646108388900757,9.631275177001953,-1.983642578125,2.86865234375,-92.132568359375
0.2974999,2.449268341064453,1.2030863761901855,9.668983459472656,-1.220703125,-4.5166015625,-91.4306640625
0.3024999,1.2958617210388184,0.8104372620582581,9.699509620666504,-1.77001953125,-3.692626953125,-98.2666015625
0.3074999,0.23702596127986908,0.2849099934101105,9.793481826782227,-1.15966796875,-1.800537109375,-86.700439453125
0.3124999,-0.5045779943466187,-0.3728969097137451,9.800664901733398,-1.77001953125,-1.556396484375,-71.533203125
0.3174999,-1.1857284307479858,-0.9672574996948242,9.774328231811523,-2.044677734375,2.044677734375,-48.797607421875
0.3224999,-1.6915035247802734,-1.4472949504852295,9.664793968200684,-1.495361328125,0.457763671875,-15.045166015625
0.3274999,-1.8154034614562988,-1.742978811264038,9.70429801940918,-0.946044921875,-5.340576171875,21.575927734375
0.3324999,-2.033275842666626,-1.8064252138137817,9.66419506072998,0.30517578125,-3.326416015625,44.86083984375
0.3374999,-1.941697597503662,-1.592742681503296,9.781511306762695,0.67138671875,-0.091552734375,73.516845703125
0.3424999,-1.8794482946395874,-1.2401964664459229,9.841365814208984,0.701904296875,2.532958984375,101.837158203125
0.34749990000000003,-1.999756932258606,-0.8248024582862854,9.788095474243164,0.9765625,2.0751953125,109.222412109375
0.35249990000000003,-1.7872716188430786,-0.4423287510871887,9.816825866699219,1.068115234375,0.3662109375,121.88720703125
0.3574999,-1.1665748357772827,-0.05985504388809204,9.748590469360352,4.364013671875,-0.3662109375,111.846923828125
0.3624999,-0.002394201699644327,0.1885433793067932,9.799467086791992,1.28173828125,2.532958984375,77.850341796875
0.3674999,1.6968904733657837,0.6889315247535706,9.837176322937012,1.40380859375,3.11279296875,27.557373046875
0.3724999,3.0352492332458496,1.1701661348342896,9.7791166305542,2.777099609375,6.072998046875,-29.693603515625
0.3774999,3.9444472789764404,1.5556325912475586,9.751583099365234,1.15966796875,1.434326171875,-67.779541015625
0.3824999,4.0096893310546875,1.725022315979004,9.617507934570312,-1.678466796875,-3.23486328125,-83.770751953125
0.3874999,3.2178070545196533,1.578976035118103,9.597756385803223,-2.50244140625,2.288818359375,-89.141845703125
0.3924999,2.3810336589813232,1.2779051065444946,9.634267807006836,-0.640869140625,-2.38037109375,-87.921142578125
0.3974999,1.235408067703247,0.8122329115867615,9.689932823181152,-2.0751953125,-3.7841796875,-96.588134765625
0.4024999,0.3274070918560028,0.3866635859012604,9.768342971801758,-1.129150390625,-2.227783203125,-87.46337890625
0.4074999,-0.32022446393966675,-0.25498247146606445,9.802460670471191,-1.495361328125,-2.0751953125,-72.052001953125
0.41249990000000003,-0.9846154451370239,-0.8672995567321777,9.780912399291992,-2.044677734375,1.8310546875,-50.72021484375
0.41749990000000003,-1.5167267322540283,-1.4550760984420776,9.691129684448242,-1.5869140625,0.6103515625,-18.4326171875
0.4224999,-1.6903064250946045,-1.8381483554840088,9.744999885559082,-1.007080078125,-4.852294921875,19.22607421875
0.4274999,-1.9764134883880615,-1.9692308902740479,9.725846290588379,0.152587890625,-3.570556640625,43.304443359375
0.4324999,-1.9596540927886963,-1.8052281141281128,9.831789016723633,0.457763671875,0.701904296875,69.793701171875
0.4374999,-1.9051860570907593,-1.4311341047286987,9.876680374145508,0.54931640625,1.28173828125,99.517822265625
0.4424999,-2.0626046657562256,-1.013944387435913,9.79647445678711,1.129150390625,2.685546875,108.70361328125
0.4474999,-1.8387469053268433,-0.6159083843231201,9.780912399291992,1.007080078125,0.244140625,121.429443359375
0.4524999,-1.2234370708465576,-0.13347674906253815,9.73661994934082,3.753662109375,-0.732421875,114.593505859375
0.4574999,-0.07721300423145294,0.15442600846290588,9.762357711791992,1.953125,4.058837890625,79.58984375
0.4624999,1.623268723487854,0.7751228213310242,9.82640266418457,0.762939453125,2.685546875,31.005859375
0.4674999,2.940678119659424,1.338358759880066,9.813833236694336,3.387451171875,6.805419921875,-27.557373046875
0.47249990000000003,3.8516719341278076,1.7675193548202515,9.701305389404297,2.5634765625,3.143310546875,-66.009521484375
0.47749990000000003,3.9390604496002197,1.987187385559082,9.633668899536133,-3.0517578125,-6.134033203125,-84.89990234375
0.4824999,3.2321722507476807,1.7812861204147339,9.57321548461914,-2.50244140625,0.274658203125,-91.552734375
0.4874999,2.425924777984619,1.4359225034713745,9.583391189575195,-0.152587890625,0.457763671875,-86.944580078125
0.4924999,1.3545196056365967,0.9229647517204285,9.6989107131958,-1.922607421875,-3.326416015625,-95.733642578125
0.4974999,0.4315548539161682,0.4644751250743866,9.718064308166504,-1.40380859375,-3.204345703125,-89.35546875
0.5024999,-0.24361002445220947,-0.1586158573627472,9.786897659301758,-0.9765625,-2.38037109375,-73.54736328125
0.5074999,-0.9672574996948242,-0.767341673374176,9.75517463684082,-2.349853515625,1.220703125,-52.825927734375
0.5124999,-1.6059107780456543,-1.4508862495422363,9.66958236694336,-1.678466796875,1.556396484375,-18.85986328125
0.5174999,-1.7938556671142578,-1.8567034006118774,9.742006301879883,-0.823974609375,-5.4931640625,17.88330078125
0.5224999,-2.0883424282073975,-2.079364061355591,9.733627319335938,-0.244140625,-3.11279296875,38.6962890625
0.5274999,-2.015319347381592,-1.987187385559082,9.829395294189453,0.6103515625,0.48828125,64.849853515625
0.5324999,-1.900996208190918,-1.589151382446289,9.93474006652832,0.885009765625,0.30517578125,100.341796875
0.5374999,-2.036867141723633,-1.1510124206542969,9.838373184204102,1.52587890625,2.960205078125,114.68505859375
0.5424999,-1.909974455833435,-0.7110779285430908,9.870096206665039,1.0986328125,0.30517578125,126.922607421875
0.5474999,-1.909974455833435,-0.7110779285430908,9.870096206665039,1.0986328125,0.30517578125,126.922607421875
0.5524999,-1.346139907836914,-0.10295066982507706,9.795876502990723,3.41796875,-1.556396484375,122.406005859375
0.5574999,-0.28550854325294495,0.21009120345115662,9.800664901733398,2.166748046875,3.631591796875,85.9375
0.5624999,1.4389152526855469,0.7948749661445618,9.78869342803955,0.6103515625,2.532958984375,36.407470703125
0.5674999000000001,2.8820202350616455,1.2892776727676392,9.781511306762695,2.899169921875,6.28662109375,-26.702880859375
0.5724999000000001,3.930082082748413,1.656787633895874,9.61571216583252,2.99072265625,4.45556640625,-70.1904296875
0.5774999000000001,4.1629180908203125,1.8429367542266846,9.600749015808105,-2.197265625,-5.859375,-88.8671875
0.5824999,3.4775779247283936,1.6950948238372803,9.552865028381348,-3.23486328125,0.06103515625,-94.024658203125
0.5874999,2.625840663909912,1.4065934419631958,9.55705451965332,-0.091552734375,0.79345703125,-87.09716796875
0.5924999,1.4544775485992432,0.9283517003059387,9.724050521850586,-1.64794921875,-3.41796875,-94.17724609375
0.5974999,0.4686649739742279,0.5135562419891357,9.72165584564209,-1.40380859375,-2.960205078125,-87.646484375
0.6024999,-0.26156654953956604,-0.07781155407428741,9.815030097961426,-0.762939453125,-2.685546875,-72.113037109375
0.6074999,-0.960673451423645,-0.641047477722168,9.803657531738281,-1.77001953125,0.3662109375,-52.947998046875
0.6124999,-1.5885528326034546,-1.3569138050079346,9.773730278015137,-1.617431640625,1.5869140625,-21.209716796875
0.6174999,-1.7884687185287476,-1.7621324062347412,9.815030097961426,-1.007080078125,-4.45556640625,13.671875
0.6224999,-2.0685901641845703,-2.05123233795166,9.813234329223633,-0.274658203125,-3.662109375,35.369873046875
0.6274999,-2.0177135467529297,-1.9686323404312134,9.837775230407715,0.640869140625,0.396728515625,63.262939453125
0.6324999,-1.8938134908676147,-1.624465823173523,9.88745403289795,0.67138671875,0.42724609375,99.945068359375
0.6374999,-1.9937714338302612,-1.1444283723831177,9.836577415466309,1.46484375,2.01416015625,112.884521484375
0.6424999,-1.9087773561477661,-0.7487865686416626,9.848548889160156,0.79345703125,0.91552734375,125.54931640625
0.6474999,-1.3976151943206787,-0.12270283699035645,9.812037467956543,3.326416015625,-1.617431640625,123.565673828125
0.6524999,-0.40701428055763245,0.21966800093650818,9.814431190490723,2.197265625,2.105712890625,88.0126953125
0.6574999,1.2725181579589844,0.8008604645729065,9.750985145568848,1.068115234375,3.326416015625,40.557861328125
0.6624999,2.7766754627227783,1.2749123573303223,9.742605209350586,2.685546875,5.767822265625,-22.613525390625
0.6674999,3.9396588802337646,1.6190788745880127,9.594164848327637,2.288818359375,4.08935546875,-70.80078125
0.6724999,4.315548419952393,1.723825216293335,9.586981773376465,-1.708984375,-4.608154296875,-93.07861328125
0.6774999,3.714603900909424,1.5616180896759033,9.537302017211914,-2.86865234375,2.532958984375,-97.96142578125
0.6824999,2.80899715423584,1.2958617210388184,9.486425399780273,-0.79345703125,-0.152587890625,-93.292236328125
0.6874999,1.6101006269454956,0.8170213103294373,9.618705749511719,-1.46484375,-3.875732421875,-98.724365234375
0.6924999000000001,0.4423287510871887,0.4531026780605316,9.622296333312988,-1.800537109375,-2.410888671875,-93.170166015625
0.6974999000000001,-0.28790274262428284,-0.17477671802043915,9.766547203063965,-1.03759765625,-2.410888671875,-76.751708984375
0.7024999000000001,-1.0121487379074097,-0.7565677165985107,9.841365814208984,-2.349853515625,1.220703125,-58.10546875
0.7074999,-1.5933412313461304,-1.37906014919281,9.835979461669922,-1.800537109375,1.556396484375,-24.96337890625
0.7124999,-1.765723705291748,-1.7651251554489136,9.894637107849121,-0.732421875,-4.45556640625,15.80810546875
0.7174999,-2.014122247695923,-1.9602526426315308,9.856928825378418,-0.18310546875,-3.936767578125,39.61181640625
0.7224999,-1.9853917360305786,-1.9069817066192627,9.853935241699219,0.579833984375,0.091552734375,60.72998046875
0.7274999,-1.88782799243927,-1.5747861862182617,9.881468772888184,0.67138671875,-0.030517578125,93.93310546875
0.7324999,-2.0428526401519775,-1.1635819673538208,9.889249801635742,1.40380859375,2.716064453125,113.34228515625
0.7374999,-1.9393033981323242,-0.7882909178733826,9.880870819091797,1.312255859375,1.3427734375,124.114990234375
0.7424999,-1.5179238319396973,-0.12389993667602539,9.923367500305176,2.716064453125,-1.77001953125,128.326416015625
0.7474999,-0.5303156971931458,0.16160862147808075,9.774927139282227,2.960205078125,3.143310546875,94.207763671875
0.7524999,1.12467622756958,0.7577648162841797,9.725247383117676,0.18310546875,2.685546875,49.13330078125
0.7574999,2.6426000595092773,1.2419921159744263,9.676166534423828,2.50244140625,5.0048828125,-14.129638671875
0.7624999,3.8804023265838623,1.6124948263168335,9.496002197265625,3.753662109375,6.7138671875,-63.41552734375
0.7674999,4.2993879318237305,1.8339585065841675,9.552865028381348,-1.495361328125,-4.8828125,-87.371826171875
0.7724999,3.818751811981201,1.7262194156646729,9.541492462158203,-3.936767578125,-2.44140625,-97.16796875
0.7774999,2.914341926574707,1.5185223817825317,9.442731857299805,-0.518798828125,1.678466796875,-91.85791015625
0.7824999,1.699883222579956,1.0642226934432983,9.599552154541016,-0.8544921875,-1.8310546875,-94.207763671875
0.7874999,0.5871779918670654,0.6488286852836609,9.588777542114258,-1.983642578125,-4.5166015625,-95.062255859375
0.7924999,-0.2801215946674347,0.031124621629714966,9.665990829467773,-0.9765625,-2.01416015625,-78.277587890625
0.7974999,-0.9594763517379761,-0.6051344871520996,9.81143856048584,-1.953125,-0.335693359375,-62.5
0.8024999,-1.6525976657867432,-1.3012486696243286,9.864709854125977,-1.64794921875,1.52587890625,-30.2734375
0.8074999,-1.835754156112671,-1.7753005027770996,9.936535835266113,-0.885009765625,-3.5400390625,10.19287109375
0.8124999,-2.0590133666992188,-2.0655975341796875,9.940725326538086,-0.732421875,-4.302978515625,34.149169921875
0.8174999000000001,-1.9835960865020752,-2.078765630722046,9.912593841552734,0.18310546875,0.1220703125,56.060791015625
0.8224999000000001,-1.8525135517120361,-1.7764976024627686,9.914389610290527,0.91552734375,-0.54931640625,89.935302734375
0.8274999000000001,-1.9087773561477661,-1.290474772453308,9.912593841552734,1.556396484375,2.227783203125,113.311767578125
0.8324999000000001,-1.9482816457748413,-0.8684966564178467,9.870096206665039,1.77001953125,2.349853515625,122.528076171875
0.8374999,-1.6160861253738403,-0.1388636976480484,9.913191795349121,1.983642578125,-2.044677734375,131.34765625
0.8424999,-0.7445967197418213,0.17956513166427612,9.739013671875,2.9296875,1.953125,100.5859375
0.8474999,0.8050503134727478,0.7260416746139526,9.740809440612793,0.396728515625,2.5634765625,59.326171875
0.8524999,2.4378957748413086,1.1755530834197998,9.687539100646973,2.105712890625,3.753662109375,-2.197265625
0.8574999,3.75291109085083,1.5161281824111938,9.52473258972168,3.753662109375,7.781982421875,-56.33544921875
0.8624999,4.356249809265137,1.7334020137786865,9.588179588317871,-0.335693359375,-3.143310546875,-86.85302734375
0.8674999,4.014477729797363,1.6627731323242188,9.594164848327637,-4.21142578125,-3.2958984375,-98.846435546875
0.8724999,3.0974984169006348,1.48081374168396,9.579200744628906,-1.007080078125,1.953125,-94.635009765625
0.8774999,1.9399019479751587,1.0857704877853394,9.654019355773926,-0.6103515625,-0.579833984375,-92.59033203125
0.8824999,0.7374141216278076,0.6805518269538879,9.66958236694336,-2.166748046875,-5.06591796875,-96.86279296875
0.8874999,-0.1975216418504715,0.12330138683319092,9.622296333312988,-1.007080078125,-1.953125,-80.6884765625
0.8924999,-0.8930372595787048,-0.47644615173339844,9.732429504394531,-1.64794921875,-0.732421875,-66.2841796875
0.8974999,-1.6059107780456543,-1.161187767982483,9.791088104248047,-1.739501953125,1.129150390625,-36.712646484375
0.9024999,-1.8495208024978638,-1.6861165761947632,9.922170639038086,-0.9765625,-2.044677734375,4.913330078125
0.9074999,-1.8495208024978638,-1.6861165761947632,9.922170639038086,-0.9765625,-2.044677734375,4.913330078125
0.9124999,-2.029684543609619,-1.9698294401168823,9.926360130310059,-1.15966796875,-5.096435546875,31.67724609375
0.9174999,-2.0021512508392334,-2.0398597717285156,9.928155899047852,0.030517578125,0.091552734375,51.666259765625
0.9224999,-1.8896236419677734,-1.7519570589065552,9.880870819091797,1.190185546875,-0.335693359375,83.6181640625
0.9274999,-2.0225019454956055,-1.2437877655029297,9.762357711791992,1.52587890625,1.220703125,111.4501953125
0.9324999,-2.0620062351226807,-0.8020575642585754,9.662399291992188,1.77001953125,2.685546875,119.110107421875
0.9374999,-1.9057846069335938,-0.15023615956306458,9.6803560256958,1.190185546875,-2.197265625,132.720947265625
0.9424999000000001,-1.0313023328781128,0.22864626348018646,9.616909980773926,2.9296875,0.152587890625,108.856201171875
0.9474999000000001,0.4129997789859772,0.6326677799224854,9.782109260559082,0.91552734375,3.0517578125,70.1904296875
0.9524999000000001,2.189497470855713,1.0007762908935547,9.81143856048584,1.77001953125,3.082275390625,12.664794921875
0.9574999000000001,3.554192304611206,1.303044319152832,9.75517463684082,2.50244140625,6.89697265625,-45.83740234375
0.9624999,4.395754337310791,1.4622586965560913,9.729436874389648,0.946044921875,-0.762939453125,-83.648681640625
0.9674999,4.232349872589111,1.449090600013733,9.66539192199707,-2.86865234375,-2.288818359375,-96.954345703125
0.9724999,3.4596214294433594,1.3311761617660522,9.636063575744629,-2.3193359375,2.838134765625,-95.550537109375
0.9774999,2.2834699153900146,0.9846154451370239,9.720458984375,-0.06103515625,-0.8544921875,-89.84375
0.9824999,1.094150185585022,0.6661866307258606,9.72285270690918,-2.105712890625,-4.150390625,-95.306396484375
0.9874999,-0.06643909960985184,0.2519897222518921,9.767744064331055,-1.28173828125,-2.105712890625,-79.925537109375
0.9924999,-0.7595604658126831,-0.26396074891090393,9.773131370544434,-0.8544921875,-1.983642578125,-65.24658203125
0.9974999,-1.4508862495422363,-0.7990648150444031,9.792284965515137,-1.739501953125,0.701904296875,-42.266845703125
1.0024999,-1.8285715579986572,-1.358709454536438,9.682151794433594,-1.220703125,0.6103515625,-9.033203125
1.0074999000000002,-1.8848352432250977,-1.7262194156646729,9.734225273132324,-1.251220703125,-6.16455078125,21.78955078125
1.0124999000000001,-2.0039467811584473,-1.8962076902389526,9.695320129394531,-0.335693359375,-1.15966796875,41.351318359375
1.0174999000000002,-1.8734627962112427,-1.8046295642852783,9.782708168029785,0.6103515625,0.762939453125,74.03564453125
1.0224999000000001,-1.8387469053268433,-1.4514847993850708,9.818621635437012,1.312255859375,0.244140625,104.4921875
1.0274999,-1.9410990476608276,-1.0462661981582642,9.727043151855469,1.52587890625,2.197265625,111.14501953125
1.0324999000000001,-1.7705121040344238,-0.5877765417098999,9.767146110534668,0.732421875,-0.6103515625,127.532958984375
1.0374999,-1.0893617868423462,-0.07661445438861847,9.701904296875,3.23486328125,-1.220703125,113.311767578125
1.0424999000000001,0.1107318252325058,0.365115761756897,9.84495735168457,1.617431640625,2.86865234375,76.47705078125
1.0474999,1.800439715385437,0.8900445103645325,9.874286651611328,0.91552734375,2.685546875,24.627685546875
1.0524999000000002,3.093308687210083,1.3623007535934448,9.843161582946777,2.532958984375,6.4697265625,-34.881591796875
1.0574999,4.0312371253967285,1.6172832250595093,9.734824180603027,2.105712890625,1.40380859375,-76.080322265625
1.0624999000000002,4.067150115966797,1.647210717201233,9.673771858215332,-2.899169921875,-3.753662109375,-92.10205078125
1.0674999,3.293224334716797,1.4317326545715332,9.604938507080078,-2.471923828125,3.387451171875,-93.26171875
1.0724999000000002,2.389413356781006,1.0863690376281738,9.658807754516602,-0.030517578125,-0.244140625,-87.58544921875
1.0774999,1.1965023279190063,0.6350619792938232,9.72285270690918,-1.861572265625,-4.2724609375,-95.3369140625
1.0824999000000002,0.1693897694349289,0.2717418968677521,9.750386238098145,-1.64794921875,-1.922607421875,-84.930419921875
1.0874999,-0.4776432514190674,-0.2495955228805542,9.79527759552002,-0.762939453125,-2.3193359375,-69.15283203125
1.0924999000000002,-1.1522095203399658,-0.7308300733566284,9.791088104248047,-1.708984375,-0.30517578125,-48.76708984375
1.0974999,-1.6615760326385498,-1.2395979166030884,9.667187690734863,-1.556396484375,0.946044921875,-15.960693359375
1.1024999000000002,-1.7818846702575684,-1.5807716846466064,9.736021041870117,-1.15966796875,-5.096435546875,17.822265625
1.1074999,-1.9835960865020752,-1.7866730690002441,9.697115898132324,-0.42724609375,-2.13623046875,37.04833984375
1.1124999000000002,-1.922544002532959,-1.7357962131500244,9.807249069213867,0.640869140625,0.701904296875,68.54248046875
1.1174999,-1.7884687185287476,-1.4335283041000366,9.88625717163086,1.007080078125,0.30517578125,103.45458984375
1.1224999000000002,-1.9560627937316895,-1.0654197931289673,9.783307075500488,1.5869140625,2.349853515625,111.87744140625
1.1274999,-1.7950527667999268,-0.6613982319831848,9.84256362915039,0.6103515625,-0.274658203125,126.861572265625
1.1324999000000002,-1.2617442607879639,-0.11911153793334961,9.744999885559082,3.11279296875,-1.3427734375,119.140625
1.1374999000000001,-0.15682020783424377,0.22505496442317963,9.833584785461426,1.89208984375,3.0517578125,82.550048828125
1.1424999000000002,1.5550340414047241,0.788889467716217,9.825803756713867,1.0986328125,2.593994140625,33.63037109375
1.1474999000000001,2.956839084625244,1.269525408744812,9.82999324798584,2.50244140625,6.195068359375,-27.069091796875
1.1524999000000002,3.999513864517212,1.578976035118103,9.667786598205566,2.5634765625,4.119873046875,-71.685791015625
1.1574999000000001,4.1874589920043945,1.6831238269805908,9.637260437011719,-1.861572265625,-5.218505859375,-92.071533203125
1.1624999,3.4739866256713867,1.4730325937271118,9.588179588317871,-3.173828125,1.5869140625,-95.21484375
1.1674999000000001,2.585139274597168,1.1767501831054688,9.552865028381348,0.06103515625,1.678466796875,-87.554931640625
1.1724999,1.381454348564148,0.7296329736709595,9.720458984375,-1.52587890625,-3.631591796875,-94.3603515625
1.1774999000000002,0.3298012912273407,0.40282443165779114,9.68274974822998,-1.708984375,-2.99072265625,-87.58544921875
1.1824999,-0.40222588181495667,-0.0867898091673851,9.77253246307373,-0.946044921875,-2.105712890625,-71.6552734375
1.1874999000000002,-1.0660183429718018,-0.5590460896492004,9.804255485534668,-1.556396484375,-0.91552734375,-54.3212890625
1.1924999,-1.6382324695587158,-1.170764684677124,9.755773544311523,-1.708984375,0.8544921875,-22.94921875
1.1974999000000002,-1.7747019529342651,-1.5711948871612549,9.840168952941895,-1.129150390625,-4.180908203125,15.2587890625
1.2024999,-1.9841946363449097,-1.8818424940109253,9.828198432922363,-0.67138671875,-2.9296875,37.78076171875
1.2074999000000002,-1.9399019479751587,-1.8716671466827393,9.856329917907715,0.48828125,0.42724609375,65.3076171875
1.2124999,-1.820790410041809,-1.556231141090393,9.898228645324707,1.129150390625,-0.06103515625,100.89111328125
1.2174999000000002,-1.956661343574524,-1.1516109704971313,9.827000617980957,1.8310546875,2.50244140625,112.884521484375
1.2224999,-1.931522250175476,-0.6739677786827087,9.876082420349121,1.03759765625,-0.30517578125,125.6103515625
1.2274999000000002,-1.4257471561431885,-0.06823474913835526,9.840168952941895,2.349853515625,-1.190185546875,123.47412109375
1.2324999,-0.4465186297893524,0.25917232036590576,9.836577415466309,2.25830078125,2.777099609375,88.348388671875
1.2374999000000002,1.2665326595306396,0.7930793166160583,9.768342971801758,0.91552734375,2.044677734375,42.633056640625
1.2424999,2.741360902786255,1.1893197298049927,9.767146110534668,2.38037109375,5.4931640625,-18.85986328125
1.2474999000000002,3.8941690921783447,1.468244194984436,9.548076629638672,2.9296875,6.256103515625,-66.497802734375
1.2524999,4.21080207824707,1.6328455209732056,9.571419715881348,-1.068115234375,-4.852294921875,-89.66064453125
1.2574999000000002,3.626616954803467,1.4850035905838013,9.552865028381348,-3.662109375,-0.91552734375,-95.550537109375
1.2624999000000001,2.720411777496338,1.3084312677383423,9.47265911102295,-0.30517578125,2.50244140625,-86.944580078125
1.2674999000000002,1.5556325912475586,0.899621307849884,9.645041465759277,-0.79345703125,-1.89208984375,-91.217041015625
1.2724999000000001,1.5556325912475586,0.899621307849884,9.645041465759277,-0.79345703125,-1.89208984375,-91.217041015625
1.2774999000000002,0.45250412821769714,0.5913678407669067,9.607333183288574,-2.166748046875,-4.21142578125,-88.19580078125
1.2824999000000001,-0.32022446393966675,0.09636662155389786,9.695918083190918,-1.220703125,-2.0751953125,-70.9228515625
1.2874999,-0.9888052940368652,-0.41778820753097534,9.793481826782227,-1.0986328125,-1.007080078125,-55.35888671875
1.2924999000000001,-1.5717934370040894,-1.0797849893569946,9.84615421295166,-1.5869140625,0.42724609375,-28.25927734375
1.2974999,-1.7357962131500244,-1.5921441316604614,9.955689430236816,-1.129150390625,-2.716064453125,7.62939453125
1.3024999000000002,-1.9219454526901245,-1.974617838859558,9.949105262756348,-1.0986328125,-3.90625,31.494140625
1.3074999,-1.8872294425964355,-2.0823569297790527,9.910199165344238,0.3662109375,0.6103515625,59.02099609375
1.3124999000000002,-1.777694821357727,-1.8501193523406982,9.895236015319824,0.885009765625,-0.06103515625,95.977783203125
1.3174999,-1.941697597503662,-1.4113819599151611,9.84615421295166,1.8310546875,1.8310546875,111.99951171875
1.3224999000000002,-1.9518729448318481,-0.9133879542350769,9.891644477844238,1.40380859375,0.30517578125,123.10791015625
1.3274999,-1.5556325912475586,-0.17537526786327362,9.912593841552734,1.556396484375,-0.8544921875,125.244140625
1.3324999000000002,-0.6087257862091064,0.25438392162323,9.81143856048584,2.685546875,2.3193359375,91.705322265625
1.3374999,1.0516531467437744,0.8667010068893433,9.725846290588379,0.823974609375,1.922607421875,49.25537109375
1.3424999000000002,2.56000018119812,1.2844891548156738,9.676764488220215,2.13623046875,4.82177734375,-12.14599609375
1.3474999,3.7630865573883057,1.5670050382614136,9.460089683532715,3.41796875,7.38525390625,-63.17138671875
1.3524999000000002,4.169502258300781,1.7190368175506592,9.53849983215332,-0.8544921875,-4.08935546875,-89.78271484375
1.3574999,3.667917013168335,1.5622166395187378,9.545083999633789,-3.631591796875,-2.105712890625,-95.5810546875
1.3624999000000002,2.806004285812378,1.3605051040649414,9.45410442352295,-0.640869140625,2.44140625,-86.883544921875
1.3674999,1.6394295692443848,0.9373299479484558,9.585186958312988,-0.579833984375,-0.701904296875,-88.836669921875
1.3724999000000002,0.535702645778656,0.5991489887237549,9.572616577148438,-2.197265625,-4.638671875,-88.470458984375
1.3774999,-0.3106476664543152,0.07661445438861847,9.649829864501953,-1.220703125,-2.471923828125,-71.685791015625
1.3824999000000002,-0.945111095905304,-0.4225766062736511,9.782708168029785,-0.79345703125,-0.9765625,-56.396484375
1.3874999000000001,-1.5412673950195312,-1.0684125423431396,9.890447616577148,-1.617431640625,0.06103515625,-29.266357421875
1.3924999000000002,-1.7627309560775757,-1.4951789379119873,9.943120002746582,-1.28173828125,-1.89208984375,4.974365234375
1.3974999000000001,-1.9494787454605103,-1.8638859987258911,9.946710586547852,-1.312255859375,-3.936767578125,26.18408203125
1.4024999000000002,-1.9698294401168823,-1.9716250896453857,9.889848709106445,0.213623046875,0.396728515625,53.22265625
1.4074999000000001,-1.835754156112671,-1.813009262084961,9.889848709106445,0.91552734375,-0.30517578125,93.231201171875
1.4124999,-1.9093759059906006,-1.456871747970581,9.907805442810059,1.8310546875,1.953125,111.602783203125
1.4174999000000001,-1.8746598958969116,-1.0408791303634644,9.934141159057617,1.190185546875,0.18310546875,122.222900390625
1.4224999,-1.492186188697815,-0.3124433159828186,9.956886291503906,2.01416015625,-1.007080078125,127.410888671875
1.4274999000000002,-0.5626373887062073,0.10295066982507706,9.8784761428833,2.197265625,2.166748046875,94.635009765625
1.4324999,1.0229226350784302,0.7745242714881897,9.739612579345703,1.0986328125,1.953125,52.8564453125
1.4374999000000002,2.5773582458496094,1.2384008169174194,9.712079048156738,2.105712890625,4.180908203125,-8.48388671875
1.4424999,3.776254653930664,1.6089035272598267,9.464279174804688,3.082275390625,8.514404296875,-60.577392578125
1.4474999000000002,4.241926670074463,1.7884687185287476,9.539097785949707,-0.457763671875,-3.2958984375,-88.37890625
1.4524999,3.775057554244995,1.6466121673583984,9.524134635925293,-2.838134765625,-2.74658203125,-94.818115234375
1.4574999000000002,2.9436709880828857,1.425148606300354,9.480440139770508,-1.8310546875,1.617431640625,-88.104248046875
1.4624999,1.7753005027770996,0.9780313968658447,9.553462982177734,-0.1220703125,0.579833984375,-89.569091796875
1.4674999000000002,0.7086837291717529,0.6189011335372925,9.579200744628906,-2.25830078125,-4.730224609375,-90.972900390625
1.4724999,-0.17058686912059784,0.13527239859104156,9.634865760803223,-1.373291015625,-2.410888671875,-75.50048828125
1.4774999000000002,-0.8301894664764404,-0.3663128614425659,9.78989028930664,-0.701904296875,-1.03759765625,-60.760498046875
1.4824999,-1.4538789987564087,-1.0079588890075684,9.916783332824707,-1.373291015625,0.1220703125,-35.15625
1.4874999000000002,-1.7190368175506592,-1.557428240776062,9.975440979003906,-1.251220703125,-1.312255859375,0.244140625
1.4924999,-1.899200439453125,-1.9776105880737305,9.944316864013672,-1.3427734375,-5.157470703125,28.411865234375
1.4974999000000002,-1.9596540927886963,-2.181716203689575,9.862914085388184,0.030517578125,0.457763671875,53.466796875
1.5024999,-1.866280198097229,-2.013523578643799,9.835979461669922,0.823974609375,-0.091552734375,89.4775390625
1.5074999000000002,-1.9506758451461792,-1.6101006269454956,9.831191062927246,1.922607421875,1.678466796875,109.43603515625
1.5124999000000001,-2.005143880844116,-1.1300631761550903,9.894637107849121,1.617431640625,0.6103515625,117.462158203125
1.5174999000000002,-1.6178817749023438,-0.37169981002807617,9.938929557800293,1.28173828125,-0.457763671875,124.69482421875
1.5224999000000001,-0.7224503755569458,0.08319851011037827,9.828198432922363,2.62451171875,2.288818359375,95.03173828125
1.5274999000000002,0.8607155084609985,0.7416039705276489,9.75637149810791,1.0986328125,1.922607421875,55.511474609375
1.5324999000000001,2.4133553504943848,1.2401964664459229,9.713874816894531,1.861572265625,4.486083984375,-3.84521484375
1.5374999000000003,3.6583402156829834,1.6340426206588745,9.516353607177734,3.875732421875,8.392333984375,-55.511474609375
1.5424999000000001,4.135983467102051,1.8692729473114014,9.59476375579834,-1.068115234375,-2.593994140625,-82.6416015625
1.5474999,3.714005470275879,1.8531121015548706,9.536105155944824,-3.2958984375,-3.5400390625,-92.193603515625
1.5524999000000002,2.940079689025879,1.623268723487854,9.506776809692383,-1.556396484375,-2.0751953125,-88.2568359375
1.5574999,1.802833914756775,1.1875240802764893,9.501988410949707,-1.03759765625,2.197265625,-87.7685546875
1.5624999000000002,0.7457938194274902,0.7451952695846558,9.609726905822754,-1.678466796875,-3.326416015625,-89.05029296875
1.5674999,-0.09876082092523575,0.08559270948171616,9.652822494506836,-1.46484375,-3.936767578125,-77.63671875
1.5724999000000002,-0.812831461429596,-0.5195417404174805,9.803657531738281,-1.220703125,0.1220703125,-61.767578125
1.5774999,-1.423951506614685,-1.2072762250900269,9.9401273727417,-1.89208984375,0.244140625,-36.7431640625
1.5824999000000002,-1.7627309560775757,-1.6717513799667358,9.982025146484375,-1.129150390625,-1.373291015625,0.396728515625
1.5874999,-1.9357120990753174,-2.0177135467529297,9.9401273727417,-1.03759765625,-4.608154296875,30.487060546875
1.5924999000000002,-2.011129379272461,-2.1110873222351074,9.880870819091797,0.030517578125,-1.03759765625,54.62646484375
1.5974999,-1.9051860570907593,-1.8800468444824219,9.820416450500488,0.946044921875,-1.007080078125,90.606689453125
1.6024999000000002,-1.9536685943603516,-1.455674648284912,9.75637149810791,2.50244140625,2.777099609375,113.8916015625
1.6074999,-2.05781626701355,-0.9026140570640564,9.848548889160156,1.739501953125,0.42724609375,121.7041015625
1.6124999000000002,-1.734000563621521,-0.19213469326496124,9.84256362915039,0.823974609375,1.434326171875,127.62451171875
1.6174999,-0.8972271084785461,0.1933317929506302,9.84376049041748,2.532958984375,1.129150390625,98.5107421875
1.6224999000000002,0.645237386226654,0.6500257849693298,9.78989028930664,1.556396484375,1.64794921875,58.77685546875
1.6274999,2.297236442565918,1.0241197347640991,9.773131370544434,1.5869140625,3.204345703125,-2.349853515625
1.6324999000000002,3.579331636428833,1.4113819599151611,9.587580680847168,3.23486328125,9.368896484375,-57.037353515625
1.6374999000000001,3.579331636428833,1.4113819599151611,9.587580680847168,3.23486328125,9.368896484375,-57.037353515625
1.6424999000000002,4.170100688934326,1.657984733581543,9.651026725769043,-0.579833984375,-0.335693359375,-86.822509765625
1.6474999000000001,3.777451753616333,1.7735048532485962,9.52473258972168,-3.570556640625,-3.204345703125,-94.879150390625
1.6524999000000002,3.0113072395324707,1.613093376159668,9.53969669342041,-1.28173828125,-4.0283203125,-90.118408203125
1.6574999000000001,1.8926163911819458,1.1540051698684692,9.515754699707031,-2.01416015625,0.54931640625,-90.240478515625
1.6624999000000003,0.8140285611152649,0.7044938206672668,9.610923767089844,-1.007080078125,0.518798828125,-91.36962890625
1.6674999000000001,-0.0065840547904372215,0.002394201699644327,9.674968719482422,-1.617431640625,-5.462646484375,-82.061767578125
1.6724999,-0.6841431260108948,-0.6386532783508301,9.780313491821289,-1.983642578125,-0.518798828125,-69.976806640625
1.6774999000000002,-1.227626919746399,-1.1749545335769653,9.897629737854004,-1.068115234375,0.946044921875,-40.6494140625
1.6824999,-1.5478514432907104,-1.568800687789917,9.919178009033203,-1.0986328125,-1.007080078125,0.152587890625
1.6874999000000002,-1.7130513191223145,-1.7866730690002441,9.91738224029541,-1.3427734375,-4.7607421875,31.55517578125
1.6924999,-1.8375498056411743,-1.8010382652282715,9.916783332824707,-0.18310546875,-1.495361328125,57.342529296875
1.6974999000000002,-1.7962498664855957,-1.6089035272598267,9.871294021606445,1.007080078125,-0.1220703125,85.38818359375
1.7024999,-1.9195512533187866,-1.2300211191177368,9.807249069213867,1.861572265625,2.838134765625,103.94287109375
1.7074999000000002,-1.999756932258606,-0.7218518257141113,9.88745403289795,1.5869140625,-0.946044921875,114.68505859375
1.7124999,-1.742978811264038,-0.11372458189725876,9.806650161743164,2.105712890625,3.143310546875,125.762939453125
1.7174999000000002,-0.9050082564353943,0.21667525172233582,9.813833236694336,2.288818359375,1.190185546875,99.456787109375
1.7224999,0.6224924325942993,0.6141127347946167,9.780912399291992,1.8310546875,1.708984375,61.004638671875
1.7274999000000002,2.2661118507385254,0.9690531492233276,9.785700798034668,1.40380859375,2.288818359375,2.288818359375
1.7324999,3.5500025749206543,1.3120225667953491,9.594164848327637,3.692626953125,8.97216796875,-49.31640625
1.7374999000000002,4.147356033325195,1.5592238903045654,9.666589736938477,-0.54931640625,-0.823974609375,-80.13916015625
1.7424999,3.777451753616333,1.656787633895874,9.50498104095459,-3.082275390625,-3.265380859375,-92.6513671875
1.7474999000000002,2.9526493549346924,1.4712369441986084,9.59715747833252,-1.46484375,-3.7841796875,-91.400146484375
1.7524999,1.9141643047332764,1.0749965906143188,9.519346237182617,-1.922607421875,1.220703125,-90.39306640625
1.7574999000000002,0.7906851172447205,0.639850378036499,9.679757118225098,-1.220703125,-0.823974609375,-92.71240234375
1.7624999000000001,-0.010773907415568829,-0.03770867735147476,9.695918083190918,-1.64794921875,-5.157470703125,-83.221435546875
1.7674999000000002,-0.7092822790145874,-0.6649895310401917,9.765350341796875,-1.64794921875,0.06103515625,-69.580078125
1.7724999000000001,-1.3192051649093628,-1.2431892156600952,9.855731010437012,-1.46484375,0.885009765625,-41.56494140625
1.7774999000000002,-1.6663644313812256,-1.6627731323242188,9.862914085388184,-1.068115234375,-0.9765625,-0.79345703125
1.7824999000000001,-1.8584990501403809,-1.866280198097229,9.838972091674805,-1.007080078125,-4.45556640625,33.172607421875
1.7874999000000003,-1.9979612827301025,-1.931522250175476,9.841964721679688,-0.30517578125,-1.46484375,56.884765625
1.7924999000000001,-1.8950105905532837,-1.7244237661361694,9.817423820495605,0.640869140625,-1.251220703125,82.733154296875
1.7974999,-1.965639591217041,-1.3503297567367554,9.773730278015137,2.288818359375,1.922607421875,102.4169921875
1.8024999000000002,-1.9692308902740479,-0.8589198589324951,9.904213905334473,1.678466796875,0.335693359375,113.6474609375
1.8074999,-1.701080322265625,-0.17836803197860718,9.791686058044434,2.227783203125,3.2958984375,124.32861328125
1.8124999000000002,-0.8631097078323364,0.19931729137897491,9.836577415466309,1.922607421875,0.946044921875,98.876953125
1.8174999,0.6027402877807617,0.7152677774429321,9.759963035583496,2.471923828125,1.373291015625,60.6689453125
1.8224999000000002,2.231395959854126,1.148618221282959,9.774328231811523,1.312255859375,2.13623046875,4.302978515625
1.8274999,3.4793736934661865,1.548449993133545,9.604938507080078,3.2958984375,8.819580078125,-47.454833984375
1.8324999000000002,4.082712650299072,1.8160020112991333,9.667786598205566,-0.701904296875,-0.42724609375,-80.078125
1.8374999,3.7265748977661133,1.8680758476257324,9.50617790222168,-3.5400390625,-3.84521484375,-92.71240234375
1.8424999000000002,2.912546396255493,1.589151382446289,9.59715747833252,-0.335693359375,-3.570556640625,-90.850830078125
1.8474999,1.941697597503662,1.1324573755264282,9.513360023498535,-1.922607421875,1.434326171875,-90.240478515625
1.8524999000000002,0.829590916633606,0.6051344871520996,9.699509620666504,-1.190185546875,-1.3427734375,-93.597412109375
1.8574999,0.04369417950510979,-0.0975637212395668,9.730035781860352,-1.678466796875,-4.82177734375,-84.228515625
1.8624999000000002,-0.6817489266395569,-0.6841431260108948,9.814431190490723,-1.46484375,0.42724609375,-68.634033203125
1.8674999,-1.3634978532791138,-1.256955862045288,9.914389610290527,-1.3427734375,0.30517578125,-39.093017578125
1.8724999000000002,-1.678335428237915,-1.6394295692443848,9.911994934082031,-1.068115234375,-1.495361328125,2.166748046875
1.8774999,-1.9087773561477661,-1.8620903491973877,9.87967300415039,-1.190185546875,-4.364013671875,30.181884765625
1.8824999000000002,-1.9638439416885376,-1.9620482921600342,9.813234329223633,-0.18310546875,-1.03759765625,55.145263671875
1.8874999000000001,-1.8818424940109253,-1.7495628595352173,9.78989028930664,0.67138671875,-1.373291015625,87.677001953125
1.8924999000000002,-1.9626468420028687,-1.3862427473068237,9.683348655700684,1.800537109375,3.265380859375,110.9619140625
1.8974999000000001,-2.008136749267578,-0.8631097078323364,9.816825866699219,2.105712890625,0.48828125,120.758056640625
1.9024999000000002,-1.7375918626785278,-0.16220717132091522,9.787496566772461,1.617431640625,0.732421875,130.67626953125
1.9074999000000001,-0.8846575021743774,0.22445641458034515,9.82640266418457,2.349853515625,1.434326171875,104.034423828125
1.9124999000000003,0.6314706802368164,0.645237386226654,9.804854393005371,1.40380859375,1.678466796875,65.3076171875
1.9174999000000001,2.3349452018737793,0.9852139949798584,9.791686058044434,1.617431640625,2.50244140625,4.669189453125
1.9224999,3.6762967109680176,1.2922704219818115,9.610325813293457,3.41796875,9.1552734375,-51.1474609375
1.9274999000000002,4.322132587432861,1.5310919284820557,9.666589736938477,0.274658203125,-0.244140625,-83.31298828125
1.9324999,3.996521234512329,1.6729484796524048,9.53969669342041,-2.716064453125,-3.41796875,-94.879150390625
1.9374999000000002,3.138798475265503,1.5729905366897583,9.639056205749512,-2.3193359375,-3.23486328125,-92.95654296875
1.9424999,2.0260932445526123,1.2761094570159912,9.542689323425293,-1.068115234375,2.166748046875,-89.111328125
1.9474999000000002,0.8535329103469849,0.9295487999916077,9.711481094360352,-1.251220703125,-1.983642578125,-89.691162109375
1.9524999,-0.013766659423708916,0.3429693877696991,9.695918083190918,-1.40380859375,-4.2724609375,-78.18603515625
1.9574999000000002,-0.7493851184844971,-0.25258827209472656,9.767744064331055,-1.007080078125,-0.79345703125,-62.347412109375
1.9624999,-1.3934253454208374,-0.982221245765686,9.861717224121094,-1.495361328125,0.091552734375,-39.306640625
1.9674999000000002,-1.7986440658569336,-1.6514005661010742,9.81143856048584,-1.068115234375,-0.579833984375,-6.927490234375
1.9724999,-1.920149803161621,-2.070984363555908,9.823410034179688,-1.312255859375,-5.31005859375,24.749755859375
1.9774999000000002,-2.032677173614502,-2.316390037536621,9.755773544311523,-0.030517578125,-0.1220703125,51.055908203125
1.9824999,-1.890222191810608,-2.1296424865722656,9.793481826782227,0.8544921875,-0.091552734375,89.874267578125
1.9874999000000002,-1.9303251504898071,-1.6974890232086182,9.759963035583496,2.13623046875,1.007080078125,114.68505859375
1.9924999,-2.0027496814727783,-1.1378443241119385,9.894038200378418,1.983642578125,0.18310546875,119.598388671875
1.9974999000000002,-1.787870168685913,-0.3321954905986786,9.879075050354004,0.579833984375,0.06103515625,130.4931640625
2.0024999,-1.787870168685913,-0.3321954905986786,9.879075050354004,0.579833984375,0.06103515625,130.4931640625
2.0074999,-0.9702502489089966,0.20709845423698425,9.871891975402832,2.471923828125,1.15966796875,105.3466796875
2.0124999000000003,0.4800374507904053,0.823006808757782,9.841964721679688,1.5869140625,1.77001953125,67.291259765625
2.0174999000000002,2.2026655673980713,1.2533645629882812,9.774927139282227,1.556396484375,1.52587890625,9.765625
2.0224999,3.488351821899414,1.5831658840179443,9.630077362060547,2.38037109375,7.6904296875,-45.928955078125
2.0274999,4.192845821380615,1.7040730714797974,9.620500564575195,1.068115234375,1.312255859375,-84.503173828125
2.0324999000000004,3.885190725326538,1.643619418144226,9.543288230895996,-2.13623046875,-3.47900390625,-99.54833984375
2.0374999000000003,3.028066635131836,1.3623007535934448,9.638457298278809,-3.23486328125,-1.40380859375,-95.5810546875
2.0424999,1.9195512533187866,1.0079588890075684,9.575610160827637,0.091552734375,2.960205078125,-86.12060546875
2.0474999,0.7571662664413452,0.6548141837120056,9.741408348083496,-1.556396484375,-2.74658203125,-86.42578125
2.0524999,-0.152031809091568,0.23942017555236816,9.715071678161621,-1.800537109375,-3.631591796875,-70.404052734375
2.0574999000000003,-0.8810662031173706,-0.25258827209472656,9.769539833068848,-1.312255859375,-1.190185546875,-50.750732421875
2.0624999,-1.4496891498565674,-0.8762778043746948,9.834781646728516,-0.9765625,0.244140625,-26.4892578125
2.0674999,-1.7687164545059204,-1.3437457084655762,9.851541519165039,-1.373291015625,-1.617431640625,-0.54931640625
2.0724999,-1.9087773561477661,-1.6633716821670532,9.847949981689453,-1.3427734375,-3.448486328125,17.76123046875
2.0774999000000003,-1.877652645111084,-1.710058569908142,9.84376049041748,-0.213623046875,-1.129150390625,41.259765625
2.0824999,-1.7561469078063965,-1.5203180313110352,9.839570045471191,0.9765625,-0.518798828125,80.62744140625
2.0874999,-1.8237831592559814,-1.114500880241394,9.740809440612793,1.64794921875,0.274658203125,106.231689453125
2.0924999,-1.775899052619934,-0.8020575642585754,9.79647445678711,-0.213623046875,-0.30517578125,117.095947265625
2.0974999000000003,-1.688510775566101,-0.22026655077934265,9.699509620666504,3.082275390625,-0.762939453125,132.720947265625
2.1024999,-0.8696937561035156,0.08619125932455063,9.82999324798584,2.99072265625,1.739501953125,109.2529296875
2.1074999,0.4728548228740692,0.4902127981185913,9.783905029296875,1.953125,2.44140625,69.51904296875
2.1124999,2.1763293743133545,0.7625532150268555,9.87967300415039,1.312255859375,1.8310546875,10.986328125
2.1174999000000003,3.488351821899414,1.0696096420288086,9.677961349487305,2.471923828125,5.035400390625,-46.9970703125
2.1224999,4.278438568115234,1.128267526626587,9.825204849243164,-2.0751953125,-1.983642578125,-87.82958984375
2.1274999,4.065953254699707,1.182137131690979,9.509170532226562,-1.28173828125,2.01416015625,-101.25732421875
2.1324999,3.2094273567199707,0.8990227580070496,9.67077922821045,-2.105712890625,1.983642578125,-103.02734375
2.1374999000000003,2.166153907775879,0.5925649404525757,9.53969669342041,-0.701904296875,-2.471923828125,-104.156494140625
2.1424999000000002,0.9205705523490906,0.12330138683319092,9.617507934570312,-0.457763671875,-0.732421875,-104.034423828125
2.1474999,-0.03890577703714371,-0.2867056429386139,9.731232643127441,-2.166748046875,-1.64794921875,-89.90478515625
2.1524999,-0.8134300112724304,-0.6667851805686951,9.805453300476074,-1.373291015625,-1.64794921875,-70.9228515625
2.1574999000000004,-1.4742296934127808,-0.9540894031524658,9.873088836669922,-1.03759765625,-0.518798828125,-39.12353515625
2.1624999000000003,-1.8297686576843262,-1.0432734489440918,9.873687744140625,-1.068115234375,-1.129150390625,-0.244140625
2.1674999,-1.9662381410598755,-1.1725603342056274,9.840767860412598,-1.068115234375,-4.150390625,28.3203125
2.1724999,-2.0248961448669434,-1.1803414821624756,9.825803756713867,-0.213623046875,-0.152587890625,55.084228515625
2.1774999000000004,-1.922544002532959,-1.18094003200531,9.814431190490723,0.762939453125,0.274658203125,89.05029296875
2.1824999000000003,-1.8926163911819458,-1.003769040107727,9.761159896850586,1.861572265625,1.495361328125,105.95703125
2.1874999,-1.8225860595703125,-0.8643068075180054,9.807847023010254,0.30517578125,0.457763671875,113.1591796875
2.1924999,-1.5568296909332275,-0.37409400939941406,9.805453300476074,2.38037109375,-1.861572265625,128.265380859375
2.1974999,-0.7374141216278076,-0.06404489278793335,9.832986831665039,2.44140625,0.823974609375,103.08837890625
2.2024999000000003,0.5416881442070007,0.4602852761745453,9.81024169921875,1.15966796875,3.173828125,67.047119140625
2.2074999,2.1368250846862793,0.93254154920578,9.85034465789795,1.556396484375,2.044677734375,11.3525390625
2.2124999,3.337517261505127,1.3766659498214722,9.603741645812988,3.23486328125,7.568359375,-43.212890625
2.2174999,4.035427093505859,1.5233107805252075,9.674968719482422,0.06103515625,-0.54931640625,-81.573486328125
2.2224999000000003,3.8959646224975586,1.4891934394836426,9.505578994750977,-1.52587890625,-3.72314453125,-95.76416015625
2.2274999,3.0526070594787598,1.1743559837341309,9.607931137084961,-2.62451171875,3.60107421875,-92.28515625
2.2324999,2.054823637008667,0.7703344225883484,9.598953247070312,-0.67138671875,0.30517578125,-89.202880859375
2.2374999,0.871489405632019,0.31783026456832886,9.732429504394531,-1.678466796875,-3.326416015625,-93.231201171875
2.2424999000000003,-0.12030863761901855,-0.04369417950510979,9.734225273132324,-1.708984375,-2.01416015625,-79.28466796875
2.2474999,-0.8236053586006165,-0.46148237586021423,9.808445930480957,-1.220703125,-2.44140625,-63.3544921875
2.2524999,-1.413776159286499,-0.8559271097183228,9.81143856048584,-0.79345703125,-0.823974609375,-38.116455078125
2.2574999,-1.723825216293335,-1.157596468925476,9.797672271728516,-1.15966796875,-0.79345703125,-3.60107421875
2.2624999000000003,-1.8112136125564575,-1.4850035905838013,9.781511306762695,-1.5869140625,-3.936767578125,25.299072265625
2.2674999000000002,-1.8393454551696777,-1.599326729774475,9.791088104248047,-0.6103515625,-1.28173828125,51.33056640625
2.2724999,-1.7896658182144165,-1.5634137392044067,9.813234329223633,0.885009765625,1.251220703125,83.740234375
2.2774999,-1.8177976608276367,-1.3766659498214722,9.748590469360352,1.52587890625,2.86865234375,101.9287109375
2.2824999000000004,-1.8782511949539185,-1.0749965906143188,9.876082420349121,1.007080078125,-1.28173828125,108.88671875
2.2874999000000003,-1.657984733581543,-0.5656301379203796,9.783905029296875,2.410888671875,0,122.802734375
2.2924999,-0.8852560520172119,-0.23343466222286224,9.856329917907715,2.0751953125,2.471923828125,99.79248046875
2.2974999,0.4572925269603729,0.3292027413845062,9.806051254272461,1.556396484375,1.556396484375,64.056396484375
2.3024999000000004,2.033874273300171,0.8571242094039917,9.838972091674805,1.708984375,1.861572265625,6.744384765625
2.3074999000000003,3.272873640060425,1.4269442558288574,9.672574996948242,3.23486328125,9.246826171875,-48.27880859375
2.3124999,3.929483652114868,1.7411831617355347,9.700108528137207,-0.030517578125,1.46484375,-81.695556640625
2.3174999,3.7265748977661133,1.8620903491973877,9.531915664672852,-2.716064453125,-3.753662109375,-93.75
2.3224999,2.914341926574707,1.6388310194015503,9.59057331085205,-1.983642578125,-2.471923828125,-92.59033203125
2.3274999000000003,1.9967641830444336,1.1234791278839111,9.592967987060547,-1.983642578125,-2.655029296875,-92.437744140625
2.3324999,0.8756792545318604,0.6667851805686951,9.65222454071045,-1.068115234375,1.495361328125,-94.085693359375
2.3374999,0.06883329898118973,0.048482585698366165,9.750386238098145,-1.312255859375,-4.058837890625,-82.672119140625
2.3424999,-0.608127236366272,-0.5219359993934631,9.75637149810791,-2.044677734375,-3.204345703125,-70.892333984375
2.3474999000000003,-1.2306196689605713,-1.0767922401428223,9.80904483795166,-1.922607421875,0.3662109375,-44.036865234375
2.3524999,-1.5885528326034546,-1.482010841369629,9.839570045471191,-0.9765625,-0.67138671875,0.701904296875
2.3574999,-1.7591396570205688,-1.731606364250183,9.862914085388184,-1.617431640625,-4.57763671875,32.745361328125
2.3624999,-1.7591396570205688,-1.731606364250183,9.862914085388184,-1.617431640625,-4.57763671875,32.745361328125
2.3674999000000003,-1.8590975999832153,-1.745373010635376,9.86770248413086,-0.1220703125,-0.885009765625,51.727294921875
2.3724999,-1.821987509727478,-1.5436615943908691,9.819219589233398,1.495361328125,2.01416015625,79.498291015625
2.3774999,-1.9716250896453857,-1.2102689743041992,9.703699111938477,1.434326171875,2.349853515625,105.560302734375
2.3824999,-1.968033790588379,-0.7356184720993042,9.725247383117676,1.3427734375,-2.227783203125,119.0185546875
2.3874999000000003,-1.7812861204147339,-0.29149407148361206,9.632472038269043,2.044677734375,3.997802734375,132.354736328125
2.3924999000000002,-0.8044517636299133,0.16639702022075653,9.747992515563965,3.11279296875,1.373291015625,106.689453125
2.3974999,0.8684966564178467,0.7978677153587341,9.805453300476074,0.640869140625,4.57763671875,65.032958984375
2.4024999,2.5234885215759277,1.1749545335769653,9.791088104248047,3.60107421875,6.77490234375,-0.244140625
2.4074999000000004,3.8121676445007324,1.6238672733306885,9.797672271728516,2.44140625,-0.8544921875,-53.192138671875
2.4124999000000003,4.198232650756836,1.6166846752166748,9.710882186889648,-1.068115234375,-0.67138671875,-77.789306640625
2.4174999,3.6709096431732178,1.3874398469924927,9.606734275817871,-0.79345703125,-0.67138671875,-88.836669921875
2.4224999,2.7712883949279785,1.0767922401428223,9.618106842041016,-2.960205078125,-3.753662109375,-91.24755859375
2.4274999000000004,1.7573440074920654,0.6308721303939819,9.592967987060547,-1.77001953125,-1.495361328125,-93.170166015625
2.4324999000000003,0.7661445140838623,0.3190273642539978,9.613917350769043,-1.068115234375,1.52587890625,-93.32275390625
2.4374999,-0.004788403399288654,-0.16879121959209442,9.721057891845703,-1.373291015625,-4.21142578125,-82.305908203125
2.4424999,-0.6805518269538879,-0.656609833240509,9.775525093078613,-2.288818359375,-2.99072265625,-70.12939453125
2.4474999,-1.291671872138977,-1.1408370733261108,9.827000617980957,-1.800537109375,0.946044921875,-41.56494140625
2.4524999000000003,-1.6202759742736816,-1.4586673974990845,9.880271911621094,-0.732421875,-1.220703125,3.143310546875
2.4574999,-1.8327614068984985,-1.611896276473999,9.880870819091797,-1.251220703125,-4.638671875,39.00146484375
2.4624999,-1.9015947580337524,-1.5185223817825317,9.872490882873535,-0.274658203125,-0.640869140625,60.150146484375
2.4674999,-1.9039889574050903,-1.3192051649093628,9.819818496704102,1.64794921875,1.495361328125,80.9326171875
2.4724999000000003,-2.031480073928833,-0.9738415479660034,9.804854393005371,2.0751953125,0.9765625,101.318359375
2.4774999,-2.076969861984253,-0.5829881429672241,9.771934509277344,1.190185546875,-1.068115234375,112.85400390625
2.4824999,-1.8602946996688843,-0.16101007163524628,9.762955665588379,1.708984375,4.608154296875,126.40380859375
2.4874999,-0.9445125460624695,0.13826514780521393,9.727043151855469,2.899169921875,0.946044921875,101.654052734375
2.4924999000000003,0.7332242727279663,0.6913257241249084,9.749189376831055,1.678466796875,1.495361328125,61.767578125
2.4974999,2.361281394958496,0.9582792520523071,9.784503936767578,1.678466796875,5.18798828125,0.518798828125
2.5024999,3.687070608139038,1.4167689085006714,9.68574333190918,3.47900390625,5.43212890625,-53.8330078125
2.5074999,4.134786128997803,1.4700398445129395,9.769539833068848,-1.434326171875,-1.15966796875,-83.0078125
2.5124999000000003,3.6326024532318115,1.3539210557937622,9.619902610778809,-2.38037109375,-1.77001953125,-92.28515625
2.5174999000000002,2.761711597442627,1.1192892789840698,9.546280860900879,-1.46484375,-3.173828125,-88.8671875
2.5224999,1.7244237661361694,0.6572083830833435,9.581595420837402,-2.0751953125,-2.5634765625,-91.094970703125
2.5274999,0.6877344250679016,0.37169981002807617,9.541492462158203,-0.732421875,2.25830078125,-88.56201171875
2.5324999000000004,-0.07062894850969315,-0.15741875767707825,9.678560256958008,-1.5869140625,-3.84521484375,-76.23291015625
2.5374999000000003,-0.7326257228851318,-0.6386532783508301,9.761758804321289,-2.3193359375,-2.838134765625,-63.8427734375
2.5424999,-1.3239935636520386,-1.1037269830703735,9.831191062927246,-1.739501953125,0.91552734375,-35.247802734375
2.5474999,-1.5322890281677246,-1.416170358657837,9.898228645324707,-0.91552734375,-1.708984375,5.889892578125
2.5524999000000004,-1.6615760326385498,-1.61069917678833,9.915586471557617,-1.3427734375,-4.39453125,34.820556640625
2.5574999000000003,-1.655590534210205,-1.5951368808746338,9.921571731567383,-0.030517578125,0.030517578125,54.50439453125
2.5624999,-1.613093376159668,-1.499967336654663,9.846753120422363,2.105712890625,1.312255859375,79.28466796875
2.5674999,-1.7615338563919067,-1.1887211799621582,9.906607627868652,2.0751953125,-0.48828125,100.311279296875
2.5724999,-1.9159599542617798,-0.8882488012313843,9.752182006835938,0.823974609375,1.220703125,114.80712890625
2.5774999000000003,-1.6801310777664185,-0.34177228808403015,9.82879638671875,1.617431640625,2.899169921875,126.52587890625
2.5824999,-0.6805518269538879,0.25737667083740234,9.886856079101562,3.11279296875,-0.42724609375,98.388671875
2.5874999,0.8816647529602051,0.8918401598930359,9.77013874053955,1.007080078125,10.284423828125,55.999755859375
2.5924999,2.4127566814422607,1.4676456451416016,9.763554573059082,4.2724609375,6.744384765625,-8.97216796875
2.5974999000000003,3.514089584350586,1.7968484163284302,9.62828254699707,2.13623046875,-5.157470703125,-59.50927734375
2.6024999,3.7217864990234375,1.7118542194366455,9.501389503479004,-3.326416015625,-2.62451171875,-82.366943359375
2.6074999,3.138199806213379,1.4107834100723267,9.545083999633789,-1.861572265625,1.007080078125,-89.447021484375
2.6124999,2.3720552921295166,1.0091559886932373,9.472060203552246,-0.67138671875,-3.41796875,-88.409423828125
2.6174999000000003,1.4742296934127808,0.48961424827575684,9.625288963317871,-2.288818359375,-3.204345703125,-94.757080078125
2.6224999,0.585382342338562,0.14185644686222076,9.577404975891113,-0.732421875,2.13623046875,-90.606689453125
2.6274999,-0.023343466222286224,-0.37409400939941406,9.736021041870117,-2.410888671875,-3.631591796875,-80.6884765625
2.6324999,-0.6973112225532532,-0.7972691655158997,9.825204849243164,-2.227783203125,-2.01416015625,-67.56591796875
2.6374999000000003,-1.3000515699386597,-1.1647791862487793,9.851541519165039,-0.518798828125,-0.274658203125,-31.890869140625
2.6424999000000002,-1.5735890865325928,-1.3718775510787964,9.928155899047852,-1.068115234375,-2.74658203125,13.48876953125
2.6474999,-1.8189947605133057,-1.4413094520568848,9.895833969116211,-1.52587890625,-2.288818359375,40.008544921875
2.6524999,-1.8477251529693604,-1.381454348564148,9.906607627868652,0.1220703125,0.396728515625,64.117431640625
2.6574999000000004,-1.7908629179000854,-1.2300211191177368,9.838373184204102,2.62451171875,-0.152587890625,91.766357421875
2.6624999000000003,-1.9506758451461792,-0.8038532137870789,9.972448348999023,1.5869140625,-0.48828125,110.65673828125
2.6674999,-1.923741102218628,-0.5093663930892944,9.781511306762695,1.15966796875,3.631591796875,123.748779296875
2.6724999,-1.5418659448623657,0.12928688526153564,9.831191062927246,2.288818359375,0.762939453125,126.495361328125
2.6774999000000004,-0.4321534037590027,0.7056909799575806,9.7605619430542,3.2958984375,1.617431640625,92.34619140625
2.6824999000000003,1.2677297592163086,0.9983820915222168,9.605537414550781,1.0986328125,7.293701171875,43.792724609375
2.6874999,2.804807186126709,1.3652935028076172,9.716269493103027,3.204345703125,0.8544921875,-21.697998046875
2.6924999,3.818751811981201,1.2964602708816528,9.610923767089844,1.617431640625,1.40380859375,-64.453125
2.6974999,3.9450459480285645,1.0552444458007812,9.633668899536133,-0.823974609375,-0.274658203125,-86.273193359375
2.7024999000000003,3.2638955116271973,0.7727286219596863,9.642647743225098,-2.166748046875,-1.708984375,-96.038818359375
2.7074999,2.4678235054016113,0.5165489912033081,9.598953247070312,-2.197265625,-3.265380859375,-91.1865234375
2.7124999,1.4484920501708984,0.20111294090747833,9.715071678161621,-2.01416015625,-0.244140625,-94.482421875
2.7174999,0.5452794432640076,0.028730420395731926,9.673771858215332,-0.640869140625,0.152587890625,-89.53857421875
2.7224999000000003,-0.1454477459192276,-0.3603273630142212,9.73781681060791,-1.800537109375,-4.974365234375,-79.315185546875
2.7274999,-0.1454477459192276,-0.3603273630142212,9.73781681060791,-1.800537109375,-4.974365234375,-79.315185546875
2.7324999,-0.8182184100151062,-0.7146692276000977,9.745597839355469,-2.685546875,-1.434326171875,-63.995361328125
2.7374999,-1.3658920526504517,-1.0720038414001465,9.727043151855469,-1.15966796875,0.48828125,-29.23583984375
2.7424999000000003,-1.5616180896759033,-1.314416766166687,9.82879638671875,-1.007080078125,-3.265380859375,16.66259765625
2.7474999,-1.7723077535629272,-1.3844470977783203,9.833584785461426,-1.007080078125,-2.655029296875,44.98291015625
2.7524999,-1.8022353649139404,-1.3090298175811768,9.893440246582031,0.3662109375,0.823974609375,67.3828125
2.7574999,-1.777096152305603,-1.1079168319702148,9.852140426635742,2.44140625,0.762939453125,94.390869140625
2.7624999000000003,-1.975814938545227,-0.6613982319831848,9.974244117736816,1.495361328125,-1.03759765625,110.382080078125
2.7674999000000002,-2.034472942352295,-0.3232172429561615,9.81024169921875,1.617431640625,3.23486328125,124.267578125
2.7724999,-1.5741876363754272,0.20530278980731964,9.84495735168457,2.3193359375,1.190185546875,122.86376953125
2.7774999,-0.4752490520477295,0.6572083830833435,9.824007987976074,3.41796875,1.434326171875,90.362548828125
2.7824999000000004,1.3551181554794312,0.884058952331543,9.62947940826416,1.068115234375,5.401611328125,40.618896484375
2.7874999000000003,2.9287071228027344,1.1767501831054688,9.730035781860352,3.509521484375,2.593994140625,-26.031494140625
2.7924999,4.0294413566589355,1.14742112159729,9.587580680847168,1.28173828125,2.0751953125,-70.159912109375
2.7974999,4.152742862701416,0.9953893423080444,9.569623947143555,-1.46484375,-0.91552734375,-92.34619140625
2.8024999000000004,3.402759075164795,0.7769184708595276,9.571419715881348,-2.532958984375,-2.105712890625,-103.82080078125
2.8074999000000003,2.56000018119812,0.5171475410461426,9.627683639526367,-2.01416015625,-3.997802734375,-99.761962890625
2.8124999,1.3988122940063477,0.23044191300868988,9.660005569458008,-1.190185546875,0.762939453125,-101.806640625
2.8174999,0.44831427931785583,-0.08858546614646912,9.739612579345703,-1.434326171875,-1.40380859375,-95.367431640625
2.8224999,-0.345363587141037,-0.535702645778656,9.773131370544434,-3.11279296875,-3.173828125,-83.92333984375
2.8274999000000003,-1.0522516965866089,-0.9445125460624695,9.774927139282227,-0.701904296875,-0.274658203125,-62.408447265625
2.8324999,-1.5783774852752686,-1.227626919746399,9.774927139282227,-0.6103515625,0.42724609375,-21.484375
2.8374999,-1.810615062713623,-1.3335703611373901,9.823410034179688,-1.617431640625,-2.899169921875,22.27783203125
2.8424999,-2.0644004344940186,-1.2485761642456055,9.795876502990723,-1.15966796875,-1.52587890625,47.271728515625
2.8474999000000003,-2.141014814376831,-1.104325532913208,9.816825866699219,0.152587890625,1.312255859375,70.892333984375
2.8524999,-2.094327926635742,-0.8068459630012512,9.865906715393066,2.01416015625,-2.716064453125,97.259521484375
2.8574999,-2.1727380752563477,-0.4231751561164856,9.880271911621094,1.434326171875,0.1220703125,110.107421875
2.8624999,-2.0165164470672607,-0.08619125932455063,9.81263542175293,1.220703125,4.33349609375,127.9296875
2.8674999000000003,-1.359906554222107,0.518943190574646,9.845556259155273,1.89208984375,-0.823974609375,125.701904296875
2.8724999,-0.21966800093650818,1.0552444458007812,9.730634689331055,2.99072265625,4.8828125,91.30859375
2.8774999,1.557428240776062,1.1480196714401245,9.634267807006836,2.349853515625,6.561279296875,40.1611328125
2.8824999,3.119046211242676,1.3317747116088867,9.739013671875,2.0751953125,-3.173828125,-24.261474609375
2.8874999000000003,4.080318450927734,0.9726444482803345,9.59596061706543,1.953125,2.74658203125,-62.6220703125
2.8924999000000002,4.202422618865967,0.6212953329086304,9.678560256958008,-0.9765625,0.091552734375,-86.12060546875
2.8974999,3.4189200401306152,0.41778820753097534,9.64564037322998,-3.173828125,-2.25830078125,-99.884033203125
2.9024999,2.491166830062866,0.29628247022628784,9.64923095703125,-1.64794921875,-3.2958984375,-95.062255859375
2.9074999000000004,1.3706804513931274,0.13287819921970367,9.63187313079834,-1.15966796875,0.79345703125,-97.22900390625
2.9124999000000003,0.3555389642715454,-0.04189852997660637,9.680954933166504,-1.251220703125,-1.28173828125,-92.6513671875
2.9174999,-0.36571431159973145,-0.4638765752315521,9.726444244384766,-2.9296875,-3.875732421875,-80.902099609375
2.9224999,-1.0761936902999878,-0.8649053573608398,9.783905029296875,-1.251220703125,-0.030517578125,-62.957763671875
2.9274999000000004,-1.5729905366897583,-1.1450269222259521,9.803657531738281,-0.06103515625,0.030517578125,-25.848388671875
2.9324999000000003,-1.8136078119277954,-1.3263877630233765,9.877279281616211,-1.3427734375,-2.960205078125,18.310546875
2.9374999,-2.01232647895813,-1.2749123573303223,9.851541519165039,-1.52587890625,-1.708984375,43.15185546875
2.9424999,-2.0242974758148193,-1.2042834758758545,9.881468772888184,-0.30517578125,1.129150390625,68.695068359375
2.9474999,-1.9512743949890137,-1.0348936319351196,9.881468772888184,2.0751953125,-1.28173828125,94.329833984375
2.9524999000000003,-2.0201077461242676,-0.5979518890380859,9.970054626464844,1.617431640625,-0.67138671875,108.734130859375
2.9574999,-1.9129672050476074,-0.32022446393966675,9.821614265441895,1.03759765625,3.997802734375,122.344970703125
2.9624999,-1.381454348564148,0.3489548861980438,9.865307807922363,1.495361328125,0.213623046875,123.4130859375
2.9674999,-0.2777273952960968,0.9816226959228516,9.729436874389648,2.655029296875,4.364013671875,89.599609375
2.9724999000000003,1.413776159286499,1.1593921184539795,9.580398559570312,1.8310546875,8.331298828125,41.229248046875
2.9774999,2.940678119659424,1.4538789987564087,9.668384552001953,2.685546875,-2.593994140625,-21.6064453125
2.9824999,3.8995559215545654,1.1899182796478271,9.561244010925293,1.52587890625,0.091552734375,-60.05859375
2.9874999,4.02345609664917,0.8265981078147888,9.635464668273926,-0.732421875,0.48828125,-81.878662109375
2.9924999000000003,3.339312791824341,0.5530605912208557,9.668983459472656,-2.899169921875,-1.861572265625,-94.90966796875
2.9974999,2.4624364376068115,0.35913026332855225,9.621099472045898,-2.044677734375,-3.173828125,-92.498779296875
3.0024999,1.4413094520568848,0.15801730751991272,9.658209800720215,-1.0986328125,1.007080078125,-94.818115234375
3.0074999,0.4644751250743866,-0.0017956512747332454,9.631275177001953,-0.54931640625,-0.885009765625,-94.573974609375
3.0124999000000003,-0.22385786473751068,-0.38067805767059326,9.692925453186035,-2.3193359375,-4.913330078125,-83.892822265625
3.0174999000000002,-0.9259575009346008,-0.6811503767967224,9.7605619430542,-2.01416015625,-0.8544921875,-68.2373046875
3.0224999,-1.4712369441986084,-1.0067617893218994,9.79527759552002,-0.579833984375,-0.213623046875,-29.47998046875
3.0274999,-1.7208324670791626,-1.1851298809051514,9.88386344909668,-1.3427734375,-2.86865234375,15.472412109375
3.0324999000000004,-1.9560627937316895,-1.2425906658172607,9.875483512878418,-1.495361328125,-2.3193359375,42.236328125
3.0374999000000003,-1.96683669090271,-1.1869255304336548,9.922170639038086,-0.18310546875,0.823974609375,65.704345703125
3.0424999,-1.9369091987609863,-1.0414776802062988,9.864110946655273,1.739501953125,1.03759765625,89.4775390625
3.0474999,-2.0231003761291504,-0.6548141837120056,9.987412452697754,1.312255859375,-0.640869140625,107.513427734375
3.0524999000000004,-1.9937714338302612,-0.30047231912612915,9.836577415466309,1.434326171875,1.312255859375,121.58203125
3.0574999000000003,-1.5670050382614136,0.304063618183136,9.871891975402832,2.3193359375,2.899169921875,127.838134765625
3.0624999,-0.4985924959182739,0.7457938194274902,9.810839653015137,3.143310546875,1.15966796875,95.947265625
3.0674999,1.1953052282333374,0.9995791912078857,9.659406661987305,0.9765625,3.96728515625,53.009033203125
3.0724999000000004,2.829347848892212,1.0881646871566772,9.730634689331055,2.50244140625,1.46484375,-8.544921875
3.0774999000000003,3.951031446456909,0.9828197956085205,9.566033363342285,1.953125,2.86865234375,-54.779052734375
3.0824999,4.20421838760376,0.7110779285430908,9.649829864501953,-0.885009765625,-0.335693359375,-81.024169921875
3.0874999,3.640982151031494,0.517746090888977,9.557653427124023,-1.190185546875,-0.9765625,-96.86279296875
3.0924999,3.640982151031494,0.517746090888977,9.557653427124023,-1.190185546875,-0.9765625,-96.86279296875
3.0974999000000003,2.697068214416504,0.3998316824436188,9.594164848327637,-3.692626953125,-1.007080078125,-94.818115234375
3.1024999,1.63344407081604,0.243011474609375,9.515155792236328,-0.457763671875,-0.030517578125,-95.0927734375
3.1074999,0.6314706802368164,0.1843535304069519,9.57201862335205,-1.15966796875,-3.11279296875,-98.69384765625
3.1124999,-0.13946224749088287,-0.09876082092523575,9.592967987060547,-1.373291015625,-4.21142578125,-85.784912109375
3.1174999000000003,-0.7757213711738586,-0.4189853072166443,9.749788284301758,-2.5634765625,-0.518798828125,-70.831298828125
3.1224999,-1.2958617210388184,-0.9026140570640564,9.84495735168457,-1.3427734375,1.03759765625,-40.1611328125
3.1274999,-1.591545581817627,-1.2372037172317505,9.947309494018555,-0.701904296875,-2.25830078125,4.119873046875
3.1324999,-1.813009262084961,-1.4395138025283813,9.947908401489258,-1.251220703125,-4.425048828125,40.283203125
3.1374999000000003,-1.9243396520614624,-1.3988122940063477,9.941922187805176,-0.640869140625,-0.457763671875,62.31689453125
3.1424999000000002,-1.9333178997039795,-1.146224021911621,9.888651847839355,1.373291015625,1.617431640625,80.413818359375
3.1474999,-1.9889830350875854,-0.7679402232170105,9.816825866699219,1.46484375,2.532958984375,95.306396484375
3.1524999,-1.9818004369735718,-0.444722980260849,9.813234329223633,0.732421875,-1.556396484375,110.870361328125
3.1574999000000004,-1.5909470319747925,-0.004788403399288654,9.743204116821289,2.410888671875,2.532958984375,123.59619140625
3.1624999000000003,-0.667982280254364,0.19273324310779572,9.755773544311523,2.655029296875,2.288818359375,96.00830078125
3.1674999,0.9091981053352356,0.6057330369949341,9.75278091430664,2.197265625,1.617431640625,57.18994140625
3.1724999,2.4833858013153076,0.9091981053352356,9.804255485534668,1.64794921875,2.99072265625,1.220703125
3.1774999000000004,3.644573450088501,1.2653355598449707,9.642048835754395,3.997802734375,6.195068359375,-46.38671875
3.1824999000000003,4.064157485961914,1.3443442583084106,9.720458984375,-1.708984375,-1.64794921875,-78.094482421875
3.1874999,3.6158430576324463,1.2587515115737915,9.59835433959961,-2.8076171875,-2.105712890625,-92.7734375
3.1924999,2.779069662094116,0.9570821523666382,9.636063575744629,-2.044677734375,-1.220703125,-93.81103515625
3.1974999000000004,1.8363527059555054,0.595557689666748,9.624092102050781,-0.701904296875,-0.30517578125,-94.29931640625
3.2024999000000003,0.8379706144332886,0.23403321206569672,9.701904296875,-0.885009765625,-4.0283203125,-99.79248046875
3.2074999,0.061052143573760986,-0.23403321206569672,9.71926212310791,-2.410888671875,-3.143310546875,-88.226318359375
3.2124999,-0.6709750294685364,-0.7128735780715942,9.761159896850586,-1.708984375,0.701904296875,-71.533203125
3.2174999,-1.2761094570159912,-1.1863269805908203,9.81143856048584,-0.518798828125,0.396728515625,-39.703369140625
3.2224999000000003,-1.678335428237915,-1.4520833492279053,9.815030097961426,-0.946044921875,-1.007080078125,3.0517578125
3.2274999,-1.9159599542617798,-1.5544354915618896,9.78869342803955,-1.03759765625,-4.150390625,37.628173828125
3.2324999,-2.0901381969451904,-1.4544775485992432,9.81143856048584,-1.28173828125,-0.244140625,62.103271484375
3.2374999,-2.0679917335510254,-1.2216414213180542,9.824606895446777,0.030517578125,0.06103515625,91.400146484375
3.2424999000000003,-2.123058319091797,-0.8888474106788635,9.770736694335938,2.899169921875,1.3427734375,106.4453125
3.2474999,-2.076371431350708,-0.5464765429496765,9.91738224029541,1.40380859375,-0.457763671875,115.570068359375
3.2524999,-1.7106571197509766,-0.07182604819536209,9.78869342803955,1.922607421875,2.838134765625,126.77001953125
3.2574999,-0.8188169598579407,0.14065934717655182,9.85034465789795,1.708984375,1.983642578125,102.783203125
3.2624999000000003,0.6703764796257019,0.5793967843055725,9.813234329223633,3.021240234375,1.15966796875,65.093994140625
3.2674999000000002,2.3511061668395996,0.8906430602073669,9.779715538024902,1.434326171875,2.777099609375,10.528564453125
3.2724999,3.507505416870117,1.323395013809204,9.677363395690918,3.35693359375,5.889892578125,-38.2080078125
3.2774999,4.027645587921143,1.5263035297393799,9.655815124511719,-0.48828125,0.732421875,-70.49560546875
3.2824999000000004,3.6062662601470947,1.5879542827606201,9.545083999633789,-2.899169921875,-3.143310546875,-85.44921875
3.2874999000000003,2.7760767936706543,1.3539210557937622,9.57201862335205,-0.823974609375,-2.74658203125,-86.60888671875
3.2924999,1.866280198097229,0.933738648891449,9.62828254699707,-1.8310546875,-0.640869140625,-84.381103515625
3.2974999,0.9056068062782288,0.5392939448356628,9.676764488220215,-0.640869140625,0.6103515625,-90.362548828125
3.3024999000000004,0.15682020783424377,-0.025737667456269264,9.732429504394531,-1.495361328125,-4.57763671875,-82.1533203125
3.3074999000000003,-0.5363011956214905,-0.5728127360343933,9.747393608093262,-2.105712890625,-1.861572265625,-70.892333984375
3.3124999,-1.1635819673538208,-1.0570400953292847,9.773131370544434,-1.007080078125,0.732421875,-44.708251953125
3.3174999,-1.6657658815383911,-1.4856021404266357,9.753378868103027,-0.91552734375,-0.67138671875,-5.615234375
3.3224999000000004,-1.9051860570907593,-1.7830817699432373,9.780313491821289,-1.495361328125,-4.669189453125,26.458740234375
3.3274999000000003,-2.0841526985168457,-1.8932149410247803,9.78869342803955,-0.79345703125,-0.9765625,52.1240234375
3.3324999,-2.035670042037964,-1.7627309560775757,9.831789016723633,1.068115234375,-0.152587890625,81.787109375
3.3374999,-2.1074960231781006,-1.4143747091293335,9.784503936767578,1.708984375,3.90625,105.46875
3.3424999,-2.0434510707855225,-0.8744821548461914,9.841365814208984,0.79345703125,-1.46484375,115.203857421875
3.3474999000000003,-1.8746598958969116,-0.24001872539520264,9.785101890563965,2.532958984375,1.220703125,131.89697265625
3.3524999,-0.9870096445083618,0.17956513166427612,9.785700798034668,2.532958984375,2.86865234375,112.274169921875
3.3574999,0.4991910457611084,0.6769605278968811,9.904213905334473,1.89208984375,1.190185546875,75.164794921875
3.3624999,2.248155355453491,1.0205284357070923,9.818022727966309,1.434326171875,4.241943359375,16.937255859375
3.3674999000000003,3.535637378692627,1.3976151943206787,9.77133560180664,3.814697265625,5.584716796875,-41.595458984375
3.3724999,4.174889087677002,1.5550340414047241,9.701904296875,-0.67138671875,-0.6103515625,-77.056884765625
3.3774999,3.861847400665283,1.5286977291107178,9.528923034667969,-1.373291015625,-2.3193359375,-88.958740234375
3.3824999,3.068169593811035,1.260547161102295,9.64564037322998,-2.44140625,-2.166748046875,-88.409423828125
3.3874999000000003,2.094926595687866,0.8104372620582581,9.642048835754395,-1.617431640625,-1.5869140625,-82.33642578125
3.3924999000000002,1.1073182821273804,0.3842693865299225,9.740809440612793,-1.373291015625,0.42724609375,-86.36474609375
3.3974999,0.18136078119277954,-0.10654197633266449,9.794678688049316,-0.946044921875,-2.410888671875,-79.58984375
3.4024999,-0.4926069974899292,-0.5913678407669067,9.75517463684082,-1.5869140625,-3.814697265625,-70.892333984375
3.4074999000000004,-1.0905588865280151,-1.0492589473724365,9.749189376831055,-2.197265625,-0.6103515625,-53.253173828125
3.4124999000000003,-1.5304933786392212,-1.3628993034362793,9.690531730651855,-1.434326171875,0.42724609375,-18.341064453125
3.4174999,-1.647210717201233,-1.5490485429763794,9.73542308807373,-1.28173828125,-3.753662109375,24.35302734375
3.4224999,-1.84233820438385,-1.5400702953338623,9.755773544311523,-0.54931640625,-2.197265625,46.69189453125
3.4274999000000004,-1.8680758476257324,-1.3437457084655762,9.800664901733398,1.129150390625,1.77001953125,69.3359375
3.4324999000000003,-1.8375498056411743,-1.0630255937576294,9.77013874053955,1.77001953125,2.288818359375,96.49658203125
3.4374999,-2.036268472671509,-0.6458359360694885,9.793481826782227,1.007080078125,-2.0751953125,110.16845703125
3.4424999,-1.9087773561477661,-0.3034650683403015,9.75278091430664,1.89208984375,3.2958984375,126.495361328125
3.4474999000000004,-1.2539631128311157,0.09217676520347595,9.754576683044434,2.593994140625,1.556396484375,112.762451171875
3.4524999000000003,0.08140286058187485,0.6607996821403503,9.851541519165039,2.25830078125,2.25830078125,77.178955078125
3.4574999,0.08140286058187485,0.6607996821403503,9.851541519165039,2.25830078125,2.25830078125,77.178955078125
3.4624999,1.8417396545410156,0.9074024558067322,9.755773544311523,1.556396484375,6.256103515625,21.514892578125
3.4674999,3.202244758605957,1.4071919918060303,9.776124000549316,3.35693359375,1.708984375,-37.65869140625
3.4724999000000003,3.906140089035034,1.4215573072433472,9.699509620666504,0.06103515625,0.457763671875,-68.115234375
3.4774999,3.6571431159973145,1.2802993059158325,9.599552154541016,-1.129150390625,-1.220703125,-82.672119140625
3.4824999,2.9478609561920166,1.0767922401428223,9.656414031982422,-3.082275390625,-3.204345703125,-88.592529296875
3.4874999,2.0667946338653564,0.6422445774078369,9.726444244384766,-1.312255859375,-1.983642578125,-83.892822265625
3.4924999000000003,1.2096704244613647,0.32202014327049255,9.783307075500488,-1.77001953125,0.732421875,-88.897705078125
3.4974999,0.3172317147254944,-0.09516951441764832,9.855731010437012,-0.518798828125,-0.48828125,-82.183837890625
3.5024999,-0.3315969407558441,-0.5781996846199036,9.815628051757812,-1.89208984375,-4.69970703125,-72.906494140625
3.5074999,-0.9900023937225342,-0.9923965930938721,9.740809440612793,-2.593994140625,-1.251220703125,-55.572509765625
3.5124999000000003,-1.4927847385406494,-1.2372037172317505,9.673172950744629,-1.46484375,0.213623046875,-22.125244140625
3.5174999000000002,-1.6938977241516113,-1.404199242591858,9.72285270690918,-1.190185546875,-3.173828125,18.463134765625
3.5224999,-1.8884265422821045,-1.3730746507644653,9.752182006835938,-0.762939453125,-2.0751953125,39.306640625
3.5274999,-1.9033904075622559,-1.2557587623596191,9.818022727966309,0.91552734375,1.312255859375,62.19482421875
3.5324999000000004,-1.8166005611419678,-1.058835744857788,9.804255485534668,1.922607421875,1.312255859375,93.1396484375
3.5374999000000003,-1.9548656940460205,-0.6913257241249084,9.839570045471191,1.007080078125,-0.9765625,109.893798828125
3.5424999,-1.8291701078414917,-0.3519476354122162,9.768342971801758,1.556396484375,3.84521484375,125.701904296875
3.5474999,-1.1941081285476685,0.16220717132091522,9.78869342803955,2.38037109375,0.3662109375,112.79296875
3.5524999000000004,0.0999579206109047,0.8140285611152649,9.818022727966309,1.953125,5.31005859375,76.568603515625
3.5574999000000003,1.8543092012405396,1.0133458375930786,9.706093788146973,2.532958984375,7.171630859375,20.44677734375
3.5624999,3.2118215560913086,1.4790180921554565,9.757569313049316,3.204345703125,-2.25830078125,-37.353515625
3.5674999,3.914519786834717,1.3389573097229004,9.657012939453125,-0.091552734375,-0.457763671875,-64.63623046875
3.5724999000000004,3.6834793090820312,1.1342530250549316,9.607333183288574,-0.9765625,0.152587890625,-81.756591796875
3.5774999000000003,2.986168146133423,0.9062053561210632,9.64923095703125,-3.143310546875,-3.387451171875,-89.202880859375
3.5824999,2.1146786212921143,0.5183446407318115,9.736021041870117,-1.129150390625,-1.8310546875,-86.12060546875
3.5874999,1.2515689134597778,0.262763649225235,9.739612579345703,-1.52587890625,0.79345703125,-91.400146484375
3.5924999,0.34835633635520935,-0.13826514780521393,9.838972091674805,-0.457763671875,-1.312255859375,-84.564208984375
3.5974999000000003,-0.33039984107017517,-0.5871779918670654,9.788095474243164,-2.38037109375,-4.69970703125,-75.62255859375
3.6024999,-1.0606313943862915,-0.9900023937225342,9.747992515563965,-2.471923828125,-0.518798828125,-56.243896484375
3.6074999,-1.5723919868469238,-1.238999366760254,9.68813705444336,-0.823974609375,0,-16.937255859375
3.6124999,-1.7693150043487549,-1.3940238952636719,9.727043151855469,-1.28173828125,-3.936767578125,24.7802734375
3.6174999000000003,-1.9410990476608276,-1.3377602100372314,9.763554573059082,-0.91552734375,-1.373291015625,46.295166015625
3.6224999,-1.9081788063049316,-1.193509578704834,9.788095474243164,0.91552734375,1.46484375,70.953369140625
3.6274999,-1.7980455160140991,-0.9564836025238037,9.798270225524902,2.349853515625,0.396728515625,98.20556640625
3.6324999,-1.9512743949890137,-0.5434837937355042,9.77672290802002,1.068115234375,-0.518798828125,111.14501953125
3.6374999000000003,-1.8040310144424438,-0.16759411990642548,9.744999885559082,1.708984375,3.96728515625,125.06103515625
3.6424999000000002,-1.1569979190826416,0.24779987335205078,9.729436874389648,2.471923828125,0.457763671875,110.77880859375
3.6474999,0.15083470940589905,0.768538773059845,9.791088104248047,2.349853515625,3.173828125,75.1953125
3.6524999,1.9207483530044556,0.862511157989502,9.768342971801758,1.495361328125,5.767822265625,20.660400390625
3.6574999000000004,3.3045969009399414,1.2521674633026123,9.774927139282227,3.5400390625,1.40380859375,-37.384033203125
3.6624999000000003,4.0114850997924805,1.1827356815338135,9.739612579345703,0.54931640625,1.251220703125,-65.887451171875
3.6674999,3.802590847015381,1.083974838256836,9.631275177001953,-1.28173828125,-1.03759765625,-82.3974609375
3.6724999,3.050811529159546,0.9301473498344421,9.657610893249512,-2.838134765625,-3.204345703125,-90.179443359375
3.6774999000000004,2.142810583114624,0.5991489887237549,9.723451614379883,-1.251220703125,-2.227783203125,-88.348388671875
3.6824999000000003,1.1875240802764893,0.35494041442871094,9.68933391571045,-1.556396484375,1.0986328125,-93.414306640625
3.6874999,0.262763649225235,-0.08080431073904037,9.817423820495605,-1.0986328125,-2.197265625,-86.395263671875
3.6924999,-0.45669397711753845,-0.5602431893348694,9.75517463684082,-2.685546875,-3.96728515625,-76.96533203125
3.6974999000000004,-1.1887211799621582,-1.0301052331924438,9.747992515563965,-2.01416015625,0.274658203125,-54.13818359375
3.7024999000000003,-1.653794765472412,-1.314416766166687,9.727641105651855,-0.335693359375,-0.274658203125,-12.75634765625
3.7074999,-1.876455545425415,-1.4700398445129395,9.762955665588379,-1.373291015625,-3.72314453125,27.7099609375
3.7124999,-1.9967641830444336,-1.3754688501358032,9.79408073425293,-1.220703125,-1.40380859375,51.1474609375
3.7174999,-1.9291280508041382,-1.2078747749328613,9.801861763000488,0.762939453125,0.9765625,75.3173828125
3.7224999000000003,-1.843535304069519,-0.9594763517379761,9.77253246307373,2.74658203125,0.030517578125,99.18212890625
3.7274999,-1.9165585041046143,-0.5949591398239136,9.789292335510254,1.220703125,-0.701904296875,110.65673828125
3.7324999,-1.7735048532485962,-0.24121582508087158,9.710283279418945,1.678466796875,4.058837890625,126.373291015625
3.7374999,-1.1234791278839111,0.14484919607639313,9.743802070617676,2.44140625,0.48828125,112.79296875
3.7424999000000003,0.1711854189634323,0.7128735780715942,9.800065994262695,3.0517578125,2.410888671875,77.178955078125
3.7474999,1.8950105905532837,0.8774749040603638,9.767146110534668,1.3427734375,5.462646484375,21.392822265625
3.7524999,3.268683910369873,1.349731206893921,9.793481826782227,3.265380859375,2.50244140625,-37.139892578125
3.7574999,3.993528366088867,1.2976573705673218,9.738415718078613,0.823974609375,2.0751953125,-67.840576171875
3.7624999000000003,3.7858314514160156,1.2282254695892334,9.616311073303223,-1.800537109375,-1.5869140625,-83.648681640625
3.7674999000000002,3.022081136703491,1.0055646896362305,9.678560256958008,-2.716064453125,-3.387451171875,-90.423583984375
3.7724999,2.0805611610412598,0.6625953316688538,9.716269493103027,-1.15966796875,-3.021240234375,-88.80615234375
3.7774999,1.1139023303985596,0.35913026332855225,9.711481094360352,-1.5869140625,2.044677734375,-92.83447265625
3.7824999000000004,0.19692309200763702,-0.07122749835252762,9.809642791748047,-1.0986328125,-1.46484375,-82.94677734375
3.7874999000000003,-0.5093663930892944,-0.545877993106842,9.730035781860352,-2.532958984375,-4.486083984375,-72.967529296875
3.7924999,-1.2551602125167847,-0.9983820915222168,9.706692695617676,-1.861572265625,0.1220703125,-49.6826171875
3.7974999,-1.7118542194366455,-1.2791022062301636,9.701904296875,-0.67138671875,-0.48828125,-8.392333984375
3.8024999000000004,-1.9015947580337524,-1.4610615968704224,9.739013671875,-1.40380859375,-4.45556640625,28.228759765625
3.8074999000000003,-1.977012038230896,-1.4095861911773682,9.771934509277344,-0.701904296875,-1.0986328125,49.25537109375
3.8124999,-1.8884265422821045,-1.303044319152832,9.77791976928711,1.312255859375,1.129150390625,72.540283203125
3.8174999,-1.8590975999832153,-1.080383539199829,9.754576683044434,2.532958984375,0.335693359375,98.785400390625
3.8224999000000004,-1.8590975999832153,-1.080383539199829,9.754576683044434,2.532958984375,0.335693359375,98.785400390625
3.8274999000000003,-1.968033790588379,-0.6973112225532532,9.762357711791992,0.885009765625,-0.67138671875,110.65673828125
3.8324999,-1.8614917993545532,-0.3250128924846649,9.75517463684082,1.5869140625,4.2724609375,126.373291015625
3.8374999,-1.1629834175109863,0.1280897855758667,9.771934509277344,3.021240234375,0.335693359375,112.152099609375
3.8424999,0.26336219906806946,0.7805097699165344,9.853337287902832,2.01416015625,3.021240234375,75.5615234375
3.8474999000000003,2.014122247695923,0.9684545993804932,9.803058624267578,1.8310546875,6.103515625,16.54052734375
3.8524999,3.3662476539611816,1.4700398445129395,9.782708168029785,3.204345703125,1.434326171875,-41.8701171875
3.8574999,4.013879299163818,1.403002142906189,9.73781681060791,0,0.518798828125,-71.075439453125
3.8624999,3.708019971847534,1.2761094570159912,9.600749015808105,-1.251220703125,-1.312255859375,-85.0830078125
3.8674999000000003,2.920926094055176,1.0528502464294434,9.679757118225098,-3.0517578125,-3.0517578125,-89.66064453125
3.8724999,2.0644004344940186,0.6649895310401917,9.668983459472656,-1.068115234375,-2.38037109375,-87.249755859375
3.8774999,1.1342530250549316,0.36152446269989014,9.711481094360352,-1.678466796875,1.373291015625,-90.8203125
3.8824999,0.2861070930957794,-0.040701430290937424,9.776124000549316,-0.701904296875,-1.190185546875,-81.84814453125
3.8874999000000003,-0.3758896589279175,-0.4734533727169037,9.740809440612793,-1.89208984375,-4.974365234375,-72.1435546875
3.8924999000000002,-1.0791864395141602,-0.8834604024887085,9.753378868103027,-2.166748046875,-0.732421875,-49.957275390625
3.8974999,-1.601720929145813,-1.1929110288619995,9.691129684448242,-1.251220703125,0.42724609375,-11.29150390625
3.9024999,-1.7166426181793213,-1.4532804489135742,9.765948295593262,-1.46484375,-5.126953125,23.92578125
3.9074999000000004,-1.9195512533187866,-1.533486247062683,9.762357711791992,-0.30517578125,-1.03759765625,40.95458984375
3.9124999000000003,-1.843535304069519,-1.4419080018997192,9.81263542175293,1.3427734375,1.708984375,70.00732421875
3.9174999,-1.9249382019042969,-1.2689268589019775,9.743802070617676,1.739501953125,2.50244140625,101.898193359375
3.9224999,-2.0027496814727783,-0.8463503122329712,9.787496566772461,1.190185546875,-2.532958984375,116.3330078125
3.9274999000000004,-1.9231425523757935,-0.43275195360183716,9.711481094360352,2.25830078125,3.875732421875,133.6669921875
3.9324999000000003,-1.1318588256835938,-0.002992752008140087,9.747393608093262,2.960205078125,1.8310546875,114.898681640625
3.9374999,0.4106055796146393,0.6667851805686951,9.848548889160156,1.46484375,1.3427734375,74.493408203125
3.9424999,2.1332337856292725,0.9546879529953003,9.819818496704102,2.105712890625,6.317138671875,12.664794921875
3.9474999000000004,3.5230677127838135,1.4640543460845947,9.794678688049316,3.326416015625,3.2958984375,-45.562744140625
3.9524999000000003,4.110245704650879,1.514931082725525,9.764153480529785,-0.8544921875,-0.1220703125,-75.347900390625
3.9574999,3.754108190536499,1.403002142906189,9.584588050842285,-0.946044921875,-1.617431640625,-86.5478515625
3.9624999,2.8598740100860596,1.1378443241119385,9.606734275817871,-2.9296875,-3.11279296875,-89.385986328125
3.9674999000000004,1.96683669090271,0.7272387742996216,9.602544784545898,-1.312255859375,-1.5869140625,-88.226318359375
3.9724999000000003,0.9582792520523071,0.3489548861980438,9.633070945739746,-1.708984375,1.52587890625,-90.576171875
3.9774999,0.15263035893440247,-0.14425064623355865,9.774328231811523,-0.946044921875,-1.64794921875,-80.963134765625
3.9824999,-0.46148237586021423,-0.6733692288398743,9.786897659301758,-1.922607421875,-4.5166015625,-71.441650390625
3.9874999,-1.0570400953292847,-1.1779472827911377,9.838373184204102,-2.410888671875,-0.396728515625,-50.506591796875
3.9924999000000003,-1.4766238927841187,-1.4395138025283813,9.805453300476074,-1.15966796875,0.30517578125,-12.908935546875
3.9974999,-1.6160861253738403,-1.5729905366897583,9.820416450500488,-1.28173828125,-3.692626953125,26.763916015625
4.0024999,-1.7525556087493896,-1.4652514457702637,9.81143856048584,-0.67138671875,-1.15966796875,45.83740234375
4.0074999,-1.7489643096923828,-1.3102269172668457,9.787496566772461,1.15966796875,1.373291015625,66.22314453125
4.0124999,-1.920149803161621,-1.0947487354278564,9.758167266845703,2.44140625,0.152587890625,90.39306640625
4.0174999,-1.9219454526901245,-0.8649053573608398,9.785101890563965,0.67138671875,-0.1220703125,102.72216796875
4.022499900000001,-1.92134690284729,-0.48961424827575684,9.697115898132324,1.617431640625,3.875732421875,118.65234375
4.0274999000000005,-1.0313023328781128,-0.04728548228740692,9.798869132995605,1.678466796875,-0.79345703125,100.616455078125
4.0324999,0.4507084786891937,0.7086837291717529,9.817423820495605,1.983642578125,4.69970703125,64.27001953125
4.0374999,2.075174331665039,1.18094003200531,9.743204116821289,3.5400390625,9.307861328125,8.453369140625
4.0424999,3.3435027599334717,1.8375498056411743,9.764153480529785,3.082275390625,-2.471923828125,-44.3115234375
4.0474999,3.777451753616333,1.866280198097229,9.657012939453125,-3.2958984375,-1.89208984375,-69.671630859375
4.0524999,3.353677988052368,1.7076643705368042,9.622895240783691,-1.190185546875,0.9765625,-84.47265625
4.0574999,2.5791537761688232,1.3108254671096802,9.556455612182617,-0.6103515625,-3.11279296875,-88.836669921875
4.062499900000001,1.7615338563919067,0.7266402244567871,9.673172950744629,-2.105712890625,-3.692626953125,-92.7734375
4.0674999000000005,0.8954314589500427,0.2388216257095337,9.588179588317871,-0.762939453125,2.716064453125,-93.44482421875
4.0724999,0.22385786473751068,-0.37409400939941406,9.755773544311523,-2.960205078125,-2.86865234375,-86.700439453125
4.0774999,-0.5117605924606323,-0.9127894043922424,9.812037467956543,-1.64794921875,-1.861572265625,-74.798583984375
4.0824999,-1.171961784362793,-1.3491326570510864,9.841964721679688,0.1220703125,-0.1220703125,-42.144775390625
4.0874999,-1.63344407081604,-1.5257049798965454,9.879075050354004,-0.91552734375,-0.823974609375,4.0283203125
4.0924999,-1.857301950454712,-1.569997787475586,9.858125686645508,-1.800537109375,-4.425048828125,33.416748046875
4.0974999,-1.9961656332015991,-1.3988122940063477,9.849146842956543,-1.03759765625,0.06103515625,55.7861328125
4.1024999,-1.9434932470321655,-1.2084733247756958,9.78869342803955,1.3427734375,0.30517578125,89.019775390625
4.1074999000000005,-1.9518729448318481,-0.761954665184021,9.82640266418457,3.11279296875,-2.471923828125,108.489990234375
4.1124999,-1.9584569931030273,-0.4429273009300232,9.767146110534668,0.42724609375,2.44140625,119.07958984375
4.1174999,-1.592742681503296,0.1646013706922531,9.819219589233398,1.373291015625,2.471923828125,127.899169921875
4.1224999,-0.750582218170166,0.497395396232605,9.762357711791992,3.23486328125,-0.244140625,101.226806640625
4.1274999,0.8134300112724304,0.9546879529953003,9.748590469360352,2.655029296875,2.8076171875,61.21826171875
4.1324999,2.4187421798706055,1.0642226934432983,9.812037467956543,1.40380859375,3.143310546875,2.227783203125
4.1374999,3.640982151031494,1.3389573097229004,9.662399291992188,2.899169921875,4.8828125,-48.03466796875
4.1424999,4.091690540313721,1.2360066175460815,9.724648475646973,-0.18310546875,1.28173828125,-76.59912109375
4.147499900000001,3.6146459579467773,1.1492167711257935,9.607931137084961,-2.9296875,-2.8076171875,-93.231201171875
4.1524999000000005,2.7958290576934814,0.982221245765686,9.520543098449707,-1.40380859375,-3.90625,-92.926025390625
4.1574999,1.7854759693145752,0.619499683380127,9.532513618469238,-2.044677734375,-0.244140625,-93.780517578125
4.1624999,0.7733271718025208,0.3519476354122162,9.54209041595459,-0.6103515625,1.312255859375,-92.28515625
4.1674999,0.0005985504249110818,-0.19393034279346466,9.649829864501953,-1.8310546875,-5.126953125,-82.122802734375
4.1724999,-0.7523778676986694,-0.7248445749282837,9.761758804321289,-2.5634765625,-1.03759765625,-69.000244140625
4.1774999,-1.3862427473068237,-1.216254472732544,9.865307807922363,-1.0986328125,0.91552734375,-36.773681640625
4.1824999,-1.7399860620498657,-1.522712230682373,9.926360130310059,-1.007080078125,-1.708984375,5.584716796875
4.187499900000001,-1.7399860620498657,-1.522712230682373,9.926360130310059,-1.007080078125,-1.708984375,5.584716796875
4.1924999000000005,-1.9626468420028687,-1.7286136150360107,9.925761222839355,-1.52587890625,-4.0283203125,33.63037109375
4.1974999,-1.9722236394882202,-1.657984733581543,9.95329475402832,-0.274658203125,-1.46484375,60.1806640625
4.2024999,-1.9105730056762695,-1.5119383335113525,9.870096206665039,1.708984375,1.46484375,87.615966796875
4.2074999,-1.9153614044189453,-1.1683704853057861,9.874286651611328,1.983642578125,1.495361328125,105.804443359375
4.2124999,-1.9243396520614624,-0.6733692288398743,9.800664901733398,1.373291015625,-1.617431640625,118.65234375
4.2174999,-1.602918028831482,-0.09816227108240128,9.790489196777344,2.105712890625,4.302978515625,129.974365234375
4.2224999,-0.7445967197418213,0.3010708689689636,9.715670585632324,3.326416015625,1.15966796875,102.47802734375
4.2274999,0.9582792520523071,0.9074024558067322,9.6989107131958,1.40380859375,1.190185546875,59.87548828125
4.2324999000000005,2.477400302886963,1.1665748357772827,9.744999885559082,1.8310546875,4.57763671875,-2.532958984375
4.2374999,3.7283706665039062,1.5807716846466064,9.616311073303223,3.082275390625,5.462646484375,-54.38232421875
4.2424999,4.0533833503723145,1.591545581817627,9.703699111938477,-1.068115234375,-0.823974609375,-82.794189453125
4.2474999,3.5170822143554688,1.4185645580291748,9.597756385803223,-2.38037109375,-2.86865234375,-94.268798828125
4.2524999,2.6856956481933594,1.0989385843276978,9.565434455871582,-2.288818359375,-3.570556640625,-90.2099609375
4.2574999,1.6867151260375977,0.6123170852661133,9.586981773376465,-1.28173828125,-0.06103515625,-90.27099609375
4.2624999,0.7296329736709595,0.26156654953956604,9.585186958312988,-0.885009765625,1.068115234375,-89.17236328125
4.2674999,-0.017956512048840523,-0.262763649225235,9.677363395690918,-1.434326171875,-4.7607421875,-79.864501953125
4.272499900000001,-0.7104793787002563,-0.7445967197418213,9.75637149810791,-2.3193359375,-2.3193359375,-68.2373046875
4.2774999000000005,-1.3000515699386597,-1.2216414213180542,9.834781646728516,-1.739501953125,0.762939453125,-38.543701171875
4.2824999,-1.6280571222305298,-1.4963760375976562,9.916783332824707,-0.946044921875,-1.46484375,5.4931640625
4.2874999,-1.8225860595703125,-1.6543933153152466,9.927556991577148,-1.373291015625,-4.241943359375,32.989501953125
4.2924999,-1.877652645111084,-1.5502456426620483,9.949105262756348,0.06103515625,-0.640869140625,50.750732421875
4.2974999,-1.832162857055664,-1.3287819623947144,9.882665634155273,1.800537109375,2.44140625,79.65087890625
4.3024999,-1.9105730056762695,-1.0121487379074097,9.864110946655273,1.64794921875,1.251220703125,102.325439453125
4.3074999,-1.9692308902740479,-0.5662286877632141,9.79527759552002,1.220703125,-2.044677734375,117.5537109375
4.312499900000001,-1.63344407081604,-0.11252748221158981,9.763554573059082,1.8310546875,3.90625,126.800537109375
4.3174999000000005,-0.7248445749282837,0.2172738015651703,9.70310115814209,3.082275390625,1.89208984375,98.419189453125
4.3224999,1.048660397529602,0.7679402232170105,9.70310115814209,1.15966796875,1.708984375,56.976318359375
4.3274999,2.5749640464782715,1.048660397529602,9.743204116821289,2.349853515625,5.035400390625,-5.340576171875
4.3324999,3.800196647644043,1.4742296934127808,9.652822494506836,3.23486328125,4.7607421875,-54.168701171875
4.3374999,4.039616584777832,1.5322890281677246,9.709685325622559,-1.617431640625,-1.678466796875,-80.169677734375
4.3424999,3.4356794357299805,1.3832499980926514,9.643844604492188,-2.166748046875,-2.532958984375,-91.278076171875
4.3474999,2.564189910888672,1.0761936902999878,9.546878814697266,-1.8310546875,-3.265380859375,-87.799072265625
4.352499900000001,1.566406488418579,0.5770025849342346,9.634267807006836,-1.708984375,-0.396728515625,-89.569091796875
4.3574999000000005,0.5991489887237549,0.24899697303771973,9.5809965133667,-0.701904296875,0.79345703125,-87.127685546875
4.3624999,-0.10654197633266449,-0.25677812099456787,9.686341285705566,-1.40380859375,-4.638671875,-76.59912109375
4.3674999,-0.7942764163017273,-0.6817489266395569,9.751583099365234,-2.3193359375,-2.13623046875,-63.079833984375
4.3724999,-1.3898340463638306,-1.0989385843276978,9.803657531738281,-1.617431640625,0.732421875,-32.318115234375
4.3774999,-1.614290475845337,-1.3820528984069824,9.879075050354004,-1.190185546875,-2.25830078125,10.68115234375
4.3824999,-1.7872716188430786,-1.5682021379470825,9.900622367858887,-1.3427734375,-3.90625,35.125732421875
4.3874999,-1.7836803197860718,-1.5514427423477173,9.925761222839355,0.274658203125,0.244140625,54.656982421875
4.3924999,-1.7184382677078247,-1.4179660081863403,9.861717224121094,1.953125,2.410888671875,84.564208984375
4.397499900000001,-1.8944120407104492,-1.12467622756958,9.993996620178223,1.46484375,0,106.0791015625
4.4024999000000005,-1.9207483530044556,-0.7565677165985107,9.801861763000488,1.434326171875,0.1220703125,121.09375
4.4074999,-1.5640122890472412,-0.2645592987537384,9.879075050354004,1.678466796875,3.509521484375,126.89208984375
4.4124999,-0.4489128291606903,0.35434186458587646,9.858723640441895,3.387451171875,0.91552734375,94.268798828125
4.4174999,1.2862848043441772,0.8882488012313843,9.677961349487305,0.67138671875,7.8125,47.332763671875
4.4224999,2.804807186126709,1.4257471561431885,9.744400978088379,4.0283203125,3.96728515625,-18.310546875
4.4274999,3.8325183391571045,1.6609774827957153,9.618106842041016,1.251220703125,-1.708984375,-58.7158203125
4.4324999,3.8804023265838623,1.590348482131958,9.519346237182617,-1.220703125,0.06103515625,-75.836181640625
4.437499900000001,3.1645359992980957,1.279700756072998,9.604938507080078,-2.5634765625,-1.89208984375,-87.188720703125
4.4424999000000005,2.3265655040740967,0.9373299479484558,9.495404243469238,-1.068115234375,-3.387451171875,-87.921142578125
4.4474999,1.3958195447921753,0.45908817648887634,9.655815124511719,-2.50244140625,-1.15966796875,-95.367431640625
4.4524999,0.5111620426177979,0.12270283699035645,9.622296333312988,-0.79345703125,2.13623046875,-90.4541015625
4.4574999,-0.11133038252592087,-0.38905778527259827,9.733028411865234,-2.105712890625,-4.852294921875,-79.864501953125
4.4624999,-0.8469488620758057,-0.8182184100151062,9.791686058044434,-2.532958984375,-1.8310546875,-64.0869140625
4.4674999,-1.459265947341919,-1.1797429323196411,9.791686058044434,-0.946044921875,0.213623046875,-28.289794921875
4.4724999,-1.7076643705368042,-1.3952209949493408,9.875483512878418,-1.068115234375,-2.99072265625,14.739990234375
4.477499900000001,-1.8944120407104492,-1.4514847993850708,9.852738380432129,-1.190185546875,-2.593994140625,38.4521484375
4.4824999000000005,-1.853710651397705,-1.3976151943206787,9.892841339111328,0.1220703125,0.274658203125,59.539794921875
4.4874999,-1.744175910949707,-1.2737152576446533,9.827000617980957,2.349853515625,0.91552734375,86.12060546875
4.4924999,-1.9129672050476074,-0.9487023949623108,9.980229377746582,1.77001953125,-0.732421875,106.201171875
4.4974999,-1.8842366933822632,-0.6697779297828674,9.781511306762695,1.251220703125,2.38037109375,122.1923828125
4.5024999,-1.5083470344543457,-0.12988543510437012,9.864709854125977,1.861572265625,2.044677734375,126.739501953125
4.5074999,-0.38726213574409485,0.5363011956214905,9.812037467956543,3.5400390625,1.190185546875,93.26171875
4.5124999,1.315613865852356,0.9654618501663208,9.64564037322998,1.007080078125,8.23974609375,44.403076171875
4.5174999,2.8335378170013428,1.5131354331970215,9.75517463684082,3.23486328125,1.52587890625,-22.247314453125
4.522499900000001,3.8085763454437256,1.6089035272598267,9.61212158203125,1.40380859375,0.42724609375,-61.492919921875
4.5274999000000005,3.863642930984497,1.460463047027588,9.576807022094727,-0.823974609375,0.3662109375,-78.521728515625
4.5324999,3.1256303787231445,1.1210849285125732,9.61571216583252,-2.86865234375,-2.655029296875,-88.958740234375
4.5374999,2.3247697353363037,0.751779317855835,9.618705749511719,-1.373291015625,-3.082275390625,-86.883544921875
4.5424999,1.3431471586227417,0.29388827085494995,9.751583099365234,-2.01416015625,0,-92.315673828125
4.5474999,1.3431471586227417,0.29388827085494995,9.751583099365234,-2.01416015625,0,-92.315673828125
4.5524999,0.5153518915176392,-0.03411737456917763,9.755773544311523,-0.823974609375,1.129150390625,-86.5478515625
4.5574999,-0.1107318252325058,-0.4878185987472534,9.79408073425293,-1.77001953125,-5.06591796875,-76.7822265625
4.562499900000001,-0.7870938181877136,-0.910993754863739,9.742006301879883,-2.44140625,-1.77001953125,-61.187744140625
4.5674999000000005,-1.3640964031219482,-1.2545616626739502,9.692327499389648,-1.5869140625,0.640869140625,-27.618408203125
4.5724999,-1.5867571830749512,-1.4826093912124634,9.767744064331055,-1.373291015625,-3.11279296875,16.7236328125
4.5774999,-1.8100165128707886,-1.533486247062683,9.764153480529785,-0.946044921875,-3.021240234375,41.961669921875
4.5824999,-1.8285715579986572,-1.4460978507995605,9.830592155456543,0.640869140625,1.007080078125,62.43896484375
4.5874999,-1.7735048532485962,-1.2713210582733154,9.807847023010254,2.471923828125,1.28173828125,90.14892578125
4.5924999,-1.944091796875,-0.8984242081642151,9.962273597717285,1.220703125,-1.190185546875,107.177734375
4.5974999,-1.9518729448318481,-0.5973533391952515,9.79527759552002,1.373291015625,3.509521484375,122.49755859375
4.602499900000001,-1.4335283041000366,-0.02274491637945175,9.846753120422363,2.0751953125,0.79345703125,120.819091796875
4.6074999000000005,-0.262763649225235,0.6416460275650024,9.785700798034668,2.960205078125,2.5634765625,85.052490234375
4.6124999,1.5107412338256836,1.0384849309921265,9.622296333312988,1.40380859375,9.429931640625,33.782958984375
4.6174999,2.96162748336792,1.61069917678833,9.687539100646973,4.058837890625,0.8544921875,-28.778076171875
4.6224999,3.838503837585449,1.61069917678833,9.65222454071045,0.30517578125,-1.861572265625,-62.07275390625
4.6274999,3.7445313930511475,1.4730325937271118,9.582792282104492,-1.068115234375,0.457763671875,-77.667236328125
4.6324999,3.022081136703491,1.1665748357772827,9.697713851928711,-2.8076171875,-2.166748046875,-87.2802734375
4.6374999,2.1781249046325684,0.7625532150268555,9.718663215637207,-0.701904296875,-3.35693359375,-88.165283203125
4.6424999,1.2976573705673218,0.3687070608139038,9.791088104248047,-2.50244140625,-0.54931640625,-96.0693359375
4.647499900000001,0.4345476031303406,-0.043095629662275314,9.807847023010254,-0.67138671875,1.5869140625,-87.738037109375
4.6524999000000005,-0.19871874153614044,-0.5566518902778625,9.775525093078613,-2.349853515625,-4.638671875,-77.94189453125
4.6574999,-0.9397241473197937,-1.0055646896362305,9.724050521850586,-2.3193359375,-1.312255859375,-58.929443359375
4.6624999,-1.5155296325683594,-1.2880805730819702,9.666589736938477,-0.762939453125,0.213623046875,-20.538330078125
4.6674999,-1.7525556087493896,-1.4610615968704224,9.73661994934082,-1.312255859375,-3.41796875,20.660400390625
4.6724999,-1.933916449546814,-1.4293384552001953,9.742605209350586,-1.0986328125,-1.64794921875,42.05322265625
4.6774999,-1.845929503440857,-1.3563152551651,9.790489196777344,0.640869140625,0.518798828125,63.53759765625
4.6824999,-1.688510775566101,-1.171961784362793,9.807847023010254,2.74658203125,-0.030517578125,91.12548828125
4.687499900000001,-1.810615062713623,-0.899621307849884,9.875483512878418,1.0986328125,-0.152587890625,106.536865234375
4.6924999000000005,-1.7184382677078247,-0.5895721912384033,9.768342971801758,1.220703125,3.90625,123.22998046875
4.6974999,-1.2042834758758545,-0.07481880486011505,9.814431190490723,1.983642578125,-0.518798828125,114.715576171875
4.7024999,0.011372458189725876,0.6099228858947754,9.819219589233398,2.38037109375,4.69970703125,78.216552734375
4.7074999,1.6777368783950806,0.9929951429367065,9.700108528137207,2.62451171875,10.80322265625,24.658203125
4.7124999,3.0544028282165527,1.635838270187378,9.740809440612793,4.364013671875,-1.007080078125,-34.3017578125
4.7174999,3.774458885192871,1.635838270187378,9.707290649414062,-1.434326171875,-4.33349609375,-64.971923828125
4.7224999,3.5428199768066406,1.5340847969055176,9.598953247070312,-1.8310546875,1.190185546875,-80.108642578125
4.727499900000001,2.876034736633301,1.2204443216323853,9.72165584564209,-2.0751953125,-2.50244140625,-87.249755859375
4.7324999000000005,2.0033483505249023,0.7433996200561523,9.775525093078613,-0.8544921875,-3.631591796875,-89.90478515625
4.7374999,1.194706678390503,0.3387795388698578,9.751583099365234,-1.8310546875,0.54931640625,-95.367431640625
4.7424999,0.36332011222839355,-0.16998831927776337,9.798270225524902,-1.28173828125,0.213623046875,-85.3271484375
4.7474999,-0.3196259140968323,-0.6584054827690125,9.722254753112793,-2.960205078125,-4.0283203125,-77.392578125
4.7524999,-1.0504560470581055,-1.1198878288269043,9.690531730651855,-1.495361328125,-0.67138671875,-53.619384765625
4.7574999,-1.557428240776062,-1.3652935028076172,9.674968719482422,-0.274658203125,-0.579833984375,-9.82666015625
4.7624999,-1.775899052619934,-1.5257049798965454,9.734824180603027,-1.617431640625,-3.753662109375,28.6865234375
4.7674999,-1.909974455833435,-1.4712369441986084,9.75637149810791,-0.8544921875,-0.457763671875,50.537109375
4.772499900000001,-1.8453309535980225,-1.3808557987213135,9.764751434326172,1.312255859375,0.18310546875,75.103759765625
4.7774999000000005,-1.8728642463684082,-1.0959458351135254,9.79408073425293,2.960205078125,-1.312255859375,99.945068359375
4.7824999,-1.876455545425415,-0.8056488633155823,9.733028411865234,0.640869140625,2.166748046875,111.419677734375
4.7874999,-1.7735048532485962,-0.27712884545326233,9.773131370544434,1.52587890625,2.593994140625,126.953125
4.7924999,-0.8774749040603638,0.3357867896556854,9.891045570373535,2.838134765625,-1.373291015625,108.367919921875
4.7974999,0.46507367491722107,0.9403226971626282,9.859322547912598,1.8310546875,8.4228515625,70.037841796875
4.8024999,2.164358377456665,1.279700756072998,9.8970308303833,2.99072265625,6.439208984375,11.383056640625
4.8074999,3.3883938789367676,1.5753847360610962,9.763554573059082,3.204345703125,-2.50244140625,-43.426513671875
4.812499900000001,3.886986494064331,1.3982137441635132,9.633070945739746,-1.007080078125,-0.396728515625,-68.84765625
4.8174999000000005,3.5051112174987793,1.1887211799621582,9.57321548461914,-1.922607421875,0.274658203125,-82.916259765625
4.8224999,2.6886885166168213,0.9313444495201111,9.512762069702148,-1.77001953125,-2.685546875,-88.531494140625
4.8274999,1.84233820438385,0.5303156971931458,9.692925453186035,-1.708984375,-3.875732421875,-93.8720703125
4.8324999,0.9307458996772766,0.22206220030784607,9.588179588317871,-1.434326171875,2.532958984375,-95.703125
4.8374999,0.22445641458034515,-0.2687491476535797,9.783905029296875,-1.922607421875,-1.739501953125,-85.357666015625
4.8424999,-0.46627077460289,-0.7284358739852905,9.773730278015137,-2.685546875,-3.143310546875,-75.592041015625
4.8474999,-1.1456254720687866,-1.1917139291763306,9.800065994262695,-0.79345703125,-0.42724609375,-46.478271484375
4.852499900000001,-1.613093376159668,-1.4107834100723267,9.835979461669922,-0.579833984375,-0.640869140625,-0.640869140625
4.8574999000000005,-1.8483237028121948,-1.5478514432907104,9.838972091674805,-1.678466796875,-3.662109375,34.5458984375
4.8624999,-1.9446903467178345,-1.4772224426269531,9.82759952545166,-0.579833984375,0.091552734375,57.098388671875
4.8674999,-1.8836381435394287,-1.3521254062652588,9.771934509277344,1.922607421875,-0.335693359375,82.275390625
4.8724999,-1.9171570539474487,-0.9906009435653687,9.784503936767578,2.716064453125,-1.03759765625,101.86767578125
4.8774999,-1.8680758476257324,-0.7416039705276489,9.746794700622559,0.274658203125,2.777099609375,111.38916015625
4.8824999,-1.6328455209732056,-0.14484919607639313,9.804854393005371,1.617431640625,1.312255859375,124.08447265625
4.8874999,-0.6230909824371338,0.41718965768814087,9.914389610290527,2.838134765625,-0.79345703125,99.945068359375
4.8924999,0.8068459630012512,0.9684545993804932,9.825204849243164,1.708984375,9.58251953125,60.455322265625
4.897499900000001,2.3971943855285645,1.3664906024932861,9.841365814208984,3.47900390625,4.669189453125,-1.40380859375
4.9024999000000005,3.487753391265869,1.6112977266311646,9.697115898132324,2.227783203125,-2.86865234375,-50.35400390625
4.9074999,3.8097734451293945,1.4538789987564087,9.570222854614258,-1.617431640625,0.213623046875,-71.685791015625
4.9124999,3.8097734451293945,1.4538789987564087,9.570222854614258,-1.617431640625,0.213623046875,-71.685791015625
4.9174999,3.3051953315734863,1.1839327812194824,9.613917350769043,-2.532958984375,-0.274658203125,-84.320068359375
4.9224999,2.5306711196899414,0.9301473498344421,9.399636268615723,-0.457763671875,-2.410888671875,-87.890625
4.9274999,1.6424223184585571,0.4638765752315521,9.622895240783691,-2.227783203125,-4.0283203125,-95.916748046875
4.9324999,0.7589619159698486,0.14484919607639313,9.491812705993652,-1.03759765625,2.777099609375,-94.1162109375
4.937499900000001,0.07481880486011505,-0.3603273630142212,9.730634689331055,-2.899169921875,-2.50244140625,-83.740234375
4.9424999000000005,-0.6506243348121643,-0.7984662652015686,9.830592155456543,-2.197265625,-1.922607421875,-70.159912109375
4.9474999,-1.2892776727676392,-1.1941081285476685,9.88625717163086,-0.1220703125,-0.701904296875,-36.224365234375
4.9524999,-1.6202759742736816,-1.3533225059509277,9.926959037780762,-0.9765625,-1.77001953125,9.735107421875
4.9574999,-1.834557056427002,-1.446696400642395,9.895833969116211,-1.739501953125,-3.387451171875,39.093017578125
4.9624999,-1.8668787479400635,-1.3634978532791138,9.865307807922363,-0.152587890625,0.579833984375,64.51416015625
4.9674999,-1.8291701078414917,-1.2288240194320679,9.834183692932129,2.62451171875,-1.373291015625,90.423583984375
4.9724999,-1.9788076877593994,-0.8661024570465088,9.930550575256348,1.983642578125,-0.42724609375,105.133056640625
4.977499900000001,-1.9309237003326416,-0.6314706802368164,9.810839653015137,0.518798828125,2.62451171875,115.936279296875
4.9824999000000005,-1.5771803855895996,-0.06165069341659546,9.88745403289795,2.0751953125,0.946044921875,126.251220703125
4.9874999,-0.5315127968788147,0.31124621629714966,9.850942611694336,3.753662109375,0.091552734375,97.5341796875
4.9924999,1.1049240827560425,0.8433575630187988,9.688735961914062,1.3427734375,7.14111328125,52.91748046875
4.9974999,2.5947160720825195,1.1959037780761719,9.770736694335938,2.838134765625,3.72314453125,-12.054443359375
5.0024999,3.666719913482666,1.4772224426269531,9.594164848327637,2.25830078125,0.67138671875,-58.77685546875
5.0074999,3.8792052268981934,1.446696400642395,9.57201862335205,-1.617431640625,-0.030517578125,-79.010009765625
5.0124999,3.2417490482330322,1.2425906658172607,9.588179588317871,-2.960205078125,-1.3427734375,-87.646484375
5.0174999,2.425924777984619,1.0007762908935547,9.457097053527832,-0.152587890625,-2.593994140625,-87.371826171875
5.022499900000001,1.4652514457702637,0.5363011956214905,9.621698379516602,-2.685546875,-3.5400390625,-97.16796875
5.0274999000000005,0.5626373887062073,0.1951274424791336,9.558850288391113,-0.91552734375,2.86865234375,-92.010498046875
5.0324999,-0.07182604819536209,-0.3561375141143799,9.70310115814209,-2.50244140625,-4.0283203125,-82.550048828125
5.0374999,-0.7595604658126831,-0.8337807655334473,9.800664901733398,-2.166748046875,-1.8310546875,-68.05419921875
5.0424999,-1.3623007535934448,-1.24917471408844,9.81024169921875,-0.335693359375,0.091552734375,-31.73828125
5.0474999,-1.6490063667297363,-1.4508862495422363,9.904812812805176,-0.946044921875,-2.777099609375,14.495849609375
5.0524999,-1.911171555519104,-1.5364789962768555,9.888052940368652,-1.556396484375,-2.86865234375,42.78564453125
5.0574999,-1.92134690284729,-1.459265947341919,9.894637107849121,0.06103515625,0.1220703125,67.840576171875
5.062499900000001,-1.896806240081787,-1.2910733222961426,9.873687744140625,2.62451171875,-0.06103515625,91.552734375
5.0674999000000005,-2.0458452701568604,-0.8960300087928772,9.96825885772705,1.46484375,-0.823974609375,103.912353515625
5.0724999,-1.9764134883880615,-0.5608417391777039,9.81143856048584,0.91552734375,2.960205078125,116.302490234375
5.0774999,-1.525106430053711,0.035913024097681046,9.872490882873535,1.8310546875,1.64794921875,121.063232421875
5.0824999,-0.4159925580024719,0.4531026780605316,9.804854393005371,3.60107421875,0.823974609375,90.423583984375
5.0874999,1.3946224451065063,0.9103952050209045,9.659406661987305,1.03759765625,4.058837890625,44.49462890625
5.0924999,2.8652608394622803,1.2629413604736328,9.77253246307373,2.288818359375,3.753662109375,-18.9208984375
5.0974999,3.927687883377075,1.4760253429412842,9.589376449584961,2.410888671875,4.57763671875,-64.300537109375
5.102499900000001,4.032433986663818,1.4335283041000366,9.604340553283691,-1.953125,-1.15966796875,-86.5478515625
5.1074999000000005,3.2746694087982178,1.2180501222610474,9.57441234588623,-2.86865234375,-2.410888671875,-95.21484375
5.1124999,2.470816135406494,0.8403648138046265,9.61571216583252,-1.068115234375,-3.90625,-90.911865234375
5.1174999,1.40180504322052,0.3902548849582672,9.677363395690918,-2.13623046875,0.30517578125,-96.405029296875
5.1224999,0.49320554733276367,-0.0347159244120121,9.736021041870117,-0.946044921875,0.54931640625,-89.78271484375
5.1274999,-0.19033902883529663,-0.5907692909240723,9.742006301879883,-2.471923828125,-4.94384765625,-79.89501953125
5.1324999,-0.9421183466911316,-1.0708067417144775,9.748590469360352,-2.166748046875,-0.6103515625,-61.920166015625
5.1374999,-1.4814122915267944,-1.391629695892334,9.715670585632324,-0.518798828125,0.18310546875,-24.139404296875
5.1424999,-1.765723705291748,-1.5490485429763794,9.786897659301758,-1.0986328125,-3.23486328125,18.37158203125
5.147499900000001,-1.9458874464035034,-1.4945803880691528,9.782708168029785,-1.28173828125,-2.227783203125,43.975830078125
5.1524999000000005,-1.9285295009613037,-1.3431471586227417,9.836577415466309,0.396728515625,0.640869140625,68.603515625
5.1574999,-1.8064252138137817,-1.1037269830703735,9.849146842956543,2.74658203125,-0.3662109375,93.8720703125
5.1624999,-1.8770540952682495,-0.7152677774429321,9.96825885772705,1.40380859375,-0.42724609375,107.269287109375
5.1674999,-1.811812162399292,-0.3794809579849243,9.819219589233398,1.251220703125,3.814697265625,121.52099609375
5.1724999,-1.2826935052871704,0.20290859043598175,9.852140426635742,1.983642578125,0,119.5068359375
5.1774999,-0.166995570063591,0.8164227604866028,9.758766174316406,3.265380859375,2.593994140625,84.991455078125
5.1824999,1.53707754611969,1.106719732284546,9.607931137084961,1.708984375,8.026123046875,35.46142578125
5.187499900000001,3.00711727142334,1.5424644947052002,9.720458984375,2.8076171875,-0.42724609375,-27.89306640625
5.1924999000000005,3.889380693435669,1.45806884765625,9.617507934570312,1.28173828125,1.800537109375,-63.018798828125
5.1974999,3.8995559215545654,1.278503656387329,9.615114212036133,-1.190185546875,-0.06103515625,-81.48193359375
5.2024999,3.1232361793518066,1.0235211849212646,9.640253067016602,-3.35693359375,-3.387451171875,-92.71240234375
5.2074999,2.3253684043884277,0.6877344250679016,9.70310115814209,-1.28173828125,-3.662109375,-90.972900390625
5.2124999,1.314416766166687,0.3513490855693817,9.718663215637207,-1.953125,1.129150390625,-96.405029296875
5.2174999,0.4387374520301819,-0.03651157766580582,9.819219589233398,-0.8544921875,-0.335693359375,-88.531494140625
5.2224999,-0.22685061395168304,-0.5339069962501526,9.787496566772461,-2.471923828125,-4.94384765625,-78.43017578125
5.227499900000001,-0.9941922426223755,-1.0013748407363892,9.7605619430542,-2.227783203125,-0.091552734375,-57.525634765625
5.2324999000000005,-1.533486247062683,-1.3263877630233765,9.713874816894531,-0.732421875,0.244140625,-17.27294921875
5.2374999,-1.7782933712005615,-1.5490485429763794,9.75637149810791,-1.15966796875,-4.0283203125,24.10888671875
