# Time (seconds),Accel_X,Accel_Y,Accel_Z,Gyro_X,Gyro_Y,Gyro_Z
0.0024999,0.9540894031524658,-0.5566518902778625,9.77013874053955,0.06103515625,-0.1220703125,-0.3662109375
0.0074999,0.9540894031524658,-0.5566518902778625,9.77013874053955,0.06103515625,-0.1220703125,-0.3662109375
0.012499900000000001,0.9582792520523071,-0.5554547905921936,9.758766174316406,0.030517578125,-0.030517578125,-0.1220703125
0.0174999,0.9726444482803345,-0.5566518902778625,9.75936508178711,0.030517578125,0.244140625,-0.152587890625
0.0224999,0.9702502489089966,-0.5578489899635315,9.759963035583496,0.030517578125,0.244140625,-0.030517578125
0.0274999,0.9660604000091553,-0.5596446394920349,9.767744064331055,-0.030517578125,0.396728515625,-0.152587890625
0.0324999,0.9481038451194763,-0.5626373887062073,9.764751434326172,0.030517578125,0.213623046875,-0.30517578125
0.0374999,0.943913996219635,-0.5668272376060486,9.770736694335938,0,0.274658203125,-0.396728515625
0.0424999,0.9379284977912903,-0.5656301379203796,9.766547203063965,0.1220703125,0,-0.274658203125
0.0474999,0.9355342984199524,-0.5650315880775452,9.768941879272461,0.06103515625,-0.06103515625,-0.244140625
0.0524999,0.9427168965339661,-0.5590460896492004,9.773730278015137,-0.030517578125,-0.1220703125,-0.274658203125
0.0574999,0.9409212470054626,-0.5560533404350281,9.768941879272461,0.1220703125,-0.152587890625,0
0.0624999,0.9528923034667969,-0.5530605912208557,9.773730278015137,0.06103515625,-0.030517578125,-0.274658203125
0.0674999,0.9546879529953003,-0.5536591410636902,9.764153480529785,0.06103515625,0.030517578125,-0.244140625
0.0724999,0.9570821523666382,-0.5560533404350281,9.761159896850586,-0.030517578125,-0.030517578125,-0.152587890625
0.0774999,0.9582792520523071,-0.5596446394920349,9.761758804321289,-0.030517578125,0,-0.335693359375
0.0824999,0.943913996219635,-0.5638344883918762,9.765350341796875,0.091552734375,-0.274658203125,-0.244140625
0.0874999,0.9528923034667969,-0.5656301379203796,9.773730278015137,-0.030517578125,-0.244140625,-0.213623046875
0.0924999,0.9600749015808105,-0.5614402890205383,9.776124000549316,0,-0.030517578125,-0.396728515625
0.0974999,0.9726444482803345,-0.5596446394920349,9.781511306762695,0.18310546875,0.030517578125,-0.335693359375
0.1024999,0.9804255962371826,-0.5554547905921936,9.776124000549316,0.1220703125,0.18310546875,-0.18310546875
0.1074999,0.982221245765686,-0.5524620413780212,9.774927139282227,-0.030517578125,0.274658203125,-0.244140625
0.1124999,0.9798270463943481,-0.5566518902778625,9.77133560180664,-0.152587890625,0.457763671875,-0.30517578125
0.1174999,0.9690531492233276,-0.5632359385490417,9.765948295593262,0.06103515625,0.30517578125,-0.30517578125
0.1224999,0.9612720012664795,-0.569819986820221,9.77133560180664,0.244140625,0.30517578125,-0.3662109375
0.1274999,0.9331400990486145,-0.5554547905921936,9.77133560180664,0.06103515625,-0.06103515625,-0.30517578125
0.1324999,0.9343371987342834,-0.557250440120697,9.764153480529785,0,-0.1220703125,-0.152587890625
0.1374999,0.9421183466911316,-0.558447539806366,9.765948295593262,-0.091552734375,-0.091552734375,-0.1220703125
0.1424999,0.9510966539382935,-0.5590460896492004,9.767146110534668,-0.1220703125,0.091552734375,-0.30517578125
0.1474999,0.9516952037811279,-0.5608417391777039,9.761159896850586,0.030517578125,-0.1220703125,-0.18310546875
0.1524999,0.9582792520523071,-0.5632359385490417,9.767146110534668,0.091552734375,-0.1220703125,-0.18310546875
0.1574999,0.9540894031524658,-0.5668272376060486,9.759963035583496,0,-0.091552734375,-0.3662109375
0.1624999,0.9558850526809692,-0.5680243372917175,9.762357711791992,0.1220703125,-0.152587890625,-0.18310546875
0.1674999,0.9594763517379761,-0.5638344883918762,9.75936508178711,0.1220703125,0,-0.213623046875
0.1724999,0.9582792520523071,-0.5590460896492004,9.759963035583496,0,0,-0.091552734375
0.17749990000000002,0.9510966539382935,-0.5614402890205383,9.753378868103027,-0.06103515625,-0.030517578125,-0.213623046875
0.1824999,0.950498104095459,-0.5656301379203796,9.758167266845703,0.030517578125,-0.030517578125,-0.18310546875
0.1874999,0.9522937536239624,-0.569819986820221,9.762955665588379,0.06103515625,0.1220703125,-0.274658203125
0.1924999,0.9487023949623108,-0.5728127360343933,9.764153480529785,0.030517578125,0.030517578125,-0.244140625
0.1974999,0.9534908533096313,-0.5752069354057312,9.774927139282227,-0.06103515625,0.213623046875,-0.30517578125
0.2024999,0.9469067454338074,-0.5776011347770691,9.77013874053955,0,0.152587890625,-0.244140625
0.20749990000000001,0.9427168965339661,-0.5776011347770691,9.77133560180664,0.091552734375,0,-0.213623046875
0.2124999,0.9379284977912903,-0.5770025849342346,9.770736694335938,0.06103515625,0,-0.274658203125
0.2174999,0.9289502501487732,-0.5734112858772278,9.767146110534668,0.030517578125,0.091552734375,-0.213623046875
0.2224999,0.9313444495201111,-0.5692214369773865,9.776124000549316,0.030517578125,-0.030517578125,-0.244140625
0.2274999,0.9289502501487732,-0.5650315880775452,9.774927139282227,0,-0.244140625,-0.18310546875
0.2324999,0.9457096457481384,-0.557250440120697,9.778518676757812,0.06103515625,0.06103515625,-0.152587890625
0.2374999,0.9493009448051453,-0.5542576909065247,9.77133560180664,0.06103515625,-0.030517578125,-0.030517578125
0.2424999,0.9648633003234863,-0.5530605912208557,9.774328231811523,0.152587890625,0.06103515625,-0.152587890625
0.2474999,0.9654618501663208,-0.5560533404350281,9.767146110534668,0.152587890625,-0.030517578125,-0.213623046875
0.2524999,0.9678560495376587,-0.5596446394920349,9.768342971801758,0,-0.030517578125,-0.152587890625
0.2574999,0.9654618501663208,-0.5668272376060486,9.768342971801758,-0.030517578125,0.18310546875,-0.30517578125
0.2624999,0.9564836025238037,-0.5716156363487244,9.764751434326172,0.1220703125,0.06103515625,-0.274658203125
0.2674999,0.9546879529953003,-0.5758054852485657,9.773131370544434,-0.030517578125,0.152587890625,-0.518798828125
0.2724999,0.9445125460624695,-0.5770025849342346,9.764751434326172,-0.091552734375,0.091552734375,-0.152587890625
0.2774999,0.9403226971626282,-0.5746083855628967,9.767146110534668,0,0,-0.152587890625
0.2824999,0.9391255974769592,-0.5734112858772278,9.764153480529785,-0.030517578125,0.091552734375,-0.3662109375
0.28749990000000003,0.9343371987342834,-0.5680243372917175,9.756970405578613,0,-0.030517578125,-0.244140625
0.2924999,0.9379284977912903,-0.5608417391777039,9.758766174316406,-0.1220703125,0.06103515625,-0.244140625
0.2974999,0.9415197968482971,-0.5560533404350281,9.761159896850586,-0.030517578125,-0.1220703125,-0.213623046875
0.3024999,0.9433154463768005,-0.5536591410636902,9.761758804321289,0.06103515625,0.030517578125,-0.244140625
0.3074999,0.9391255974769592,-0.5512649416923523,9.755773544311523,0.1220703125,-0.091552734375,-0.152587890625
0.3124999,0.9445125460624695,-0.5524620413780212,9.762357711791992,-0.06103515625,0,-0.335693359375
0.3174999,0.9385270476341248,-0.5530605912208557,9.761159896850586,-0.06103515625,-0.030517578125,-0.274658203125
0.3224999,0.9469067454338074,-0.5542576909065247,9.77013874053955,-0.06103515625,-0.1220703125,-0.213623046875
0.3274999,0.9558850526809692,-0.5566518902778625,9.765350341796875,0.18310546875,-0.152587890625,-0.244140625
0.3324999,0.9684545993804932,-0.557250440120697,9.768342971801758,0.1220703125,0.152587890625,-0.274658203125
0.3374999,0.9714473485946655,-0.5560533404350281,9.75637149810791,0.06103515625,0.213623046875,-0.18310546875
0.3424999,0.9750386476516724,-0.5518634915351868,9.758167266845703,-0.091552734375,0.091552734375,-0.213623046875
0.34749990000000003,0.9672574996948242,-0.5512649416923523,9.753378868103027,-0.091552734375,0.1220703125,0
0.35249990000000003,0.9576807022094727,-0.5554547905921936,9.751583099365234,0,-0.091552734375,-0.06103515625
0.3574999,0.9570821523666382,-0.5638344883918762,9.761159896850586,-0.030517578125,0.18310546875,-0.30517578125
0.3624999,0.9510966539382935,-0.5692214369773865,9.756970405578613,0.091552734375,0.244140625,-0.18310546875
0.3674999,0.9588778018951416,-0.5704185366630554,9.767744064331055,0.091552734375,0.30517578125,-0.213623046875
0.3724999,0.9636662006378174,-0.5674257874488831,9.765948295593262,-0.1220703125,0.396728515625,-0.06103515625
0.3774999,0.9642647504806519,-0.5632359385490417,9.761758804321289,-0.152587890625,0.457763671875,-0.030517578125
0.3824999,0.9690531492233276,-0.5668272376060486,9.767744064331055,-0.213623046875,0.732421875,-0.30517578125
0.3874999,0.9624691009521484,-0.569819986820221,9.761159896850586,0.030517578125,0.6103515625,-0.1220703125
0.3924999,0.9630676507949829,-0.5716156363487244,9.770736694335938,0.152587890625,0.732421875,-0.1220703125
0.3974999,0.961870551109314,-0.5710170865058899,9.774927139282227,-0.06103515625,0.946044921875,-0.244140625
0.4024999,0.9594763517379761,-0.5656301379203796,9.774927139282227,-0.152587890625,0.79345703125,-0.1220703125
0.4074999,0.9534908533096313,-0.5692214369773865,9.776124000549316,0.1220703125,0.48828125,-0.244140625
0.41249990000000003,0.9421183466911316,-0.5716156363487244,9.77791976928711,0.06103515625,0.457763671875,-0.213623046875
0.41749990000000003,0.9277531504631042,-0.5704185366630554,9.780912399291992,0.06103515625,0.030517578125,-0.244140625
0.4224999,0.9169792532920837,-0.5680243372917175,9.78989028930664,-0.06103515625,-0.274658203125,-0.335693359375
0.4274999,0.899621307849884,-0.5638344883918762,9.782109260559082,-0.1220703125,-0.518798828125,-0.091552734375
0.4324999,0.9050082564353943,-0.5626373887062073,9.784503936767578,-0.152587890625,-0.79345703125,-0.18310546875
0.4374999,0.9115923047065735,-0.5620388388633728,9.775525093078613,0.213623046875,-0.823974609375,-0.091552734375
0.4424999,0.9319429993629456,-0.5596446394920349,9.766547203063965,0.1220703125,-0.823974609375,-0.030517578125
0.4474999,0.9594763517379761,-0.557250440120697,9.768342971801758,0,-0.335693359375,-0.06103515625
0.4524999,0.9738415479660034,-0.5512649416923523,9.756970405578613,0.152587890625,-0.1220703125,0.152587890625
0.4574999,0.9911994934082031,-0.5500678420066833,9.757569313049316,-0.1220703125,0.091552734375,-0.1220703125
0.4624999,0.9528923034667969,-0.5644330382347107,9.759963035583496,-0.06103515625,0.030517578125,-0.213623046875
0.4674999,0.9397241473197937,-0.5632359385490417,9.77253246307373,0,-0.091552734375,0.06103515625
0.47249990000000003,0.9229647517204285,-0.5614402890205383,9.776124000549316,0.152587890625,-0.396728515625,-0.030517578125
0.47749990000000003,0.9133879542350769,-0.5578489899635315,9.780313491821289,0.06103515625,-0.885009765625,-0.091552734375
0.4824999,0.910993754863739,-0.5554547905921936,9.784503936767578,0.030517578125,-0.885009765625,-0.1220703125
0.4874999,0.9151836037635803,-0.5500678420066833,9.7791166305542,-0.030517578125,-1.129150390625,0.18310546875
0.4924999,0.9241618514060974,-0.5530605912208557,9.783307075500488,-0.152587890625,-1.03759765625,0.396728515625
0.4974999,0.9498994946479797,-0.5488707423210144,9.763554573059082,-0.244140625,-0.9765625,0.1220703125
0.5024999,0.9917980432510376,-0.5560533404350281,9.742006301879883,-0.030517578125,-0.213623046875,0.701904296875
0.5074999,1.0402805805206299,-0.5674257874488831,9.749189376831055,-0.152587890625,1.190185546875,0.640869140625
0.5124999,1.0157400369644165,-0.6009446382522583,9.7791166305542,0,0.213623046875,-0.640869140625
0.5174999,0.9133879542350769,-0.6051344871520996,9.81024169921875,0.18310546875,-1.28173828125,-0.152587890625
0.5224999,0.7936778664588928,-0.595557689666748,9.817423820495605,0.06103515625,-3.7841796875,-0.18310546875
0.5274999,0.727837324142456,-0.5883750915527344,9.814431190490723,-0.213623046875,-5.584716796875,-0.732421875
0.5324999,0.7553706169128418,-0.578798234462738,9.806051254272461,0.1220703125,-5.279541015625,-0.42724609375
0.5374999,0.8708908557891846,-0.5746083855628967,9.782708168029785,0.396728515625,-3.7841796875,0.274658203125
0.5424999,1.0408791303634644,-0.5668272376060486,9.746196746826172,0.18310546875,-1.40380859375,-0.30517578125
0.5474999,1.1976994276046753,-0.5494692921638489,9.72165584564209,-0.18310546875,1.190185546875,-0.42724609375
0.5524999,1.2886791229248047,-0.5309142470359802,9.699509620666504,-0.1220703125,3.41796875,0.457763671875
0.5574999,1.2850877046585083,-0.5267243981361389,9.692327499389648,-0.274658203125,4.364013671875,0.42724609375
0.5624999,1.2084733247756958,-0.5386953949928284,9.711481094360352,-0.274658203125,4.33349609375,-0.1220703125
0.5674999000000001,1.072602391242981,-0.557250440120697,9.726444244384766,-0.030517578125,3.692626953125,0.18310546875
0.5724999000000001,0.7948749661445618,-0.5871779918670654,9.79647445678711,0,0.701904296875,-0.3662109375
0.5774999000000001,0.7858967185020447,-0.5793967843055725,9.806051254272461,-0.213623046875,0.18310546875,-0.30517578125
0.5824999,0.8062474131584167,-0.5704185366630554,9.798869132995605,-0.244140625,-0.335693359375,-0.335693359375
0.5874999,0.8421604633331299,-0.5626373887062073,9.788095474243164,-0.1220703125,-0.823974609375,-0.18310546875
0.5924999,0.8954314589500427,-0.5614402890205383,9.77672290802002,0,-0.67138671875,-0.091552734375
0.5974999,0.9457096457481384,-0.5590460896492004,9.761159896850586,0,-0.3662109375,0.18310546875
0.6024999,0.9983820915222168,-0.5602431893348694,9.75397777557373,-0.213623046875,0.152587890625,0.091552734375
0.6074999,1.0271124839782715,-0.5608417391777039,9.744999885559082,-0.244140625,0.640869140625,0.06103515625
0.6124999,1.0372878313064575,-0.5656301379203796,9.747393608093262,-0.06103515625,0.79345703125,0.335693359375
0.6174999,1.0241197347640991,-0.569819986820221,9.751583099365234,0,1.129150390625,0.30517578125
0.6224999,0.99479079246521,-0.5734112858772278,9.756970405578613,-0.030517578125,0.9765625,0.3662109375
0.6274999,0.9331400990486145,-0.579995334148407,9.77253246307373,-0.152587890625,0.91552734375,-0.1220703125
0.6324999,0.9115923047065735,-0.5847837924957275,9.77672290802002,-0.1220703125,0.518798828125,-0.213623046875
0.6374999,0.9002198576927185,-0.5895721912384033,9.77013874053955,0.1220703125,0.213623046875,-0.48828125
0.6424999,0.8936358094215393,-0.5859808921813965,9.762955665588379,0.244140625,-0.030517578125,-0.6103515625
0.6474999,0.9050082564353943,-0.5728127360343933,9.762357711791992,0.06103515625,0.030517578125,-0.396728515625
0.6524999,0.9139865040779114,-0.5542576909065247,9.758167266845703,0.030517578125,-0.1220703125,-0.1220703125
0.6574999,0.93254154920578,-0.5464765429496765,9.766547203063965,-0.030517578125,-0.152587890625,-0.18310546875
0.6624999,0.9481038451194763,-0.5494692921638489,9.77253246307373,-0.030517578125,-0.091552734375,-0.30517578125
0.6674999,0.9546879529953003,-0.5638344883918762,9.773131370544434,0.244140625,-0.06103515625,-0.06103515625
0.6724999,0.9600749015808105,-0.5770025849342346,9.782109260559082,0.244140625,-0.030517578125,-0.274658203125
0.6774999,0.9498994946479797,-0.5776011347770691,9.775525093078613,0.1220703125,-0.335693359375,-0.396728515625
0.6824999,0.9379284977912903,-0.5734112858772278,9.77791976928711,0,-0.579833984375,-0.396728515625
0.6874999,0.9103952050209045,-0.5632359385490417,9.771934509277344,0,-1.0986328125,-0.244140625
0.6924999000000001,0.9127894043922424,-0.5674257874488831,9.774927139282227,0.213623046875,-1.129150390625,-0.396728515625
0.6974999000000001,0.922366201877594,-0.5722141861915588,9.765350341796875,0.18310546875,-0.946044921875,-0.457763671875
0.7024999000000001,0.943913996219635,-0.5740098357200623,9.765948295593262,0.06103515625,-0.701904296875,-0.396728515625
0.7074999,0.9678560495376587,-0.569819986820221,9.759963035583496,0,-0.152587890625,-0.274658203125
0.7124999,0.9906009435653687,-0.5638344883918762,9.758167266845703,0,0.213623046875,-0.244140625
0.7174999,1.0109516382217407,-0.5614402890205383,9.759963035583496,-0.091552734375,0.732421875,-0.3662109375
0.7224999,1.013944387435913,-0.5626373887062073,9.752182006835938,0.030517578125,0.8544921875,-0.3662109375
0.7274999,1.013944387435913,-0.5626373887062073,9.752182006835938,0.030517578125,0.8544921875,-0.3662109375
0.7324999,1.0109516382217407,-0.5722141861915588,9.75397777557373,0.091552734375,0.762939453125,-0.457763671875
0.7374999,0.9900023937225342,-0.5722141861915588,9.755773544311523,0.091552734375,0.579833984375,-0.42724609375
0.7424999,0.9576807022094727,-0.5704185366630554,9.759963035583496,0.152587890625,0.06103515625,-0.18310546875
0.7474999,0.9062053561210632,-0.5578489899635315,9.781511306762695,-0.030517578125,-0.640869140625,-0.42724609375
0.7524999,0.900818407535553,-0.558447539806366,9.791686058044434,0,-0.91552734375,-0.30517578125
0.7574999,0.9020155072212219,-0.5668272376060486,9.78989028930664,0.06103515625,-1.068115234375,-0.30517578125
0.7624999,0.912190854549408,-0.5734112858772278,9.779715538024902,0.1220703125,-1.15966796875,-0.30517578125
0.7674999,0.9349357485771179,-0.579995334148407,9.774328231811523,0.18310546875,-1.007080078125,-0.3662109375
0.7724999,0.9534908533096313,-0.5793967843055725,9.7605619430542,0.1220703125,-0.885009765625,-0.274658203125
0.7774999,0.9810241460800171,-0.5752069354057312,9.750985145568848,0.06103515625,-0.457763671875,-0.396728515625
0.7824999,0.9965864419937134,-0.5704185366630554,9.743204116821289,0.091552734375,-0.244140625,-0.3662109375
0.7874999,1.0109516382217407,-0.5680243372917175,9.737217903137207,0.06103515625,0.030517578125,-0.213623046875
0.7924999,1.0169371366500854,-0.5680243372917175,9.740211486816406,0.091552734375,0.6103515625,-0.335693359375
0.7974999,1.0079588890075684,-0.5680243372917175,9.739612579345703,0.06103515625,0.732421875,-0.213623046875
0.8024999,0.9534908533096313,-0.5722141861915588,9.757569313049316,0.091552734375,0.48828125,-0.274658203125
0.8074999,0.9534908533096313,-0.5722141861915588,9.757569313049316,0.091552734375,0.48828125,-0.274658203125
0.8124999,0.9403226971626282,-0.5722141861915588,9.766547203063965,0,0.518798828125,-0.244140625
0.8174999000000001,0.922366201877594,-0.5626373887062073,9.761758804321289,0,0.1220703125,-0.091552734375
0.8224999000000001,0.9247604012489319,-0.5602431893348694,9.767744064331055,-0.244140625,-0.244140625,-0.396728515625
0.8274999000000001,0.9235633015632629,-0.5566518902778625,9.768342971801758,-0.213623046875,-0.213623046875,-0.396728515625
0.8324999000000001,0.9253589510917664,-0.558447539806366,9.767744064331055,0.06103515625,-0.518798828125,-0.1220703125
0.8374999,0.933738648891449,-0.5614402890205383,9.774328231811523,0.1220703125,-0.732421875,-0.335693359375
0.8424999,0.9361328482627869,-0.558447539806366,9.764751434326172,0.152587890625,-0.91552734375,-0.274658203125
0.8474999,0.9516952037811279,-0.5554547905921936,9.77013874053955,0.1220703125,-0.6103515625,-0.152587890625
0.8524999,0.9648633003234863,-0.5536591410636902,9.762357711791992,-0.06103515625,-0.274658203125,-0.396728515625
0.8574999,0.9762357473373413,-0.5548562407493591,9.758167266845703,0,-0.244140625,-0.3662109375
0.8624999,0.9804255962371826,-0.5602431893348694,9.761758804321289,-0.06103515625,0.274658203125,-0.18310546875
0.8674999,0.973242998123169,-0.558447539806366,9.768342971801758,0.06103515625,0.42724609375,-0.54931640625
0.8724999,0.9672574996948242,-0.5614402890205383,9.765948295593262,0.091552734375,0.274658203125,-0.3662109375
0.8774999,0.9702502489089966,-0.5620388388633728,9.770736694335938,0,0.396728515625,-0.335693359375
0.8824999,0.9720458984375,-0.5530605912208557,9.765948295593262,0.06103515625,0.48828125,-0.091552734375
0.8874999,0.9768342971801758,-0.535702645778656,9.767744064331055,0.030517578125,0.762939453125,0.335693359375
0.8924999,0.9798270463943481,-0.5267243981361389,9.766547203063965,-0.42724609375,1.068115234375,0.396728515625
0.8974999,0.9702502489089966,-0.5428852438926697,9.758167266845703,-0.457763671875,0.91552734375,-0.152587890625
0.9024999,0.9642647504806519,-0.5752069354057312,9.759963035583496,0.091552734375,0.885009765625,-0.701904296875
0.9074999,0.9379284977912903,-0.5979518890380859,9.769539833068848,0.30517578125,0.640869140625,0.06103515625
0.9124999,0.9331400990486145,-0.5728127360343933,9.782708168029785,-0.396728515625,0.42724609375,-0.1220703125
0.9174999,0.9265560507774353,-0.5476736426353455,9.787496566772461,-0.48828125,0.091552734375,0.244140625
0.9224999,0.9313444495201111,-0.5512649416923523,9.793481826782227,-0.274658203125,0.213623046875,0.030517578125
0.9274999,0.9361328482627869,-0.5722141861915588,9.783307075500488,0.213623046875,0.06103515625,-0.457763671875
0.9324999,0.943913996219635,-0.5901707410812378,9.774328231811523,0.3662109375,0.152587890625,-0.244140625
0.9374999,0.9570821523666382,-0.586579442024231,9.773730278015137,0.244140625,0.701904296875,-0.091552734375
0.9424999000000001,0.9612720012664795,-0.568622887134552,9.763554573059082,-0.152587890625,0.579833984375,0.030517578125
0.9474999000000001,0.9642647504806519,-0.5560533404350281,9.767146110534668,-0.335693359375,0.762939453125,-0.091552734375
0.9524999000000001,0.9522937536239624,-0.5608417391777039,9.762955665588379,-0.091552734375,0.701904296875,-0.152587890625
0.9574999000000001,0.9373299479484558,-0.5764040350914001,9.764751434326172,0.152587890625,0.335693359375,-0.18310546875
0.9624999,0.9792284965515137,-0.5620388388633728,9.761758804321289,-0.213623046875,0.42724609375,-0.091552734375
0.9674999,0.9690531492233276,-0.5668272376060486,9.765948295593262,-0.091552734375,0.54931640625,-0.274658203125
0.9724999,0.9487023949623108,-0.5764040350914001,9.764153480529785,0.244140625,0.3662109375,-0.091552734375
0.9774999,0.9361328482627869,-0.5835866928100586,9.77672290802002,0.152587890625,0.152587890625,-0.152587890625
0.9824999,0.9205705523490906,-0.5811924338340759,9.773730278015137,0.030517578125,-0.274658203125,-0.244140625
0.9874999,0.9247604012489319,-0.5656301379203796,9.77791976928711,-0.18310546875,-0.152587890625,-0.1220703125
0.9924999,0.9343371987342834,-0.5638344883918762,9.764153480529785,0,-0.152587890625,-0.244140625
0.9974999,0.9510966539382935,-0.5656301379203796,9.761159896850586,0.213623046875,0.1220703125,-0.213623046875
1.0024999,0.9576807022094727,-0.5638344883918762,9.747992515563965,0.18310546875,0.335693359375,-0.06103515625
1.0074999000000002,0.961870551109314,-0.5602431893348694,9.749788284301758,0.091552734375,0.30517578125,-0.244140625
1.0124999000000001,0.9552865028381348,-0.5542576909065247,9.75397777557373,-0.030517578125,0.48828125,-0.335693359375
1.0174999000000002,0.9409212470054626,-0.5512649416923523,9.758766174316406,-0.030517578125,0.1220703125,-0.152587890625
1.0224999000000001,0.93254154920578,-0.5548562407493591,9.77013874053955,0.06103515625,0.030517578125,-0.42724609375
1.0274999,0.922366201877594,-0.5608417391777039,9.77133560180664,0.091552734375,-0.213623046875,-0.3662109375
1.0324999000000001,0.9259575009346008,-0.5644330382347107,9.77672290802002,0.06103515625,-0.335693359375,-0.274658203125
1.0374999,0.9349357485771179,-0.5662286877632141,9.77672290802002,0.030517578125,-0.274658203125,-0.3662109375
1.0424999000000001,0.9457096457481384,-0.5680243372917175,9.764751434326172,-0.030517578125,-0.274658203125,-0.18310546875
1.0474999,0.9738415479660034,-0.5758054852485657,9.751583099365234,0,0.18310546875,-0.30517578125
1.0524999000000002,0.9792284965515137,-0.5781996846199036,9.753378868103027,0.030517578125,0.18310546875,-0.244140625
1.0574999,0.9750386476516724,-0.5746083855628967,9.75517463684082,-0.030517578125,0.48828125,-0.274658203125
1.0624999000000002,0.9576807022094727,-0.5692214369773865,9.753378868103027,0.1220703125,0.3662109375,-0.274658203125
1.0674999,0.9433154463768005,-0.5662286877632141,9.762955665588379,-0.030517578125,0.091552734375,-0.42724609375
1.0724999000000002,0.9271546006202698,-0.5650315880775452,9.75517463684082,0.06103515625,0,-0.3662109375
1.0774999,0.9217676520347595,-0.5662286877632141,9.761159896850586,0.091552734375,-0.152587890625,-0.335693359375
1.0824999000000002,0.9235633015632629,-0.5680243372917175,9.766547203063965,0.1220703125,-0.152587890625,-0.396728515625
1.0874999,0.9253589510917664,-0.5668272376060486,9.765948295593262,0.1220703125,-0.396728515625,-0.3662109375
1.0924999000000002,0.9373299479484558,-0.5644330382347107,9.777320861816406,-0.091552734375,-0.213623046875,-0.396728515625
1.0974999,0.9433154463768005,-0.5596446394920349,9.77253246307373,-0.06103515625,-0.213623046875,-0.274658203125
1.1024999000000002,0.9558850526809692,-0.557250440120697,9.77253246307373,0,-0.1220703125,-0.274658203125
1.1074999,0.9397241473197937,-0.5608417391777039,9.771934509277344,0.030517578125,0.274658203125,-0.396728515625
1.1124999000000002,0.9331400990486145,-0.5632359385490417,9.773131370544434,0.06103515625,0.1220703125,-0.48828125
1.1174999,0.921169102191925,-0.5656301379203796,9.767744064331055,0.06103515625,-0.091552734375,-0.42724609375
1.1224999000000002,0.93254154920578,-0.5668272376060486,9.777320861816406,0.06103515625,-0.274658203125,-0.213623046875
1.1274999,0.9463081955909729,-0.5650315880775452,9.77133560180664,0.06103515625,-0.3662109375,-0.396728515625
1.1324999000000002,0.9636662006378174,-0.5644330382347107,9.77013874053955,0.1220703125,-0.18310546875,-0.54931640625
1.1374999000000001,0.970848798751831,-0.5632359385490417,9.758167266845703,0.06103515625,0.48828125,-0.18310546875
1.1424999000000002,0.9666589498519897,-0.5710170865058899,9.768342971801758,0.030517578125,0.579833984375,-0.274658203125
1.1474999000000001,0.9570821523666382,-0.5752069354057312,9.765350341796875,0.091552734375,0.396728515625,-0.48828125
1.1524999000000002,0.9528923034667969,-0.5811924338340759,9.774927139282227,-0.030517578125,0.30517578125,-0.3662109375
1.1574999000000001,0.9487023949623108,-0.5781996846199036,9.77672290802002,0.06103515625,0.3662109375,-0.457763671875
1.1624999,0.9433154463768005,-0.5728127360343933,9.775525093078613,0.06103515625,0.152587890625,-0.335693359375
1.1674999000000001,0.9469067454338074,-0.5662286877632141,9.779715538024902,0.091552734375,0.091552734375,-0.30517578125
1.1724999,0.9433154463768005,-0.5590460896492004,9.767744064331055,0.06103515625,0,-0.30517578125
1.1774999000000002,0.9510966539382935,-0.5554547905921936,9.767744064331055,0.030517578125,0.06103515625,-0.244140625
1.1824999,0.9540894031524658,-0.5482721924781799,9.761159896850586,0.030517578125,0,-0.091552734375
1.1874999000000002,0.9684545993804932,-0.5404910445213318,9.762357711791992,-0.213623046875,0.54931640625,-0.030517578125
1.1924999,0.9714473485946655,-0.5410895943641663,9.756970405578613,-0.091552734375,0.701904296875,0
1.1974999000000002,0.970848798751831,-0.5530605912208557,9.766547203063965,0.091552734375,0.9765625,0.091552734375
1.2024999,0.9253589510917664,-0.5829881429672241,9.77672290802002,0.152587890625,0.3662109375,-0.244140625
1.2074999000000002,0.8960300087928772,-0.5776011347770691,9.783307075500488,0.06103515625,-0.42724609375,-0.244140625
1.2124999,0.8756792545318604,-0.5680243372917175,9.794678688049316,-0.1220703125,-1.0986328125,-0.274658203125
1.2174999000000002,0.8702923059463501,-0.5620388388633728,9.78869342803955,-0.06103515625,-1.5869140625,-0.3662109375
1.2224999,0.8846575021743774,-0.5620388388633728,9.788095474243164,0.152587890625,-1.708984375,-0.396728515625
1.2274999000000002,0.9181763529777527,-0.5632359385490417,9.778518676757812,0.152587890625,-1.312255859375,-0.030517578125
1.2324999,0.9540894031524658,-0.5644330382347107,9.762955665588379,0.06103515625,-0.91552734375,-0.42724609375
1.2374999000000002,1.0187327861785889,-0.5662286877632141,9.749788284301758,-0.030517578125,0.030517578125,-0.457763671875
1.2424999,1.0193313360214233,-0.5692214369773865,9.749189376831055,0.18310546875,0.244140625,-0.18310546875
1.2474999000000002,1.0073603391647339,-0.5668272376060486,9.758766174316406,0.091552734375,0.42724609375,-0.091552734375
1.2524999,0.9678560495376587,-0.5626373887062073,9.75397777557373,-0.1220703125,0.091552734375,-0.3662109375
1.2574999000000002,0.9433154463768005,-0.5602431893348694,9.768342971801758,-0.244140625,-0.244140625,-0.335693359375
1.2624999000000001,0.9217676520347595,-0.5614402890205383,9.767146110534668,0.030517578125,-0.244140625,-0.030517578125
1.2674999000000002,0.9187749028205872,-0.5680243372917175,9.761159896850586,0.18310546875,-0.457763671875,-0.18310546875
1.2724999000000001,0.9397241473197937,-0.5680243372917175,9.765948295593262,0.091552734375,-0.152587890625,-0.396728515625
1.2774999000000002,0.9534908533096313,-0.5638344883918762,9.758766174316406,0,0.091552734375,-0.091552734375
1.2824999000000001,0.9762357473373413,-0.5656301379203796,9.762357711791992,-0.091552734375,0.396728515625,-0.244140625
1.2874999,0.9894038438796997,-0.5680243372917175,9.7605619430542,-0.091552734375,0.67138671875,-0.457763671875
1.2924999000000001,0.9534908533096313,-0.5638344883918762,9.755773544311523,-0.06103515625,0.42724609375,-0.335693359375
1.2974999,0.9277531504631042,-0.558447539806366,9.764751434326172,0,-0.030517578125,-0.30517578125
1.3024999000000002,0.9044097065925598,-0.5578489899635315,9.765350341796875,0.06103515625,-0.3662109375,-0.1220703125
1.3074999,0.8924387097358704,-0.5602431893348694,9.774328231811523,0.091552734375,-0.8544921875,-0.213623046875
1.3124999000000002,0.8984242081642151,-0.5602431893348694,9.782109260559082,0,-0.823974609375,-0.42724609375
1.3174999,0.8984242081642151,-0.5602431893348694,9.782109260559082,0,-0.823974609375,-0.42724609375
1.3224999000000002,0.9091981053352356,-0.5548562407493591,9.779715538024902,-0.06103515625,-0.732421875,-0.030517578125
1.3274999,0.9385270476341248,-0.5560533404350281,9.782109260559082,-0.1220703125,-0.54931640625,-0.18310546875
1.3324999000000002,0.9648633003234863,-0.558447539806366,9.77133560180664,0.030517578125,-0.091552734375,-0.244140625
1.3374999,0.9864110946655273,-0.5638344883918762,9.763554573059082,0.152587890625,0.213623046875,-0.18310546875
1.3424999000000002,1.006163239479065,-0.568622887134552,9.764153480529785,0.091552734375,0.701904296875,-0.213623046875
1.3474999,0.9738415479660034,-0.5542576909065247,9.767146110534668,-0.091552734375,0.54931640625,-0.30517578125
1.3524999000000002,0.9738415479660034,-0.5542576909065247,9.767146110534668,-0.091552734375,0.54931640625,-0.30517578125
1.3574999,0.9516952037811279,-0.5530605912208557,9.768941879272461,0.06103515625,0.244140625,-0.1220703125
1.3624999000000002,0.9205705523490906,-0.5602431893348694,9.768941879272461,0.1220703125,-0.152587890625,-0.30517578125
1.3674999,0.9205705523490906,-0.5602431893348694,9.768941879272461,0.1220703125,-0.152587890625,-0.30517578125
1.3724999000000002,0.921169102191925,-0.5644330382347107,9.773730278015137,0.030517578125,-0.152587890625,-0.335693359375
1.3774999,0.9217676520347595,-0.5650315880775452,9.767744064331055,0,-0.18310546875,-0.274658203125
1.3824999000000002,0.9301473498344421,-0.5650315880775452,9.767146110534668,-0.030517578125,-0.30517578125,-0.213623046875
1.3874999000000001,0.9433154463768005,-0.5656301379203796,9.773730278015137,-0.030517578125,-0.244140625,-0.213623046875
1.3924999000000002,0.9510966539382935,-0.5638344883918762,9.769539833068848,0,-0.244140625,-0.152587890625
1.3974999000000001,0.9642647504806519,-0.5644330382347107,9.777320861816406,0.152587890625,0.06103515625,-0.18310546875
1.4024999000000002,0.9666589498519897,-0.5614402890205383,9.77253246307373,0.1220703125,0.091552734375,-0.213623046875
1.4074999000000001,0.9630676507949829,-0.557250440120697,9.77672290802002,0,0.274658203125,-0.18310546875
1.4124999,0.9493009448051453,-0.558447539806366,9.769539833068848,0.030517578125,0.091552734375,0.030517578125
1.4174999000000001,0.9487023949623108,-0.5614402890205383,9.778518676757812,0.030517578125,0.152587890625,-0.244140625
1.4224999,0.9427168965339661,-0.5650315880775452,9.77791976928711,0.091552734375,0,-0.213623046875
1.4274999000000002,0.9385270476341248,-0.5650315880775452,9.7791166305542,0.091552734375,-0.030517578125,-0.152587890625
1.4324999,0.9433154463768005,-0.5662286877632141,9.783307075500488,0.030517578125,0.1220703125,-0.30517578125
1.4374999000000002,0.9367313981056213,-0.5656301379203796,9.774328231811523,0.091552734375,0.152587890625,-0.30517578125
1.4424999,0.9445125460624695,-0.5692214369773865,9.763554573059082,-0.030517578125,-0.030517578125,-0.091552734375
1.4474999000000002,0.9445125460624695,-0.5692214369773865,9.763554573059082,-0.030517578125,-0.030517578125,-0.091552734375
1.4524999,0.9487023949623108,-0.5656301379203796,9.764153480529785,0.030517578125,0.091552734375,-0.152587890625
1.4574999000000002,0.9421183466911316,-0.5644330382347107,9.756970405578613,0.030517578125,0,-0.152587890625
1.4624999,0.9582792520523071,-0.5614402890205383,9.766547203063965,0.06103515625,-0.152587890625,-0.244140625
1.4674999000000002,0.9696516990661621,-0.5596446394920349,9.774328231811523,-0.091552734375,-0.030517578125,-0.30517578125
1.4724999,0.9672574996948242,-0.558447539806366,9.767146110534668,0.030517578125,0.091552734375,-0.213623046875
1.4774999000000002,0.9648633003234863,-0.557250440120697,9.764153480529785,0.06103515625,0.18310546875,-0.213623046875
1.4824999,0.9630676507949829,-0.5596446394920349,9.768342971801758,0,0.3662109375,-0.3662109375
1.4874999000000002,0.9498994946479797,-0.5602431893348694,9.75637149810791,0.152587890625,0.244140625,-0.18310546875
1.4924999,0.9481038451194763,-0.5596446394920349,9.765948295593262,0.030517578125,0.213623046875,-0.1220703125
1.4974999000000002,0.9373299479484558,-0.5590460896492004,9.762357711791992,-0.091552734375,0.3662109375,-0.213623046875
1.5024999,0.9343371987342834,-0.5602431893348694,9.765948295593262,-0.030517578125,0.18310546875,-0.1220703125
1.5074999000000002,0.9295487999916077,-0.5632359385490417,9.763554573059082,0.030517578125,0,0
1.5124999000000001,0.9355342984199524,-0.5656301379203796,9.77133560180664,0,-0.06103515625,-0.18310546875
1.5174999000000002,0.9349357485771179,-0.5680243372917175,9.767744064331055,-0.06103515625,-0.18310546875,-0.30517578125
1.5224999000000001,0.9397241473197937,-0.5692214369773865,9.775525093078613,0.030517578125,-0.244140625,-0.1220703125
1.5274999000000002,0.9475052952766418,-0.5704185366630554,9.784503936767578,0.06103515625,-0.091552734375,-0.274658203125
1.5324999000000001,0.9457096457481384,-0.569819986820221,9.781511306762695,0.030517578125,-0.18310546875,-0.213623046875
1.5374999000000003,0.9528923034667969,-0.5692214369773865,9.785700798034668,0.030517578125,0.030517578125,-0.213623046875
1.5424999000000001,0.950498104095459,-0.5662286877632141,9.777320861816406,0,0.152587890625,-0.335693359375
1.5474999,0.950498104095459,-0.5638344883918762,9.77133560180664,0.091552734375,-0.06103515625,-0.213623046875
1.5524999000000002,0.9564836025238037,-0.5638344883918762,9.77253246307373,0.1220703125,0.18310546875,-0.213623046875
1.5574999,0.9540894031524658,-0.5620388388633728,9.767744064331055,-0.030517578125,0.1220703125,-0.213623046875
1.5624999000000002,0.9594763517379761,-0.5620388388633728,9.776124000549316,0,0.152587890625,-0.030517578125
1.5674999,0.9582792520523071,-0.558447539806366,9.773730278015137,0,-0.06103515625,-0.244140625
1.5724999000000002,0.9594763517379761,-0.558447539806366,9.775525093078613,0.06103515625,0.030517578125,-0.30517578125
1.5774999,0.9546879529953003,-0.5578489899635315,9.77253246307373,0.091552734375,-0.030517578125,-0.1220703125
1.5824999000000002,0.9588778018951416,-0.5602431893348694,9.778518676757812,0.030517578125,-0.030517578125,-0.1220703125
1.5874999,0.9564836025238037,-0.5614402890205383,9.7791166305542,-0.030517578125,-0.030517578125,-0.18310546875
1.5924999000000002,0.9576807022094727,-0.5596446394920349,9.777320861816406,0.06103515625,-0.091552734375,-0.1220703125
1.5974999,0.960673451423645,-0.5626373887062073,9.782109260559082,0.091552734375,0.1220703125,-0.244140625
1.6024999000000002,0.9576807022094727,-0.5602431893348694,9.781511306762695,0,-0.030517578125,-0.274658203125
1.6074999,0.9498994946479797,-0.5578489899635315,9.774328231811523,0,-0.06103515625,-0.18310546875
1.6124999000000002,0.9457096457481384,-0.5566518902778625,9.773131370544434,0,-0.06103515625,-0.152587890625
1.6174999,0.945111095905304,-0.5560533404350281,9.774927139282227,-0.06103515625,0,-0.244140625
1.6224999000000002,0.9576807022094727,-0.5710170865058899,9.773730278015137,-0.1220703125,-0.18310546875,-0.152587890625
1.6274999,0.9624691009521484,-0.5746083855628967,9.77672290802002,0.030517578125,0.06103515625,-0.30517578125
1.6324999000000002,0.9576807022094727,-0.5752069354057312,9.766547203063965,0.1220703125,-0.091552734375,-0.1220703125
1.6374999000000001,0.9588778018951416,-0.5746083855628967,9.773730278015137,0.030517578125,0,-0.335693359375
1.6424999000000002,0.9516952037811279,-0.5662286877632141,9.768941879272461,0.030517578125,-0.18310546875,-0.30517578125
1.6474999000000001,0.9463081955909729,-0.5620388388633728,9.768941879272461,0.06103515625,-0.518798828125,-0.152587890625
1.6524999000000002,0.9463081955909729,-0.5578489899635315,9.775525093078613,0.030517578125,-0.457763671875,-0.152587890625
1.6574999000000001,0.9409212470054626,-0.5554547905921936,9.767744064331055,0,-0.67138671875,-0.213623046875
1.6624999000000003,0.9475052952766418,-0.558447539806366,9.77253246307373,0.030517578125,-0.6103515625,-0.274658203125
1.6674999000000001,0.9475052952766418,-0.5590460896492004,9.763554573059082,0.091552734375,-0.54931640625,-0.091552734375
1.6724999,0.9588778018951416,-0.5704185366630554,9.75517463684082,-0.030517578125,-0.518798828125,-0.457763671875
1.6774999000000002,0.9570821523666382,-0.5746083855628967,9.752182006835938,0.030517578125,-0.48828125,-0.152587890625
1.6824999,0.961870551109314,-0.5758054852485657,9.75278091430664,0.152587890625,-0.335693359375,-0.06103515625
1.6874999000000002,0.9726444482803345,-0.5680243372917175,9.749788284301758,0,-0.335693359375,-0.18310546875
1.6924999,0.983418345451355,-0.5530605912208557,9.75517463684082,0.06103515625,0.18310546875,0.30517578125
1.6974999000000002,1.0067617893218994,-0.5488707423210144,9.754576683044434,-0.1220703125,0.8544921875,0.091552734375
1.7024999,1.01753568649292,-0.5542576909065247,9.748590469360352,-0.1220703125,1.0986328125,-0.335693359375
1.7074999000000002,1.0259153842926025,-0.5668272376060486,9.75397777557373,0.213623046875,1.5869140625,0.091552734375
1.7124999,1.0067617893218994,-0.5811924338340759,9.749788284301758,0.152587890625,1.739501953125,-0.030517578125
1.7174999000000002,0.9858125448226929,-0.5835866928100586,9.7605619430542,-0.1220703125,1.434326171875,-0.79345703125
1.7224999,0.9475052952766418,-0.5805938839912415,9.77253246307373,0.030517578125,1.15966796875,-0.579833984375
1.7274999000000002,0.8888474106788635,-0.5446808934211731,9.793481826782227,-0.30517578125,-1.46484375,-0.152587890625
1.7324999,0.9409212470054626,-0.5524620413780212,9.7791166305542,-0.1220703125,-1.190185546875,-0.244140625
1.7374999000000002,1.0013748407363892,-0.5710170865058899,9.77791976928711,0.091552734375,-0.030517578125,0.06103515625
1.7424999,1.037886381149292,-0.5871779918670654,9.762357711791992,0.1220703125,0.48828125,-0.274658203125
1.7474999000000002,1.0564415454864502,-0.5883750915527344,9.75936508178711,0.152587890625,0.823974609375,-0.457763671875
1.7524999,1.0462661981582642,-0.5781996846199036,9.757569313049316,-0.030517578125,1.15966796875,-0.091552734375
1.7574999000000002,1.0157400369644165,-0.5626373887062073,9.759963035583496,-0.152587890625,0.885009765625,-0.030517578125
1.7624999000000001,0.933738648891449,-0.568622887134552,9.773730278015137,0.152587890625,0.3662109375,-0.244140625
1.7674999000000002,0.9469067454338074,-0.5632359385490417,9.769539833068848,-0.091552734375,0.030517578125,-0.152587890625
1.7724999000000001,0.9672574996948242,-0.5620388388633728,9.759963035583496,0.030517578125,0.18310546875,-0.18310546875
1.7774999000000002,0.9792284965515137,-0.5656301379203796,9.761758804321289,0.091552734375,0.54931640625,-0.091552734375
1.7824999000000001,0.9774328470230103,-0.5650315880775452,9.75517463684082,0.18310546875,0.213623046875,-0.152587890625
1.7874999000000003,0.9696516990661621,-0.5644330382347107,9.768941879272461,0.030517578125,0,-0.42724609375
1.7924999000000001,0.9481038451194763,-0.5608417391777039,9.770736694335938,-0.1220703125,-0.213623046875,-0.152587890625
1.7974999,0.9271546006202698,-0.5626373887062073,9.780313491821289,-0.030517578125,-0.640869140625,-0.152587890625
1.8024999000000002,0.9151836037635803,-0.5674257874488831,9.781511306762695,0.06103515625,-0.762939453125,-0.396728515625
1.8074999,0.9115923047065735,-0.5716156363487244,9.773730278015137,0.06103515625,-0.946044921875,-0.396728515625
1.8124999000000002,0.9630676507949829,-0.5626373887062073,9.75637149810791,0.1220703125,-0.274658203125,-0.396728515625
1.8174999,0.9977835416793823,-0.5578489899635315,9.75278091430664,-0.1220703125,0.152587890625,-0.274658203125
1.8224999000000002,1.0205284357070923,-0.557250440120697,9.747992515563965,0.06103515625,0.701904296875,-0.244140625
1.8274999,1.0193313360214233,-0.5632359385490417,9.742605209350586,0.1220703125,0.8544921875,-0.274658203125
1.8324999000000002,1.0115501880645752,-0.5692214369773865,9.752182006835938,0.030517578125,1.129150390625,-0.1220703125
1.8374999,0.9786299467086792,-0.5704185366630554,9.75517463684082,0.030517578125,1.03759765625,-0.06103515625
1.8424999000000002,0.9044097065925598,-0.5620388388633728,9.773730278015137,0.030517578125,-0.79345703125,-0.213623046875
1.8474999,0.9235633015632629,-0.5626373887062073,9.77133560180664,-0.1220703125,-0.79345703125,-0.18310546875
1.8524999000000002,0.9840168952941895,-0.5632359385490417,9.750985145568848,0.06103515625,0.335693359375,-0.30517578125
1.8574999,0.9900023937225342,-0.5608417391777039,9.75397777557373,0.030517578125,0.518798828125,-0.244140625
1.8624999000000002,0.9876081943511963,-0.557250440120697,9.75936508178711,-0.030517578125,0.640869140625,-0.244140625
1.8674999,0.9738415479660034,-0.557250440120697,9.75637149810791,0,0.518798828125,-0.244140625
1.8724999000000002,0.9648633003234863,-0.5638344883918762,9.770736694335938,0,0.3662109375,-0.213623046875
1.8774999,0.9457096457481384,-0.5692214369773865,9.765948295593262,0.091552734375,0.18310546875,-0.152587890625
1.8824999000000002,0.9361328482627869,-0.5758054852485657,9.771934509277344,0.030517578125,-0.06103515625,-0.152587890625
1.8874999000000001,0.93254154920578,-0.5793967843055725,9.77672290802002,0.1220703125,-0.1220703125,-0.274658203125
1.8924999000000002,0.9295487999916077,-0.578798234462738,9.765948295593262,0.091552734375,-0.274658203125,-0.152587890625
1.8974999000000001,0.9403226971626282,-0.5811924338340759,9.773131370544434,0.06103515625,0,-0.274658203125
1.9024999000000002,0.9534908533096313,-0.5776011347770691,9.761159896850586,0.091552734375,-0.1220703125,-0.30517578125
1.9074999000000001,0.960673451423645,-0.5728127360343933,9.765350341796875,0.06103515625,0.06103515625,-0.244140625
1.9124999000000003,0.960673451423645,-0.5728127360343933,9.765350341796875,0.06103515625,0.06103515625,-0.244140625
1.9174999000000001,0.9564836025238037,-0.5662286877632141,9.762357711791992,0,-0.1220703125,-0.152587890625
1.9224999,0.9510966539382935,-0.5638344883918762,9.77253246307373,-0.030517578125,-0.06103515625,-0.244140625
1.9274999000000002,0.9510966539382935,-0.5638344883918762,9.77253246307373,-0.030517578125,-0.06103515625,-0.244140625
1.9324999,0.9510966539382935,-0.5602431893348694,9.765350341796875,0.1220703125,-0.244140625,-0.030517578125
1.9374999000000002,0.9582792520523071,-0.5620388388633728,9.771934509277344,0.06103515625,-0.091552734375,-0.18310546875
1.9424999,0.9642647504806519,-0.5596446394920349,9.767146110534668,0.06103515625,0.091552734375,-0.244140625
1.9474999000000002,0.9690531492233276,-0.5620388388633728,9.767146110534668,-0.030517578125,0.030517578125,-0.18310546875
1.9524999,0.9690531492233276,-0.5620388388633728,9.769539833068848,0.18310546875,0.18310546875,-0.152587890625
1.9574999000000002,0.9666589498519897,-0.5638344883918762,9.777320861816406,0.091552734375,0.30517578125,-0.152587890625
1.9624999,0.9552865028381348,-0.5644330382347107,9.773730278015137,-0.030517578125,0.30517578125,-0.274658203125
1.9674999000000002,0.9463081955909729,-0.569819986820221,9.770736694335938,0.030517578125,0.06103515625,-0.244140625
1.9724999,0.9427168965339661,-0.5728127360343933,9.770736694335938,0.030517578125,-0.06103515625,-0.18310546875
1.9774999000000002,0.9331400990486145,-0.5728127360343933,9.761758804321289,0.091552734375,-0.18310546875,-0.030517578125
1.9824999,0.9397241473197937,-0.5704185366630554,9.765948295593262,-0.06103515625,-0.244140625,-0.274658203125
1.9874999000000002,0.9433154463768005,-0.5650315880775452,9.759963035583496,-0.152587890625,-0.213623046875,-0.335693359375
1.9924999,0.9546879529953003,-0.5626373887062073,9.756970405578613,-0.1220703125,-0.244140625,-0.274658203125
1.9974999000000002,0.9684545993804932,-0.5620388388633728,9.75936508178711,0.091552734375,-0.18310546875,-0.213623046875
2.0024999,0.9702502489089966,-0.5614402890205383,9.750985145568848,0.18310546875,0,-0.244140625
2.0074999,0.9804255962371826,-0.5620388388633728,9.757569313049316,0.091552734375,0.3662109375,-0.42724609375
2.0124999000000003,0.9696516990661621,-0.5602431893348694,9.759963035583496,-0.1220703125,0.213623046875,-0.213623046875
2.0174999000000002,0.9636662006378174,-0.5596446394920349,9.768342971801758,-0.06103515625,0.42724609375,-0.30517578125
2.0224999,0.9498994946479797,-0.5602431893348694,9.768342971801758,0.18310546875,0.213623046875,-0.213623046875
2.0274999,0.945111095905304,-0.5614402890205383,9.780912399291992,0.091552734375,0.091552734375,-0.18310546875
2.0324999000000004,0.933738648891449,-0.5662286877632141,9.778518676757812,0.1220703125,0,-0.213623046875
2.0374999000000003,0.9313444495201111,-0.5692214369773865,9.779715538024902,0.213623046875,-0.152587890625,-0.18310546875
2.0424999,0.9319429993629456,-0.5728127360343933,9.782109260559082,0,-0.091552734375,-0.274658203125
2.0474999,0.9295487999916077,-0.5692214369773865,9.768342971801758,0.06103515625,-0.244140625,-0.152587890625
2.0524999,0.9391255974769592,-0.568622887134552,9.77133560180664,0.213623046875,-0.06103515625,-0.335693359375
2.0574999000000003,0.9433154463768005,-0.5632359385490417,9.758766174316406,0.1220703125,-0.18310546875,-0.274658203125
2.0624999,0.9540894031524658,-0.5620388388633728,9.757569313049316,0.06103515625,-0.152587890625,-0.152587890625
2.0674999,0.9648633003234863,-0.5626373887062073,9.759963035583496,0,0.06103515625,-0.335693359375
2.0724999,0.9756371974945068,-0.5662286877632141,9.768941879272461,0.06103515625,0.030517578125,-0.244140625
2.0774999000000003,0.9720458984375,-0.5662286877632141,9.766547203063965,0.091552734375,0.213623046875,-0.335693359375
2.0824999,0.9690531492233276,-0.5656301379203796,9.77133560180664,-0.030517578125,0.06103515625,-0.152587890625
2.0874999,0.9672574996948242,-0.5638344883918762,9.774328231811523,-0.1220703125,0.18310546875,-0.335693359375
2.0924999,0.9576807022094727,-0.5644330382347107,9.767744064331055,-0.06103515625,-0.06103515625,-0.274658203125
2.0974999000000003,0.9594763517379761,-0.5620388388633728,9.77253246307373,0,0.152587890625,-0.3662109375
2.1024999,0.9522937536239624,-0.5632359385490417,9.768941879272461,-0.06103515625,0.213623046875,-0.213623046875
2.1074999,0.950498104095459,-0.5620388388633728,9.768342971801758,-0.06103515625,0.06103515625,-0.1220703125
2.1124999,0.9475052952766418,-0.5632359385490417,9.771934509277344,0.06103515625,0.091552734375,-0.274658203125
2.1174999000000003,0.9403226971626282,-0.5608417391777039,9.764153480529785,0.030517578125,0,-0.244140625
2.1224999,0.9457096457481384,-0.5596446394920349,9.769539833068848,0,0,-0.274658203125
2.1274999,0.9457096457481384,-0.558447539806366,9.764153480529785,0.030517578125,0.030517578125,-0.244140625
2.1324999,0.9546879529953003,-0.5578489899635315,9.757569313049316,0.091552734375,-0.274658203125,-0.1220703125
2.1374999000000003,0.9612720012664795,-0.5590460896492004,9.763554573059082,0.06103515625,-0.152587890625,-0.1220703125
2.1424999000000002,0.9594763517379761,-0.5608417391777039,9.758766174316406,-0.06103515625,0.152587890625,-0.06103515625
2.1474999,0.9654618501663208,-0.5626373887062073,9.761159896850586,0,0.030517578125,-0.1220703125
2.1524999,0.9684545993804932,-0.5656301379203796,9.766547203063965,-0.030517578125,0.244140625,-0.274658203125
2.1574999000000004,0.9636662006378174,-0.5692214369773865,9.761758804321289,-0.152587890625,0.335693359375,-0.213623046875
2.1624999000000003,0.9403226971626282,-0.568622887134552,9.767744064331055,0.06103515625,0.18310546875,-0.30517578125
2.1674999,0.9361328482627869,-0.568622887134552,9.77013874053955,-0.06103515625,0.335693359375,-0.30517578125
2.1724999,0.9355342984199524,-0.5602431893348694,9.770736694335938,0.091552734375,-0.152587890625,-0.18310546875
2.1774999000000004,0.9469067454338074,-0.5590460896492004,9.774328231811523,0,-0.18310546875,0.030517578125
2.1824999000000003,0.9463081955909729,-0.558447539806366,9.767744064331055,0.06103515625,-0.152587890625,-0.152587890625
2.1874999,0.9582792520523071,-0.5602431893348694,9.774927139282227,0.030517578125,-0.1220703125,-0.274658203125
2.1924999,0.9570821523666382,-0.5590460896492004,9.765350341796875,0,-0.18310546875,-0.274658203125
2.1974999,0.9600749015808105,-0.5644330382347107,9.764153480529785,0.18310546875,-0.1220703125,-0.213623046875
2.2024999000000003,0.9654618501663208,-0.5662286877632141,9.762955665588379,-0.1220703125,0.091552734375,-0.274658203125
2.2074999,0.9582792520523071,-0.5680243372917175,9.754576683044434,0,-0.030517578125,-0.30517578125
2.2124999,0.9630676507949829,-0.5710170865058899,9.764153480529785,0.030517578125,0.152587890625,-0.30517578125
2.2174999,0.9546879529953003,-0.568622887134552,9.761758804321289,0.06103515625,0.152587890625,-0.244140625
2.2224999000000003,0.9516952037811279,-0.5632359385490417,9.774328231811523,-0.06103515625,0.091552734375,-0.244140625
2.2274999,0.9457096457481384,-0.5596446394920349,9.768941879272461,0,0.06103515625,-0.18310546875
2.2324999,0.9463081955909729,-0.5590460896492004,9.775525093078613,-0.030517578125,0.152587890625,-0.30517578125
2.2374999,0.9409212470054626,-0.558447539806366,9.768342971801758,0.030517578125,0.091552734375,-0.274658203125
2.2424999000000003,0.9391255974769592,-0.5590460896492004,9.768941879272461,0.091552734375,0.06103515625,-0.213623046875
2.2474999,0.9445125460624695,-0.5608417391777039,9.769539833068848,0.06103515625,0.06103515625,-0.244140625
2.2524999,0.9463081955909729,-0.5614402890205383,9.764153480529785,0.030517578125,-0.18310546875,-0.213623046875
2.2574999,0.9594763517379761,-0.5650315880775452,9.77013874053955,-0.06103515625,-0.030517578125,-0.3662109375
2.2624999000000003,0.9600749015808105,-0.5674257874488831,9.764153480529785,0.213623046875,-0.1220703125,-0.244140625
2.2674999000000002,0.9630676507949829,-0.569819986820221,9.762955665588379,0,-0.030517578125,-0.30517578125
2.2724999,0.9630676507949829,-0.5704185366630554,9.761159896850586,-0.152587890625,0.030517578125,-0.18310546875
2.2774999,0.9552865028381348,-0.5704185366630554,9.754576683044434,0.030517578125,0,-0.091552734375
2.2824999000000004,0.9498994946479797,-0.568622887134552,9.762955665588379,0.06103515625,0.213623046875,-0.30517578125
2.2874999000000003,0.9487023949623108,-0.568622887134552,9.773131370544434,0.06103515625,0.335693359375,-0.3662109375
2.2924999,0.9403226971626282,-0.5692214369773865,9.77253246307373,0.030517578125,0.18310546875,-0.244140625
2.2974999,0.9415197968482971,-0.5740098357200623,9.784503936767578,-0.1220703125,0.152587890625,-0.30517578125
2.3024999000000004,0.9355342984199524,-0.5746083855628967,9.773730278015137,0,0.1220703125,-0.274658203125
2.3074999000000003,0.9307458996772766,-0.5752069354057312,9.773131370544434,0.091552734375,0.152587890625,-0.244140625
2.3124999,0.9331400990486145,-0.5710170865058899,9.774328231811523,-0.06103515625,-0.06103515625,-0.152587890625
2.3174999,0.9301473498344421,-0.5632359385490417,9.765948295593262,0.091552734375,-0.274658203125,-0.152587890625
2.3224999,0.9415197968482971,-0.5590460896492004,9.776124000549316,0.030517578125,-0.1220703125,-0.244140625
2.3274999000000003,0.9457096457481384,-0.5560533404350281,9.768342971801758,-0.152587890625,-0.030517578125,-0.213623046875
2.3324999,0.9534908533096313,-0.557250440120697,9.768941879272461,0.030517578125,-0.1220703125,-0.18310546875
2.3374999,0.9576807022094727,-0.5644330382347107,9.75936508178711,0.091552734375,0.030517578125,-0.30517578125
2.3424999,0.9630676507949829,-0.5674257874488831,9.762357711791992,-0.030517578125,0.1220703125,-0.396728515625
2.3474999000000003,0.9582792520523071,-0.5710170865058899,9.758167266845703,0.030517578125,0.091552734375,-0.244140625
2.3524999,0.9624691009521484,-0.5722141861915588,9.762955665588379,0.091552734375,0.091552734375,-0.213623046875
2.3574999,0.9654618501663208,-0.5740098357200623,9.767744064331055,-0.06103515625,0.244140625,-0.244140625
2.3624999,0.9624691009521484,-0.5746083855628967,9.761159896850586,0.274658203125,-0.091552734375,-0.18310546875
2.3674999000000003,0.9648633003234863,-0.5728127360343933,9.767146110534668,0,0.18310546875,-0.3662109375
2.3724999,0.9564836025238037,-0.5710170865058899,9.761159896850586,-0.030517578125,0.213623046875,-0.274658203125
2.3774999,0.9510966539382935,-0.5668272376060486,9.765350341796875,0.091552734375,0.06103515625,-0.18310546875
2.3824999,0.9457096457481384,-0.5656301379203796,9.771934509277344,0.1220703125,0.1220703125,-0.335693359375
2.3874999000000003,0.9349357485771179,-0.5602431893348694,9.766547203063965,0.091552734375,0,-0.091552734375
2.3924999000000002,0.9349357485771179,-0.5614402890205383,9.77672290802002,0.06103515625,-0.030517578125,-0.091552734375
2.3974999,0.945111095905304,-0.5674257874488831,9.773131370544434,0.030517578125,-0.152587890625,-0.244140625
2.4024999,0.9493009448051453,-0.5668272376060486,9.767744064331055,0.1220703125,-0.30517578125,-0.1220703125
2.4074999000000004,0.9648633003234863,-0.5680243372917175,9.769539833068848,0.18310546875,-0.091552734375,-0.244140625
2.4124999000000003,0.9666589498519897,-0.5680243372917175,9.764153480529785,0.091552734375,-0.152587890625,-0.335693359375
2.4174999,0.9714473485946655,-0.5668272376060486,9.761758804321289,0.06103515625,-0.18310546875,-0.274658203125
2.4224999,0.9726444482803345,-0.5692214369773865,9.764153480529785,-0.06103515625,0.18310546875,-0.30517578125
2.4274999000000004,0.9660604000091553,-0.5680243372917175,9.75637149810791,0.030517578125,0.091552734375,-0.152587890625
2.4324999000000003,0.9660604000091553,-0.5680243372917175,9.762955665588379,0.030517578125,0.152587890625,-0.213623046875
2.4374999,0.9582792520523071,-0.5626373887062073,9.759963035583496,-0.030517578125,0.18310546875,-0.30517578125
2.4424999,0.9534908533096313,-0.5596446394920349,9.763554573059082,0.1220703125,0.3662109375,-0.335693359375
2.4474999,0.9469067454338074,-0.5566518902778625,9.767744064331055,-0.1220703125,0.274658203125,-0.274658203125
2.4524999000000003,0.9397241473197937,-0.5566518902778625,9.768941879272461,0.1220703125,0.152587890625,-0.30517578125
2.4574999,0.9343371987342834,-0.5590460896492004,9.75517463684082,-0.091552734375,0,-0.18310546875
2.4624999,0.9379284977912903,-0.557250440120697,9.75936508178711,-0.030517578125,-0.1220703125,-0.244140625
2.4674999,0.9427168965339661,-0.558447539806366,9.75936508178711,0.091552734375,-0.091552734375,-0.274658203125
2.4724999000000003,0.945111095905304,-0.5596446394920349,9.75936508178711,0.06103515625,-0.335693359375,-0.18310546875
2.4774999,0.9588778018951416,-0.5626373887062073,9.774927139282227,-0.030517578125,-0.18310546875,-0.274658203125
2.4824999,0.9636662006378174,-0.5644330382347107,9.771934509277344,0.06103515625,-0.30517578125,-0.3662109375
2.4874999,0.9696516990661621,-0.5638344883918762,9.776124000549316,0.030517578125,-0.244140625,-0.274658203125
2.4924999000000003,0.9744400978088379,-0.5626373887062073,9.774927139282227,-0.06103515625,-0.091552734375,-0.213623046875
2.4974999,0.9714473485946655,-0.5608417391777039,9.765948295593262,0.091552734375,-0.06103515625,-0.18310546875
2.5024999,0.9738415479660034,-0.5632359385490417,9.767146110534668,0,0.244140625,-0.42724609375
2.5074999,0.9696516990661621,-0.5632359385490417,9.759963035583496,-0.1220703125,0.3662109375,-0.3662109375
2.5124999000000003,0.9654618501663208,-0.5650315880775452,9.767744064331055,0.091552734375,0.518798828125,-0.30517578125
2.5174999000000002,0.9534908533096313,-0.5644330382347107,9.764751434326172,0.030517578125,0.396728515625,-0.213623046875
2.5224999,0.9516952037811279,-0.5716156363487244,9.774927139282227,-0.06103515625,0.213623046875,-0.396728515625
2.5274999,0.9373299479484558,-0.5728127360343933,9.77133560180664,-0.030517578125,0.06103515625,-0.274658203125
2.5324999000000004,0.9289502501487732,-0.5770025849342346,9.77133560180664,-0.1220703125,-0.030517578125,-0.1220703125
2.5374999000000003,0.9259575009346008,-0.5770025849342346,9.77253246307373,0,-0.274658203125,-0.213623046875
2.5424999,0.921169102191925,-0.5734112858772278,9.765948295593262,0.06103515625,-0.3662109375,-0.091552734375
2.5474999,0.933738648891449,-0.5710170865058899,9.773131370544434,0.030517578125,-0.30517578125,-0.18310546875
2.5524999000000004,0.9421183466911316,-0.5692214369773865,9.769539833068848,0.030517578125,-0.213623046875,-0.274658203125
2.5574999000000003,0.9576807022094727,-0.5680243372917175,9.771934509277344,0.091552734375,-0.335693359375,-0.274658203125
2.5624999,0.9696516990661621,-0.5674257874488831,9.773730278015137,0.030517578125,-0.213623046875,-0.335693359375
2.5674999,0.9612720012664795,-0.5620388388633728,9.749189376831055,0.06103515625,0.244140625,-0.213623046875
2.5724999,0.9612720012664795,-0.5620388388633728,9.749189376831055,0.06103515625,0.244140625,-0.213623046875
2.5774999000000003,0.9528923034667969,-0.5644330382347107,9.750386238098145,0.152587890625,0.30517578125,-0.30517578125
2.5824999,0.9403226971626282,-0.5638344883918762,9.747992515563965,0.091552734375,0.152587890625,-0.18310546875
2.5874999,0.9397241473197937,-0.5668272376060486,9.75936508178711,0.030517578125,0.274658203125,-0.213623046875
2.5924999,0.9319429993629456,-0.5662286877632141,9.762955665588379,0.030517578125,0.213623046875,-0.274658203125
2.5974999000000003,0.93254154920578,-0.5680243372917175,9.770736694335938,-0.030517578125,-0.030517578125,-0.18310546875
2.6024999,0.933738648891449,-0.569819986820221,9.778518676757812,0,-0.06103515625,-0.244140625
2.6074999,0.93254154920578,-0.569819986820221,9.775525093078613,0.030517578125,-0.335693359375,-0.213623046875
2.6124999,0.9415197968482971,-0.5728127360343933,9.780912399291992,0,-0.244140625,-0.18310546875
2.6174999000000003,0.960673451423645,-0.5716156363487244,9.773730278015137,0.06103515625,0,-0.244140625
2.6224999,0.960673451423645,-0.568622887134552,9.766547203063965,0.152587890625,-0.06103515625,-0.213623046875
2.6274999,0.970848798751831,-0.5668272376060486,9.77133560180664,0.091552734375,0.18310546875,-0.274658203125
2.6324999,0.9690531492233276,-0.5638344883918762,9.763554573059082,0.06103515625,0.18310546875,-0.244140625
2.6374999000000003,0.9714473485946655,-0.5662286877632141,9.758766174316406,0.06103515625,0.152587890625,-0.06103515625
2.6424999000000002,0.9594763517379761,-0.5650315880775452,9.744400978088379,0.030517578125,0.3662109375,-0.335693359375
2.6474999,0.9594763517379761,-0.5650315880775452,9.744400978088379,0.030517578125,0.3662109375,-0.335693359375
2.6524999,0.9564836025238037,-0.5650315880775452,9.75278091430664,0.091552734375,0.3662109375,-0.3662109375
2.6574999000000004,0.9433154463768005,-0.5644330382347107,9.752182006835938,0.1220703125,0.335693359375,-0.244140625
2.6624999000000003,0.9409212470054626,-0.5650315880775452,9.765948295593262,0.1220703125,0.213623046875,-0.244140625
2.6674999,0.9391255974769592,-0.5662286877632141,9.77791976928711,0.091552734375,0.213623046875,-0.18310546875
2.6724999,0.943913996219635,-0.5638344883918762,9.783307075500488,0.213623046875,-0.213623046875,-0.152587890625
2.6774999000000004,0.950498104095459,-0.5620388388633728,9.782708168029785,0.091552734375,-0.18310546875,-0.18310546875
2.6824999000000003,0.9552865028381348,-0.5644330382347107,9.77791976928711,0,-0.18310546875,-0.30517578125
2.6874999,0.9558850526809692,-0.5644330382347107,9.766547203063965,0.1220703125,-0.396728515625,-0.18310546875
2.6924999,0.961870551109314,-0.5692214369773865,9.767744064331055,-0.030517578125,-0.152587890625,-0.30517578125
2.6974999,0.9624691009521484,-0.5722141861915588,9.75517463684082,0.06103515625,0.030517578125,-0.30517578125
2.7024999000000003,0.9654618501663208,-0.5728127360343933,9.758766174316406,0.091552734375,0.18310546875,-0.244140625
2.7074999,0.9696516990661621,-0.5722141861915588,9.762357711791992,0.06103515625,0.335693359375,-0.3662109375
2.7124999,0.9612720012664795,-0.568622887134552,9.758766174316406,0.06103515625,0.3662109375,-0.152587890625
2.7174999,0.9612720012664795,-0.5680243372917175,9.767744064331055,-0.1220703125,0.30517578125,-0.244140625
2.7224999000000003,0.9481038451194763,-0.5692214369773865,9.763554573059082,0.030517578125,0.213623046875,-0.274658203125
2.7274999,0.9409212470054626,-0.5722141861915588,9.779715538024902,-0.091552734375,-0.3662109375,-0.274658203125
2.7324999,0.9481038451194763,-0.5710170865058899,9.780313491821289,-0.091552734375,-0.396728515625,-0.213623046875
2.7374999,0.9564836025238037,-0.569819986820221,9.775525093078613,0,-0.274658203125,-0.244140625
2.7424999000000003,0.9528923034667969,-0.5668272376060486,9.755773544311523,-0.030517578125,-0.3662109375,-0.244140625
2.7474999,0.9780313968658447,-0.568622887134552,9.780313491821289,-0.091552734375,-0.06103515625,-0.274658203125
2.7524999,0.9690531492233276,-0.5674257874488831,9.750386238098145,0.030517578125,-0.06103515625,-0.1220703125
2.7574999,0.9804255962371826,-0.5728127360343933,9.75517463684082,0,0.030517578125,-0.335693359375
2.7624999000000003,0.9780313968658447,-0.5728127360343933,9.745597839355469,-0.06103515625,0.396728515625,-0.274658203125
2.7674999000000002,0.9678560495376587,-0.5716156363487244,9.746794700622559,0.091552734375,0.3662109375,0
2.7724999,0.950498104095459,-0.569819986820221,9.777320861816406,-0.091552734375,0.48828125,-0.335693359375
2.7774999,0.9379284977912903,-0.5746083855628967,9.785101890563965,0.06103515625,0.48828125,-0.091552734375
2.7824999000000004,0.9247604012489319,-0.579995334148407,9.7791166305542,0.091552734375,0,-0.3662109375
2.7874999000000003,0.9205705523490906,-0.578798234462738,9.773730278015137,0.1220703125,-0.30517578125,-0.42724609375
2.7924999,0.9247604012489319,-0.5746083855628967,9.776124000549316,0.06103515625,-0.54931640625,-0.091552734375
2.7974999,0.9349357485771179,-0.5680243372917175,9.768941879272461,0.030517578125,-0.640869140625,-0.274658203125
2.8024999000000004,0.9469067454338074,-0.5632359385490417,9.762955665588379,-0.06103515625,-0.762939453125,-0.396728515625
2.8074999000000003,0.9582792520523071,-0.5662286877632141,9.7605619430542,-0.030517578125,-0.640869140625,-0.1220703125
2.8124999,0.9804255962371826,-0.5674257874488831,9.776124000549316,-0.06103515625,-0.213623046875,-0.06103515625
2.8174999,0.9906009435653687,-0.5710170865058899,9.7791166305542,-0.1220703125,0,-0.091552734375
2.8224999,0.982221245765686,-0.5692214369773865,9.739612579345703,0.06103515625,0.396728515625,-0.335693359375
2.8274999000000003,0.9923965930938721,-0.5764040350914001,9.764751434326172,0.213623046875,0.79345703125,-0.579833984375
2.8324999,0.9493009448051453,-0.5746083855628967,9.739612579345703,0.030517578125,0.823974609375,-0.274658203125
2.8374999,0.9516952037811279,-0.5716156363487244,9.785700798034668,-0.213623046875,1.28173828125,-0.518798828125
2.8424999,0.9133879542350769,-0.5650315880775452,9.768941879272461,-0.030517578125,0.701904296875,0.274658203125
2.8474999000000003,0.9020155072212219,-0.5656301379203796,9.778518676757812,0.06103515625,0.274658203125,-0.030517578125
2.8524999,0.9062053561210632,-0.5710170865058899,9.793481826782227,-0.06103515625,0.18310546875,-0.732421875
2.8574999,0.900818407535553,-0.5710170865058899,9.784503936767578,0.152587890625,-0.335693359375,-0.06103515625
2.8624999,0.922366201877594,-0.5722141861915588,9.793481826782227,0.1220703125,-0.6103515625,-0.244140625
2.8674999000000003,0.9355342984199524,-0.5668272376060486,9.781511306762695,-0.213623046875,-0.823974609375,-0.457763671875
2.8724999,0.9540894031524658,-0.5656301379203796,9.781511306762695,-0.06103515625,-0.732421875,0
2.8774999,0.9696516990661621,-0.5692214369773865,9.77253246307373,0.030517578125,-0.518798828125,-0.213623046875
2.8824999,0.9738415479660034,-0.5716156363487244,9.752182006835938,0.18310546875,-0.6103515625,-0.42724609375
2.8874999000000003,0.9840168952941895,-0.5734112858772278,9.75637149810791,0.18310546875,-0.091552734375,-0.152587890625
2.8924999000000002,0.9696516990661621,-0.5602431893348694,9.746196746826172,0,0.3662109375,-0.274658203125
2.8974999,0.9624691009521484,-0.5566518902778625,9.751583099365234,-0.06103515625,0.579833984375,-0.30517578125
2.9024999,0.9403226971626282,-0.558447539806366,9.744400978088379,0.1220703125,0.48828125,-0.091552734375
2.9074999000000004,0.9391255974769592,-0.5662286877632141,9.762357711791992,0.030517578125,0.42724609375,-0.457763671875
2.9124999000000003,0.9241618514060974,-0.5710170865058899,9.758167266845703,-0.06103515625,0.457763671875,-0.335693359375
2.9174999,0.921169102191925,-0.5710170865058899,9.768342971801758,0.030517578125,0.091552734375,0.030517578125
2.9224999,0.9283517003059387,-0.5680243372917175,9.783307075500488,-0.152587890625,0.152587890625,-0.274658203125
2.9274999000000004,0.93254154920578,-0.5626373887062073,9.780912399291992,0,-0.091552734375,-0.213623046875
2.9324999000000003,0.9475052952766418,-0.5632359385490417,9.78989028930664,-0.030517578125,-0.1220703125,-0.1220703125
2.9374999,0.9576807022094727,-0.5638344883918762,9.783905029296875,0,-0.152587890625,-0.213623046875
2.9424999,0.961870551109314,-0.5668272376060486,9.77791976928711,0.06103515625,-0.244140625,-0.152587890625
2.9474999,0.9678560495376587,-0.5704185366630554,9.7791166305542,0.030517578125,-0.18310546875,-0.274658203125
2.9524999000000003,0.9636662006378174,-0.5716156363487244,9.777320861816406,-0.1220703125,-0.335693359375,-0.213623046875
2.9574999,0.9576807022094727,-0.5680243372917175,9.768941879272461,0.06103515625,-0.30517578125,-0.18310546875
2.9624999,0.9510966539382935,-0.5620388388633728,9.754576683044434,0.06103515625,0.18310546875,-0.1220703125
2.9674999,0.9576807022094727,-0.5662286877632141,9.759963035583496,0.06103515625,0.6103515625,-0.335693359375
2.9724999000000003,0.9582792520523071,-0.5734112858772278,9.75278091430664,0.152587890625,0.732421875,-0.30517578125
2.9774999,0.960673451423645,-0.5817909836769104,9.75936508178711,0.3662109375,0.701904296875,-0.152587890625
2.9824999,0.9594763517379761,-0.5859808921813965,9.765948295593262,0.1220703125,0.885009765625,-0.244140625
2.9874999,0.9481038451194763,-0.5770025849342346,9.768941879272461,0.06103515625,0.457763671875,-0.274658203125
2.9924999000000003,0.9421183466911316,-0.5662286877632141,9.779715538024902,-0.030517578125,0.244140625,-0.18310546875
2.9974999,0.9289502501487732,-0.5566518902778625,9.776124000549316,-0.1220703125,-0.152587890625,-0.1220703125
3.0024999,0.9331400990486145,-0.5758054852485657,9.768941879272461,0.18310546875,-0.885009765625,-0.274658203125
3.0074999,0.9522937536239624,-0.5758054852485657,9.774328231811523,0.091552734375,-0.640869140625,-0.274658203125
3.0124999000000003,0.961870551109314,-0.5656301379203796,9.762955665588379,0,-0.48828125,-0.152587890625
3.0174999000000002,0.9810241460800171,-0.557250440120697,9.757569313049316,-0.152587890625,-0.274658203125,-0.213623046875
3.0224999,0.9917980432510376,-0.5530605912208557,9.750386238098145,-0.091552734375,0.30517578125,-0.30517578125
3.0274999,0.9894038438796997,-0.5590460896492004,9.739612579345703,0.152587890625,0.54931640625,-0.18310546875
3.0324999000000004,0.9858125448226929,-0.5680243372917175,9.747393608093262,0.030517578125,0.732421875,-0.274658203125
3.0374999000000003,0.9666589498519897,-0.5746083855628967,9.747992515563965,0.152587890625,0.701904296875,-0.18310546875
3.0424999,0.9247604012489319,-0.5668272376060486,9.785101890563965,0.030517578125,-0.3662109375,-0.18310546875
3.0474999,0.9379284977912903,-0.5638344883918762,9.783307075500488,0.030517578125,-0.54931640625,-0.335693359375
3.0524999000000004,0.9552865028381348,-0.5608417391777039,9.774328231811523,-0.06103515625,-0.54931640625,-0.42724609375
3.0574999000000003,0.9660604000091553,-0.5590460896492004,9.764153480529785,-0.091552734375,-0.457763671875,-0.274658203125
3.0624999,0.9852139949798584,-0.5614402890205383,9.764751434326172,-0.091552734375,-0.030517578125,-0.18310546875
3.0674999,0.9882067441940308,-0.5650315880775452,9.758167266845703,-0.06103515625,0.030517578125,-0.06103515625
3.0724999000000004,0.9882067441940308,-0.5680243372917175,9.763554573059082,0,-0.030517578125,-0.152587890625
3.0774999000000003,0.9840168952941895,-0.5710170865058899,9.764153480529785,0.091552734375,0.213623046875,-0.152587890625
3.0824999,0.9672574996948242,-0.568622887134552,9.761159896850586,0.030517578125,0.244140625,-0.244140625
3.0874999,0.9558850526809692,-0.5668272376060486,9.766547203063965,-0.06103515625,0.30517578125,-0.3662109375
3.0924999,0.9403226971626282,-0.5650315880775452,9.758766174316406,-0.06103515625,0.42724609375,-0.274658203125
3.0974999000000003,0.9367313981056213,-0.5680243372917175,9.767744064331055,0.030517578125,0.1220703125,-0.152587890625
3.1024999,0.9463081955909729,-0.5662286877632141,9.774927139282227,-0.091552734375,-0.152587890625,-0.091552734375
3.1074999,0.9516952037811279,-0.5692214369773865,9.780912399291992,-0.030517578125,-0.18310546875,-0.244140625
3.1124999,0.9528923034667969,-0.5764040350914001,9.773730278015137,0,-0.518798828125,-0.1220703125
3.1174999000000003,0.9630676507949829,-0.5793967843055725,9.783307075500488,-0.030517578125,-0.54931640625,-0.213623046875
3.1224999,0.9624691009521484,-0.5781996846199036,9.775525093078613,0,-0.3662109375,-0.30517578125
3.1274999,0.9660604000091553,-0.5734112858772278,9.774927139282227,-0.06103515625,-0.213623046875,-0.335693359375
3.1324999,0.9660604000091553,-0.5722141861915588,9.766547203063965,-0.152587890625,0,-0.396728515625
3.1374999000000003,0.9648633003234863,-0.5746083855628967,9.7605619430542,-0.030517578125,0.091552734375,-0.213623046875
3.1424999000000002,0.9558850526809692,-0.5578489899635315,9.775525093078613,-0.06103515625,0.67138671875,-0.152587890625
3.1474999,0.9445125460624695,-0.5524620413780212,9.777320861816406,0,0.396728515625,-0.213623046875
3.1524999,0.9319429993629456,-0.5560533404350281,9.780912399291992,-0.030517578125,0.30517578125,-0.244140625
3.1574999000000004,0.9271546006202698,-0.5656301379203796,9.784503936767578,0.06103515625,0.213623046875,-0.274658203125
3.1624999000000003,0.9199720025062561,-0.5752069354057312,9.7791166305542,0.152587890625,-0.18310546875,-0.213623046875
3.1674999,0.9271546006202698,-0.5793967843055725,9.783307075500488,0.091552734375,-0.518798828125,-0.335693359375
3.1724999,0.93254154920578,-0.5764040350914001,9.780313491821289,-0.030517578125,-0.396728515625,-0.18310546875
3.1774999000000004,0.93254154920578,-0.5764040350914001,9.780313491821289,-0.030517578125,-0.396728515625,-0.18310546875
3.1824999000000003,0.9415197968482971,-0.5710170865058899,9.77253246307373,-0.06103515625,-0.54931640625,-0.091552734375
3.1874999,0.9546879529953003,-0.5674257874488831,9.773131370544434,0.030517578125,-0.518798828125,-0.335693359375
3.1924999,0.9612720012664795,-0.5620388388633728,9.762955665588379,0.1220703125,-0.274658203125,-0.3662109375
3.1974999000000004,0.970848798751831,-0.557250440120697,9.765948295593262,0.030517578125,0.06103515625,-0.30517578125
3.2024999000000003,0.9516952037811279,-0.5656301379203796,9.768342971801758,0.091552734375,0.1220703125,-0.30517578125
3.2074999,0.9427168965339661,-0.5656301379203796,9.770736694335938,0.244140625,0.091552734375,-0.213623046875
3.2124999,0.9409212470054626,-0.5632359385490417,9.771934509277344,-0.06103515625,0.18310546875,-0.244140625
3.2174999,0.945111095905304,-0.5608417391777039,9.780313491821289,-0.091552734375,0.274658203125,-0.48828125
3.2224999000000003,0.9415197968482971,-0.5608417391777039,9.77133560180664,0,-0.06103515625,-0.30517578125
3.2274999,0.9516952037811279,-0.5650315880775452,9.778518676757812,-0.030517578125,-0.091552734375,-0.213623046875
3.2324999,0.9540894031524658,-0.568622887134552,9.774328231811523,-0.091552734375,-0.06103515625,-0.244140625
3.2374999,0.9564836025238037,-0.5710170865058899,9.771934509277344,0.06103515625,-0.091552734375,-0.244140625
3.2424999000000003,0.9558850526809692,-0.5668272376060486,9.7605619430542,-0.06103515625,-0.1220703125,-0.18310546875
3.2474999,0.9540894031524658,-0.5674257874488831,9.759963035583496,0.06103515625,-0.213623046875,-0.244140625
3.2524999,0.9546879529953003,-0.569819986820221,9.768342971801758,-0.06103515625,-0.1220703125,-0.06103515625
3.2574999,0.9487023949623108,-0.5728127360343933,9.765948295593262,-0.030517578125,-0.06103515625,0.06103515625
3.2624999000000003,0.9522937536239624,-0.5776011347770691,9.766547203063965,0.152587890625,0.06103515625,-0.274658203125
3.2674999000000002,0.9552865028381348,-0.578798234462738,9.751583099365234,0.030517578125,0.30517578125,-0.274658203125
3.2724999,0.9678560495376587,-0.578798234462738,9.75517463684082,0,0.701904296875,-0.213623046875
3.2774999,0.9888052940368652,-0.5740098357200623,9.750386238098145,0.152587890625,1.312255859375,-0.213623046875
3.2824999000000004,1.0031704902648926,-0.569819986820221,9.75278091430664,0.1220703125,1.46484375,-0.152587890625
3.2874999000000003,1.0211269855499268,-0.5662286877632141,9.758766174316406,0,2.13623046875,-0.30517578125
3.2924999,1.0103530883789062,-0.5602431893348694,9.751583099365234,0,1.953125,-0.18310546875
3.2974999,1.0001777410507202,-0.557250440120697,9.75936508178711,0.213623046875,1.922607421875,-0.18310546875
3.3024999000000004,0.9355342984199524,-0.547075092792511,9.774927139282227,0.030517578125,1.220703125,-0.3662109375
3.3074999000000003,0.8990227580070496,-0.5452794432640076,9.781511306762695,-0.091552734375,0.8544921875,-0.213623046875
3.3124999,0.8661024570465088,-0.5488707423210144,9.780912399291992,-0.091552734375,0.396728515625,-0.091552734375
3.3174999,0.8523358106613159,-0.557250440120697,9.78869342803955,-0.091552734375,0.1220703125,-0.3662109375
3.3224999000000004,0.8529343605041504,-0.5638344883918762,9.783905029296875,0.030517578125,-0.244140625,-0.3662109375
3.3274999000000003,0.8678981065750122,-0.5632359385490417,9.783307075500488,0.091552734375,-0.396728515625,-0.244140625
3.3324999,0.8930372595787048,-0.5596446394920349,9.778518676757812,-0.030517578125,-0.3662109375,-0.274658203125
3.3374999,0.910993754863739,-0.5536591410636902,9.774328231811523,0,-0.48828125,-0.274658203125
3.3424999,0.9307458996772766,-0.5554547905921936,9.77253246307373,-0.030517578125,-0.30517578125,-0.335693359375
3.3474999000000003,0.9373299479484558,-0.5608417391777039,9.764751434326172,0.030517578125,-0.457763671875,-0.244140625
3.3524999,0.9421183466911316,-0.5704185366630554,9.765948295593262,0.06103515625,-0.396728515625,-0.152587890625
3.3574999,0.945111095905304,-0.5764040350914001,9.768941879272461,-0.030517578125,-0.42724609375,-0.335693359375
3.3624999,0.9672574996948242,-0.5710170865058899,9.777320861816406,-0.1220703125,-0.06103515625,-0.640869140625
3.3674999000000003,0.9684545993804932,-0.5716156363487244,9.771934509277344,0.06103515625,0.091552734375,-0.244140625
3.3724999,0.9786299467086792,-0.5722141861915588,9.776124000549316,0.18310546875,-0.030517578125,-0.030517578125
3.3774999,0.9828197956085205,-0.5632359385490417,9.767744064331055,0.18310546875,0.640869140625,0.213623046875
3.3824999,0.983418345451355,-0.5626373887062073,9.761159896850586,0.06103515625,1.129150390625,-0.06103515625
3.3874999000000003,0.9846154451370239,-0.5626373887062073,9.7605619430542,-0.06103515625,1.739501953125,-0.30517578125
3.3924999000000002,0.9678560495376587,-0.5680243372917175,9.757569313049316,0.244140625,2.044677734375,-0.091552734375
3.3974999,0.9445125460624695,-0.5722141861915588,9.762357711791992,0.274658203125,1.800537109375,-0.274658203125
3.4024999,0.921169102191925,-0.5650315880775452,9.777320861816406,0.030517578125,1.556396484375,-0.457763671875
3.4074999000000004,0.8912416100502014,-0.5530605912208557,9.7791166305542,0.06103515625,1.03759765625,-0.06103515625
3.4124999000000003,0.872686505317688,-0.5476736426353455,9.79647445678711,-0.06103515625,0,-0.3662109375
3.4174999,0.8744821548461914,-0.5566518902778625,9.793481826782227,0.091552734375,-0.3662109375,-0.244140625
3.4224999,0.8918401598930359,-0.5656301379203796,9.78869342803955,0.091552734375,-0.518798828125,-0.30517578125
3.4274999000000004,0.9056068062782288,-0.5662286877632141,9.77133560180664,0.091552734375,-0.79345703125,-0.213623046875
3.4324999000000003,0.9289502501487732,-0.5614402890205383,9.768342971801758,0,-0.762939453125,-0.213623046875
3.4374999,0.9457096457481384,-0.5560533404350281,9.761159896850586,-0.06103515625,-0.42724609375,-0.213623046875
3.4424999,0.9588778018951416,-0.5566518902778625,9.756970405578613,0.091552734375,-0.152587890625,-0.213623046875
3.4474999000000004,0.9696516990661621,-0.5638344883918762,9.758766174316406,0.152587890625,0.152587890625,-0.335693359375
3.4524999000000003,0.9678560495376587,-0.5704185366630554,9.75397777557373,0.091552734375,0.274658203125,-0.30517578125
3.4574999,0.9624691009521484,-0.5734112858772278,9.7605619430542,0.213623046875,0.274658203125,-0.1220703125
3.4624999,0.9475052952766418,-0.5716156363487244,9.75637149810791,0.1220703125,0.213623046875,-0.3662109375
3.4674999,0.93254154920578,-0.5662286877632141,9.764751434326172,0,0.091552734375,-0.335693359375
3.4724999000000003,0.9175778031349182,-0.557250440120697,9.77013874053955,0.030517578125,-0.152587890625,-0.335693359375
3.4774999,0.9235633015632629,-0.558447539806366,9.756970405578613,-0.030517578125,-0.030517578125,-0.213623046875
3.4824999,0.9391255974769592,-0.5614402890205383,9.752182006835938,-0.06103515625,0.06103515625,-0.18310546875
3.4874999,0.9546879529953003,-0.5668272376060486,9.753378868103027,0.030517578125,0.18310546875,-0.3662109375
3.4924999000000003,0.9528923034667969,-0.569819986820221,9.748590469360352,0.1220703125,0.274658203125,-0.18310546875
3.4974999,0.9493009448051453,-0.5746083855628967,9.7605619430542,0.06103515625,0.213623046875,-0.18310546875
3.5024999,0.933738648891449,-0.568622887134552,9.767744064331055,0.244140625,0.152587890625,-0.274658203125
3.5074999,0.9187749028205872,-0.5674257874488831,9.769539833068848,0.18310546875,0.06103515625,-0.18310546875
3.5124999000000003,0.9133879542350769,-0.5614402890205383,9.778518676757812,0,-0.030517578125,-0.335693359375
3.5174999000000002,0.9097966551780701,-0.5638344883918762,9.770736694335938,-0.1220703125,-0.152587890625,-0.213623046875
3.5224999,0.9534908533096313,-0.5764040350914001,9.764153480529785,0.06103515625,0.518798828125,-0.274658203125
3.5274999,0.961870551109314,-0.5734112858772278,9.758766174316406,0.091552734375,0.762939453125,-0.213623046875
3.5324999000000004,0.9690531492233276,-0.5674257874488831,9.761159896850586,0.091552734375,0.9765625,-0.274658203125
3.5374999000000003,0.9684545993804932,-0.5638344883918762,9.762357711791992,0.1220703125,1.0986328125,0.030517578125
3.5424999,0.960673451423645,-0.5620388388633728,9.767744064331055,-0.06103515625,1.0986328125,-0.06103515625
3.5474999,0.9487023949623108,-0.5632359385490417,9.774328231811523,-0.091552734375,1.068115234375,-0.152587890625
3.5524999000000004,0.9259575009346008,-0.5668272376060486,9.77791976928711,0.06103515625,0.640869140625,-0.152587890625
3.5574999000000003,0.9074024558067322,-0.5722141861915588,9.78869342803955,0.152587890625,0.244140625,-0.091552734375
3.5624999,0.8882488012313843,-0.5728127360343933,9.783307075500488,0.1220703125,-0.091552734375,-0.30517578125
3.5674999,0.8822633028030396,-0.569819986820221,9.783307075500488,0.1220703125,-0.335693359375,-0.30517578125
3.5724999000000004,0.9427168965339661,-0.5674257874488831,9.759963035583496,0.152587890625,-0.213623046875,-0.1220703125
3.5774999000000003,0.9498994946479797,-0.5662286877632141,9.764153480529785,0.06103515625,0,-0.335693359375
3.5824999,0.9469067454338074,-0.5596446394920349,9.764153480529785,0.06103515625,-0.18310546875,-0.1220703125
3.5874999,0.9516952037811279,-0.5554547905921936,9.774927139282227,-0.030517578125,-0.1220703125,-0.06103515625
3.5924999,0.9481038451194763,-0.5530605912208557,9.771934509277344,-0.030517578125,-0.091552734375,-0.274658203125
3.5974999000000003,0.945111095905304,-0.5554547905921936,9.770736694335938,0.06103515625,0.030517578125,-0.244140625
3.6024999,0.9421183466911316,-0.5500678420066833,9.767744064331055,0,0.457763671875,-0.213623046875
3.6074999,0.9361328482627869,-0.5488707423210144,9.765948295593262,0.06103515625,0.457763671875,-0.213623046875
3.6124999,0.9367313981056213,-0.5554547905921936,9.77133560180664,0.091552734375,0.518798828125,-0.30517578125
3.6174999000000003,0.9265560507774353,-0.5602431893348694,9.767146110534668,0.1220703125,0.3662109375,-0.18310546875
3.6224999,0.9241618514060974,-0.5638344883918762,9.776124000549316,0.030517578125,0.3662109375,-0.244140625
3.6274999,0.9115923047065735,-0.5638344883918762,9.777320861816406,0.091552734375,0,-0.244140625
3.6324999,0.9056068062782288,-0.5638344883918762,9.783307075500488,0.091552734375,-0.396728515625,-0.213623046875
3.6374999000000003,0.9097966551780701,-0.5662286877632141,9.785700798034668,0.091552734375,-0.48828125,-0.213623046875
3.6424999000000002,0.9139865040779114,-0.5680243372917175,9.779715538024902,0,-0.335693359375,-0.274658203125
3.6474999,0.9313444495201111,-0.568622887134552,9.7791166305542,-0.030517578125,-0.213623046875,-0.3662109375
3.6524999,0.9403226971626282,-0.5680243372917175,9.768941879272461,0.030517578125,-0.274658203125,-0.335693359375
3.6574999000000004,0.9510966539382935,-0.5656301379203796,9.767744064331055,0.030517578125,-0.091552734375,-0.244140625
3.6624999000000003,0.9564836025238037,-0.5638344883918762,9.767744064331055,0.091552734375,0.06103515625,-0.152587890625
3.6674999,0.9475052952766418,-0.5578489899635315,9.762955665588379,-0.030517578125,0.244140625,-0.274658203125
3.6724999,0.9421183466911316,-0.5590460896492004,9.769539833068848,-0.030517578125,0.1220703125,-0.18310546875
3.6774999000000004,0.9367313981056213,-0.5590460896492004,9.767744064331055,-0.1220703125,0.30517578125,-0.244140625
3.6824999000000003,0.9271546006202698,-0.5626373887062073,9.774328231811523,0.152587890625,0,-0.152587890625
3.6874999,0.9235633015632629,-0.5632359385490417,9.767744064331055,0.06103515625,0,-0.091552734375
3.6924999,0.9271546006202698,-0.5632359385490417,9.773730278015137,-0.030517578125,0.1220703125,-0.1220703125
3.6974999000000004,0.9313444495201111,-0.5662286877632141,9.773131370544434,0,0.091552734375,-0.244140625
3.7024999000000003,0.9289502501487732,-0.5650315880775452,9.764153480529785,0.06103515625,0.030517578125,-0.274658203125
3.7074999,0.933738648891449,-0.5680243372917175,9.768941879272461,0.030517578125,0.18310546875,-0.335693359375
3.7124999,0.9283517003059387,-0.5680243372917175,9.757569313049316,0,-0.030517578125,-0.18310546875
3.7174999,0.9241618514060974,-0.5650315880775452,9.758766174316406,0.152587890625,-0.1220703125,-0.30517578125
3.7224999000000003,0.9259575009346008,-0.5620388388633728,9.768342971801758,-0.06103515625,0,-0.152587890625
3.7274999,0.922366201877594,-0.5620388388633728,9.763554573059082,0.030517578125,0,-0.091552734375
3.7324999,0.9265560507774353,-0.5632359385490417,9.769539833068848,0.030517578125,-0.030517578125,-0.244140625
3.7374999,0.9307458996772766,-0.5638344883918762,9.762357711791992,0.030517578125,0.091552734375,-0.30517578125
3.7424999000000003,0.9307458996772766,-0.5644330382347107,9.751583099365234,-0.030517578125,-0.091552734375,-0.213623046875
3.7474999,0.9481038451194763,-0.5680243372917175,9.773730278015137,0,-0.030517578125,-0.3662109375
3.7524999,0.9487023949623108,-0.5692214369773865,9.773730278015137,0.06103515625,0.18310546875,-0.244140625
3.7574999,0.9498994946479797,-0.5734112858772278,9.781511306762695,0.1220703125,-0.1220703125,-0.274658203125
3.7624999000000003,0.9355342984199524,-0.5560533404350281,9.7605619430542,-0.213623046875,0.030517578125,-0.30517578125
3.7674999000000002,0.9409212470054626,-0.5626373887062073,9.773131370544434,0.274658203125,0.30517578125,-0.06103515625
3.7724999,0.9331400990486145,-0.5716156363487244,9.762357711791992,0.1220703125,0.335693359375,-0.152587890625
3.7774999,0.9295487999916077,-0.5722141861915588,9.758167266845703,0.1220703125,0.244140625,-0.3662109375
3.7824999000000004,0.9259575009346008,-0.5662286877632141,9.762357711791992,0.06103515625,0.335693359375,-0.30517578125
3.7874999000000003,0.9175778031349182,-0.5548562407493591,9.75637149810791,-0.030517578125,0.30517578125,-0.091552734375
3.7924999,0.9175778031349182,-0.5548562407493591,9.75637149810791,-0.030517578125,0.30517578125,-0.091552734375
3.7974999,0.9115923047065735,-0.5530605912208557,9.762955665588379,-0.030517578125,0.091552734375,-0.244140625
3.8024999000000004,0.9074024558067322,-0.5554547905921936,9.761758804321289,-0.06103515625,-0.091552734375,-0.30517578125
3.8074999000000003,0.9056068062782288,-0.5626373887062073,9.767146110534668,0.06103515625,-0.152587890625,-0.18310546875
3.8124999,0.9139865040779114,-0.5704185366630554,9.774927139282227,0.06103515625,-0.213623046875,-0.3662109375
3.8174999,0.922366201877594,-0.5710170865058899,9.770736694335938,0.091552734375,-0.54931640625,-0.213623046875
3.8224999000000004,0.9493009448051453,-0.568622887134552,9.769539833068848,0.030517578125,-0.213623046875,-0.18310546875
3.8274999000000003,0.9582792520523071,-0.5662286877632141,9.765948295593262,0.091552734375,-0.213623046875,-0.274658203125
3.8324999,0.9666589498519897,-0.5662286877632141,9.768941879272461,-0.06103515625,0.030517578125,-0.274658203125
3.8374999,0.9654618501663208,-0.5662286877632141,9.759963035583496,0,0.274658203125,-0.213623046875
3.8424999,0.933738648891449,-0.5650315880775452,9.765948295593262,0.030517578125,0.457763671875,-0.030517578125
3.8474999000000003,0.9169792532920837,-0.5680243372917175,9.769539833068848,0.030517578125,0.54931640625,-0.274658203125
3.8524999,0.8942343592643738,-0.5662286877632141,9.764751434326172,-0.030517578125,0.30517578125,-0.30517578125
3.8574999,0.8864531517028809,-0.5650315880775452,9.77133560180664,0.030517578125,0.030517578125,-0.18310546875
3.8624999,0.8798691034317017,-0.5620388388633728,9.767744064331055,0.091552734375,-0.06103515625,-0.213623046875
3.8674999000000003,0.8858546018600464,-0.5602431893348694,9.767744064331055,0.091552734375,-0.3662109375,-0.152587890625
3.8724999,0.9133879542350769,-0.5656301379203796,9.764751434326172,0.030517578125,-0.518798828125,-0.213623046875
3.8774999,0.9373299479484558,-0.5710170865058899,9.774328231811523,0.030517578125,-0.42724609375,-0.244140625
3.8824999,0.9498994946479797,-0.5734112858772278,9.767744064331055,0,-0.48828125,-0.244140625
3.8874999000000003,0.9612720012664795,-0.5722141861915588,9.77013874053955,-0.030517578125,-0.335693359375,-0.244140625
3.8924999000000002,0.9696516990661621,-0.569819986820221,9.77133560180664,0.030517578125,0,-0.274658203125
3.8974999,0.9624691009521484,-0.5638344883918762,9.762955665588379,0.06103515625,0.1220703125,-0.213623046875
3.9024999,0.9612720012664795,-0.5608417391777039,9.77133560180664,-0.06103515625,0.30517578125,-0.244140625
3.9074999000000004,0.9481038451194763,-0.5596446394920349,9.765350341796875,-0.1220703125,0.457763671875,-0.244140625
3.9124999000000003,0.9379284977912903,-0.5596446394920349,9.771934509277344,0.030517578125,0.3662109375,-0.030517578125
3.9174999,0.9265560507774353,-0.5632359385490417,9.770736694335938,0.091552734375,0.457763671875,-0.274658203125
3.9224999,0.910993754863739,-0.5644330382347107,9.77013874053955,0.06103515625,0.42724609375,-0.30517578125
3.9274999000000004,0.8960300087928772,-0.5674257874488831,9.765350341796875,0.030517578125,0.06103515625,-0.244140625
3.9324999000000003,0.9020155072212219,-0.568622887134552,9.77013874053955,0,-0.152587890625,-0.18310546875
3.9374999,0.9139865040779114,-0.5704185366630554,9.770736694335938,-0.06103515625,-0.152587890625,-0.274658203125
3.9424999,0.9271546006202698,-0.5716156363487244,9.774927139282227,0,-0.244140625,-0.244140625
3.9474999000000004,0.9469067454338074,-0.5740098357200623,9.783905029296875,0,-0.18310546875,-0.3662109375
3.9524999000000003,0.9546879529953003,-0.5728127360343933,9.77791976928711,-0.091552734375,-0.30517578125,-0.335693359375
3.9574999,0.961870551109314,-0.569819986820221,9.780912399291992,-0.091552734375,-0.274658203125,-0.30517578125
3.9624999,0.961870551109314,-0.5662286877632141,9.77791976928711,0,-0.091552734375,-0.30517578125
3.9674999000000004,0.9534908533096313,-0.5602431893348694,9.771934509277344,0.06103515625,-0.091552734375,-0.244140625
3.9724999000000003,0.950498104095459,-0.5602431893348694,9.77672290802002,-0.1220703125,0.152587890625,-0.18310546875
3.9774999,0.9367313981056213,-0.5596446394920349,9.765948295593262,0.06103515625,0.3662109375,-0.213623046875
3.9824999,0.9313444495201111,-0.5632359385490417,9.765948295593262,0.1220703125,0.3662109375,-0.244140625
3.9874999,0.9145850539207458,-0.5602431893348694,9.768941879272461,-0.030517578125,0.42724609375,-0.274658203125
3.9924999000000003,0.9145850539207458,-0.5602431893348694,9.768941879272461,-0.030517578125,0.42724609375,-0.274658203125
3.9974999,0.9074024558067322,-0.5602431893348694,9.768342971801758,-0.06103515625,0.06103515625,-0.274658203125
4.0024999,0.9259575009346008,-0.5632359385490417,9.779715538024902,-0.06103515625,-0.396728515625,-0.335693359375
4.0074999,0.9301473498344421,-0.5626373887062073,9.769539833068848,-0.030517578125,-0.42724609375,-0.213623046875
4.0124999,0.9433154463768005,-0.5632359385490417,9.774328231811523,0,-0.3662109375,-0.1220703125
4.0174999,0.950498104095459,-0.5626373887062073,9.77013874053955,0.152587890625,-0.18310546875,-0.335693359375
4.022499900000001,0.9534908533096313,-0.5638344883918762,9.769539833068848,0.06103515625,-0.213623046875,-0.18310546875
4.0274999000000005,0.9558850526809692,-0.5596446394920349,9.774927139282227,-0.06103515625,0.030517578125,-0.274658203125
4.0324999,0.943913996219635,-0.5602431893348694,9.771934509277344,0.030517578125,0.396728515625,-0.1220703125
4.0374999,0.9367313981056213,-0.5626373887062073,9.766547203063965,-0.091552734375,0.3662109375,-0.213623046875
4.0424999,0.9283517003059387,-0.5614402890205383,9.766547203063965,0,0.335693359375,-0.213623046875
4.0474999,0.9265560507774353,-0.5596446394920349,9.77253246307373,0.030517578125,0.48828125,-0.30517578125
4.0524999,0.9205705523490906,-0.5608417391777039,9.773730278015137,0,0.244140625,-0.30517578125
4.0574999,0.921169102191925,-0.5626373887062073,9.782109260559082,0.030517578125,-0.030517578125,-0.244140625
4.062499900000001,0.9235633015632629,-0.5680243372917175,9.782708168029785,-0.06103515625,-0.030517578125,-0.18310546875
4.0674999000000005,0.9235633015632629,-0.5704185366630554,9.7791166305542,-0.06103515625,-0.18310546875,-0.152587890625
4.0724999,0.9319429993629456,-0.5704185366630554,9.77791976928711,0.06103515625,-0.396728515625,-0.335693359375
4.0774999,0.93254154920578,-0.5656301379203796,9.766547203063965,0.06103515625,-0.457763671875,-0.244140625
4.0824999,0.9481038451194763,-0.5704185366630554,9.764751434326172,0.152587890625,0.30517578125,-0.18310546875
4.0874999,0.9397241473197937,-0.5644330382347107,9.758766174316406,0.030517578125,0.3662109375,-0.18310546875
4.0924999,0.9313444495201111,-0.5578489899635315,9.761159896850586,0.030517578125,0.274658203125,-0.30517578125
4.0974999,0.9271546006202698,-0.5506663918495178,9.765350341796875,0.030517578125,0.3662109375,-0.244140625
4.1024999,0.9199720025062561,-0.547075092792511,9.767744064331055,-0.030517578125,0.213623046875,-0.091552734375
4.1074999000000005,0.9259575009346008,-0.5500678420066833,9.782109260559082,-0.06103515625,0.06103515625,-0.152587890625
4.1124999,0.922366201877594,-0.5536591410636902,9.782708168029785,0.06103515625,0.030517578125,-0.152587890625
4.1174999,0.9259575009346008,-0.5596446394920349,9.786897659301758,0.030517578125,-0.152587890625,-0.213623046875
4.1224999,0.9247604012489319,-0.5632359385490417,9.783307075500488,0.030517578125,-0.1220703125,-0.244140625
4.1274999,0.922366201877594,-0.5644330382347107,9.773730278015137,-0.091552734375,-0.244140625,-0.30517578125
4.1324999,0.933738648891449,-0.5602431893348694,9.770736694335938,-0.06103515625,-0.091552734375,-0.274658203125
4.1374999,0.9385270476341248,-0.5626373887062073,9.768941879272461,-0.06103515625,0.091552734375,-0.30517578125
4.1424999,0.9361328482627869,-0.5650315880775452,9.764751434326172,0.06103515625,0.091552734375,-0.1220703125
4.147499900000001,0.9403226971626282,-0.568622887134552,9.77133560180664,-0.06103515625,0.30517578125,-0.091552734375
4.1524999000000005,0.9319429993629456,-0.5668272376060486,9.765948295593262,0,0.335693359375,-0.18310546875
4.1574999,0.9271546006202698,-0.5644330382347107,9.77013874053955,0.1220703125,0.274658203125,-0.1220703125
4.1624999,0.9193734526634216,-0.5644330382347107,9.77133560180664,-0.030517578125,0.335693359375,-0.213623046875
4.1674999,0.9080010056495667,-0.5626373887062073,9.767146110534668,0.030517578125,0.091552734375,-0.18310546875
4.1724999,0.9103952050209045,-0.5650315880775452,9.773730278015137,-0.030517578125,0.213623046875,-0.274658203125
4.1774999,0.9085995554924011,-0.5644330382347107,9.767146110534668,0.091552734375,0.06103515625,-0.152587890625
4.1824999,0.9151836037635803,-0.5650315880775452,9.765350341796875,-0.030517578125,-0.06103515625,-0.244140625
4.187499900000001,0.9510966539382935,-0.5668272376060486,9.773730278015137,0,0.274658203125,-0.213623046875
4.1924999000000005,0.943913996219635,-0.5680243372917175,9.77013874053955,0,0.18310546875,-0.18310546875
4.1974999,0.9427168965339661,-0.569819986820221,9.777320861816406,0.152587890625,0.3662109375,-0.274658203125
4.2024999,0.9361328482627869,-0.5680243372917175,9.776124000549316,0,0.274658203125,-0.30517578125
4.2074999,0.9277531504631042,-0.5674257874488831,9.773730278015137,0.06103515625,0.18310546875,-0.335693359375
4.2124999,0.9259575009346008,-0.5668272376060486,9.776124000549316,-0.030517578125,0.1220703125,-0.244140625
4.2174999,0.9277531504631042,-0.5734112858772278,9.7605619430542,0.06103515625,-0.335693359375,-0.1220703125
4.2224999,0.9379284977912903,-0.5722141861915588,9.762357711791992,0,-0.213623046875,-0.244140625
4.2274999,0.9379284977912903,-0.569819986820221,9.758167266845703,0,-0.091552734375,-0.18310546875
4.2324999000000005,0.9457096457481384,-0.5650315880775452,9.764751434326172,-0.030517578125,0,-0.18310546875
4.2374999,0.9469067454338074,-0.5626373887062073,9.764751434326172,-0.030517578125,0.152587890625,-0.213623046875
4.2424999,0.9427168965339661,-0.5638344883918762,9.7605619430542,0.030517578125,0.213623046875,-0.244140625
4.2474999,0.9403226971626282,-0.5662286877632141,9.765350341796875,-0.06103515625,0.274658203125,-0.244140625
4.2524999,0.9361328482627869,-0.5680243372917175,9.7605619430542,-0.06103515625,0.30517578125,-0.1220703125
4.2574999,0.9343371987342834,-0.5656301379203796,9.767744064331055,0.06103515625,0.213623046875,-0.42724609375
4.2624999,0.9295487999916077,-0.5650315880775452,9.768941879272461,0.06103515625,-0.030517578125,-0.091552734375
4.2674999,0.9331400990486145,-0.5644330382347107,9.7791166305542,0,-0.091552734375,-0.152587890625
4.272499900000001,0.9283517003059387,-0.5656301379203796,9.777320861816406,0,-0.06103515625,-0.18310546875
4.2774999000000005,0.9295487999916077,-0.5674257874488831,9.782109260559082,0.030517578125,-0.1220703125,-0.1220703125
4.2824999,0.9289502501487732,-0.5674257874488831,9.783307075500488,-0.152587890625,-0.091552734375,-0.18310546875
4.2874999,0.9283517003059387,-0.5656301379203796,9.774927139282227,-0.091552734375,-0.274658203125,-0.152587890625
4.2924999,0.9343371987342834,-0.5638344883918762,9.77672290802002,0,-0.030517578125,-0.18310546875
4.2974999,0.9373299479484558,-0.5596446394920349,9.768342971801758,-0.152587890625,0,-0.152587890625
4.3024999,0.9391255974769592,-0.5560533404350281,9.765350341796875,-0.030517578125,0,-0.091552734375
4.3074999,0.9445125460624695,-0.5554547905921936,9.766547203063965,0.030517578125,0.091552734375,-0.274658203125
4.312499900000001,0.9379284977912903,-0.5536591410636902,9.763554573059082,0.06103515625,0,-0.1220703125
4.3174999000000005,0.9385270476341248,-0.5596446394920349,9.77133560180664,0,0.244140625,-0.152587890625
4.3224999,0.9313444495201111,-0.5608417391777039,9.77013874053955,0.06103515625,0.335693359375,-0.213623046875
4.3274999,0.9283517003059387,-0.5566518902778625,9.762357711791992,0,0.152587890625,-0.244140625
4.3324999,0.9313444495201111,-0.5560533404350281,9.767744064331055,0,0,-0.30517578125
4.3374999,0.9265560507774353,-0.557250440120697,9.759963035583496,0.18310546875,-0.152587890625,-0.091552734375
4.3424999,0.9271546006202698,-0.5608417391777039,9.766547203063965,0,-0.152587890625,-0.244140625
4.3474999,0.9277531504631042,-0.5638344883918762,9.765350341796875,0.030517578125,-0.152587890625,-0.244140625
4.352499900000001,0.9253589510917664,-0.5662286877632141,9.767146110534668,0.06103515625,-0.244140625,-0.244140625
4.3574999000000005,0.9301473498344421,-0.5692214369773865,9.773730278015137,0.06103515625,0,-0.274658203125
4.3624999,0.9277531504631042,-0.5722141861915588,9.770736694335938,0.213623046875,-0.091552734375,-0.152587890625
4.3674999,0.9373299479484558,-0.5758054852485657,9.77133560180664,-0.06103515625,0.30517578125,-0.152587890625
4.3724999,0.9391255974769592,-0.5734112858772278,9.765350341796875,0.030517578125,0.30517578125,-0.213623046875
4.3774999,0.9487023949623108,-0.568622887134552,9.77133560180664,0.030517578125,0.42724609375,-0.244140625
4.3824999,0.9487023949623108,-0.568622887134552,9.77133560180664,0.030517578125,0.42724609375,-0.244140625
4.3874999,0.943913996219635,-0.5626373887062073,9.769539833068848,-0.030517578125,0.152587890625,-0.30517578125
4.3924999,0.9469067454338074,-0.5596446394920349,9.77791976928711,-0.030517578125,0.213623046875,-0.152587890625
4.397499900000001,0.9385270476341248,-0.5596446394920349,9.779715538024902,-0.030517578125,0.244140625,-0.274658203125
4.4024999000000005,0.9313444495201111,-0.5614402890205383,9.776124000549316,0,0.06103515625,-0.244140625
4.4074999,0.9283517003059387,-0.5638344883918762,9.77672290802002,-0.06103515625,-0.030517578125,-0.18310546875
4.4124999,0.9235633015632629,-0.5638344883918762,9.765948295593262,0.06103515625,-0.1220703125,-0.152587890625
4.4174999,0.9283517003059387,-0.5626373887062073,9.766547203063965,0.06103515625,-0.18310546875,-0.244140625
4.4224999,0.933738648891449,-0.557250440120697,9.762955665588379,-0.1220703125,-0.1220703125,-0.274658203125
4.4274999,0.9403226971626282,-0.5494692921638489,9.764751434326172,-0.06103515625,0.030517578125,-0.274658203125
4.4324999,0.9403226971626282,-0.5494692921638489,9.764751434326172,-0.06103515625,0.030517578125,-0.274658203125
4.437499900000001,0.943913996219635,-0.5518634915351868,9.774927139282227,0.030517578125,0,-0.18310546875
4.4424999000000005,0.9391255974769592,-0.5530605912208557,9.771934509277344,0.06103515625,-0.06103515625,-0.152587890625
4.4474999,0.9379284977912903,-0.5566518902778625,9.773131370544434,0.091552734375,-0.06103515625,-0.244140625
4.4524999,0.9367313981056213,-0.5626373887062073,9.777320861816406,0.06103515625,0.213623046875,-0.274658203125
4.4574999,0.9307458996772766,-0.5674257874488831,9.77133560180664,-0.030517578125,0.30517578125,-0.274658203125
4.4624999,0.9319429993629456,-0.5722141861915588,9.7791166305542,0.030517578125,0.18310546875,-0.152587890625
4.4674999,0.9283517003059387,-0.5728127360343933,9.776124000549316,0,-0.030517578125,-0.213623046875
4.4724999,0.9271546006202698,-0.5722141861915588,9.77791976928711,0.152587890625,-0.06103515625,-0.213623046875
4.477499900000001,0.9307458996772766,-0.5692214369773865,9.780313491821289,0.1220703125,0,-0.244140625
4.4824999000000005,0.9259575009346008,-0.5614402890205383,9.757569313049316,0,-0.152587890625,-0.152587890625
4.4874999,0.9259575009346008,-0.5614402890205383,9.757569313049316,0,-0.152587890625,-0.152587890625
4.4924999,0.9373299479484558,-0.5656301379203796,9.77253246307373,0.030517578125,-0.06103515625,-0.18310546875
4.4974999,0.9355342984199524,-0.5644330382347107,9.771934509277344,0,-0.030517578125,-0.213623046875
4.5024999,0.9433154463768005,-0.5644330382347107,9.77672290802002,0,-0.030517578125,-0.396728515625
4.5074999,0.9487023949623108,-0.5602431893348694,9.781511306762695,0.06103515625,0.06103515625,-0.3662109375
4.5124999,0.9427168965339661,-0.5554547905921936,9.77133560180664,0.1220703125,0.152587890625,-0.091552734375
4.5174999,0.9469067454338074,-0.557250440120697,9.769539833068848,-0.06103515625,0.152587890625,-0.42724609375
4.522499900000001,0.9421183466911316,-0.5626373887062073,9.770736694335938,0,0.152587890625,-0.244140625
4.5274999000000005,0.9373299479484558,-0.5692214369773865,9.765350341796875,0.091552734375,0.274658203125,0
4.5324999,0.9301473498344421,-0.5722141861915588,9.758167266845703,0.1220703125,0.06103515625,-0.335693359375
4.5374999,0.9253589510917664,-0.5668272376060486,9.761159896850586,0,0.06103515625,-0.30517578125
4.5424999,0.9163807034492493,-0.5734112858772278,9.763554573059082,0.06103515625,-0.091552734375,-0.3662109375
4.5474999,0.9247604012489319,-0.5740098357200623,9.768342971801758,0.1220703125,-0.030517578125,-0.244140625
4.5524999,0.9319429993629456,-0.5680243372917175,9.765948295593262,0.06103515625,-0.091552734375,-0.1220703125
4.5574999,0.9421183466911316,-0.5638344883918762,9.768941879272461,0,-0.06103515625,-0.30517578125
4.562499900000001,0.9433154463768005,-0.5620388388633728,9.75936508178711,0,-0.091552734375,-0.274658203125
4.5674999000000005,0.943913996219635,-0.5626373887062073,9.757569313049316,0.18310546875,0.030517578125,-0.152587890625
4.5724999,0.943913996219635,-0.5650315880775452,9.756970405578613,-0.06103515625,0.244140625,-0.30517578125
4.5774999,0.9361328482627869,-0.5656301379203796,9.761159896850586,-0.030517578125,0.091552734375,-0.213623046875
4.5824999,0.9373299479484558,-0.5668272376060486,9.771934509277344,-0.091552734375,0.18310546875,-0.18310546875
4.5874999,0.9265560507774353,-0.5668272376060486,9.780912399291992,-0.06103515625,0.213623046875,-0.30517578125
4.5924999,0.9217676520347595,-0.5644330382347107,9.777320861816406,0,0.030517578125,-0.244140625
4.5974999,0.9199720025062561,-0.5596446394920349,9.777320861816406,0.06103515625,-0.1220703125,-0.1220703125
4.602499900000001,0.9241618514060974,-0.557250440120697,9.779715538024902,0.1220703125,0,-0.30517578125
4.6074999000000005,0.921169102191925,-0.5548562407493591,9.77253246307373,0.06103515625,-0.335693359375,-0.18310546875
4.6124999,0.9295487999916077,-0.5578489899635315,9.777320861816406,0,-0.18310546875,-0.244140625
4.6174999,0.9307458996772766,-0.5638344883918762,9.768342971801758,0.1220703125,-0.06103515625,-0.335693359375
4.6224999,0.9367313981056213,-0.5668272376060486,9.767744064331055,0.1220703125,-0.213623046875,-0.244140625
4.6274999,0.9433154463768005,-0.5674257874488831,9.766547203063965,-0.06103515625,0.030517578125,-0.396728515625
4.6324999,0.9421183466911316,-0.5626373887062073,9.761758804321289,-0.030517578125,-0.06103515625,-0.213623046875
4.6374999,0.945111095905304,-0.5566518902778625,9.767744064331055,-0.030517578125,0.152587890625,-0.152587890625
4.6424999,0.9415197968482971,-0.5530605912208557,9.764153480529785,-0.091552734375,0.213623046875,-0.18310546875
4.647499900000001,0.9355342984199524,-0.5518634915351868,9.767146110534668,0.06103515625,0.3662109375,-0.396728515625
4.6524999000000005,0.9241618514060974,-0.5542576909065247,9.762955665588379,0.091552734375,0.18310546875,-0.213623046875
4.6574999,0.9235633015632629,-0.5530605912208557,9.771934509277344,-0.030517578125,0.091552734375,-0.18310546875
4.6624999,0.9163807034492493,-0.5566518902778625,9.768342971801758,-0.030517578125,0.06103515625,-0.152587890625
4.6674999,0.9163807034492493,-0.5596446394920349,9.774328231811523,0.030517578125,0.06103515625,-0.18310546875
4.6724999,0.9193734526634216,-0.5632359385490417,9.773730278015137,-0.030517578125,0.06103515625,-0.18310546875
4.6774999,0.9199720025062561,-0.5656301379203796,9.767744064331055,0.06103515625,-0.1220703125,-0.1220703125
4.6824999,0.9289502501487732,-0.5674257874488831,9.775525093078613,0.06103515625,-0.1220703125,-0.213623046875
4.687499900000001,0.9319429993629456,-0.5674257874488831,9.77013874053955,-0.1220703125,-0.213623046875,-0.1220703125
4.6924999000000005,0.9373299479484558,-0.5692214369773865,9.77672290802002,0.030517578125,-0.152587890625,-0.244140625
4.6974999,0.9421183466911316,-0.5704185366630554,9.775525093078613,0.091552734375,-0.091552734375,-0.335693359375
4.7024999,0.943913996219635,-0.568622887134552,9.77253246307373,0.030517578125,-0.152587890625,-0.213623046875
4.7074999,0.9481038451194763,-0.5620388388633728,9.770736694335938,0.06103515625,0.152587890625,-0.274658203125
4.7124999,0.9427168965339661,-0.5590460896492004,9.767146110534668,0,0.335693359375,-0.18310546875
4.7174999,0.933738648891449,-0.5602431893348694,9.767744064331055,0.06103515625,0.152587890625,-0.213623046875
4.7224999,0.9169792532920837,-0.5626373887062073,9.768342971801758,0.091552734375,-0.030517578125,-0.244140625
4.727499900000001,0.9151836037635803,-0.5662286877632141,9.762357711791992,0.152587890625,-0.274658203125,-0.274658203125
4.7324999000000005,0.921169102191925,-0.5656301379203796,9.766547203063965,0.1220703125,-0.335693359375,-0.152587890625
4.7374999,0.9253589510917664,-0.5644330382347107,9.7605619430542,0.091552734375,-0.18310546875,-0.335693359375
4.7424999,0.933738648891449,-0.5596446394920349,9.779715538024902,-0.091552734375,-0.152587890625,-0.1220703125
4.7474999,0.943913996219635,-0.5548562407493591,9.777320861816406,-0.091552734375,0.152587890625,-0.1220703125
4.7524999,0.933738648891449,-0.5536591410636902,9.756970405578613,-0.030517578125,-0.335693359375,-0.335693359375
4.7574999,0.9510966539382935,-0.5590460896492004,9.765948295593262,-0.030517578125,0.18310546875,-0.30517578125
4.7624999,0.9403226971626282,-0.5620388388633728,9.743204116821289,0,0.091552734375,-0.1220703125
4.7674999,0.943913996219635,-0.569819986820221,9.747393608093262,-0.030517578125,0.091552734375,-0.274658203125
4.772499900000001,0.950498104095459,-0.5770025849342346,9.77013874053955,-0.06103515625,0.54931640625,-0.42724609375
4.7774999000000005,0.93254154920578,-0.579995334148407,9.7605619430542,0.06103515625,0.335693359375,-0.091552734375
4.7824999,0.9343371987342834,-0.5859808921813965,9.770736694335938,0.091552734375,0.3662109375,-0.3662109375
4.7874999,0.9241618514060974,-0.5811924338340759,9.768941879272461,0.213623046875,0.244140625,-0.42724609375
4.7924999,0.9169792532920837,-0.5746083855628967,9.77133560180664,0.244140625,0.030517578125,-0.030517578125
4.7974999,0.9091981053352356,-0.5596446394920349,9.780313491821289,-0.06103515625,-0.335693359375,-0.42724609375
4.8024999,0.9469067454338074,-0.5644330382347107,9.771934509277344,0.030517578125,-0.274658203125,-0.152587890625
4.8074999,0.9558850526809692,-0.5644330382347107,9.757569313049316,0.152587890625,-0.152587890625,-0.06103515625
4.812499900000001,0.9678560495376587,-0.5626373887062073,9.758167266845703,0,0.244140625,-0.396728515625
4.8174999000000005,0.9630676507949829,-0.5632359385490417,9.747393608093262,0.091552734375,0.457763671875,-0.152587890625
4.8224999,0.9576807022094727,-0.5620388388633728,9.745597839355469,0,0.42724609375,-0.030517578125
4.8274999,0.9493009448051453,-0.5620388388633728,9.749189376831055,0.030517578125,0.640869140625,-0.3662109375
4.8324999,0.9301473498344421,-0.558447539806366,9.749189376831055,0,0.640869140625,-0.244140625
4.8374999,0.9157821536064148,-0.5596446394920349,9.761159896850586,0,0.48828125,-0.1220703125
4.8424999,0.8816647529602051,-0.5632359385490417,9.779715538024902,0.030517578125,-0.213623046875,-0.244140625
4.8474999,0.8876502513885498,-0.5620388388633728,9.778518676757812,0.091552734375,-0.457763671875,-0.244140625
4.852499900000001,0.9080010056495667,-0.5644330382347107,9.780313491821289,0.06103515625,-0.396728515625,-0.244140625
4.8574999000000005,0.9229647517204285,-0.5614402890205383,9.773730278015137,0.091552734375,-0.48828125,-0.152587890625
4.8624999,0.9427168965339661,-0.5620388388633728,9.775525093078613,0.1220703125,-0.396728515625,-0.152587890625
4.8674999,0.9540894031524658,-0.5620388388633728,9.769539833068848,0,-0.244140625,-0.06103515625
4.8724999,0.9558850526809692,-0.5602431893348694,9.764751434326172,0.030517578125,-0.213623046875,-0.213623046875
4.8774999,0.9624691009521484,-0.5614402890205383,9.761758804321289,0.091552734375,0.18310546875,-0.274658203125
4.8824999,0.9540894031524658,-0.5608417391777039,9.75278091430664,0.06103515625,0.244140625,-0.152587890625
4.8874999,0.9522937536239624,-0.5596446394920349,9.756970405578613,0.06103515625,0.30517578125,-0.213623046875
4.8924999,0.9463081955909729,-0.558447539806366,9.756970405578613,0.06103515625,0.3662109375,-0.30517578125
4.897499900000001,0.9032126069068909,-0.5728127360343933,9.775525093078613,-0.030517578125,-0.091552734375,-0.274658203125
4.9024999000000005,0.9068039059638977,-0.5674257874488831,9.77253246307373,0,-0.457763671875,-0.1220703125
4.9074999,0.9199720025062561,-0.5626373887062073,9.774927139282227,0.091552734375,-0.396728515625,-0.274658203125
4.9124999,0.9253589510917664,-0.5578489899635315,9.770736694335938,0.06103515625,-0.457763671875,-0.18310546875
4.9174999,0.9397241473197937,-0.5578489899635315,9.774927139282227,-0.030517578125,-0.48828125,-0.213623046875
4.9224999,0.9516952037811279,-0.557250440120697,9.774328231811523,0.152587890625,-0.335693359375,-0.18310546875
4.9274999,0.9564836025238037,-0.5602431893348694,9.767146110534668,0.091552734375,0,-0.457763671875
4.9324999,0.9409212470054626,-0.568622887134552,9.768342971801758,0.06103515625,0.701904296875,-0.18310546875
4.937499900000001,0.9277531504631042,-0.5680243372917175,9.775525093078613,0,0.518798828125,-0.335693359375
4.9424999000000005,0.9085995554924011,-0.5668272376060486,9.761159896850586,-0.030517578125,0.244140625,-0.213623046875
4.9474999,0.9080010056495667,-0.5680243372917175,9.783307075500488,-0.030517578125,-0.152587890625,-0.091552734375
4.9524999,0.9157821536064148,-0.5692214369773865,9.79288387298584,-0.030517578125,0.30517578125,-0.152587890625
4.9574999,0.9026140570640564,-0.5668272376060486,9.769539833068848,0.152587890625,-0.54931640625,-0.152587890625
4.9624999,0.950498104095459,-0.5793967843055725,9.763554573059082,0.152587890625,0.091552734375,-0.457763671875
4.9674999,0.950498104095459,-0.5793967843055725,9.763554573059082,0.152587890625,0.091552734375,-0.457763671875
4.9724999,0.9457096457481384,-0.5758054852485657,9.764153480529785,-0.030517578125,0.30517578125,-0.213623046875
4.977499900000001,0.9391255974769592,-0.5716156363487244,9.765350341796875,-0.06103515625,0.42724609375,-0.18310546875
4.9824999000000005,0.9295487999916077,-0.5668272376060486,9.764153480529785,0,0.396728515625,-0.42724609375
4.9874999,0.921169102191925,-0.5650315880775452,9.766547203063965,0.06103515625,0.48828125,-0.213623046875
4.9924999,0.9127894043922424,-0.5644330382347107,9.765350341796875,0.152587890625,0.396728515625,-0.213623046875
4.9974999,0.9097966551780701,-0.5680243372917175,9.77253246307373,-0.030517578125,0.213623046875,-0.335693359375
5.0024999,0.9074024558067322,-0.5704185366630554,9.77133560180664,-0.091552734375,-0.030517578125,-0.30517578125
5.0074999,0.9074024558067322,-0.5704185366630554,9.769539833068848,0.030517578125,-0.274658203125,0.030517578125
5.0124999,0.9193734526634216,-0.5650315880775452,9.767146110534668,0,-0.30517578125,-0.274658203125
5.0174999,0.9271546006202698,-0.5626373887062073,9.765350341796875,0.030517578125,-0.42724609375,-0.213623046875
5.022499900000001,0.9355342984199524,-0.558447539806366,9.7605619430542,0.030517578125,-0.3662109375,-0.152587890625
5.0274999000000005,0.9445125460624695,-0.5596446394920349,9.75936508178711,-0.1220703125,-0.152587890625,-0.18310546875
5.0324999,0.9457096457481384,-0.5650315880775452,9.75517463684082,0.06103515625,0.030517578125,-0.152587890625
5.0374999,0.9457096457481384,-0.568622887134552,9.759963035583496,0.030517578125,0.091552734375,-0.3662109375
5.0424999,0.9157821536064148,-0.5674257874488831,9.780912399291992,0,0.274658203125,-0.244140625
5.0474999,0.9050082564353943,-0.5644330382347107,9.778518676757812,0.06103515625,0.274658203125,-0.152587890625
5.0524999,0.8984242081642151,-0.5644330382347107,9.781511306762695,0.030517578125,0.152587890625,-0.1220703125
5.0574999,0.8990227580070496,-0.5662286877632141,9.785101890563965,0.06103515625,0.1220703125,-0.213623046875
5.062499900000001,0.921169102191925,-0.5710170865058899,9.769539833068848,0.030517578125,-0.30517578125,-0.18310546875
5.0674999000000005,0.93254154920578,-0.5746083855628967,9.766547203063965,-0.06103515625,-0.244140625,-0.396728515625
5.0724999,0.9349357485771179,-0.5716156363487244,9.761159896850586,0.030517578125,-0.18310546875,-0.152587890625
5.0774999,0.9415197968482971,-0.5704185366630554,9.766547203063965,0,0.06103515625,-0.1220703125
5.0824999,0.9379284977912903,-0.5668272376060486,9.762955665588379,0,0.1220703125,-0.18310546875
5.0874999,0.9349357485771179,-0.5650315880775452,9.766547203063965,0.091552734375,0.030517578125,-0.091552734375
5.0924999,0.9319429993629456,-0.5626373887062073,9.769539833068848,0,0.213623046875,-0.213623046875
5.0974999,0.9229647517204285,-0.5602431893348694,9.764751434326172,0.091552734375,0.30517578125,-0.274658203125
5.102499900000001,0.9205705523490906,-0.5590460896492004,9.771934509277344,0.1220703125,0.396728515625,-0.244140625
5.1074999000000005,0.9103952050209045,-0.558447539806366,9.768342971801758,-0.030517578125,0.396728515625,-0.18310546875
5.1124999,0.9068039059638977,-0.5608417391777039,9.775525093078613,0.1220703125,0.152587890625,-0.274658203125
5.1174999,0.9080010056495667,-0.5620388388633728,9.773131370544434,0.030517578125,-0.091552734375,-0.152587890625
5.1224999,0.9151836037635803,-0.5632359385490417,9.779715538024902,-0.030517578125,0,-0.274658203125
5.1274999,0.9139865040779114,-0.5614402890205383,9.77133560180664,0,0.030517578125,-0.152587890625
5.1324999,0.9199720025062561,-0.5614402890205383,9.773730278015137,-0.030517578125,-0.091552734375,-0.18310546875
5.1374999,0.9217676520347595,-0.5614402890205383,9.769539833068848,-0.06103515625,-0.091552734375,-0.274658203125
5.1424999,0.922366201877594,-0.5644330382347107,9.764751434326172,0.030517578125,-0.1220703125,-0.18310546875
5.147499900000001,0.9301473498344421,-0.5692214369773865,9.77133560180664,0.030517578125,0,-0.213623046875
5.1524999000000005,0.9295487999916077,-0.5722141861915588,9.762357711791992,-0.091552734375,-0.091552734375,-0.152587890625
5.1574999,0.9349357485771179,-0.5680243372917175,9.767146110534668,-0.06103515625,0.1220703125,-0.152587890625
5.1624999,0.9385270476341248,-0.5644330382347107,9.767146110534668,0,0.152587890625,-0.18310546875
5.1674999,0.9397241473197937,-0.5590460896492004,9.768342971801758,0.091552734375,-0.030517578125,-0.152587890625
5.1724999,0.9546879529953003,-0.5650315880775452,9.786897659301758,0.152587890625,0.06103515625,-0.244140625
5.1774999,0.9558850526809692,-0.5680243372917175,9.783905029296875,0,0.030517578125,-0.274658203125
5.1824999,0.9528923034667969,-0.5692214369773865,9.782708168029785,-0.1220703125,-0.091552734375,-0.244140625
5.187499900000001,0.9558850526809692,-0.5704185366630554,9.783905029296875,-0.030517578125,0,-0.274658203125
5.1924999000000005,0.9481038451194763,-0.5680243372917175,9.773730278015137,0.06103515625,0.030517578125,-0.213623046875
5.1974999,0.9433154463768005,-0.5650315880775452,9.775525093078613,-0.030517578125,0.091552734375,-0.213623046875
5.2024999,0.9343371987342834,-0.5632359385490417,9.768342971801758,0.030517578125,0.244140625,-0.244140625
5.2074999,0.9199720025062561,-0.5608417391777039,9.767146110534668,0.1220703125,0.335693359375,-0.213623046875
5.2124999,0.9133879542350769,-0.5620388388633728,9.774328231811523,0.030517578125,0.3662109375,-0.244140625
5.2174999,0.8978256583213806,-0.5656301379203796,9.773730278015137,0.091552734375,0.18310546875,-0.274658203125
5.2224999,0.9301473498344421,-0.5632359385490417,9.769539833068848,-0.030517578125,-0.42724609375,-0.18310546875
5.227499900000001,0.9415197968482971,-0.5662286877632141,9.761758804321289,0.06103515625,-0.30517578125,-0.30517578125
5.2324999000000005,0.9576807022094727,-0.5692214369773865,9.762955665588379,0.152587890625,-0.213623046875,-0.1220703125
5.2374999,0.9690531492233276,-0.5734112858772278,9.765948295593262,0.06103515625,0,-0.274658203125
5.2424999,0.9702502489089966,-0.5740098357200623,9.762955665588379,0.1220703125,-0.030517578125,-0.274658203125
5.2474999,0.9738415479660034,-0.5776011347770691,9.77253246307373,0.091552734375,0.274658203125,-0.3662109375
5.2524999,0.9600749015808105,-0.5764040350914001,9.77133560180664,0.06103515625,0.579833984375,-0.3662109375
5.2574999,0.9487023949623108,-0.5740098357200623,9.777320861816406,0.1220703125,0.42724609375,-0.244140625
5.2624999,0.9074024558067322,-0.5602431893348694,9.783905029296875,0.091552734375,0.274658203125,-0.152587890625
5.2674999,0.9014169573783875,-0.5608417391777039,9.779715538024902,0.030517578125,-0.06103515625,-0.244140625
5.272499900000001,0.9056068062782288,-0.5602431893348694,9.780912399291992,0.030517578125,-0.152587890625,-0.335693359375
5.2774999000000005,0.9139865040779114,-0.5650315880775452,9.7791166305542,0.06103515625,-0.091552734375,-0.30517578125
5.2824999,0.9205705523490906,-0.5656301379203796,9.773131370544434,0.06103515625,-0.335693359375,-0.274658203125
5.2874999,0.9349357485771179,-0.568622887134552,9.773131370544434,0.06103515625,-0.274658203125,-0.244140625
5.2924999,0.9409212470054626,-0.5692214369773865,9.762955665588379,0.1220703125,-0.274658203125,-0.274658203125
5.2974999,0.9498994946479797,-0.5704185366630554,9.761159896850586,-0.06103515625,-0.152587890625,-0.18310546875
5.3024999,0.9534908533096313,-0.5710170865058899,9.754576683044434,0,-0.030517578125,-0.335693359375
5.3074999,0.9493009448051453,-0.5692214369773865,9.75936508178711,0.06103515625,-0.1220703125,-0.1220703125
5.312499900000001,0.9487023949623108,-0.5668272376060486,9.767146110534668,-0.1220703125,0.30517578125,-0.213623046875
5.3174999000000005,0.933738648891449,-0.5578489899635315,9.781511306762695,0,0.48828125,-0.213623046875
5.3224999,0.9235633015632629,-0.5590460896492004,9.77791976928711,-0.06103515625,0.457763671875,-0.18310546875
5.3274999,0.9187749028205872,-0.5614402890205383,9.777320861816406,0,0.3662109375,-0.274658203125
5.3324999,0.9175778031349182,-0.569819986820221,9.7791166305542,0.152587890625,0.213623046875,-0.3662109375
5.3374999,0.9133879542350769,-0.5746083855628967,9.775525093078613,0.152587890625,0.091552734375,-0.152587890625
5.3424999,0.9181763529777527,-0.5793967843055725,9.781511306762695,0.091552734375,0,-0.213623046875
5.3474999,0.9181763529777527,-0.5793967843055725,9.779715538024902,0.091552734375,-0.18310546875,-0.244140625
5.352499900000001,0.9235633015632629,-0.5781996846199036,9.776124000549316,0.06103515625,-0.457763671875,-0.091552734375
5.3574999000000005,0.9331400990486145,-0.5758054852485657,9.77253246307373,-0.1220703125,-0.244140625,-0.244140625
5.3624999,0.9379284977912903,-0.569819986820221,9.764153480529785,-0.06103515625,-0.335693359375,-0.30517578125
