# Time (seconds),Accel_X,Accel_Y,Accel_Z,Gyro_X,Gyro_Y,Gyro_Z
0.0024999,0.27234044671058655,-0.41958385705947876,9.623494148254395,-0.030517578125,1.40380859375,-23.040771484375
0.0074999,0.27234044671058655,-0.41958385705947876,9.623494148254395,-0.030517578125,1.40380859375,-23.040771484375
0.012499900000000001,-0.702099621295929,-0.3387795388698578,9.798869132995605,-3.021240234375,-0.79345703125,1.5869140625
0.0174999,-1.1827356815338135,-0.0933738648891449,9.700706481933594,-13.519287109375,-9.521484375,6.195068359375
0.0224999,-1.6077064275741577,0.19033902883529663,10.057442665100098,-8.36181640625,-19.22607421875,26.458740234375
0.0274999,-1.4024035930633545,-0.32860419154167175,9.849146842956543,-10.25390625,-24.35302734375,27.28271484375
0.0324999,-0.22864626348018646,-0.9582792520523071,9.86231517791748,11.077880859375,-7.99560546875,30.517578125
0.0374999,0.406415730714798,-0.8104372620582581,9.825204849243164,5.645751953125,-0.396728515625,21.331787109375
0.0424999,1.0067617893218994,-0.3345896899700165,9.874286651611328,4.058837890625,1.983642578125,19.71435546875
0.0474999,1.5592238903045654,0.14664486050605774,9.93593692779541,-1.89208984375,-0.335693359375,-7.354736328125
0.0524999,1.8728642463684082,-0.10534487664699554,9.84376049041748,-2.197265625,12.0849609375,-25.665283203125
0.0574999,2.0835540294647217,-0.5578489899635315,9.709685325622559,8.636474609375,22.39990234375,-20.56884765625
0.0624999,2.0039467811584473,-0.6260837316513062,9.752182006835938,14.70947265625,25.177001953125,-37.322998046875
0.0674999,1.3138182163238525,-1.0073603391647339,9.62947940826416,0.640869140625,17.08984375,-31.92138671875
0.0724999,0.7835025191307068,-0.9720458984375,9.604340553283691,-6.04248046875,3.082275390625,-31.036376953125
0.0774999,-0.11671733111143112,-0.2513911724090576,9.939528465270996,1.251220703125,0.885009765625,-15.655517578125
0.0824999,-0.973242998123169,-0.48901569843292236,9.837176322937012,-6.591796875,-2.777099609375,6.866455078125
0.0874999,-1.3778630495071411,0.11971008777618408,9.931148529052734,-13.85498046875,-13.885498046875,9.6435546875
0.0924999,0.6248866319656372,-0.585382342338562,9.761159896850586,4.69970703125,0.701904296875,22.247314453125
0.0974999,1.2198457717895508,-0.16519992053508759,9.893440246582031,2.01416015625,0.732421875,12.969970703125
0.1024999,1.7004817724227905,0.20949265360832214,9.941324234008789,-3.0517578125,1.77001953125,-17.578125
0.1074999,1.96683669090271,-0.3405751883983612,9.828198432922363,-0.457763671875,17.02880859375,-24.7802734375
0.1124999,2.098517894744873,-0.5434837937355042,9.731831550598145,12.02392578125,23.01025390625,-23.895263671875
0.1174999,1.8195933103561401,-0.7930793166160583,9.726444244384766,11.5966796875,23.406982421875,-38.87939453125
0.1224999,1.058835744857788,-1.146224021911621,9.62828254699707,-3.84521484375,11.474609375,-28.533935546875
0.1274999,0.4985924959182739,-0.9534908533096313,9.601945877075195,-2.9296875,1.89208984375,-26.67236328125
0.1324999,-0.5135562419891357,-0.40282443165779114,9.819818496704102,0.762939453125,0.274658203125,-3.23486328125
0.1374999,-1.5263035297393799,0.2974795699119568,9.912593841552734,-10.55908203125,-16.571044921875,18.4326171875
0.1424999,-1.5837644338607788,0.008978256024420261,9.890447616577148,-9.21630859375,-23.834228515625,30.21240234375
0.1474999,-1.0169371366500854,-0.19812019169330597,9.847352027893066,-4.241943359375,-19.59228515625,23.8037109375
0.1524999,-0.44532153010368347,-0.48722004890441895,9.8599214553833,10.1318359375,-11.932373046875,32.989501953125
0.1574999,0.29628247022628784,-0.7254431247711182,9.859322547912598,7.080078125,-1.556396484375,21.728515625
0.1624999,1.4419080018997192,0.07242459803819656,9.962273597717285,-0.54931640625,-0.823974609375,1.861572265625
0.1674999,1.8291701078414917,0.13946224749088287,9.910798072814941,-3.143310546875,7.2021484375,-24.71923828125
0.1724999,2.0033483505249023,-0.5015852451324463,9.756970405578613,3.23486328125,20.32470703125,-20.599365234375
0.17749990000000002,2.0661959648132324,-0.5345055460929871,9.791088104248047,14.22119140625,23.681640625,-30.82275390625
0.1824999,1.4939818382263184,-0.9247604012489319,9.622895240783691,6.04248046875,20.44677734375,-35.980224609375
0.1874999,0.8756792545318604,-1.115697979927063,9.611522674560547,-6.134033203125,6.103515625,-28.01513671875
0.1924999,-1.1659762859344482,-0.008379706181585789,9.734225273132324,-13.519287109375,-10.19287109375,5.706787109375
0.1974999,-1.5723919868469238,0.3082534670829773,10.07779312133789,-8.392333984375,-19.34814453125,28.106689453125
0.2024999,-1.3102269172668457,-0.3381809890270233,9.838972091674805,-10.833740234375,-23.223876953125,24.444580078125
0.20749990000000001,-0.8182184100151062,-0.6171054840087891,9.920374870300293,1.861572265625,-17.425537109375,28.472900390625
0.2124999,-0.14844051003456116,-0.9648633003234863,9.84256362915039,10.528564453125,-7.843017578125,29.327392578125
0.2174999,0.456095427274704,-0.8122329115867615,9.82640266418457,5.37109375,-0.06103515625,19.59228515625
0.2224999,1.0205284357070923,-0.3531447649002075,9.859322547912598,3.509521484375,1.28173828125,16.845703125
0.2274999,1.5544354915618896,0.1412578970193863,9.923966407775879,-1.739501953125,-0.152587890625,-9.613037109375
0.2324999,1.8189947605133057,-0.03651157766580582,9.87967300415039,-1.89208984375,13.214111328125,-25.7568359375
0.2374999,1.9823989868164062,-0.5129576921463013,9.68694019317627,6.561279296875,21.30126953125,-18.890380859375
0.2424999,1.88782799243927,-0.5883750915527344,9.817423820495605,14.068603515625,23.98681640625,-37.628173828125
0.2474999,-0.921169102191925,-0.5476736426353455,9.793481826782227,-6.103515625,-3.326416015625,6.40869140625
0.2524999,-1.346139907836914,0.18315643072128296,9.894038200378418,-14.068603515625,-14.0380859375,8.636474609375
0.2574999,-1.5969325304031372,0.17238251864910126,10.02811336517334,-7.659912109375,-21.575927734375,32.2265625
0.2624999,-1.128267526626587,-0.2346317619085312,9.710882186889648,-8.23974609375,-21.209716796875,21.8505859375
0.2674999,-0.6117185354232788,-0.5147533416748047,9.763554573059082,5.859375,-15.68603515625,31.646728515625
0.2724999,0.11911153793334961,-0.8469488620758057,9.758167266845703,8.270263671875,-4.425048828125,23.37646484375
0.2774999,0.6470330357551575,-0.5213374495506287,9.781511306762695,4.57763671875,0.8544921875,20.08056640625
0.2824999,1.225232720375061,-0.15023615956306458,9.88745403289795,1.983642578125,0.67138671875,11.749267578125
0.28749990000000003,1.680729627609253,0.17836803197860718,9.939528465270996,-2.74658203125,2.105712890625,-17.791748046875
0.2924999,1.8471266031265259,-0.27473464608192444,9.852140426635742,-0.946044921875,16.2353515625,-23.5595703125
0.2974999,1.6927006244659424,-0.7876923680305481,9.727641105651855,11.90185546875,22.796630859375,-40.435791015625
0.3024999,1.01753568649292,-1.2300211191177368,9.5809965133667,-2.105712890625,11.322021484375,-29.1748046875
0.3074999,0.5327098965644836,-1.0432734489440918,9.582792282104492,-1.983642578125,3.021240234375,-22.0947265625
0.3124999,-0.4010287821292877,-0.43514615297317505,9.807249069213867,1.0986328125,0.48828125,-0.67138671875
0.3174999,-1.0241197347640991,-0.6224924325942993,9.742006301879883,-10.162353515625,-6.256103515625,4.150390625
0.3224999,-1.4227544069290161,0.3214215636253357,9.947908401489258,-11.322021484375,-15.716552734375,17.364501953125
0.3274999,-1.5388731956481934,-0.013168109580874443,9.981427192687988,-8.36181640625,-22.27783203125,30.33447265625
0.3324999,-0.9774328470230103,-0.19572599232196808,9.880271911621094,-4.69970703125,-19.34814453125,22.27783203125
0.3374999,-0.4531026780605316,-0.5051765441894531,9.875483512878418,8.331298828125,-13.0615234375,31.43310546875
0.3424999,0.28969839215278625,-0.7350199222564697,9.86111831665039,7.01904296875,-1.739501953125,20.69091796875
0.34749990000000003,0.8343793153762817,-0.3693056106567383,9.855133056640625,4.57763671875,1.64794921875,20.56884765625
0.35249990000000003,1.4119805097579956,-0.014365210197865963,9.931148529052734,0.42724609375,0.030517578125,3.387451171875
0.3574999,1.566406488418579,-0.8858546018600464,9.643844604492188,8.941650390625,21.240234375,-40.252685546875
0.3624999,0.8822633028030396,-1.1971008777618408,9.5809965133667,-4.302978515625,7.6904296875,-26.611328125
0.3674999,0.24361002445220947,-0.6236895322799683,9.568427085876465,0.335693359375,2.410888671875,-19.775390625
0.3724999,-0.6458359360694885,-0.25977087020874023,9.782708168029785,-0.885009765625,-0.823974609375,3.082275390625
0.3774999,-1.1785458326339722,-0.22086510062217712,9.723451614379883,-13.031005859375,-9.368896484375,3.936767578125
0.3824999,-1.5340847969055176,0.46507367491722107,10.046070098876953,-9.490966796875,-18.157958984375,24.200439453125
0.3874999,-1.3742717504501343,-0.1472434103488922,9.910798072814941,-9.09423828125,-22.369384765625,25.665283203125
0.3924999,-0.8786720037460327,-0.38127660751342773,9.9401273727417,-1.190185546875,-18.585205078125,25.970458984375
0.3974999,-0.2513911724090576,-0.7422025203704834,9.883264541625977,8.6669921875,-9.94873046875,29.6630859375
0.4024999,1.4736311435699463,0.0005985504249110818,9.909002304077148,-0.823974609375,-0.30517578125,-2.838134765625
0.4074999,1.800439715385437,-0.01496376097202301,9.892242431640625,-2.50244140625,9.21630859375,-24.871826171875
0.41249990000000003,1.941697597503662,-0.5027823448181152,9.725247383117676,3.753662109375,18.798828125,-16.54052734375
0.41749990000000003,1.9105730056762695,-0.596754789352417,9.800664901733398,13.00048828125,22.247314453125,-32.867431640625
0.4224999,1.3503297567367554,-0.9552865028381348,9.589975357055664,5.0048828125,18.768310546875,-36.56005859375
0.4274999,0.7870938181877136,-1.1617863178253174,9.589376449584961,-4.57763671875,5.67626953125,-24.0478515625
0.4324999,0.10055647045373917,-0.28311434388160706,9.786897659301758,1.953125,2.197265625,-13.97705078125
0.4374999,-0.7469909191131592,-0.29628247022628784,9.856928825378418,-3.448486328125,-1.64794921875,5.37109375
0.4424999,-1.1791443824768066,0.14065934717655182,9.87967300415039,-14.22119140625,-11.688232421875,4.669189453125
0.4474999,-1.5406688451766968,0.34416648745536804,10.11789608001709,-7.781982421875,-19.134521484375,29.11376953125
0.4524999,-1.2431892156600952,-0.31124621629714966,9.77791976928711,-9.063720703125,-21.3623046875,22.857666015625
0.4574999,-0.07422025501728058,-0.960673451423645,9.761159896850586,9.185791015625,-6.988525390625,26.519775390625
0.4624999,0.5093663930892944,-0.7739257216453552,9.769539833068848,4.791259765625,0.48828125,19.683837890625
0.4674999,0.5093663930892944,-0.7739257216453552,9.769539833068848,4.791259765625,0.48828125,19.683837890625
0.47249990000000003,1.081580638885498,-0.3477577865123749,9.840767860412598,3.509521484375,1.708984375,16.815185546875
0.47749990000000003,1.592742681503296,0.07541735470294952,9.911396026611328,-1.8310546875,0.335693359375,-11.566162109375
0.4824999,1.9596540927886963,-0.5590460896492004,9.701904296875,7.14111328125,19.95849609375,-16.876220703125
0.4874999,1.9596540927886963,-0.5590460896492004,9.701904296875,7.14111328125,19.95849609375,-16.876220703125
0.4924999,1.8267759084701538,-0.6278793811798096,9.797073364257812,13.427734375,23.01025390625,-38.848876953125
0.4974999,1.191115379333496,-1.0438719987869263,9.604938507080078,1.03759765625,15.655517578125,-31.18896484375
0.5024999,0.7080851793289185,-1.0977414846420288,9.589975357055664,-4.39453125,3.631591796875,-24.688720703125
0.5074999,-0.1215057373046875,-0.31124621629714966,9.880870819091797,2.0751953125,0.8544921875,-10.55908203125
0.5124999,-0.9068039059638977,-0.4734533727169037,9.815628051757812,-5.950927734375,-3.173828125,6.866455078125
0.5174999,-1.548449993133545,0.1951274424791336,10.052654266357422,-7.14111328125,-20.782470703125,30.70068359375
0.5224999,-1.116895079612732,-0.29388827085494995,9.706093788146973,-8.544921875,-21.209716796875,22.216796875
0.5274999,-0.6099228858947754,-0.5608417391777039,9.752182006835938,5.126953125,-15.838623046875,30.8837890625
0.5324999,0.10534487664699554,-0.9253589510917664,9.744400978088379,9.033203125,-3.7841796875,25.5126953125
0.5374999,0.628477931022644,-0.606930136680603,9.77133560180664,4.364013671875,0.885009765625,21.575927734375
0.5424999,1.2114660739898682,-0.23822307586669922,9.898228645324707,2.777099609375,1.007080078125,13.153076171875
0.5474999,1.688510775566101,0.10654197633266449,9.967061996459961,-2.44140625,1.800537109375,-17.547607421875
0.5524999,1.853710651397705,-0.3357867896556854,9.855731010437012,-0.48828125,16.082763671875,-21.759033203125
0.5574999,2.0027496814727783,-0.6105214357376099,9.739013671875,10.467529296875,21.6064453125,-21.54541015625
0.5624999,0.6189011335372925,-0.9983820915222168,9.59057331085205,-3.448486328125,2.5634765625,-27.28271484375
0.5674999000000001,0.6189011335372925,-0.9983820915222168,9.59057331085205,-3.448486328125,2.5634765625,-27.28271484375
0.5724999000000001,-1.0642226934432983,-0.1999158412218094,9.774328231811523,-6.34765625,-20.172119140625,23.101806640625
0.5774999000000001,-0.518943190574646,-0.4429273009300232,9.815628051757812,7.965087890625,-12.969970703125,32.28759765625
0.5824999,0.2495955228805542,-0.7308300733566284,9.81024169921875,7.293701171875,-1.708984375,22.216796875
0.5874999,0.7775170207023621,-0.3381809890270233,9.84495735168457,3.814697265625,0.6103515625,20.44677734375
0.5924999,1.3569138050079346,-0.02274491637945175,9.932944297790527,0.48828125,-0.30517578125,5.55419921875
0.5974999,1.7435773611068726,0.15143325924873352,9.953893661499023,-2.899169921875,4.425048828125,-21.209716796875
0.6024999,1.9572598934173584,-0.46327802538871765,9.81024169921875,1.556396484375,17.303466796875,-18.524169921875
0.6074999,2.015319347381592,-0.5722141861915588,9.798270225524902,12.451171875,21.697998046875,-27.2216796875
0.6124999,1.6059107780456543,-0.8415619134902954,9.68574333190918,8.36181640625,21.514892578125,-37.109375
0.6174999,0.3214215636253357,-0.8637082576751709,9.592369079589844,-1.64794921875,0.823974609375,-25.482177734375
0.6224999,-0.629675030708313,-0.3818751573562622,9.791088104248047,0.152587890625,-0.274658203125,0.42724609375
0.6274999,-1.1492167711257935,-0.5770025849342346,9.659406661987305,-11.5966796875,-7.843017578125,6.77490234375
0.6324999,-1.4981716871261597,0.27473464608192444,9.976638793945312,-9.918212890625,-17.822265625,19.775390625
0.6374999,-1.4317326545715332,-0.0454898327589035,9.904213905334473,-8.9111328125,-23.37646484375,29.449462890625
0.6424999,-0.2944868206977844,-0.5464765429496765,9.9000244140625,10.25390625,-9.613037109375,32.073974609375
0.6474999,-0.2944868206977844,-0.5464765429496765,9.9000244140625,10.25390625,-9.613037109375,32.073974609375
0.6524999,0.35075053572654724,-0.702099621295929,9.870695114135742,5.79833984375,-0.457763671875,22.613525390625
0.6574999,0.8822633028030396,-0.26755204796791077,9.879075050354004,4.302978515625,1.64794921875,21.881103515625
0.6624999,1.4502876996994019,0.04189852997660637,9.940725326538086,-0.9765625,-1.0986328125,-1.89208984375
0.6674999,1.8088194131851196,0.06703764945268631,9.914389610290527,-2.532958984375,8.60595703125,-24.322509765625
0.6724999,2.009932279586792,-0.5548562407493591,9.729436874389648,4.364013671875,20.751953125,-19.1650390625
0.6774999,1.4257471561431885,-0.9373299479484558,9.610325813293457,4.33349609375,18.646240234375,-34.881591796875
0.6824999,0.8445546627044678,-1.082777738571167,9.59596061706543,-6.2255859375,4.669189453125,-28.9306640625
0.6874999,0.1364694982767105,-0.33698388934135437,9.680954933166504,1.129150390625,1.678466796875,-20.416259765625
0.6924999000000001,-0.7523778676986694,-0.3495534360408783,9.75517463684082,-2.105712890625,-0.946044921875,6.77490234375
0.6974999000000001,-1.182137131690979,-0.10714052617549896,9.697713851928711,-14.404296875,-11.566162109375,5.828857421875
0.7024999000000001,-1.5322890281677246,0.1759738177061081,9.996989250183105,-8.056640625,-19.6533203125,27.313232421875
0.7074999,-1.2509703636169434,-0.4818331003189087,9.739013671875,-9.429931640625,-22.76611328125,26.519775390625
0.7124999,-0.7410054206848145,-0.7194576263427734,9.810839653015137,2.01416015625,-16.90673828125,29.541015625
0.7174999,-0.07721300423145294,-0.9977835416793823,9.794678688049316,10.8642578125,-5.9814453125,29.4189453125
0.7224999,1.0438719987869263,-0.29388827085494995,9.873088836669922,3.021240234375,1.251220703125,15.533447265625
0.7274999,1.5544354915618896,0.1322796493768692,9.932944297790527,-2.44140625,0.152587890625,-11.90185546875
0.7324999,1.1767501831054688,-1.0229226350784302,9.66958236694336,0.152587890625,15.350341796875,-30.6396484375
0.7374999,0.7032967209815979,-1.071405291557312,9.636661529541016,-5.4931640625,2.716064453125,-28.01513671875
0.7424999,-0.1604115068912506,-0.3124433159828186,9.927556991577148,2.197265625,1.556396484375,-10.467529296875
0.7474999,-0.9493009448051453,-0.5141547918319702,9.785700798034668,-5.79833984375,-3.448486328125,9.33837890625
0.7524999,-1.3096283674240112,0.1215057373046875,9.82999324798584,-14.6484375,-14.6484375,7.8125
0.7574999,-1.525106430053711,0.1586158573627472,9.972448348999023,-7.080078125,-21.392822265625,32.440185546875
0.7624999,-1.0408791303634644,-0.3561375141143799,9.640851974487305,-8.514404296875,-20.99609375,23.3154296875
0.7674999,-0.5303156971931458,-0.606930136680603,9.728838920593262,6.622314453125,-14.6484375,32.40966796875
0.7724999,0.14185644686222076,-0.9259575009346008,9.743802070617676,8.97216796875,-3.23486328125,24.7802734375
0.7774999,1.1869255304336548,-0.17537526786327362,9.912593841552734,1.40380859375,0.152587890625,9.307861328125
0.7824999,1.6430208683013916,0.1777694821357727,9.964667320251465,-2.685546875,2.9296875,-19.134521484375
0.7874999,1.8800468444824219,-0.3585317134857178,9.807249069213867,0.3662109375,17.059326171875,-22.003173828125
0.7924999,1.9865888357162476,-0.5404910445213318,9.75637149810791,11.23046875,21.820068359375,-25.421142578125
0.7974999,1.6855180263519287,-0.7206547260284424,9.670180320739746,11.29150390625,22.674560546875,-39.12353515625
0.8024999,-0.5261258482933044,-0.3974374830722809,9.847949981689453,1.800537109375,0.152587890625,-0.1220703125
0.8074999,-1.1366472244262695,-0.7410054206848145,9.727043151855469,-10.3759765625,-7.14111328125,8.087158203125
0.8124999,-1.4484920501708984,0.16160862147808075,9.926959037780762,-12.359619140625,-17.08984375,15.045166015625
0.8174999000000001,-1.5047557353973389,-0.07242459803819656,9.980828285217285,-7.904052734375,-23.25439453125,32.257080078125
0.8224999000000001,-0.8732850551605225,-0.2777273952960968,9.843161582946777,-4.8828125,-19.073486328125,23.895263671875
0.8274999000000001,0.3669114112854004,-0.7475894689559937,9.832986831665039,7.293701171875,-0.79345703125,23.01025390625
0.8324999000000001,0.8571242094039917,-0.3274070918560028,9.849745750427246,4.241943359375,1.495361328125,20.843505859375
0.8374999,1.4024035930633545,0.010773907415568829,9.92097282409668,-0.518798828125,-1.0986328125,1.220703125
0.8424999,1.7842788696289062,0.1909375786781311,9.928155899047852,-2.50244140625,7.14111328125,-24.10888671875
0.8474999,1.933916449546814,-0.5225345492362976,9.742006301879883,3.570556640625,20.20263671875,-19.95849609375
0.8524999,2.009932279586792,-0.5231330990791321,9.81263542175293,13.824462890625,23.345947265625,-32.8369140625
0.8574999,1.45806884765625,-0.8684966564178467,9.634267807006836,6.561279296875,20.3857421875,-35.82763671875
0.8624999,0.8487445116043091,-1.0785878896713257,9.64923095703125,-6.591796875,5.55419921875,-27.587890625
0.8674999,0.22266076505184174,-0.4710591733455658,9.634267807006836,-0.396728515625,1.800537109375,-22.8271484375
0.8724999,-0.702099621295929,-0.2932897210121155,9.782708168029785,-0.6103515625,-1.129150390625,6.9580078125
0.8774999,-1.1276689767837524,-0.3190273642539978,9.701904296875,-13.73291015625,-10.55908203125,5.828857421875
0.8824999,-0.1364694982767105,-0.8936358094215393,9.880271911621094,11.077880859375,-7.14111328125,31.3720703125
0.8874999,0.4578910768032074,-0.788889467716217,9.825803756713867,5.645751953125,0.518798828125,20.44677734375
0.8924999,0.9786299467086792,-0.2759317457675934,9.853337287902832,3.41796875,0.885009765625,17.578125
0.8974999,1.50355863571167,0.09876082092523575,9.904213905334473,-2.105712890625,-0.48828125,-9.6435546875
0.9024999,1.7794904708862305,-0.02992752194404602,9.86650562286377,-1.251220703125,13.092041015625,-25.482177734375
0.9074999,1.942894697189331,-0.5841852426528931,9.696516990661621,7.293701171875,21.697998046875,-19.95849609375
0.9124999,1.8692729473114014,-0.5895721912384033,9.807249069213867,14.2822265625,24.169921875,-39.48974609375
0.9174999,1.192312479019165,-0.9666589498519897,9.660005569458008,0.67138671875,15.2587890625,-31.585693359375
0.9224999,0.6997054219245911,-1.0821791887283325,9.595361709594727,-6.683349609375,2.716064453125,-28.564453125
0.9274999,-0.11432313174009323,-0.2801215946674347,9.909601211547852,1.983642578125,1.220703125,-12.420654296875
0.9324999,-0.9289502501487732,-0.46567222476005554,9.756970405578613,-4.791259765625,-4.150390625,10.986328125
0.9374999,-1.523909330368042,0.1759738177061081,9.982624053955078,-7.537841796875,-21.575927734375,33.172607421875
0.9424999000000001,-1.0564415454864502,-0.44352585077285767,9.623494148254395,-9.002685546875,-21.240234375,23.62060546875
0.9474999000000001,-0.5494692921638489,-0.6470330357551575,9.713874816894531,6.16455078125,-15.0146484375,31.951904296875
0.9524999000000001,0.1215057373046875,-0.9989806413650513,9.697713851928711,9.735107421875,-3.11279296875,27.069091796875
0.9574999000000001,0.595557689666748,-0.6721721291542053,9.730634689331055,4.791259765625,1.28173828125,22.125244140625
0.9624999,1.9045875072479248,-0.27653029561042786,9.835380554199219,0.518798828125,17.822265625,-23.3154296875
0.9674999,2.0236990451812744,-0.5291185975074768,9.743204116821289,10.8642578125,22.64404296875,-24.688720703125
0.9724999,1.7531541585922241,-0.6745663285255432,9.6989107131958,11.932373046875,23.040771484375,-41.290283203125
0.9774999,0.9846154451370239,-0.9744400978088379,9.668983459472656,-4.425048828125,9.490966796875,-27.64892578125
0.9824999,0.45489832758903503,-1.0133458375930786,9.5624418258667,-4.791259765625,1.983642578125,-28.6865234375
0.9874999,-1.4227544069290161,0.05386953800916672,9.905410766601562,-12.542724609375,-16.7236328125,14.22119140625
0.9924999,-1.4891934394836426,-0.03950432687997818,9.98681354522705,-8.4228515625,-23.162841796875,33.50830078125
0.9974999,-0.871489405632019,-0.3016694188117981,9.832986831665039,-5.4931640625,-18.61572265625,23.712158203125
1.0024999,-0.34596213698387146,-0.5650315880775452,9.882067680358887,9.979248046875,-11.566162109375,33.538818359375
1.0074999000000002,0.35075053572654724,-0.8140285611152649,9.835380554199219,7.720947265625,-0.30517578125,23.13232421875
1.0124999000000001,0.8379706144332886,-0.37229835987091064,9.841365814208984,4.39453125,1.617431640625,20.8740234375
1.0174999000000002,1.390432596206665,-0.020949264988303185,9.92097282409668,-0.18310546875,-0.91552734375,0.823974609375
1.0224999000000001,1.7729063034057617,0.21128830313682556,9.931747436523438,-2.471923828125,7.720947265625,-24.810791015625
1.0274999,1.923741102218628,-0.5009866952896118,9.729436874389648,3.84521484375,20.416259765625,-18.890380859375
1.0324999000000001,1.9943699836730957,-0.5141547918319702,9.800664901733398,13.671875,23.590087890625,-33.8134765625
1.0374999,1.4460978507995605,-0.812831461429596,9.603142738342285,6.927490234375,19.59228515625,-37.506103515625
1.0424999000000001,0.1951274424791336,-0.578798234462738,9.55825138092041,-1.373291015625,1.5869140625,-24.71923828125
1.0474999,-0.7140706777572632,-0.33279404044151306,9.720458984375,0.3662109375,-1.77001953125,7.6904296875
1.0524999000000002,-1.1623848676681519,-0.4985924959182739,9.637260437011719,-13.214111328125,-10.7421875,5.67626953125
1.0574999,-1.4718354940414429,0.18734627962112427,9.964069366455078,-10.3759765625,-19.34814453125,24.261474609375
1.0624999000000002,-1.278503656387329,-0.4357447028160095,9.884461402893066,-9.21630859375,-23.284912109375,29.571533203125
1.0674999,-0.718859076499939,-0.545877993106842,9.910798072814941,-0.1220703125,-17.2119140625,27.64892578125
1.0724999000000002,-0.12629413604736328,-0.8696937561035156,9.876680374145508,11.1083984375,-7.293701171875,31.707763671875
1.0774999,-0.12629413604736328,-0.8696937561035156,9.876680374145508,11.1083984375,-7.293701171875,31.707763671875
1.0824999000000002,0.44771572947502136,-0.7924807667732239,9.830592155456543,5.859375,0.762939453125,21.759033203125
1.0874999,0.9642647504806519,-0.25737667083740234,9.873088836669922,3.692626953125,1.129150390625,18.402099609375
1.0924999000000002,1.488594889640808,0.058059390634298325,9.897629737854004,-2.0751953125,-0.762939453125,-9.185791015625
1.0974999,1.7842788696289062,0.07242459803819656,9.90361499786377,-1.220703125,12.420654296875,-25.146484375
1.1024999000000002,1.889025092124939,-0.518943190574646,9.81024169921875,13.763427734375,24.017333984375,-41.07666015625
1.1074999,1.889025092124939,-0.518943190574646,9.81024169921875,13.763427734375,24.017333984375,-41.07666015625
1.1124999000000002,1.225232720375061,-0.8774749040603638,9.642048835754395,1.3427734375,15.167236328125,-31.951904296875
1.1174999,0.730231523513794,-1.026513934135437,9.577404975891113,-7.14111328125,3.326416015625,-28.74755859375
1.1224999000000002,-0.8439561128616333,-0.39384618401527405,9.798270225524902,-3.173828125,-3.143310546875,10.80322265625
1.1274999,-1.2084733247756958,-0.11192893236875534,9.899425506591797,-14.404296875,-13.73291015625,5.859375
1.1324999000000002,-1.4658499956130981,0.15143325924873352,10.065223693847656,-8.544921875,-21.209716796875,33.02001953125
1.1374999000000001,-1.0534487962722778,-0.6033388376235962,9.711481094360352,-9.429931640625,-21.66748046875,25.57373046875
1.1424999000000002,-0.5632359385490417,-0.71766197681427,9.762357711791992,5.401611328125,-14.95361328125,31.280517578125
1.1474999000000001,0.07422025501728058,-1.0857704877853394,9.715071678161621,10.772705078125,-2.8076171875,26.641845703125
1.1524999000000002,0.558447539806366,-0.6901286244392395,9.740809440612793,5.035400390625,1.15966796875,21.087646484375
1.1574999000000001,1.84233820438385,-0.17417816817760468,9.849146842956543,1.678466796875,16.6015625,-20.782470703125
1.1624999,1.9728221893310547,-0.5482721924781799,9.734225273132324,11.016845703125,22.64404296875,-24.566650390625
1.1674999000000001,1.7435773611068726,-0.5811924338340759,9.731831550598145,11.90185546875,23.37646484375,-43.304443359375
1.1724999,1.013944387435913,-0.8367735147476196,9.701904296875,-3.936767578125,10.467529296875,-27.801513671875
1.1774999000000002,0.5093663930892944,-0.9846154451370239,9.565434455871582,-5.950927734375,1.983642578125,-32.196044921875
1.1824999,-0.41718965768814087,-0.3758896589279175,9.886856079101562,2.655029296875,-0.1220703125,-6.4697265625
1.1874999000000002,-1.0791864395141602,-0.6506243348121643,9.716269493103027,-6.28662109375,-5.462646484375,12.115478515625
1.1924999,-1.4173674583435059,-0.019153613597154617,9.86770248413086,-14.22119140625,-16.41845703125,9.94873046875
1.1974999000000002,-1.5191209316253662,0.09457096457481384,10.014347076416016,-8.60595703125,-23.223876953125,35.614013671875
1.2024999,0.8325836658477783,-0.4225766062736511,9.824007987976074,4.608154296875,1.3427734375,20.93505859375
1.2074999000000002,1.3581109046936035,-0.1149216815829277,9.907206535339355,-0.152587890625,-0.030517578125,1.312255859375
1.2124999,1.73519766330719,0.12928688526153564,9.93474006652832,-3.265380859375,6.4697265625,-22.64404296875
1.2174999000000002,1.9207483530044556,-0.39145198464393616,9.77791976928711,5.035400390625,18.585205078125,-16.90673828125
1.2224999,1.9422961473464966,-0.5638344883918762,9.816226959228516,12.237548828125,23.223876953125,-33.50830078125
1.2274999000000002,1.5167267322540283,-0.7056909799575806,9.637859344482422,7.38525390625,21.42333984375,-40.374755859375
1.2324999,0.8732850551605225,-0.9103952050209045,9.694122314453125,-6.16455078125,6.622314453125,-27.587890625
1.2374999000000002,0.2998737692832947,-0.8978256583213806,9.583391189575195,-2.685546875,1.678466796875,-29.693603515625
1.2424999,-0.6057330369949341,-0.424970805644989,9.741408348083496,1.495361328125,-0.946044921875,5.79833984375
1.2474999000000002,-1.0899603366851807,-0.5817909836769104,9.750386238098145,-9.613037109375,-9.246826171875,8.026123046875
1.2524999,-1.400607943534851,0.14365209639072418,9.895833969116211,-13.7939453125,-17.913818359375,17.242431640625
1.2574999000000002,-1.292868971824646,-0.03651157766580582,9.989208221435547,-9.27734375,-23.74267578125,38.02490234375
1.2624999000000001,0.48303020000457764,-0.7769184708595276,9.789292335510254,5.43212890625,-0.640869140625,13.458251953125
1.2674999000000002,1.0420763492584229,-0.28790274262428284,9.86231517791748,3.47900390625,1.434326171875,9.857177734375
1.2724999000000001,1.4742296934127808,-0.1173158809542656,9.891644477844238,-1.52587890625,1.861572265625,-10.833740234375
1.2774999000000002,1.6968904733657837,0.055665191262960434,9.907206535339355,-0.244140625,11.16943359375,-19.95849609375
1.2824999000000001,1.7591396570205688,-0.5339069962501526,9.695918083190918,6.77490234375,17.76123046875,-16.448974609375
1.2874999,1.688510775566101,-0.557250440120697,9.864110946655273,11.474609375,23.4375,-41.9921875
1.2924999000000001,1.202487826347351,-0.8038532137870789,9.651625633239746,4.57763671875,18.798828125,-34.515380859375
1.2974999,0.7320271730422974,-1.0516531467437744,9.706093788146973,-5.126953125,5.462646484375,-24.169921875
1.3024999000000002,-0.03770867735147476,-0.6470330357551575,9.817423820495605,0.42724609375,1.007080078125,-17.15087890625
1.3074999,-0.8493430614471436,-0.050876785069704056,9.775525093078613,-1.89208984375,-5.096435546875,18.37158203125
1.3124999000000002,-1.2348095178604126,-0.11971008777618408,9.99459457397461,-15.228271484375,-16.021728515625,-0.244140625
1.3174999,-0.43754035234451294,-0.5231330990791321,9.688735961914062,4.45556640625,-14.7705078125,23.590087890625
1.3224999000000002,0.1041477769613266,-1.1007342338562012,9.68813705444336,10.3759765625,-4.0283203125,12.908935546875
1.3274999,0.5859808921813965,-0.760757565498352,9.678560256958008,2.960205078125,-1.983642578125,8.697509765625
1.3324999000000002,1.1300631761550903,-0.28730419278144836,9.819818496704102,2.50244140625,1.617431640625,5.2490234375
1.3374999,1.4562731981277466,-0.10893617570400238,9.870695114135742,-1.495361328125,3.204345703125,-14.46533203125
1.3424999000000002,1.6077064275741577,0.07062894850969315,9.93354320526123,1.220703125,11.627197265625,-18.280029296875
1.3474999,1.5711948871612549,-0.41958385705947876,9.758167266845703,3.90625,15.31982421875,-18.768310546875
1.3524999000000002,1.3784615993499756,-0.5614402890205383,9.884461402893066,7.50732421875,22.735595703125,-42.05322265625
1.3574999,1.0085574388504028,-0.9858125448226929,9.633668899536133,5.615234375,17.242431640625,-31.79931640625
1.3624999000000002,0.595557689666748,-1.2934675216674805,9.646238327026367,0.823974609375,6.8359375,-15.625
1.3674999,-0.2819172441959381,-1.2461819648742676,9.68155288696289,-0.457763671875,1.556396484375,1.03759765625
1.3724999000000002,-0.950498104095459,0.9247604012489319,10.018536567687988,-18.12744140625,-18.85986328125,40.34423828125
1.3774999,-0.5590460896492004,-0.15322890877723694,9.985616683959961,-2.74658203125,-16.357421875,32.745361328125
1.3824999000000002,-0.030526071786880493,-0.3172317147254944,9.784503936767578,7.720947265625,-5.18798828125,7.232666015625
1.3874999000000001,0.3411737382411957,-0.9570821523666382,9.625288963317871,10.80322265625,-7.01904296875,8.941650390625
1.3924999000000002,0.5632359385490417,-0.6434416770935059,9.68274974822998,5.126953125,-2.74658203125,11.138916015625
1.3974999000000001,1.0097545385360718,-0.2711433470249176,9.794678688049316,2.13623046875,1.861572265625,3.23486328125
1.4024999000000002,1.2970588207244873,-0.13287819921970367,9.871294021606445,-2.8076171875,3.570556640625,-16.78466796875
1.4074999000000001,1.4903905391693115,0.05386953800916672,9.956287384033203,1.8310546875,11.566162109375,-14.892578125
1.4124999,1.446696400642395,-0.5135562419891357,9.764153480529785,4.2724609375,15.2587890625,-19.500732421875
1.4174999000000001,1.282094955444336,-0.618302583694458,9.855133056640625,7.293701171875,22.491455078125,-39.1845703125
1.4224999,0.9229647517204285,-1.0103530883789062,9.603142738342285,5.37109375,16.448974609375,-25.81787109375
1.4274999000000002,-1.1701661348342896,-0.2992752194404602,9.946112632751465,-15.625,-18.00537109375,-1.007080078125
1.4324999,-0.8271966576576233,0.7032967209815979,10.022727012634277,-16.448974609375,-15.777587890625,34.149169921875
1.4374999000000002,-0.43694180250167847,-0.13826514780521393,9.963470458984375,-0.579833984375,-11.71875,24.139404296875
1.4424999,-0.018555063754320145,-0.545877993106842,9.801262855529785,8.575439453125,-5.126953125,8.60595703125
1.4474999000000002,0.3130418658256531,-0.9355342984199524,9.660603523254395,9.33837890625,-8.514404296875,10.68115234375
1.4524999,0.557250440120697,-0.6769605278968811,9.739612579345703,4.180908203125,-3.0517578125,7.904052734375
1.4574999000000002,1.015141487121582,-0.2454056739807129,9.839570045471191,0.6103515625,0.67138671875,-2.13623046875
1.4624999,1.3096283674240112,-0.14185644686222076,9.889848709106445,-2.3193359375,5.18798828125,-16.998291015625
1.4674999000000002,1.4748282432556152,0.008978256024420261,9.938929557800293,2.227783203125,11.505126953125,-12.359619140625
1.4724999,1.3940238952636719,-0.4967968463897705,9.77672290802002,4.058837890625,13.0615234375,-17.974853515625
1.4774999000000002,0.8104372620582581,-0.9666589498519897,9.642647743225098,4.8828125,15.472412109375,-22.003173828125
1.4824999,0.4345476031303406,-0.6428431272506714,9.706692695617676,1.89208984375,7.2021484375,-9.94873046875
1.4874999000000002,-0.444722980260849,-1.1797429323196411,9.613917350769043,-5.2490234375,-0.762939453125,4.547119140625
1.4924999,-0.6811503767967224,0.5159504413604736,9.825803756713867,-2.9296875,-11.993408203125,18.6767578125
1.4974999000000002,-1.113303780555725,-0.26575639843940735,9.914389610290527,-15.0146484375,-17.669677734375,0.9765625
1.5024999,-0.7326257228851318,0.6003460884094238,9.97065258026123,-17.15087890625,-14.984130859375,29.022216796875
1.5074999000000002,-0.3776853084564209,-0.2082955539226532,9.95748519897461,0.6103515625,-11.5966796875,23.86474609375
1.5124999000000001,-0.013766659423708916,-0.7469909191131592,9.780313491821289,7.75146484375,-6.561279296875,11.77978515625
1.5174999000000002,0.2388216257095337,-1.0193313360214233,9.683947563171387,8.60595703125,-9.368896484375,14.70947265625
1.5224999000000001,0.4638765752315521,-0.7954735159873962,9.758167266845703,4.21142578125,-3.47900390625,12.63427734375
1.5274999000000002,0.9265560507774353,-0.3280056416988373,9.82879638671875,1.251220703125,0.213623046875,3.47900390625
1.5324999000000001,1.5670050382614136,-0.11013327538967133,9.952696800231934,0.213623046875,14.617919921875,-19.927978515625
1.5374999000000003,1.5310919284820557,-0.38965633511543274,9.813833236694336,5.401611328125,14.16015625,-12.603759765625
1.5424999000000001,1.2713210582733154,-0.6482301354408264,9.84376049041748,6.927490234375,17.27294921875,-32.1044921875
1.5474999,0.8307880163192749,-0.9373299479484558,9.630077362060547,3.7841796875,14.7705078125,-26.4892578125
1.5524999000000002,0.4668693244457245,-0.36810851097106934,9.788095474243164,0.1220703125,7.2021484375,-11.932373046875
1.5574999,-0.3603273630142212,-1.1019313335418701,9.641449928283691,-6.744384765625,1.0986328125,-0.335693359375
1.5624999000000002,-0.6476315855979919,0.5524620413780212,9.860519409179688,-1.15966796875,-8.7890625,17.608642578125
1.5674999,-1.1569979190826416,-0.46746787428855896,9.943120002746582,-12.420654296875,-17.51708984375,5.859375
1.5724999000000002,-0.8349778652191162,0.2861070930957794,9.82879638671875,-18.98193359375,-15.2587890625,22.674560546875
1.5774999,-0.5093663930892944,-0.43694180250167847,9.91738224029541,1.0986328125,-13.092041015625,28.50341796875
1.5824999000000002,-0.04908113554120064,-0.8942343592643738,9.67077922821045,7.415771484375,-7.537841796875,15.594482421875
1.5874999,0.2495955228805542,-1.0211269855499268,9.654618263244629,9.185791015625,-8.36181640625,15.31982421875
1.5924999000000002,1.3862427473068237,0.13168109953403473,9.946112632751465,1.373291015625,3.11279296875,-12.02392578125
1.5974999,1.635838270187378,0.07302315533161163,10.01075553894043,-0.579833984375,15.289306640625,-28.106689453125
1.6024999000000002,1.6352397203445435,-0.2064998894929886,9.797073364257812,1.190185546875,20.1416015625,-19.805908203125
1.6074999,1.3910311460494995,-0.48602294921875,9.8599214553833,9.796142578125,18.4326171875,-29.022216796875
1.6124999000000002,0.8589198589324951,-0.9654618501663208,9.601346969604492,5.706787109375,11.871337890625,-26.4892578125
1.6174999,0.46088382601737976,-0.4902127981185913,9.752182006835938,-1.5869140625,4.94384765625,-16.66259765625
1.6224999000000002,-0.375291109085083,-1.0845733880996704,9.70429801940918,-8.544921875,1.861572265625,-4.180908203125
1.6274999,-0.6775590777397156,0.5003881454467773,9.86889934539795,-1.953125,-6.927490234375,18.035888671875
1.6324999000000002,-1.2168530225753784,-0.4537012279033661,10.013748168945312,-10.3759765625,-18.463134765625,8.697509765625
1.6374999000000001,-0.9594763517379761,0.1951274424791336,9.794678688049316,-20.355224609375,-16.571044921875,19.287109375
1.6424999000000002,-0.6308721303939819,-0.4405331015586853,9.940725326538086,0.396728515625,-14.739990234375,31.92138671875
1.6474999000000001,1.7070658206939697,-0.2041056901216507,9.79647445678711,1.800537109375,20.93505859375,-20.050048828125
1.6524999000000002,1.4538789987564087,-0.5171475410461426,9.86770248413086,9.8876953125,19.073486328125,-30.548095703125
1.6574999000000001,0.9074024558067322,-1.004966139793396,9.601346969604492,5.218505859375,11.138916015625,-28.839111328125
1.6624999000000003,0.4818331003189087,-0.4950011968612671,9.806051254272461,-2.0751953125,4.791259765625,-18.37158203125
1.6674999000000001,-0.35434186458587646,-1.1139023303985596,9.713874816894531,-9.1552734375,2.349853515625,-4.21142578125
1.6724999,-0.6919242739677429,0.4620809257030487,9.926959037780762,-1.739501953125,-6.683349609375,17.333984375
1.6774999000000002,-1.2545616626739502,-0.4578910768032074,9.998785018920898,-10.43701171875,-18.85986328125,10.406494140625
1.6824999,-0.656609833240509,-0.47405192255973816,9.884461402893066,1.434326171875,-14.6484375,32.562255859375
1.6874999000000002,-0.656609833240509,-0.47405192255973816,9.884461402893066,1.434326171875,-14.6484375,32.562255859375
1.6924999,-0.1364694982767105,-0.9720458984375,9.565434455871582,8.331298828125,-9.368896484375,21.484375
1.6974999000000002,0.23942017555236816,-1.0211269855499268,9.64683723449707,10.955810546875,-6.9580078125,17.120361328125
1.7024999,0.49140989780426025,-0.8409633636474609,9.68155288696289,5.43212890625,-2.197265625,15.19775390625
1.7074999000000002,0.8744821548461914,-0.3603273630142212,9.827000617980957,1.800537109375,-0.1220703125,10.07080078125
1.7124999,1.4233529567718506,0.2059013396501541,9.937732696533203,1.03759765625,2.471923828125,-11.566162109375
1.7174999000000002,1.754351258277893,0.20470423996448517,10.062231063842773,0.1220703125,15.9912109375,-30.6396484375
1.7224999,1.777694821357727,-0.12509703636169434,9.84256362915039,1.8310546875,23.040771484375,-24.139404296875
1.7274999000000002,1.5328876972198486,-0.44352585077285767,9.90122127532959,9.063720703125,21.6064453125,-35.82763671875
1.7324999,0.9391255974769592,-0.9882067441940308,9.628880500793457,4.21142578125,8.026123046875,-29.96826171875
1.7374999000000002,0.4165911078453064,-0.5913678407669067,9.869498252868652,-2.50244140625,3.936767578125,-18.24951171875
1.7424999,-1.3120225667953491,-0.41718965768814087,9.956287384033203,-13.0615234375,-20.751953125,11.993408203125
1.7474999000000002,-1.0444705486297607,0.16220717132091522,9.784503936767578,-19.622802734375,-18.49365234375,20.81298828125
1.7524999,-0.6242880821228027,-0.3992331326007843,9.839570045471191,2.0751953125,-14.7705078125,33.538818359375
1.7574999000000002,-0.07781155407428741,-0.9678560495376587,9.50498104095459,8.544921875,-10.31494140625,24.871826171875
1.7624999000000001,0.27892449498176575,-1.0755951404571533,9.637260437011719,13.092041015625,-4.608154296875,22.186279296875
1.7674999000000002,0.4926069974899292,-0.9145850539207458,9.630077362060547,6.04248046875,-0.8544921875,19.6533203125
1.7724999000000001,0.8756792545318604,-0.40043023228645325,9.82879638671875,2.0751953125,-0.762939453125,11.29150390625
1.7774999000000002,1.4484920501708984,0.20231004059314728,9.935338973999023,0.457763671875,2.685546875,-10.955810546875
1.7824999000000001,1.8854337930679321,0.25917232036590576,10.066421508789062,0.579833984375,17.059326171875,-31.494140625
1.7874999000000003,1.9207483530044556,0.0035913025494664907,9.95090103149414,2.86865234375,26.214599609375,-30.6396484375
1.7924999000000001,1.6478092670440674,-0.314238965511322,9.922768592834473,8.026123046875,24.23095703125,-41.93115234375
1.7974999,0.29628247022628784,-0.71766197681427,9.848548889160156,-3.448486328125,3.0517578125,-21.728515625
1.8024999000000002,-0.5273229479789734,-1.1037269830703735,9.536704063415527,-10.406494140625,1.3427734375,-1.15966796875
1.8074999,-1.0690110921859741,0.10833762586116791,10.055048942565918,-0.18310546875,-11.77978515625,25.08544921875
1.8124999000000002,-1.3694833517074585,-0.353743314743042,9.81143856048584,-17.242431640625,-22.308349609375,11.3525390625
1.8174999,-1.148618221282959,0.020949264988303185,9.872490882873535,-16.2353515625,-18.829345703125,24.810791015625
1.8224999000000002,-0.5841852426528931,-0.6530185341835022,9.799467086791992,4.730224609375,-14.404296875,37.353515625
1.8274999,-0.018555063754320145,-1.039083480834961,9.565434455871582,11.260986328125,-9.33837890625,31.707763671875
1.8324999000000002,0.32680854201316833,-1.1617863178253174,9.637260437011719,14.434814453125,-0.152587890625,28.778076171875
1.8374999,0.5213374495506287,-0.7757213711738586,9.674370765686035,4.425048828125,-0.823974609375,21.1181640625
1.8424999000000002,0.8900445103645325,-0.25019407272338867,9.85034465789795,2.105712890625,-1.5869140625,9.521484375
1.8474999,1.313219666481018,-0.0011971008498221636,9.90241813659668,0.79345703125,2.532958984375,-7.62939453125
1.8524999000000002,1.7495628595352173,0.12629413604736328,9.932345390319824,3.35693359375,12.603759765625,-17.02880859375
1.8574999,1.7208324670791626,0.18555063009262085,10.0580415725708,-0.732421875,32.012939453125,-61.6455078125
1.8624999000000002,1.7208324670791626,0.18555063009262085,10.0580415725708,-0.732421875,32.012939453125,-61.6455078125
1.8674999,1.316810965538025,-0.02992752194404602,9.815628051757812,-2.227783203125,16.6015625,-67.07763671875
1.8724999000000002,0.40043023228645325,-0.5027823448181152,9.955689430236816,-3.90625,-3.11279296875,-48.187255859375
1.8774999,-0.43933600187301636,-0.9900023937225342,9.38167953491211,-7.8125,-3.47900390625,-2.655029296875
1.8824999000000002,-1.2563573122024536,-0.6099228858947754,9.892242431640625,-0.091552734375,-13.427734375,35.552978515625
1.8874999000000001,-1.4700398445129395,-0.6332663297653198,9.6989107131958,-22.5830078125,-23.834228515625,15.9912109375
1.8924999000000002,-1.2072762250900269,-0.4273650050163269,9.847949981689453,-16.143798828125,-20.355224609375,25.69580078125
1.8974999000000001,-0.7122750282287598,-1.280897855758667,9.755773544311523,8.544921875,-14.862060546875,40.924072265625
1.9024999000000002,-0.07781155407428741,-1.3000515699386597,9.551069259643555,19.439697265625,-5.645751953125,41.107177734375
1.9074999000000001,0.2124854028224945,-1.4939818382263184,9.549273490905762,14.129638671875,1.678466796875,39.093017578125
1.9124999000000003,0.4902127981185913,-0.5614402890205383,9.714473724365234,3.173828125,-0.67138671875,24.810791015625
1.9174999000000001,1.7573440074920654,0.20949265360832214,9.928155899047852,4.974365234375,12.14599609375,-11.8408203125
1.9224999,1.2216414213180542,-0.05027823522686958,9.96945571899414,0.335693359375,19.744873046875,-33.99658203125
1.9274999000000002,0.5859808921813965,-0.04668693244457245,9.930550575256348,-10.345458984375,12.8173828125,-50.628662109375
1.9324999,-0.243011474609375,-0.48482584953308105,9.858125686645508,-10.955810546875,-4.82177734375,-32.135009765625
1.9374999000000002,-0.9522937536239624,-0.1496376097202301,9.770736694335938,-1.739501953125,-9.918212890625,20.355224609375
1.9424999,-1.5376760959625244,-0.8050503134727478,9.75936508178711,-10.650634765625,-23.62060546875,32.8369140625
1.9474999000000002,-1.204882025718689,-0.5512649416923523,9.561244010925293,-15.380859375,-22.15576171875,18.00537109375
1.9524999,-0.788889467716217,-0.8589198589324951,9.710283279418945,6.134033203125,-16.754150390625,34.48486328125
1.9574999000000002,-0.1346738487482071,-1.3742717504501343,9.5223388671875,13.092041015625,-5.7373046875,32.501220703125
1.9624999,1.3898340463638306,-0.4902127981185913,9.692327499389648,3.7841796875,21.759033203125,-21.728515625
1.9674999000000002,1.1953052282333374,-0.1412578970193863,9.82879638671875,1.953125,11.566162109375,0.18310546875
1.9724999,0.5476736426353455,0.12749123573303223,10.121487617492676,-8.544921875,5.2490234375,-22.39990234375
1.9774999000000002,-0.12330138683319092,0.04249707981944084,9.938929557800293,-15.80810546875,7.62939453125,-16.754150390625
1.9824999,-0.8852560520172119,-0.7158663272857666,9.84376049041748,-5.67626953125,-4.69970703125,9.765625
1.9874999000000002,-0.9379284977912903,0.05267243832349777,9.728240013122559,4.0283203125,-27.435302734375,56.182861328125
1.9924999,-0.9289502501487732,-0.9702502489089966,9.798270225524902,-5.37109375,-15.106201171875,-7.4462890625
1.9974999000000002,0.9774328470230103,-0.524330198764801,9.870096206665039,2.25830078125,8.056640625,-3.173828125
2.0024999,1.139639973640442,-0.5237316489219666,9.852738380432129,6.805419921875,3.387451171875,2.838134765625
2.0074999,1.1121066808700562,-0.9894038438796997,9.740809440612793,7.171630859375,8.056640625,-30.914306640625
2.0124999000000003,0.899621307849884,-0.7829039692878723,9.77013874053955,4.180908203125,22.247314453125,-30.181884765625
2.0174999000000002,0.8146271109580994,-0.43754035234451294,9.747393608093262,2.0751953125,13.153076171875,6.53076171875
2.0224999,0.5351040959358215,0.07541735470294952,10.153210639953613,-6.103515625,2.288818359375,-13.214111328125
2.0274999,-0.1280897855758667,-0.04728548228740692,9.889848709106445,-15.2587890625,6.28662109375,-18.646240234375
2.0324999000000004,0.2819172441959381,-0.04967968538403511,9.737217903137207,-3.814697265625,-8.30078125,52.703857421875
2.0374999000000003,0.5752069354057312,-0.9331400990486145,9.785700798034668,14.129638671875,-16.082763671875,31.8603515625
2.0424999,0.7541735172271729,-0.4387374520301819,9.801861763000488,4.486083984375,-2.105712890625,-9.857177734375
2.0474999,0.7320271730422974,-0.26994624733924866,9.822212219238281,-0.152587890625,6.500244140625,-2.0751953125
2.0524999,1.1210849285125732,0.0867898091673851,9.928754806518555,-2.38037109375,2.899169921875,-15.106201171875
2.0574999000000003,0.93254154920578,-0.1538274586200714,9.943717956542969,0.91552734375,2.25830078125,-8.880615234375
2.0624999,0.6560112833976746,-0.6590040326118469,9.815628051757812,2.3193359375,5.126953125,-0.823974609375
2.0674999,0.7457938194274902,-0.7260416746139526,9.716269493103027,8.48388671875,1.312255859375,-0.030517578125
2.0724999,0.7745242714881897,-1.0330979824066162,9.695918083190918,4.7607421875,12.908935546875,-36.407470703125
2.0774999000000003,0.7882909178733826,0.0736217051744461,9.896432876586914,0.732421875,7.568359375,0.244140625
2.0824999,0.292691171169281,0.1041477769613266,10.053851127624512,-9.857177734375,2.685546875,-14.58740234375
2.0874999,-0.018555063754320145,0.38726213574409485,9.960477828979492,-10.80322265625,4.119873046875,-7.01904296875
2.0924999,-0.6087257862091064,-0.3908534348011017,9.98681354522705,-2.38037109375,-3.662109375,10.345458984375
2.0974999000000003,-0.9379284977912903,-1.1450269222259521,9.534908294677734,-2.3193359375,-17.913818359375,39.4287109375
2.1024999,-0.3214215636253357,-0.16101007163524628,9.739612579345703,10.101318359375,-22.918701171875,24.322509765625
2.1074999,-0.2908954918384552,-1.544858694076538,9.563039779663086,-12.02392578125,6.561279296875,-37.109375
2.1124999,0.4034229815006256,0.15921440720558167,9.847352027893066,-3.60107421875,-6.378173828125,50.506591796875
2.1174999000000003,0.7487865686416626,-0.9002198576927185,9.852140426635742,8.636474609375,-14.862060546875,16.2353515625
2.1224999,0.657806932926178,-0.383670836687088,9.884461402893066,4.45556640625,-2.13623046875,-9.33837890625
2.1274999,0.8553285598754883,-0.4339490532875061,9.819818496704102,1.03759765625,4.57763671875,-3.875732421875
2.1324999,0.9475052952766418,-0.11552023142576218,9.86351203918457,-2.105712890625,3.814697265625,-12.87841796875
2.1374999000000003,0.9487023949623108,-0.11252748221158981,9.892242431640625,0.732421875,2.62451171875,-7.080078125
2.1424999000000002,0.595557689666748,-0.6901286244392395,9.764751434326172,1.983642578125,5.7373046875,-7.415771484375
2.1474999,0.5566518902778625,-0.6542156338691711,9.731232643127441,7.2021484375,0.8544921875,7.568359375
2.1524999,0.6159083843231201,-0.9528923034667969,9.653421401977539,4.57763671875,5.096435546875,-24.444580078125
2.1574999000000004,0.5817909836769104,-0.6721721291542053,9.702502250671387,2.685546875,16.571044921875,-18.9208984375
2.1624999000000003,0.5793967843055725,-0.33937808871269226,9.765948295593262,2.25830078125,9.979248046875,4.94384765625
2.1674999,0.4620809257030487,0.05686229094862938,10.038289070129395,-3.875732421875,1.373291015625,-11.688232421875
2.1724999,-0.02454056777060032,-0.07661445438861847,9.898228645324707,-9.521484375,1.617431640625,-2.532958984375
2.1774999000000004,-0.1388636976480484,0.1107318252325058,10.044873237609863,-2.38037109375,-1.15966796875,4.730224609375
2.1824999000000003,-0.7068880796432495,-0.9493009448051453,9.674370765686035,-2.471923828125,-5.79833984375,10.43701171875
2.1874999,-0.7457938194274902,-1.0743980407714844,9.652822494506836,4.638671875,-16.41845703125,37.78076171875
2.1924999,-0.1346738487482071,-0.24899697303771973,9.606734275817871,6.500244140625,-19.10400390625,13.24462890625
2.1974999,0.06165069341659546,-0.9498994946479797,9.79527759552002,-12.969970703125,6.28662109375,-29.11376953125
2.2024999000000003,1.1073182821273804,-0.2406172752380371,9.948506355285645,4.119873046875,-10.467529296875,-2.13623046875
2.2074999,0.7535749673843384,-0.0694318488240242,9.931747436523438,2.50244140625,0.8544921875,-7.415771484375
2.2124999,0.9271546006202698,-0.4537012279033661,9.784503936767578,-0.762939453125,3.387451171875,-2.86865234375
2.2174999,0.8804676532745361,-0.36332011222839355,9.82759952545166,0.48828125,2.899169921875,-13.397216796875
2.2224999000000003,0.7930793166160583,-0.5249287486076355,9.820416450500488,1.068115234375,5.035400390625,-6.34765625
2.2274999,0.4489128291606903,-0.9696516990661621,9.745597839355469,1.708984375,6.195068359375,-5.2490234375
2.2324999,0.3705027103424072,-0.8439561128616333,9.709685325622559,7.171630859375,-0.48828125,7.6904296875
2.2374999,0.42437225580215454,-0.9756371974945068,9.64803409576416,4.57763671875,2.99072265625,-20.32470703125
2.2424999000000003,0.4842272996902466,-0.27712884545326233,9.778518676757812,2.471923828125,10.25390625,5.615234375
2.2474999,0.49380409717559814,0.1364694982767105,9.979032516479492,-1.77001953125,0.823974609375,-10.528564453125
2.2524999,-0.06823474913835526,0.17896658182144165,9.965864181518555,-3.23486328125,-1.5869140625,6.256103515625
2.2574999,-0.34356793761253357,-0.35913026332855225,9.837176322937012,-1.861572265625,-5.67626953125,6.011962890625
2.2624999000000003,-0.6572083830833435,-1.0743980407714844,9.700108528137207,-0.091552734375,-9.002685546875,19.744873046875
2.2674999000000002,-0.166995570063591,-0.09397241473197937,9.618106842041016,8.4228515625,-19.8974609375,37.59765625
2.2724999,0.2346317619085312,-0.8355764150619507,9.928754806518555,-6.561279296875,-4.57763671875,-28.74755859375
2.2774999,0.2346317619085312,-0.8355764150619507,9.928754806518555,-6.561279296875,-4.57763671875,-28.74755859375
2.2824999000000004,0.46148237586021423,0.16998831927776337,9.7605619430542,-9.3994140625,5.950927734375,15.5029296875
2.2874999000000003,1.0324994325637817,-0.21547815203666687,10.049661636352539,2.899169921875,-9.1552734375,18.9208984375
2.2924999,0.8200140595436096,-0.38905778527259827,9.911396026611328,1.708984375,-3.875732421875,-16.845703125
2.2974999,0.6685808300971985,-0.5841852426528931,9.757569313049316,1.251220703125,2.960205078125,5.767822265625
2.3024999000000004,0.8565256595611572,-0.5291185975074768,9.779715538024902,-0.152587890625,1.46484375,-11.199951171875
2.3074999000000003,0.7864952683448792,-0.37469255924224854,9.780912399291992,1.28173828125,4.0283203125,-6.927490234375
2.3124999,0.4010287821292877,-0.7511807680130005,9.734225273132324,4.180908203125,4.608154296875,-0.396728515625
2.3174999,0.27473464608192444,-0.9181763529777527,9.676764488220215,6.317138671875,-1.190185546875,4.638671875
2.3224999,0.031124621629714966,0.10594342648983002,9.9371337890625,-2.5634765625,-1.3427734375,5.31005859375
2.3274999000000003,-0.15502455830574036,-0.3130418658256531,9.846753120422363,-1.77001953125,-5.37109375,6.378173828125
2.3324999,-0.5135562419891357,-1.0528502464294434,9.75517463684082,-0.9765625,-7.01904296875,13.458251953125
2.3374999,-0.2944868206977844,-0.518943190574646,9.693524360656738,7.354736328125,-17.303466796875,37.628173828125
2.3424999,0.2717418968677521,-0.6991068720817566,9.882067680358887,-2.716064453125,-10.467529296875,-16.021728515625
2.3474999000000003,0.6093243360519409,-0.40521863102912903,9.779715538024902,1.251220703125,1.89208984375,5.31005859375
2.3524999,0.7894880175590515,-0.5009866952896118,9.756970405578613,-0.030517578125,1.46484375,-5.43212890625
2.3574999,0.7092822790145874,-0.4183867573738098,9.762357711791992,1.46484375,2.50244140625,-7.6904296875
2.3624999,0.667982280254364,-0.5680243372917175,9.800065994262695,-0.3662109375,5.706787109375,-5.706787109375
2.3674999000000003,0.5063736438751221,-0.7344213724136353,9.785700798034668,1.0986328125,5.615234375,-8.880615234375
2.3724999,0.19153612852096558,-0.872686505317688,9.750386238098145,5.92041015625,2.044677734375,6.927490234375
2.3774999,0.18555063009262085,-0.9726444482803345,9.643245697021484,4.7607421875,-2.99072265625,0.762939453125
2.3824999,0.33758243918418884,-0.6823474764823914,9.691129684448242,2.74658203125,4.913330078125,-19.927978515625
2.3874999000000003,0.3621230125427246,-0.3058592677116394,9.73542308807373,1.5869140625,12.542724609375,-4.425048828125
2.3924999000000002,0.5363011956214905,-0.12030863761901855,9.813234329223633,-0.335693359375,4.39453125,1.5869140625
2.3974999,0.152031809091568,-0.05267243832349777,9.922170639038086,-3.448486328125,3.204345703125,0.396728515625
2.4024999,0.1586158573627472,0.020949264988303185,9.938929557800293,-2.899169921875,0.67138671875,2.38037109375
2.4074999000000004,-0.04728548228740692,-0.2711433470249176,9.874286651611328,-1.46484375,-4.638671875,7.476806640625
2.4124999000000003,-0.3663128614425659,-0.9624691009521484,9.806650161743164,-1.617431640625,-6.8359375,8.148193359375
2.4174999,-0.3447650372982025,-0.7015010714530945,9.740809440612793,5.06591796875,-12.847900390625,29.571533203125
2.4224999,0.21188685297966003,-0.6991068720817566,9.832387924194336,0,-12.451171875,-4.45556640625
2.4274999000000004,0.34656068682670593,-0.3555389642715454,9.816226959228516,-7.659912109375,4.058837890625,-7.50732421875
2.4324999000000003,0.8415619134902954,0.11971008777618408,9.943717956542969,-1.0986328125,0.701904296875,14.801025390625
2.4374999,0.9552865028381348,-0.11671733111143112,9.87967300415039,-0.67138671875,-4.791259765625,-12.969970703125
2.4424999,0.5829881429672241,-0.33339259028434753,9.824606895446777,1.007080078125,0.18310546875,4.82177734375
2.4474999,0.669179379940033,-0.5662286877632141,9.771934509277344,0.579833984375,0.762939453125,-3.60107421875
2.4524999000000003,0.5506663918495178,-0.5099649429321289,9.75397777557373,1.617431640625,1.495361328125,-3.997802734375
2.4574999,0.5452794432640076,-0.5339069962501526,9.832986831665039,-1.373291015625,4.69970703125,-8.331298828125
2.4624999,0.3860650360584259,-0.6871358752250671,9.785101890563965,2.227783203125,5.218505859375,-3.509521484375
2.4674999,0.17178396880626678,-0.9068039059638977,9.750985145568848,6.103515625,0.732421875,7.9345703125
2.4724999000000003,0.20290859043598175,-0.9349357485771179,9.601945877075195,3.96728515625,-2.38037109375,-1.8310546875
2.4774999,0.383670836687088,-0.586579442024231,9.694721221923828,2.655029296875,5.340576171875,-16.448974609375
2.4824999,0.20949265360832214,-0.1107318252325058,9.916184425354004,-3.082275390625,0.640869140625,-0.06103515625
2.4874999,-0.020350715145468712,-0.33279404044151306,9.890447616577148,-1.8310546875,-3.23486328125,7.14111328125
2.4924999000000003,-0.2190694510936737,-0.7416039705276489,9.84495735168457,-2.410888671875,-5.9814453125,6.134033203125
2.4974999,-0.3621230125427246,-0.7954735159873962,9.725247383117676,2.899169921875,-10.101318359375,22.0947265625
2.5024999,0.15083470940589905,-0.4321534037590027,9.785101890563965,2.716064453125,-12.603759765625,7.01904296875
2.5074999,0.3298012912273407,-0.3992331326007843,9.770736694335938,-6.805419921875,1.068115234375,-13.12255859375
2.5124999000000003,0.7038952708244324,0.2322375625371933,9.895236015319824,-2.01416015625,2.716064453125,13.671875
2.5174999000000002,0.973242998123169,-0.06584054976701736,9.883264541625977,-1.8310546875,-4.33349609375,-11.138916015625
2.5224999,0.6021417379379272,-0.2669534981250763,9.86889934539795,0.518798828125,-0.885009765625,2.99072265625
2.5274999,0.6512228846549988,-0.6763619780540466,9.806650161743164,0.885009765625,0.762939453125,-1.3427734375
2.5324999000000004,0.557250440120697,-0.6230909824371338,9.753378868103027,2.685546875,1.3427734375,-4.150390625
2.5374999000000003,0.5261258482933044,-0.6332663297653198,9.776124000549316,0.457763671875,2.777099609375,-3.265380859375
2.5424999,0.5674257874488831,-0.34656068682670593,9.835979461669922,-0.732421875,2.349853515625,-6.134033203125
2.5474999,0.4602852761745453,-0.6649895310401917,9.856928825378418,-1.15966796875,4.39453125,-9.185791015625
2.5524999000000004,0.314238965511322,-0.6087257862091064,9.78869342803955,4.21142578125,4.82177734375,3.875732421875
2.5574999000000003,0.1777694821357727,-0.933738648891449,9.767744064331055,5.67626953125,0.3662109375,3.11279296875
2.5624999,-0.21428105235099792,-0.8565256595611572,9.795876502990723,-1.64794921875,-6.77490234375,6.34765625
2.5674999,-0.23283611238002777,-0.6542156338691711,9.674968719482422,4.45556640625,-9.979248046875,20.99609375
2.5724999,0.19572599232196808,-0.7158663272857666,9.79647445678711,-0.152587890625,-8.72802734375,-2.685546875
2.5774999000000003,0.30226796865463257,-0.19033902883529663,9.781511306762695,-5.2490234375,1.64794921875,-1.922607421875
2.5824999,0.5213374495506287,-0.5219359993934631,9.798270225524902,-0.48828125,2.25830078125,-3.875732421875
2.5874999,0.5644330382347107,-0.2603694200515747,9.84256362915039,-0.54931640625,1.8310546875,-5.859375
2.5924999,0.4836287498474121,-0.6404489278793335,9.841365814208984,-0.640869140625,5.279541015625,-10.31494140625
2.5974999000000003,0.3100491166114807,-0.5919663906097412,9.787496566772461,4.547119140625,5.645751953125,4.180908203125
2.6024999,0.2232593148946762,-0.8882488012313843,9.73542308807373,4.69970703125,-0.3662109375,1.953125
2.6074999,0.2106897532939911,-0.7727286219596863,9.649829864501953,1.678466796875,-1.40380859375,-6.072998046875
2.6124999,0.365115761756897,-0.517746090888977,9.742006301879883,1.007080078125,5.523681640625,-10.7421875
2.6174999000000003,0.3705027103424072,-0.22864626348018646,9.800664901733398,0.6103515625,7.659912109375,-3.0517578125
2.6224999,-0.0736217051744461,-0.3357867896556854,9.818621635437012,-2.410888671875,-4.57763671875,10.986328125
2.6274999,-0.22026655077934265,-0.9074024558067322,9.747992515563965,-0.152587890625,-8.6669921875,9.979248046875
2.6324999,-0.002394201699644327,-0.3800795078277588,9.6989107131958,5.462646484375,-11.04736328125,17.852783203125
2.6374999000000003,0.26994624733924866,-0.7625532150268555,9.745597839355469,-4.2724609375,-3.662109375,-10.43701171875
2.6424999000000002,0.5895721912384033,-0.3429693877696991,9.889249801635742,1.28173828125,-0.91552734375,1.40380859375
2.6474999,0.6799532771110535,-0.6332663297653198,9.79647445678711,1.8310546875,1.495361328125,-1.678466796875
2.6524999,0.5644330382347107,-0.6404489278793335,9.79288387298584,1.495361328125,1.373291015625,-4.425048828125
2.6574999000000004,0.6111199855804443,-0.28550854325294495,9.807847023010254,-0.091552734375,2.62451171875,-6.011962890625
2.6624999000000003,0.5752069354057312,-0.5500678420066833,9.882665634155273,-0.518798828125,5.584716796875,-10.7421875
2.6674999,0.4058171808719635,-0.5554547905921936,9.731831550598145,2.044677734375,7.32421875,-3.021240234375
2.6724999,0.2711433470249176,-0.7439981698989868,9.787496566772461,6.134033203125,1.3427734375,5.889892578125
2.6774999000000004,0.22864626348018646,-0.8331822156906128,9.622895240783691,2.25830078125,-0.54931640625,-6.77490234375
2.6824999000000003,0.28371289372444153,-0.557250440120697,9.721057891845703,1.190185546875,5.31005859375,-10.040283203125
2.6874999,0.3166331648826599,-0.292691171169281,9.75517463684082,0.946044921875,7.4462890625,-5.950927734375
2.6924999,0.36092591285705566,-0.16400282084941864,9.790489196777344,-0.91552734375,1.28173828125,3.72314453125
2.6974999,0.25318682193756104,0.181959331035614,10.017938613891602,-3.0517578125,-2.13623046875,-4.852294921875
2.7024999000000003,0.13527239859104156,0.02274491637945175,9.860519409179688,-4.791259765625,-0.091552734375,1.708984375
2.7074999,0.08319851011037827,0.03890577703714371,10.016142845153809,-2.471923828125,-1.251220703125,3.448486328125
2.7124999,-0.12330138683319092,-0.3495534360408783,9.800065994262695,-2.838134765625,-5.67626953125,14.007568359375
2.7174999,-0.010773907415568829,-0.4207809567451477,9.695918083190918,5.67626953125,-11.65771484375,17.2119140625
2.7224999000000003,0.29807811975479126,-0.7463923692703247,9.764153480529785,-4.69970703125,-3.570556640625,-8.9111328125
2.7274999,0.5231330990791321,-0.023343466222286224,9.853935241699219,-2.288818359375,1.556396484375,7.476806640625
2.7324999,0.8930372595787048,-0.1735796183347702,9.889249801635742,-1.495361328125,-4.2724609375,-4.8828125
2.7374999,0.6392518281936646,-0.40222588181495667,9.8970308303833,1.373291015625,-1.5869140625,1.922607421875
2.7424999000000003,0.751779317855835,-0.507570743560791,9.785101890563965,2.227783203125,1.28173828125,-2.38037109375
2.7474999,0.6200982332229614,-0.5919663906097412,9.773730278015137,0.885009765625,2.13623046875,-5.31005859375
2.7524999,0.7044938206672668,-0.406415730714798,9.780912399291992,0,2.655029296875,-5.43212890625
2.7574999,0.6392518281936646,-0.3166331648826599,9.822212219238281,-0.30517578125,3.692626953125,-7.904052734375
2.7624999000000003,0.5650315880775452,-0.5045779943466187,9.856329917907715,-0.091552734375,5.584716796875,-6.34765625
2.7674999000000002,0.4315548539161682,-0.6847416758537292,9.781511306762695,3.082275390625,5.37109375,-3.0517578125
2.7724999,0.262763649225235,-0.9163807034492493,9.744999885559082,5.523681640625,2.9296875,3.204345703125
2.7774999,0.29149407148361206,-0.5081692934036255,9.730634689331055,1.129150390625,6.744384765625,-14.70947265625
2.7824999000000004,0.2041056901216507,-0.2861070930957794,9.725846290588379,0,4.852294921875,4.94384765625
2.7874999000000003,0.3687070608139038,0.20709845423698425,9.90361499786377,-2.105712890625,-0.762939453125,-3.021240234375
2.7924999,0.05746084079146385,-0.03531447425484657,9.932345390319824,-4.730224609375,-1.068115234375,0.030517578125
2.7974999,0.2124854028224945,0.20709845423698425,10.013150215148926,-3.631591796875,-1.556396484375,0.732421875
2.8024999000000004,-0.1999158412218094,-0.8888474106788635,9.868300437927246,-2.3193359375,-8.72802734375,11.41357421875
2.8074999000000003,-0.1759738177061081,-0.6937199234962463,9.739013671875,6.744384765625,-11.993408203125,17.547607421875
2.8124999,0.1975216418504715,-0.8972271084785461,9.788095474243164,-1.15966796875,-8.392333984375,-0.9765625
2.8174999,0.1975216418504715,-0.8972271084785461,9.788095474243164,-1.15966796875,-8.392333984375,-0.9765625
2.8224999,0.35254621505737305,-0.26755204796791077,9.807847023010254,-4.608154296875,1.312255859375,2.685546875
2.8274999000000003,0.9528923034667969,-0.03531447425484657,9.873687744140625,-0.48828125,-2.960205078125,1.52587890625
2.8324999,0.8080430626869202,-0.2124854028224945,9.769539833068848,2.3193359375,1.953125,2.777099609375
2.8374999,0.7948749661445618,-0.4471171796321869,9.791686058044434,1.28173828125,1.03759765625,-9.063720703125
2.8424999,0.6919242739677429,-0.3555389642715454,9.77133560180664,-0.030517578125,4.241943359375,-4.119873046875
2.8474999000000003,0.7320271730422974,-0.3884592354297638,9.84615421295166,-0.06103515625,4.608154296875,-9.33837890625
2.8524999,0.5650315880775452,-0.5141547918319702,9.829395294189453,0.213623046875,5.828857421875,-7.6904296875
2.8574999,0.42616790533065796,-0.7314286231994629,9.77672290802002,2.0751953125,5.462646484375,-3.35693359375
2.8624999,0.2908954918384552,-0.9313444495201111,9.710283279418945,5.340576171875,3.265380859375,1.46484375
2.8674999000000003,0.2621650993824005,-0.8415619134902954,9.646238327026367,4.08935546875,3.96728515625,-8.087158203125
2.8724999,0.26815059781074524,-0.5805938839912415,9.731232643127441,1.15966796875,6.927490234375,-13.763427734375
2.8774999,0.18136078119277954,-0.35434186458587646,9.711481094360352,-0.823974609375,4.180908203125,4.69970703125
2.8824999,-0.17238251864910126,-0.6260837316513062,9.724050521850586,7.049560546875,-12.0849609375,21.270751953125
2.8874999000000003,0.25677812099456787,-0.9050082564353943,9.806650161743164,-2.3193359375,-9.521484375,-1.922607421875
2.8924999000000002,0.4159925580024719,-0.262763649225235,9.832387924194336,-5.706787109375,1.373291015625,0.518798828125
2.8974999,0.9696516990661621,0,9.905410766601562,1.220703125,-2.105712890625,4.852294921875
2.9024999,0.872686505317688,-0.2753331959247589,9.893440246582031,-0.518798828125,-3.35693359375,-7.9345703125
2.9074999000000004,0.8038532137870789,-0.243011474609375,9.761758804321289,1.5869140625,2.0751953125,3.692626953125
2.9124999000000003,0.823006808757782,-0.6751648783683777,9.773730278015137,1.52587890625,2.532958984375,-9.82666015625
2.9174999,0.7547720670700073,-0.4255693554878235,9.724648475646973,0.701904296875,5.0048828125,-5.92041015625
2.9224999,0.6967126727104187,-0.5674257874488831,9.80904483795166,-1.068115234375,6.011962890625,-9.8876953125
2.9274999000000004,0.3770867586135864,-0.7206547260284424,9.750386238098145,2.593994140625,6.195068359375,-4.5166015625
2.9324999000000003,0.27054479718208313,-0.7811083197593689,9.68155288696289,6.256103515625,4.486083984375,0.885009765625
2.9374999,0.2663549482822418,-0.7547720670700073,9.6989107131958,2.532958984375,5.615234375,-13.885498046875
2.9424999,0.1999158412218094,-0.4572925269603729,9.706093788146973,0.457763671875,6.195068359375,-4.8828125
2.9474999,0.23523031175136566,-0.0736217051744461,9.85034465789795,-0.732421875,2.8076171875,1.312255859375
2.9524999000000003,0.026336219161748886,-0.07721300423145294,9.955090522766113,-4.150390625,-1.8310546875,-1.52587890625
2.9574999,0.040701430290937424,0.13168109953403473,9.938331604003906,-4.913330078125,-3.509521484375,1.373291015625
2.9624999,-0.25318682193756104,-0.6326677799224854,9.770736694335938,4.547119140625,-11.04736328125,18.341064453125
2.9674999,-0.25318682193756104,-0.6326677799224854,9.770736694335938,4.547119140625,-11.04736328125,18.341064453125
2.9724999000000003,0.19871874153614044,-0.5105634927749634,9.755773544311523,2.532958984375,-12.3291015625,11.474609375
2.9774999,0.3345896899700165,-0.436343252658844,9.80904483795166,-7.080078125,-1.983642578125,-4.730224609375
2.9824999,0.8086416125297546,-0.27892449498176575,9.803058624267578,2.01416015625,1.617431640625,3.11279296875
2.9874999,0.912190854549408,-0.6350619792938232,9.803657531738281,1.312255859375,3.509521484375,-9.6435546875
2.9924999000000003,0.8182184100151062,-0.4507084786891937,9.749788284301758,0.640869140625,4.913330078125,-7.171630859375
2.9974999,0.750582218170166,-0.5141547918319702,9.806051254272461,-0.701904296875,6.072998046875,-9.27734375
3.0024999,0.6266822814941406,-0.5051765441894531,9.801861763000488,0.640869140625,7.26318359375,-11.322021484375
3.0074999,0.4273650050163269,-0.8271966576576233,9.733627319335938,2.716064453125,8.209228515625,-7.843017578125
3.0124999000000003,0.3321954905986786,-0.7104793787002563,9.685144424438477,7.14111328125,6.195068359375,-0.9765625
3.0174999000000002,0.2603694200515747,-0.6901286244392395,9.707290649414062,1.953125,6.683349609375,-16.998291015625
3.0224999,0.06464344263076782,-0.5548562407493591,9.68574333190918,-1.708984375,7.354736328125,-7.171630859375
3.0274999,0.05027823522686958,0.1951274424791336,9.9586820602417,-1.068115234375,0.244140625,4.0283203125
3.0324999000000004,-0.1711854189634323,-0.13287819921970367,9.909601211547852,-7.4462890625,-4.5166015625,-1.251220703125
3.0374999000000003,0.25258827209472656,-0.8409633636474609,9.724648475646973,-4.69970703125,-7.110595703125,-1.0986328125
3.0424999,0.5704185366630554,-0.1430535465478897,9.853337287902832,-1.46484375,-1.861572265625,7.080078125
3.0474999,0.9929951429367065,-0.3387795388698578,9.888651847839355,0.518798828125,-6.134033203125,-5.0048828125
3.0524999000000004,0.912190854549408,-0.21607670187950134,9.873088836669922,3.387451171875,0.42724609375,1.708984375
3.0574999000000003,1.1013327836990356,-0.37169981002807617,9.877279281616211,0.640869140625,4.486083984375,-10.528564453125
3.0624999,0.9858125448226929,-0.28131869435310364,9.804854393005371,-1.312255859375,6.378173828125,-9.429931640625
3.0674999,0.9331400990486145,-0.2944868206977844,9.840168952941895,0,6.866455078125,-9.94873046875
3.0724999000000004,0.7631517648696899,-0.40940847992897034,9.800664901733398,1.28173828125,9.521484375,-16.326904296875
3.0774999000000003,0.4836287498474121,-1.0408791303634644,9.71926212310791,2.50244140625,12.542724609375,-16.05224609375
3.0824999,0.18555063009262085,-1.0809820890426636,9.671976089477539,1.861572265625,8.4228515625,-17.242431640625
3.0874999,0.02693476900458336,-0.22685061395168304,9.759963035583496,-1.861572265625,7.232666015625,-8.514404296875
3.0924999,-0.22685061395168304,-0.005386953707784414,9.889249801635742,-5.4931640625,-3.570556640625,8.056640625
3.0974999000000003,-0.3734954595565796,0.21428105235099792,9.97065258026123,-10.650634765625,-8.209228515625,-0.79345703125
3.1024999,-0.5704185366630554,-0.02214636653661728,9.914987564086914,-6.072998046875,-10.467529296875,20.6298828125
3.1074999,-0.5829881429672241,-0.8343793153762817,9.714473724365234,-3.082275390625,-13.48876953125,18.829345703125
3.1124999,-0.2645592987537384,-0.606930136680603,9.742605209350586,7.904052734375,-15.31982421875,23.98681640625
3.1174999000000003,0.05446808785200119,-0.9786299467086792,9.72165584564209,0.42724609375,-11.474609375,11.993408203125
3.1224999,1.3108254671096802,-0.3016694188117981,9.805453300476074,0.213623046875,9.6435546875,-13.336181640625
3.1274999,0.9900023937225342,-0.5045779943466187,9.785700798034668,1.983642578125,13.7939453125,-27.89306640625
3.1324999,0.6847416758537292,-0.7559691667556763,9.727641105651855,3.753662109375,17.39501953125,-27.40478515625
3.1374999000000003,0.35075053572654724,-1.2324153184890747,9.543288230895996,2.197265625,9.002685546875,-8.331298828125
3.1424999000000002,0.1975216418504715,-1.0630255937576294,9.613917350769043,5.126953125,8.087158203125,-20.751953125
3.1474999,-0.26755204796791077,-0.8672995567321777,9.710283279418945,-0.396728515625,4.5166015625,-5.79833984375
3.1524999,-0.456095427274704,-0.31543606519699097,9.749189376831055,-12.176513671875,-4.150390625,6.561279296875
3.1574999000000004,-0.8409633636474609,0.017956512048840523,10.052654266357422,-7.598876953125,-13.916015625,18.00537109375
3.1624999000000003,-0.9738415479660034,-0.41958385705947876,9.831789016723633,-6.744384765625,-19.561767578125,28.594970703125
3.1674999,-0.6512228846549988,-0.34596213698387146,9.874286651611328,7.8125,-17.974853515625,30.120849609375
3.1724999,-0.21667525172233582,-0.7793126702308655,9.788095474243164,6.65283203125,-8.819580078125,20.8740234375
3.1774999000000004,0.2256535142660141,-0.40043023228645325,9.819219589233398,1.129150390625,-4.0283203125,15.838623046875
3.1824999000000003,1.6376339197158813,-0.47405192255973816,9.750985145568848,1.983642578125,9.6435546875,-21.3623046875
3.1874999,1.9494787454605103,-0.4752490520477295,9.718663215637207,12.51220703125,21.3623046875,-18.463134765625
3.1924999,1.6519991159439087,-0.8649053573608398,9.750386238098145,4.2724609375,20.843505859375,-20.81298828125
3.1974999000000004,1.0743980407714844,-0.6721721291542053,9.731232643127441,-4.241943359375,13.824462890625,-24.261474609375
3.2024999000000003,-0.760757565498352,-0.18315643072128296,9.593565940856934,-11.962890625,-7.87353515625,10.19287109375
3.2074999,-1.1558008193969727,-0.5363011956214905,9.634865760803223,-9.674072265625,-20.3857421875,31.585693359375
3.2124999,-1.0067617893218994,-1.0582371950149536,9.514557838439941,-5.0048828125,-24.10888671875,31.3720703125
3.2174999,1.282094955444336,0.43933600187301636,10.021530151367188,-2.62451171875,-1.983642578125,-0.640869140625
3.2224999000000003,1.8034324645996094,-0.2717418968677521,9.817423820495605,1.64794921875,8.72802734375,-20.44677734375
3.2274999,2.2595279216766357,-0.29867666959762573,9.785101890563965,13.73291015625,23.0712890625,-20.416259765625
3.2324999,2.034472942352295,-0.6841431260108948,9.82999324798584,6.195068359375,23.5595703125,-23.0712890625
3.2374999,1.3868412971496582,-0.456095427274704,9.797073364257812,-4.45556640625,16.510009765625,-28.62548828125
3.2424999000000003,0.6386532783508301,-0.4465186297893524,9.797672271728516,-4.730224609375,6.34765625,-43.39599609375
3.2474999,0.002394201699644327,-0.7104793787002563,9.664793968200684,1.861572265625,2.105712890625,-38.421630859375
3.2524999,-0.7050924301147461,-1.0091559886932373,9.540295600891113,-3.96728515625,-1.8310546875,-12.0849609375
3.2574999,-1.2449848651885986,-0.9097966551780701,9.502586364746094,-9.09423828125,-26.092529296875,33.966064453125
3.2624999000000003,-0.7733271718025208,-0.6727706789970398,9.674968719482422,11.474609375,-17.730712890625,38.482666015625
3.2674999000000002,-0.22685061395168304,-1.026513934135437,9.693524360656738,8.72802734375,-0.8544921875,27.130126953125
3.2724999,0.36571431159973145,-0.2753331959247589,9.832986831665039,2.5634765625,-1.190185546875,24.0478515625
3.2774999,0.8301894664764404,0.3405751883983612,10.029311180114746,2.01416015625,-3.082275390625,19.805908203125
3.2824999000000004,2.033275842666626,-0.6757634282112122,9.852738380432129,8.30078125,25.238037109375,-24.444580078125
3.2874999000000003,1.367687702178955,-0.8200140595436096,9.774927139282227,-3.326416015625,17.181396484375,-26.06201171875
3.2924999,0.7200561761856079,-0.5925649404525757,9.6803560256958,-2.899169921875,5.2490234375,-40.496826171875
3.2974999,-0.18974047899246216,-0.9367313981056213,9.724050521850586,7.2021484375,-2.5634765625,20.294189453125
3.3024999000000004,0.39803603291511536,-0.21966800093650818,9.840168952941895,2.349853515625,-1.495361328125,17.486572265625
3.3074999000000003,0.8469488620758057,0.28131869435310364,10.02571964263916,1.678466796875,-2.74658203125,15.960693359375
3.3124999,1.2641384601593018,0.5404910445213318,10.036493301391602,-2.899169921875,-2.593994140625,-1.89208984375
3.3174999,1.659181833267212,-0.12330138683319092,9.891644477844238,-3.11279296875,5.950927734375,-21.697998046875
3.3224999000000004,2.0260932445526123,-0.4926069974899292,9.761159896850586,11.444091796875,22.003173828125,-22.27783203125
3.3274999000000003,1.9829975366592407,-0.6913257241249084,9.755773544311523,12.603759765625,25.87890625,-25.08544921875
3.3324999,-0.6739677786827087,-0.3597288131713867,9.722254753112793,7.781982421875,-19.927978515625,36.956787109375
3.3374999,-0.1801636815071106,-0.8289923667907715,9.706093788146973,6.805419921875,-4.8828125,18.524169921875
3.3424999,0.4058171808719635,-0.17477671802043915,9.800664901733398,1.312255859375,-1.5869140625,14.2822265625
3.3474999000000003,0.9169792532920837,0.25917232036590576,9.99220085144043,0.8544921875,-3.2958984375,12.26806640625
3.3524999,1.2545616626739502,0.49380409717559814,10.017938613891602,-2.50244140625,-2.74658203125,-1.89208984375
3.3574999,1.8908207416534424,-0.7218518257141113,9.785700798034668,12.939453125,24.4140625,-26.30615234375
3.3624999,0.7679402232170105,-0.9714473485946655,9.642048835754395,-4.119873046875,8.087158203125,-21.942138671875
3.3674999000000003,0.0933738648891449,-0.993593692779541,9.64683723449707,2.471923828125,1.007080078125,-30.364990234375
3.3724999,-0.5985504388809204,-0.7463923692703247,9.852140426635742,0.42724609375,1.739501953125,-9.09423828125
3.3774999,-0.849941611289978,-0.7110779285430908,9.626486778259277,-12.0849609375,-4.39453125,9.27734375
3.3824999,-1.0935516357421875,-0.08379705995321274,10.10173511505127,-7.6904296875,-13.763427734375,14.739990234375
3.3874999000000003,-1.2497732639312744,-0.5590460896492004,9.767744064331055,-9.521484375,-22.125244140625,36.773681640625
3.3924999000000002,-0.7769184708595276,-0.43335050344467163,9.776124000549316,4.180908203125,-20.965576171875,35.5224609375
3.3974999,-0.2902969419956207,-0.8738836050033569,9.725846290588379,9.521484375,-8.209228515625,22.03369140625
3.4024999,0.3166331648826599,-0.44771572947502136,9.764751434326172,1.64794921875,-1.251220703125,12.63427734375
3.4074999000000004,1.9207483530044556,-0.5859808921813965,9.807847023010254,11.5966796875,21.8505859375,-26.123046875
3.4124999000000003,1.3796586990356445,-0.9552865028381348,9.761758804321289,4.913330078125,21.78955078125,-24.90234375
3.4174999,0.8481459617614746,-0.9941922426223755,9.740211486816406,-3.2958984375,11.474609375,-20.08056640625
3.4224999,0.28790274262428284,-0.823006808757782,9.650428771972656,1.373291015625,1.373291015625,-31.707763671875
3.4274999000000004,-0.3770867586135864,-0.4207809567451477,9.93474006652832,2.044677734375,2.227783203125,-17.608642578125
3.4324999000000003,-0.8457517623901367,-0.5135562419891357,9.604340553283691,-10.68115234375,-2.227783203125,9.857177734375
3.4374999,-0.9870096445083618,0.13407529890537262,9.979032516479492,-10.19287109375,-12.6953125,8.697509765625
3.4424999,-1.4059948921203613,-0.5219359993934631,9.725247383117676,-9.674072265625,-21.514892578125,36.31591796875
3.4474999000000004,-0.9163807034492493,-0.6955155730247498,9.593565940856934,-0.457763671875,-22.125244140625,35.5224609375
3.4524999000000003,0.9259575009346008,-1.0067617893218994,9.733627319335938,-2.349853515625,14.46533203125,-19.6533203125
3.4574999,0.45908817648887634,-0.8445546627044678,9.667786598205566,0.3662109375,3.84521484375,-30.059814453125
3.4624999,-0.12449848651885986,-0.39564183354377747,9.941922187805176,2.685546875,2.0751953125,-25.177001953125
3.4674999,-0.7272387742996216,-0.6619967818260193,9.61331844329834,-10.7421875,-1.03759765625,7.293701171875
3.4724999000000003,-0.8248024582862854,0.04369417950510979,9.911396026611328,-11.993408203125,-10.3759765625,7.598876953125
3.4774999,-1.380257248878479,-0.6404489278793335,9.741408348083496,-9.918212890625,-20.93505859375,35.919189453125
3.4824999,-0.9343371987342834,-0.8876502513885498,9.48462963104248,-3.84521484375,-22.979736328125,37.7197265625
3.4874999,-0.5680243372917175,-1.1504138708114624,9.560646057128906,11.932373046875,-13.00048828125,29.510498046875
3.4924999000000003,0.060453593730926514,-0.9911994934082031,9.569623947143555,4.69970703125,-2.0751953125,12.237548828125
3.4974999,0.6224924325942993,-0.30945056676864624,9.782109260559082,2.13623046875,-2.410888671875,15.594482421875
3.5024999,1.037886381149292,0.17178396880626678,9.959878921508789,0.9765625,-2.38037109375,10.589599609375
3.5074999,1.447893500328064,0.2944868206977844,9.980828285217285,-2.349853515625,1.52587890625,-15.07568359375
3.5124999000000003,1.6855180263519287,-0.2861070930957794,9.82879638671875,2.99072265625,14.434814453125,-21.209716796875
3.5174999000000002,1.866280198097229,-0.4159925580024719,9.799467086791992,10.894775390625,20.20263671875,-19.805908203125
3.5224999,0.4920084476470947,-0.5680243372917175,9.712079048156738,-5.55419921875,5.0048828125,-40.8935546875
3.5274999,-0.8942343592643738,-0.13766659796237946,9.829395294189453,-9.735107421875,-8.575439453125,12.786865234375
3.5324999000000004,-1.2132617235183716,-0.37469255924224854,9.657012939453125,-14.434814453125,-23.468017578125,39.00146484375
3.5374999000000003,-0.8756792545318604,-0.707486629486084,9.468469619750977,-11.962890625,-26.0009765625,38.51318359375
3.5424999,-0.5171475410461426,-1.217451572418213,9.389460563659668,11.566162109375,-13.48876953125,35.7666015625
3.5474999,0.02214636653661728,-1.347337007522583,9.460687637329102,19.10400390625,0.1220703125,31.31103515625
3.5524999000000004,0.3627215623855591,-0.8463503122329712,9.552266120910645,7.568359375,0.9765625,29.052734375
3.5574999000000003,0.8307880163192749,0.0071826050989329815,9.927556991577148,0.152587890625,-3.662109375,13.671875
3.5624999,1.268328309059143,0.15562310814857483,9.95329475402832,-5.859375,-0.579833984375,-19.195556640625
3.5674999,1.8728642463684082,-0.3315969407558441,9.952696800231934,6.34765625,20.20263671875,-28.3203125
3.5724999000000004,2.212841033935547,-0.152031809091568,9.848548889160156,19.134521484375,28.045654296875,-26.458740234375
3.5774999000000003,1.8351556062698364,-0.4908113479614258,9.912593841552734,3.143310546875,21.942138671875,-30.792236328125
3.5824999,-0.8571242094039917,-0.7823054194450378,9.500192642211914,-16.265869140625,-1.3427734375,3.265380859375
3.5874999,-1.2186486721038818,-0.4734533727169037,9.801861763000488,-14.16015625,-16.17431640625,34.820556640625
3.5924999,-1.081580638885498,-0.7835025191307068,9.624691009521484,-16.510009765625,-32.073974609375,50.537109375
3.5974999000000003,-0.7242460250854492,-1.2090718746185303,9.442132949829102,0.579833984375,-21.026611328125,41.44287109375
3.6024999,-0.2861070930957794,-1.488594889640808,9.45111083984375,23.193359375,-5.096435546875,38.787841796875
3.6074999,0.05626374110579491,-1.3198037147521973,9.427168846130371,18.707275390625,2.25830078125,38.726806640625
3.6124999,0.37229835987091064,-0.34356793761253357,9.743802070617676,5.67626953125,-0.6103515625,31.31103515625
3.6174999000000003,0.8649053573608398,0.3471592366695404,10.005369186401367,-3.631591796875,-5.0048828125,1.40380859375
3.6224999,1.470638394355774,-0.08379705995321274,9.904812812805176,-1.52587890625,8.23974609375,-29.541015625
3.6274999,2.231395959854126,0.15023615956306458,9.945513725280762,20.01953125,29.876708984375,-32.318115234375
3.6324999,-0.7972691655158997,-0.6350619792938232,9.527725219726562,-16.143798828125,-2.288818359375,-3.143310546875
3.6374999000000003,-1.0564415454864502,-0.6093243360519409,9.658807754516602,-14.129638671875,-9.796142578125,28.656005859375
3.6424999000000002,-1.1971008777618408,-0.9355342984199524,9.444527626037598,-15.9912109375,-32.745361328125,54.168701171875
3.6474999,-0.9062053561210632,-1.382651448249817,9.21288776397705,-6.378173828125,-26.519775390625,47.42431640625
3.6524999,-0.5129576921463013,-1.623268723487854,9.238625526428223,20.1416015625,-8.30078125,43.792724609375
3.6574999000000004,-0.1041477769613266,-1.5616180896759033,9.333795547485352,22.216796875,2.593994140625,42.022705078125
3.6624999000000003,0.24121582508087158,-0.6488286852836609,9.600749015808105,8.544921875,0.79345703125,35.858154296875
3.6674999,0.7374141216278076,0.24121582508087158,9.996390342712402,-0.3662109375,-2.62451171875,10.8642578125
3.6724999,1.3389573097229004,-0.10354922711849213,9.885659217834473,-4.0283203125,3.082275390625,-24.810791015625
3.6774999000000004,2.3720552921295166,-0.18914192914962769,9.911396026611328,14.404296875,33.721923828125,-35.125732421875
3.6824999000000003,1.8596961498260498,-0.09516951441764832,9.888052940368652,-6.103515625,17.9443359375,-40.740966796875
3.6874999,1.0169371366500854,0.04908113554120064,9.86650562286377,-13.0615234375,1.8310546875,-73.822021484375
3.6924999,0.13527239859104156,0.3866635859012604,10.13166332244873,-2.410888671875,-2.3193359375,-58.624267578125
3.6974999000000004,-0.7487865686416626,-0.40043023228645325,9.732429504394531,-13.031005859375,-2.777099609375,-7.6904296875
3.7024999000000003,-0.9792284965515137,-0.5147533416748047,9.88506031036377,-13.97705078125,-7.14111328125,21.240234375
3.7074999,-1.3174095153808594,-0.7739257216453552,9.730634689331055,-13.5498046875,-29.296875,54.229736328125
3.7124999,-1.0923545360565186,-1.3102269172668457,9.365518569946289,-9.368896484375,-29.84619140625,48.88916015625
3.7174999,-0.7481880187988281,-1.5759832859039307,9.278130531311035,15.411376953125,-13.18359375,44.73876953125
3.7224999000000003,-0.27892449498176575,-1.521515130996704,9.32302188873291,21.697998046875,4.241943359375,41.412353515625
3.7274999,0.17956513166427612,-0.7332242727279663,9.491812705993652,9.368896484375,1.312255859375,38.726806640625
3.7324999,0.7918822169303894,0.21667525172233582,9.931747436523438,-0.67138671875,-3.143310546875,11.810302734375
3.7374999,2.2816741466522217,0.04489128291606903,9.953893661499023,18.85986328125,26.79443359375,-31.768798828125
3.7424999000000003,2.470217704772949,-0.19393034279346466,9.874884605407715,16.17431640625,34.36279296875,-35.736083984375
3.7474999,1.9279309511184692,-0.37229835987091064,9.868300437927246,-4.791259765625,19.866943359375,-41.015625
3.7524999,0.9169792532920837,-0.4297592043876648,9.830592155456543,-11.29150390625,-0.54931640625,-52.581787109375
3.7574999,0.020350715145468712,0.020949264988303185,9.837775230407715,1.617431640625,-3.35693359375,-37.9638671875
3.7624999000000003,-0.6596025824546814,-1.5071499347686768,9.41100788116455,13.397216796875,-15.2587890625,46.905517578125
3.7674999000000002,-0.11971008777618408,-1.5831658840179443,9.421782493591309,20.81298828125,2.9296875,39.154052734375
3.7724999,0.31184476613998413,-0.8978256583213806,9.524134635925293,6.866455078125,1.220703125,33.599853515625
3.7774999,2.3325510025024414,-0.16639702022075653,9.913790702819824,16.143798828125,27.64892578125,-32.073974609375
3.7824999000000004,2.4468741416931152,-0.2968810200691223,9.877279281616211,16.326904296875,34.454345703125,-36.62109375
3.7874999000000003,1.9195512533187866,-0.4213795065879822,9.880870819091797,-2.349853515625,20.477294921875,-42.54150390625
3.7924999,0.912190854549408,-0.31124621629714966,9.814431190490723,-10.92529296875,0.06103515625,-61.859130859375
3.7974999,0.03770867735147476,0.0520738884806633,9.925163269042969,-1.46484375,-4.058837890625,-54.962158203125
3.8024999000000004,-1.0109516382217407,-0.618302583694458,9.658807754516602,-6.89697265625,-5.096435546875,0.274658203125
3.8074999000000003,-1.2521674633026123,-0.2669534981250763,9.836577415466309,-10.467529296875,-8.7890625,19.04296875
3.8124999,-1.5969325304031372,-0.5153518915176392,9.9000244140625,-15.5029296875,-26.519775390625,43.02978515625
3.8174999,-1.1426327228546143,-0.6955155730247498,9.744999885559082,-13.458251953125,-33.172607421875,47.18017578125
3.8224999000000004,-0.7266402244567871,-1.095347285270691,9.727043151855469,10.894775390625,-9.8876953125,40.52734375
3.8274999000000003,-0.018555063754320145,-1.173158884048462,9.651026725769043,14.22119140625,3.96728515625,31.43310546875
3.8324999,1.062427043914795,-0.04668693244457245,9.840767860412598,1.3427734375,-1.129150390625,10.223388671875
3.8374999,1.5634137392044067,-0.4572925269603729,9.706692695617676,-0.946044921875,3.997802734375,-21.270751953125
3.8424999,2.316390037536621,-0.3471592366695404,9.85034465789795,12.0849609375,32.196044921875,-32.77587890625
3.8474999000000003,1.7495628595352173,-0.406415730714798,9.809642791748047,-2.9296875,21.05712890625,-37.445068359375
3.8524999,0.8481459617614746,-0.2388216257095337,9.807249069213867,-8.85009765625,1.190185546875,-55.877685546875
3.8574999,0.004788403399288654,-0.2256535142660141,9.730634689331055,-0.823974609375,-2.838134765625,-56.671142578125
3.8624999,-0.960673451423645,-0.67815762758255,9.602544784545898,-4.7607421875,-3.997802734375,-3.35693359375
3.8674999000000003,-0.960673451423645,-0.67815762758255,9.602544784545898,-4.7607421875,-3.997802734375,-3.35693359375
3.8724999,-1.1677719354629517,-0.23762452602386475,9.697713851928711,-11.871337890625,-9.368896484375,20.6298828125
3.8774999,-1.5723919868469238,-0.5231330990791321,9.966463088989258,-16.41845703125,-26.611328125,39.73388671875
3.8824999,0.48602294921875,-0.5961562395095825,9.746196746826172,5.279541015625,-2.44140625,28.167724609375
3.8874999000000003,1.0091559886932373,0.09397241473197937,9.879075050354004,1.800537109375,-1.251220703125,13.763427734375
3.8924999000000002,1.4969745874404907,-0.2944868206977844,9.727641105651855,-1.40380859375,2.593994140625,-16.78466796875
3.8974999,2.299630641937256,-0.18076223134994507,9.749788284301758,15.44189453125,23.284912109375,-28.350830078125
3.9024999,2.38462495803833,-0.2585737705230713,9.797073364257812,12.5732421875,31.25,-31.646728515625
3.9074999000000004,1.876455545425415,-0.4106055796146393,9.835979461669922,-1.922607421875,23.590087890625,-37.139892578125
3.9124999000000003,1.0468647480010986,-0.2064998894929886,9.787496566772461,-7.75146484375,5.0048828125,-55.328369140625
3.9174999,0.12749123573303223,-0.6278793811798096,9.740809440612793,-2.0751953125,-2.471923828125,-57.464599609375
3.9224999,-1.0893617868423462,-0.7781155705451965,9.555258750915527,-11.65771484375,-7.62939453125,19.073486328125
3.9274999000000004,0.4626794755458832,-0.21787235140800476,9.872490882873535,3.265380859375,-3.326416015625,24.200439453125
3.9324999000000003,0.4626794755458832,-0.21787235140800476,9.872490882873535,3.265380859375,-3.326416015625,24.200439453125
3.9374999,1.0235211849212646,0.3926490843296051,10.017339706420898,1.0986328125,-1.708984375,16.632080078125
3.9424999,1.5693992376327515,0.10354922711849213,9.886856079101562,-2.44140625,2.197265625,-12.481689453125
3.9474999000000004,2.205059766769409,-0.3561375141143799,9.85034465789795,11.53564453125,19.317626953125,-26.9775390625
3.9524999000000003,2.3918075561523438,-0.243011474609375,9.784503936767578,13.580322265625,28.99169921875,-28.50341796875
3.9574999,1.8860323429107666,-0.5710170865058899,9.86770248413086,0.396728515625,25.20751953125,-33.8134765625
3.9624999,1.2006921768188477,-0.28072014451026917,9.718663215637207,-7.2021484375,9.033203125,-50.9033203125
3.9674999000000004,0.29568392038345337,-0.8331822156906128,9.632472038269043,-2.86865234375,-1.861572265625,-58.502197265625
3.9724999000000003,-0.6326677799224854,-0.9433154463768005,9.679159164428711,-1.129150390625,-1.708984375,-22.52197265625
3.9774999,-0.9319429993629456,-0.5931634902954102,9.75278091430664,7.32421875,-22.796630859375,51.971435546875
3.9824999,-0.9319429993629456,-0.5931634902954102,9.75278091430664,7.32421875,-22.796630859375,51.971435546875
3.9874999,-0.41778820753097534,-0.9259575009346008,9.716867446899414,12.237548828125,1.64794921875,30.57861328125
3.9924999000000003,0.2585737705230713,-0.2621650993824005,9.791686058044434,3.692626953125,-1.922607421875,22.613525390625
3.9974999,0.7984662652015686,0.3357867896556854,9.979032516479492,1.739501953125,-2.74658203125,19.22607421875
4.0024999,1.988384485244751,-0.5781996846199036,9.898826599121094,3.692626953125,25.909423828125,-30.8837890625
4.0074999,1.400607943534851,-0.3423708379268646,9.72165584564209,-5.43212890625,15.472412109375,-41.961669921875
4.0124999,0.5632359385490417,-0.6494272351264954,9.726444244384766,-5.157470703125,-0.18310546875,-56.640625
4.0174999,-0.8577227592468262,-0.9445125460624695,9.582193374633789,-10.894775390625,-3.326416015625,9.490966796875
4.022499900000001,-1.1665748357772827,-0.5033808946609497,9.944915771484375,-12.5732421875,-12.5732421875,21.8505859375
4.0274999000000005,-1.4407109022140503,-1.0013748407363892,9.668384552001953,-14.892578125,-28.533935546875,44.73876953125
4.0324999,-1.0540473461151123,-0.7966706156730652,9.57979965209961,1.617431640625,-29.35791015625,55.633544921875
4.0374999,-0.6829460263252258,-1.3377602100372314,9.53969669342041,12.298583984375,-5.43212890625,30.242919921875
4.0424999,-0.002992752008140087,-0.6805518269538879,9.596558570861816,5.43212890625,-0.18310546875,19.805908203125
4.0474999,0.5488707423210144,-0.06464344263076782,9.829395294189453,2.777099609375,-3.41796875,20.477294921875
4.0524999,1.116895079612732,0.45190557837486267,9.96945571899414,0.1220703125,-0.6103515625,7.8125
4.0574999,1.6406266689300537,-0.004788403399288654,9.849146842956543,-1.40380859375,5.645751953125,-21.8505859375
4.062499900000001,2.1380221843719482,-0.30226796865463257,9.819219589233398,11.993408203125,22.308349609375,-28.045654296875
4.0674999000000005,2.1290438175201416,-0.39624038338661194,9.828198432922363,10.406494140625,26.519775390625,-29.84619140625
4.0724999,1.5394717454910278,-0.6877344250679016,9.833584785461426,-0.579833984375,20.416259765625,-29.84619140625
4.0774999,0.181959331035614,-0.27413609623908997,9.831789016723633,1.373291015625,0.67138671875,-48.52294921875
4.0824999,-0.6835445761680603,-0.8529343605041504,9.519944190979004,-8.11767578125,-2.349853515625,-4.08935546875
4.0874999,-0.8505401611328125,-0.5225345492362976,9.580398559570312,-12.14599609375,-6.744384765625,17.27294921875
4.0924999,-1.5173252820968628,-1.294066071510315,9.5408935546875,-11.260986328125,-22.52197265625,40.71044921875
4.0974999,-1.2395979166030884,-1.1749545335769653,9.383475303649902,-2.777099609375,-31.219482421875,52.24609375
4.1024999,-0.9762357473373413,-1.5083470344543457,9.512762069702148,11.77978515625,-14.129638671875,38.02490234375
4.1074999000000005,-0.2651578485965729,-0.912190854549408,9.598953247070312,6.4697265625,0.9765625,20.965576171875
4.1124999,0.4429273009300232,-0.10953472554683685,9.843161582946777,2.838134765625,-2.471923828125,21.240234375
4.1174999,1.0211269855499268,0.5626373887062073,10.012551307678223,0.885009765625,-1.922607421875,15.350341796875
4.1224999,1.6089035272598267,0.42377370595932007,9.958083152770996,-3.11279296875,1.129150390625,-13.24462890625
4.1274999,2.0937294960021973,-0.3100491166114807,9.829395294189453,7.904052734375,18.524169921875,-28.472900390625
4.1324999,2.3044190406799316,-0.2819172441959381,9.785700798034668,13.85498046875,27.557373046875,-27.008056640625
4.1374999,1.1300631761550903,-0.639850378036499,9.625887870788574,-5.7373046875,9.58251953125,-38.87939453125
4.1424999,0.37409400939941406,-0.8451532125473022,9.678560256958008,-1.434326171875,0.54931640625,-50.1708984375
4.147499900000001,-0.5015852451324463,-0.9265560507774353,9.646238327026367,-2.899169921875,-0.91552734375,-25.238037109375
4.1524999000000005,-0.8206126093864441,-1.0402805805206299,9.41759204864502,-12.908935546875,-2.5634765625,10.80322265625
4.1574999,-1.3335703611373901,-0.7224503755569458,9.730634689331055,-9.033203125,-15.2587890625,29.9072265625
4.1624999,-1.0773907899856567,-0.5811924338340759,9.592369079589844,8.7890625,-24.4140625,46.81396484375
4.1674999,-0.6027402877807617,-0.9247604012489319,9.624691009521484,8.23974609375,-2.899169921875,27.16064453125
4.1724999,0.15502455830574036,-0.12749123573303223,9.819818496704102,2.532958984375,-1.3427734375,22.369384765625
4.1774999,0.7906851172447205,0.4034229815006256,9.997588157653809,1.434326171875,-3.0517578125,20.050048828125
4.1824999,1.3970166444778442,0.6805518269538879,10.056245803833008,-2.044677734375,-1.40380859375,1.190185546875
4.187499900000001,1.8830395936965942,-0.10833762586116791,9.805453300476074,-0.48828125,9.033203125,-25.543212890625
4.1924999000000005,2.2373814582824707,-0.4058171808719635,9.798270225524902,13.153076171875,23.834228515625,-26.153564453125
4.1974999,2.0626046657562256,-0.6536170840263367,9.797672271728516,8.697509765625,24.0478515625,-25.421142578125
4.2024999,1.3922282457351685,-0.7697358727455139,9.832986831665039,-3.448486328125,16.754150390625,-30.09033203125
4.2074999,0.6613982319831848,-0.7703344225883484,9.70549488067627,-6.40869140625,4.2724609375,-45.196533203125
4.2124999,0.0586579404771328,-0.37828385829925537,9.864709854125977,2.288818359375,1.434326171875,-40.83251953125
4.2174999,-0.7050924301147461,-0.9582792520523071,9.428964614868164,-7.781982421875,-1.434326171875,-1.068115234375
4.2224999,-0.8493430614471436,-0.5614402890205383,9.531915664672852,-10.07080078125,-6.683349609375,15.411376953125
4.2274999,-1.535880446434021,-1.1689690351486206,9.413402557373047,-10.55908203125,-23.62060546875,43.27392578125
4.2324999000000005,-1.3251906633377075,-1.2258312702178955,9.257779121398926,-1.556396484375,-29.632568359375,46.356201171875
4.2374999,-1.0450690984725952,-1.3617022037506104,9.433155059814453,14.556884765625,-12.8173828125,39.520263671875
4.2424999,-0.3429693877696991,-0.9175778031349182,9.556455612182617,4.638671875,0.274658203125,25.909423828125
4.2474999,0.44592007994651794,0.01975216343998909,9.84376049041748,2.166748046875,-2.410888671875,24.932861328125
4.2524999,1.7375918626785278,-0.669179379940033,9.845556259155273,1.251220703125,20.172119140625,-26.7333984375
4.2574999,1.0989385843276978,-0.45010992884635925,9.718064308166504,-7.354736328125,10.894775390625,-40.374755859375
4.2624999,0.3884592354297638,-0.7894880175590515,9.68574333190918,-3.41796875,2.13623046875,-46.966552734375
4.2674999,-0.39205053448677063,-0.838569164276123,9.724648475646973,-1.373291015625,0,-23.651123046875
4.272499900000001,-0.7350199222564697,-1.1013327836990356,9.433155059814453,-10.406494140625,-1.89208984375,5.615234375
4.2774999000000005,-1.2204443216323853,-0.7583633661270142,9.744999885559082,-8.697509765625,-13.24462890625,30.57861328125
4.2824999,-1.43532395362854,-1.072602391242981,9.46727180480957,-11.8408203125,-29.11376953125,44.00634765625
4.2874999,-1.1162965297698975,-0.6440402865409851,9.641449928283691,11.53564453125,-23.895263671875,46.5087890625
4.2924999,-0.7026981711387634,-1.026513934135437,9.642647743225098,11.016845703125,-4.39453125,31.890869140625
4.2974999,0.7727286219596863,0.5039794445037842,10.019734382629395,1.312255859375,-2.655029296875,20.1416015625
4.3024999,1.3736732006072998,0.7763199210166931,10.125079154968262,-2.685546875,-2.3193359375,1.3427734375
4.3074999,1.9159599542617798,0.07122749835252762,9.831789016723633,-0.885009765625,8.575439453125,-26.153564453125
4.312499900000001,2.211643934249878,-0.35913026332855225,9.839570045471191,13.7939453125,23.529052734375,-23.01025390625
4.3174999000000005,2.1039047241210938,-0.5351040959358215,9.75397777557373,8.819580078125,22.4609375,-24.47509765625
4.3224999,-0.44412440061569214,-1.2832920551300049,9.617507934570312,5.157470703125,-1.739501953125,28.4423828125
4.3274999,0.3082534670829773,-0.05027823522686958,9.861717224121094,1.556396484375,-1.861572265625,22.88818359375
4.3324999,0.9965864419937134,0.6314706802368164,10.090961456298828,-0.762939453125,-2.99072265625,14.190673828125
4.3374999,1.577778935432434,0.6913257241249084,10.034099578857422,-4.0283203125,0.48828125,-11.566162109375
4.3424999,2.0009541511535645,-0.14844051003456116,9.921571731567383,3.84521484375,15.777587890625,-28.564453125
4.3474999,2.163161277770996,-0.375291109085083,9.748590469360352,13.97705078125,22.8271484375,-18.98193359375
4.352499900000001,1.8387469053268433,-0.6733692288398743,9.843161582946777,4.8828125,20.3857421875,-28.25927734375
4.3574999000000005,1.1683704853057861,-0.5752069354057312,9.754576683044434,-6.561279296875,13.580322265625,-32.16552734375
4.3624999,0.5560533404350281,-0.6847416758537292,9.688735961914062,-5.828857421875,4.302978515625,-46.539306640625
4.3674999,-0.11552023142576218,-0.3585317134857178,9.938331604003906,0.885009765625,1.068115234375,-35.33935546875
4.3724999,-0.6763619780540466,-0.9582792520523071,9.5223388671875,-9.6435546875,-1.46484375,-0.79345703125
4.3774999,-1.0396820306777954,-0.5345055460929871,9.750985145568848,-8.6669921875,-8.6669921875,22.247314453125
4.3824999,0.6135141849517822,0.26755204796791077,9.889249801635742,1.3427734375,-1.251220703125,21.728515625
4.3874999,1.246780514717102,0.751779317855835,10.11430549621582,-2.13623046875,-3.570556640625,7.598876953125
4.3924999,1.8082208633422852,0.5512649416923523,9.921571731567383,-3.84521484375,3.875732421875,-21.728515625
4.397499900000001,2.137423515319824,-0.28730419278144836,9.932345390319824,8.9111328125,20.20263671875,-23.25439453125
4.4024999000000005,2.1751322746276855,-0.3926490843296051,9.730634689331055,12.451171875,21.728515625,-21.148681640625
4.4074999,1.6723499298095703,-0.6075286865234375,9.858723640441895,1.251220703125,18.890380859375,-29.4189453125
4.4124999,0.9965864419937134,-0.46986207365989685,9.739612579345703,-8.087158203125,11.322021484375,-36.4990234375
4.4174999,0.4291606545448303,-0.6901286244392395,9.718663215637207,-3.204345703125,3.387451171875,-49.041748046875
4.4224999,-0.3669114112854004,-0.7703344225883484,9.658209800720215,-1.556396484375,0,-26.702880859375
4.4274999,-1.4335283041000366,-1.1881226301193237,9.2841157913208,-11.993408203125,-29.998779296875,44.921875
4.4324999,-1.217451572418213,-0.9283517003059387,9.428964614868164,11.77978515625,-23.8037109375,45.59326171875
4.437499900000001,-0.6919242739677429,-1.0426748991012573,9.5624418258667,15.2587890625,-4.45556640625,33.203125
4.4424999000000005,-0.023942016065120697,-0.3076549172401428,9.728838920593262,-0.274658203125,-1.495361328125,21.17919921875
4.4474999,0.8092401623725891,0.6087257862091064,10.031106948852539,0.335693359375,-2.01416015625,17.120361328125
4.4524999,1.370081901550293,0.8319851160049438,10.164583206176758,-3.570556640625,-2.8076171875,-1.495361328125
4.4574999,1.8303672075271606,0.36990416049957275,9.92097282409668,-2.44140625,7.965087890625,-25.93994140625
4.4624999,2.011728048324585,-0.436343252658844,9.840168952941895,11.810302734375,20.3857421875,-17.9443359375
4.4674999,1.987187385559082,-0.5380968451499939,9.731831550598145,10.07080078125,20.01953125,-25.909423828125
4.4724999,1.37906014919281,-0.6147112846374512,9.79527759552002,-1.15966796875,17.76123046875,-28.1982421875
4.477499900000001,-0.4920084476470947,-0.5632359385490417,9.625887870788574,-3.72314453125,-0.762939453125,-16.4794921875
4.4824999000000005,-0.689530074596405,-0.7439981698989868,9.50617790222168,-11.505126953125,-2.471923828125,8.026123046875
4.4874999,-0.689530074596405,-0.7439981698989868,9.50617790222168,-11.505126953125,-2.471923828125,8.026123046875
4.4924999,-1.235408067703247,-0.6542156338691711,9.655217170715332,-9.765625,-17.913818359375,38.299560546875
4.4974999,-1.3192051649093628,-1.2342109680175781,9.473258018493652,-9.063720703125,-28.961181640625,42.999267578125
4.5024999,-1.0324994325637817,-0.945111095905304,9.576807022094727,16.845703125,-20.20263671875,44.158935546875
4.5074999,-0.545877993106842,-1.1851298809051514,9.61571216583252,11.016845703125,-2.960205078125,29.35791015625
4.5124999,0.08080431073904037,-0.14484919607639313,9.820416450500488,0.91552734375,-1.5869140625,25.390625
4.5174999,0.8080430626869202,0.6075286865234375,10.064026832580566,0.30517578125,-2.716064453125,19.378662109375
4.522499900000001,1.3898340463638306,0.8026561141014099,10.142436981201172,-3.662109375,-1.708984375,-4.913330078125
4.5274999000000005,1.8710685968399048,0.09696517139673233,9.9000244140625,-0.152587890625,10.955810546875,-26.3671875
4.5324999,2.139817714691162,-0.40282443165779114,9.818621635437012,13.641357421875,21.759033203125,-18.73779296875
4.5374999,1.3341689109802246,-0.5249287486076355,9.771934509277344,-4.39453125,16.357421875,-28.900146484375
4.5424999,1.3341689109802246,-0.5249287486076355,9.771934509277344,-4.39453125,16.357421875,-28.900146484375
4.5474999,0.7535749673843384,-0.4423287510871887,9.707889556884766,-8.636474609375,6.9580078125,-47.2412109375
4.5524999,0.22445641458034515,-0.033518824726343155,9.882665634155273,0,2.0751953125,-45.0439453125
4.5574999,-0.5129576921463013,-0.5333084464073181,9.678560256958008,-7.293701171875,-0.518798828125,-6.988525390625
4.562499900000001,-1.194706678390503,-0.6919242739677429,9.675567626953125,-13.00048828125,-23.37646484375,44.73876953125
4.5674999000000005,-1.2503718137741089,-1.4616601467132568,9.450512886047363,-4.119873046875,-28.6865234375,46.356201171875
4.5724999,-0.8702923059463501,-1.194706678390503,9.444527626037598,20.263671875,-15.289306640625,39.9169921875
4.5774999,-0.4728548228740692,-1.3874398469924927,9.48882007598877,7.9345703125,-1.129150390625,23.773193359375
4.5824999,0.17717093229293823,-0.17956513166427612,9.767744064331055,2.01416015625,-1.89208984375,27.34375
4.5874999,0.8164227604866028,0.5249287486076355,10.04307746887207,-0.244140625,-2.655029296875,16.66259765625
4.5924999,1.8261773586273193,-0.5871779918670654,9.849146842956543,5.096435546875,21.30126953125,-29.449462890625
4.5974999,1.1797429323196411,-0.39863458275794983,9.81024169921875,-7.01904296875,13.48876953125,-34.66796875
4.602499900000001,0.619499683380127,-0.4710591733455658,9.813234329223633,-7.476806640625,3.875732421875,-57.281494140625
4.6074999000000005,-0.13527239859104156,-0.17956513166427612,9.8784761428833,-0.701904296875,1.251220703125,-35.5224609375
4.6124999,-0.5871779918670654,-0.778714120388031,9.479841232299805,-10.711669921875,-0.79345703125,1.953125
4.6174999,-0.9786299467086792,-0.5141547918319702,9.660603523254395,-10.467529296875,-10.101318359375,24.658203125
4.6224999,-1.2779051065444946,-0.8882488012313843,9.303269386291504,-14.739990234375,-28.839111328125,48.52294921875
4.6274999,-1.0995371341705322,-1.216254472732544,9.273940086364746,4.547119140625,-26.031494140625,47.2412109375
4.6324999,-0.7164648771286011,-1.2360066175460815,9.333795547485352,18.6767578125,-8.4228515625,33.966064453125
4.6374999,-0.22206220030784607,-0.8912416100502014,9.525930404663086,7.01904296875,0.885009765625,27.313232421875
4.6424999,1.5705963373184204,0.27054479718208313,10.013748168945312,-2.471923828125,5.2490234375,-20.56884765625
4.647499900000001,1.5705963373184204,0.27054479718208313,10.013748168945312,-2.471923828125,5.2490234375,-20.56884765625
4.6524999000000005,2.1098902225494385,-0.2867056429386139,9.882067680358887,12.0849609375,21.240234375,-25.20751953125
4.6574999,2.1356279850006104,-0.38726213574409485,9.834183692932129,12.51220703125,24.383544921875,-29.327392578125
4.6624999,1.6166846752166748,-0.4668693244457245,9.82640266418457,-0.823974609375,19.04296875,-28.86962890625
4.6674999,0.9457096457481384,-0.25977087020874023,9.749189376831055,-9.765625,7.8125,-47.698974609375
4.6724999,0.3597288131713867,-0.2454056739807129,9.709086418151855,-3.082275390625,1.77001953125,-54.99267578125
4.6774999,-0.5051765441894531,-0.39564183354377747,9.694122314453125,-4.608154296875,-0.579833984375,-16.021728515625
4.6824999,-0.6685808300971985,-0.6458359360694885,9.5624418258667,-13.00048828125,-3.082275390625,10.498046875
4.687499900000001,-1.1534066200256348,-0.645237386226654,9.768342971801758,-12.26806640625,-18.646240234375,39.703369140625
4.6924999000000005,-1.2144588232040405,-1.3455413579940796,9.512163162231445,-9.613037109375,-30.33447265625,50.445556640625
4.6974999,-0.9205705523490906,-1.082777738571167,9.639056205749512,19.012451171875,-20.050048828125,48.492431640625
4.7024999,-0.014365210197865963,-0.2645592987537384,9.823410034179688,2.716064453125,-1.800537109375,29.083251953125
4.7074999,0.6673837304115295,0.5033808946609497,10.071209907531738,0.3662109375,-3.326416015625,20.20263671875
4.7124999,1.2886791229248047,0.7236474752426147,10.094552993774414,-3.96728515625,-0.701904296875,-6.988525390625
4.7174999,1.8860323429107666,-0.04908113554120064,9.867103576660156,4.058837890625,14.0380859375,-27.7099609375
4.7224999,2.234388828277588,-0.2717418968677521,9.814431190490723,15.899658203125,25.146484375,-25.93994140625
4.727499900000001,1.955464243888855,-0.52552729845047,9.81143856048584,5.706787109375,22.52197265625,-28.6865234375
4.7324999000000005,1.2749123573303223,-0.3770867586135864,9.797672271728516,-7.049560546875,14.007568359375,-36.285400390625
4.7374999,0.6548141837120056,-0.4129997789859772,9.788095474243164,-7.99560546875,3.60107421875,-59.783935546875
4.7424999,-0.07541735470294952,-0.1107318252325058,10.064026832580566,-0.274658203125,1.068115234375,-42.144775390625
4.7474999,-0.5841852426528931,-0.838569164276123,9.686341285705566,-10.498046875,-1.5869140625,0.762939453125
4.7524999,-0.9062053561210632,-0.586579442024231,9.928754806518555,-10.711669921875,-8.85009765625,23.895263671875
4.7574999,-1.2773065567016602,-1.182137131690979,9.564237594604492,-12.847900390625,-28.076171875,50.018310546875
4.7624999,-0.8367735147476196,-1.3012486696243286,9.394248962402344,18.73779296875,-8.636474609375,38.726806640625
4.7674999,-0.3345896899700165,-0.7858967185020447,9.501988410949707,3.936767578125,-0.091552734375,27.9541015625
4.772499900000001,0.4207809567451477,0.2819172441959381,9.840168952941895,1.861572265625,-2.716064453125,25.177001953125
4.7774999000000005,1.0666168928146362,0.800261914730072,10.08437728881836,-2.410888671875,-2.9296875,7.080078125
4.7824999,1.6891093254089355,0.4381389021873474,9.888052940368652,-2.74658203125,5.218505859375,-22.216796875
4.7874999,2.1763293743133545,-0.2298433631658554,9.892242431640625,13.153076171875,22.064208984375,-26.123046875
4.7924999,2.2188265323638916,-0.3124433159828186,9.782708168029785,11.871337890625,24.078369140625,-25.726318359375
4.7974999,1.6514005661010742,-0.4686649739742279,9.872490882873535,-1.617431640625,18.951416015625,-29.296875
4.8024999,-0.48303020000457764,-0.5847837924957275,9.619902610778809,-3.84521484375,-0.732421875,-19.683837890625
4.8074999,-0.6584054827690125,-0.945111095905304,9.433155059814453,-12.3291015625,-2.166748046875,9.8876953125
4.812499900000001,-1.269525408744812,-1.4233529567718506,9.35893440246582,-9.185791015625,-31.219482421875,49.9267578125
4.8174999000000005,-0.9852139949798584,-1.0618284940719604,9.525331497192383,17.76123046875,-19.95849609375,48.33984375
4.8224999,-0.6003460884094238,-1.3299790620803833,9.550470352172852,10.55908203125,-1.28173828125,29.78515625
4.8274999,0.013168109580874443,-0.1412578970193863,9.813234329223633,1.861572265625,-1.739501953125,26.885986328125
4.8324999,0.7272387742996216,0.5829881429672241,10.071209907531738,-0.091552734375,-3.23486328125,18.06640625
4.8374999,1.3377602100372314,0.7721300721168518,10.093356132507324,-3.96728515625,-0.8544921875,-7.415771484375
4.8424999,1.9027918577194214,-0.02992752194404602,9.88625717163086,3.753662109375,14.068603515625,-28.1982421875
4.8474999,2.1793220043182373,-0.32022446393966675,9.789292335510254,15.533447265625,24.200439453125,-23.25439453125
4.852499900000001,1.935113549232483,-0.5410895943641663,9.800065994262695,5.767822265625,21.636962890625,-27.7099609375
4.8574999000000005,1.236605167388916,-0.4381389021873474,9.785700798034668,-6.683349609375,14.09912109375,-34.5458984375
4.8624999,0.6548141837120056,-0.41958385705947876,9.752182006835938,-7.659912109375,4.180908203125,-54.779052734375
4.8674999,-0.0035913025494664907,-0.14604631066322327,10.02571964263916,0.457763671875,1.434326171875,-43.548583984375
4.8724999,-0.8373720645904541,-0.5506663918495178,9.768941879272461,-10.498046875,-7.293701171875,20.721435546875
4.8774999,-1.3509283065795898,-1.0606313943862915,9.420584678649902,-11.29150390625,-26.397705078125,49.072265625
4.8824999,-1.2665326595306396,-1.4323312044143677,9.260173797607422,3.5400390625,-27.496337890625,48.126220703125
4.8874999,-0.9510966539382935,-1.2563573122024536,9.390657424926758,19.04296875,-10.406494140625,41.56494140625
4.8924999,-0.3770867586135864,-0.9654618501663208,9.522936820983887,2.74658203125,-0.701904296875,26.79443359375
4.897499900000001,0.44352585077285767,0.24241292476654053,9.889848709106445,1.28173828125,-2.410888671875,22.552490234375
4.9024999000000005,1.1013327836990356,0.7529764175415039,10.1382474899292,-2.471923828125,-3.41796875,7.049560546875
4.9074999,1.7154455184936523,0.596754789352417,9.929951667785645,-3.35693359375,4.2724609375,-21.453857421875
4.9124999,2.123058319091797,-0.23762452602386475,9.943717956542969,10.6201171875,20.32470703125,-25.177001953125
4.9174999,2.190694570541382,-0.3016694188117981,9.750386238098145,11.749267578125,22.0947265625,-22.857666015625
4.9224999,1.6777368783950806,-0.5153518915176392,9.880271911621094,0.457763671875,19.256591796875,-29.35791015625
4.9274999,1.0031704902648926,-0.33937808871269226,9.765948295593262,-9.002685546875,10.009765625,-41.44287109375
4.9324999,-1.3365631103515625,-1.392826795578003,9.314043045043945,-10.1318359375,-30.242919921875,48.126220703125
4.937499900000001,-1.0797849893569946,-1.083974838256836,9.457097053527832,14.7705078125,-22.5830078125,48.736572265625
4.9424999000000005,-0.6787561774253845,-1.2653355598449707,9.537900924682617,12.969970703125,-3.997802734375,33.721923828125
4.9474999,-0.04369417950510979,-0.25737667083740234,9.7791166305542,0.244140625,-1.77001953125,24.505615234375
4.9524999,0.7499836683273315,0.6045359373092651,10.057442665100098,0.18310546875,-3.448486328125,17.730712890625
4.9574999,1.326986312866211,0.8583213090896606,10.163984298706055,-3.35693359375,-2.227783203125,-2.960205078125
4.9624999,1.8644845485687256,0.25438392162323,9.965864181518555,-0.3662109375,10.1318359375,-27.9541015625
4.9674999,2.078765630722046,-0.35434186458587646,9.836577415466309,13.092041015625,21.6064453125,-19.71435546875
4.9724999,1.3263877630233765,-0.5039794445037842,9.814431190490723,-3.662109375,16.66259765625,-29.815673828125
4.977499900000001,0.7715315222740173,-0.4124012291431427,9.721057891845703,-8.6669921875,7.659912109375,-45.7763671875
4.9824999000000005,0.25019407272338867,-0.11552023142576218,9.819818496704102,0.1220703125,2.960205078125,-49.49951171875
4.9874999,-0.48961424827575684,-0.7050924301147461,9.569623947143555,-6.439208984375,-1.434326171875,-10.68115234375
4.9924999,-0.641047477722168,-0.5728127360343933,9.588777542114258,-11.8408203125,-3.021240234375,12.908935546875
4.9974999,-1.1671733856201172,-0.9385270476341248,9.560646057128906,-9.82666015625,-20.81298828125,44.43359375
5.0024999,-1.2665326595306396,-1.6262614727020264,9.367912292480469,-4.119873046875,-28.6865234375,46.478271484375
5.0074999,-0.943913996219635,-1.1097124814987183,9.534908294677734,20.477294921875,-17.181396484375,45.71533203125
5.0124999,-0.536899745464325,-1.3126211166381836,9.547477722167969,6.40869140625,-1.5869140625,26.30615234375
5.0174999,0.17178396880626678,0.04728548228740692,9.86111831665039,0.67138671875,-1.8310546875,22.8271484375
5.022499900000001,0.8882488012313843,0.6883329749107361,10.080187797546387,-1.46484375,-4.119873046875,11.41357421875
5.0274999000000005,1.4879963397979736,0.8259995579719543,10.00836181640625,-3.35693359375,0.79345703125,-13.7939453125
5.0324999,2.097919225692749,-0.3130418658256531,9.730035781860352,13.00048828125,20.93505859375,-18.524169921875
5.0374999,1.7705121040344238,-0.5913678407669067,9.874884605407715,5.06591796875,20.233154296875,-30.1513671875
5.0424999,-0.014365210197865963,-0.27653029561042786,9.928155899047852,1.220703125,1.251220703125,-40.008544921875
5.0474999,-0.5518634915351868,-0.8978256583213806,9.497797966003418,-9.8876953125,-1.190185546875,-0.762939453125
5.0524999,-0.8475474119186401,-0.6560112833976746,9.675567626953125,-9.918212890625,-7.080078125,21.270751953125
5.0574999,-0.8475474119186401,-0.6560112833976746,9.675567626953125,-9.918212890625,-7.080078125,21.270751953125
5.062499900000001,-1.359906554222107,-1.191115379333496,9.407417297363281,-9.94873046875,-25.87890625,47.149658203125
5.0674999000000005,-1.2779051065444946,-1.5263035297393799,9.258976936340332,4.39453125,-26.123046875,46.0205078125
5.0724999,-0.9552865028381348,-1.2647370100021362,9.43135929107666,18.646240234375,-11.322021484375,40.557861328125
5.0774999,-0.3711012601852417,-0.9235633015632629,9.560646057128906,1.3427734375,-1.129150390625,23.8037109375
5.0824999,1.1306617259979248,0.7793126702308655,10.146626472473145,-2.471923828125,-4.058837890625,4.730224609375
5.0874999,1.7268179655075073,0.6709750294685364,9.941324234008789,-2.86865234375,4.7607421875,-22.3388671875
5.0924999,2.029085874557495,-0.2645592987537384,9.91738224029541,8.6669921875,18.951416015625,-22.03369140625
5.0974999,2.118868589401245,-0.3381809890270233,9.731232643127441,10.894775390625,19.71435546875,-22.3388671875
5.102499900000001,1.6196774244308472,-0.5602431893348694,9.854534149169922,1.64794921875,19.134521484375,-30.059814453125
5.1074999000000005,1.0067617893218994,-0.44592007994651794,9.77791976928711,-8.148193359375,11.505126953125,-35.0341796875
5.1124999,0.4818331003189087,-0.690727174282074,9.729436874389648,-3.60107421875,4.94384765625,-52.886962890625
5.1174999,-0.26994624733924866,-0.45908817648887634,9.806051254272461,-0.946044921875,-0.396728515625,-27.618408203125
5.1224999,-0.7104793787002563,-1.2000936269760132,9.537302017211914,14.404296875,-6.04248046875,32.379150390625
5.1274999,-0.13407529890537262,-0.3315969407558441,9.758167266845703,-0.030517578125,-0.91552734375,22.430419921875
5.1324999,0.7398083209991455,0.6105214357376099,10.052654266357422,-0.518798828125,-3.662109375,15.13671875
5.1374999,1.3227964639663696,0.8816647529602051,10.15141487121582,-3.265380859375,-2.838134765625,-4.180908203125
5.1424999,1.8195933103561401,0.35434186458587646,9.998785018920898,-0.54931640625,9.82666015625,-26.67236328125
5.147499900000001,2.0147206783294678,-0.3585317134857178,9.829395294189453,12.02392578125,20.172119140625,-16.2353515625
5.1524999000000005,1.9590555429458618,-0.45908817648887634,9.816226959228516,8.819580078125,19.195556640625,-27.587890625
5.1574999,1.323395013809204,-0.5303156971931458,9.825204849243164,-2.105712890625,17.059326171875,-28.656005859375
5.1624999,0.8068459630012512,-0.3926490843296051,9.740211486816406,-8.453369140625,9.1552734375,-40.802001953125
5.1674999,0.33039984107017517,-0.5261258482933044,9.762357711791992,-0.946044921875,2.777099609375,-50.78125
5.1724999,-0.44771572947502136,-0.6051344871520996,9.654618263244629,-3.936767578125,-0.823974609375,-14.495849609375
5.1774999,-0.6189011335372925,-0.9409212470054626,9.502586364746094,-12.237548828125,-2.044677734375,10.284423828125
5.1824999,-1.1839327812194824,-0.7924807667732239,9.637859344482422,-9.033203125,-17.9443359375,38.818359375
5.187499900000001,-1.039083480834961,-1.0295066833496094,9.529520988464355,18.798828125,-19.744873046875,47.4853515625
5.1924999000000005,-0.5925649404525757,-1.2497732639312744,9.569025993347168,7.6904296875,-2.8076171875,28.778076171875
5.1974999,0.06524199992418289,-0.010175357572734356,9.849146842956543,-0.18310546875,-1.678466796875,24.59716796875
5.2024999,1.8818424940109253,-0.5847837924957275,9.876082420349121,6.500244140625,19.47021484375,-30.487060546875
5.2074999,1.2306196689605713,-0.5530605912208557,9.783307075500488,-4.39453125,15.80810546875,-27.923583984375
