# Time (seconds),Accel_X,Accel_Y,Accel_Z,Gyro_X,Gyro_Y,Gyro_Z
0.0024999,1.191115379333496,0.05386953800916672,4.907515048980713,0.213623046875,-15.838623046875,60.302734375
0.0074999,-1.0743980407714844,-0.13587094843387604,6.267421722412109,12.02392578125,14.16015625,184.814453125
0.012499900000000001,-2.0679917335510254,-0.2232593148946762,7.605181694030762,19.012451171875,53.40576171875,207.3974609375
0.0174999,-1.544858694076538,-0.49799394607543945,8.47667121887207,30.517578125,-9.1552734375,33.538818359375
0.0224999,-0.013766659423708916,-0.5943605899810791,8.296507835388184,-23.13232421875,-2.86865234375,-162.017822265625
0.0274999,2.212841033935547,-0.8355764150619507,7.316082000732422,-58.624267578125,-42.572021484375,-199.89013671875
0.0324999,2.1535844802856445,-0.718859076499939,6.519411087036133,18.707275390625,-3.84521484375,-127.44140625
0.0374999,1.5640122890472412,-0.7320271730422974,6.238092422485352,2.5634765625,-9.857177734375,39.9169921875
0.0424999,-0.7691373229026794,-0.6374561786651611,6.773196697235107,9.674072265625,-3.11279296875,168.731689453125
0.0474999,-1.8692729473114014,-0.29388827085494995,7.732673168182373,23.101806640625,67.19970703125,216.1865234375
0.0524999,-1.5077484846115112,-0.4010287821292877,8.131307601928711,17.4560546875,20.44677734375,69.488525390625
0.0574999,-0.09516951441764832,-0.2555810213088989,7.593809127807617,-4.608154296875,-22.03369140625,-140.93017578125
0.0624999,1.8160020112991333,-0.1256955862045288,6.717531204223633,-61.920166015625,-43.609619140625,-197.021484375
0.0674999,2.12485408782959,-0.06524199992418289,6.011840343475342,13.641357421875,-10.25390625,-142.88330078125
0.0724999,1.581370234489441,0.05027823522686958,5.792770862579346,2.532958984375,-7.080078125,19.195556640625
0.0774999,-0.4950011968612671,-0.2124854028224945,6.740874767303467,8.087158203125,-0.18310546875,159.515380859375
0.0824999,-1.7872716188430786,0.009576806798577309,7.841609001159668,19.775390625,56.15234375,219.451904296875
0.0874999,-1.5496470928192139,-0.4578910768032074,8.559270858764648,29.11376953125,2.716064453125,86.3037109375
0.0924999,-0.2687491476535797,-0.06224924325942993,7.926603317260742,5.06591796875,-10.345458984375,-128.570556640625
0.0974999,1.3664906024932861,-0.38546648621559143,7.166444301605225,-83.526611328125,-21.209716796875,-203.67431640625
0.1024999,2.142810583114624,-0.1885433793067932,5.825092792510986,13.336181640625,-30.3955078125,-152.40478515625
0.1074999,1.4616601467132568,-0.4040215313434601,5.429450988769531,10.009765625,7.9345703125,-3.662109375
0.1124999,-0.2561795711517334,-0.8445546627044678,6.024410247802734,3.662109375,-20.660400390625,140.56396484375
0.1174999,-1.5316904783248901,-0.6260837316513062,6.936002254486084,25.87890625,59.600830078125,220.062255859375
0.1224999,-1.4873977899551392,-0.950498104095459,7.646481513977051,11.810302734375,41.717529296875,118.95751953125
0.1274999,-0.4638765752315521,-0.15263035893440247,6.8791399002075195,8.4228515625,-17.120361328125,-101.1962890625
0.1324999,1.270722508430481,-0.24121582508087158,6.375759124755859,-63.568115234375,-41.229248046875,-198.05908203125
0.1374999,2.101510524749756,0.25737667083740234,5.886743545532227,6.683349609375,-24.47509765625,-162.41455078125
0.1424999,1.8237831592559814,0.08499415963888168,5.981913089752197,5.43212890625,2.410888671875,-20.233154296875
0.1474999,0.09277531504631042,-0.4710591733455658,7.222109317779541,4.180908203125,-5.706787109375,134.521484375
0.1524999,-1.380257248878479,-0.2998737692832947,8.391077995300293,18.6767578125,45.257568359375,218.170166015625
0.1574999,-1.380257248878479,-0.2998737692832947,8.391077995300293,18.6767578125,45.257568359375,218.170166015625
0.1624999,-1.7812861204147339,-0.7314286231994629,8.841188430786133,29.23583984375,8.23974609375,129.791259765625
0.1674999,-0.7158663272857666,-0.3106476664543152,8.429984092712402,16.05224609375,-5.0048828125,-80.38330078125
0.1724999,0.8852560520172119,-0.2513911724090576,7.36396598815918,-76.385498046875,-8.331298828125,-197.967529296875
0.17749990000000002,2.0805611610412598,-0.02454056777060032,5.938218593597412,-4.302978515625,-43.64013671875,-169.403076171875
0.1824999,1.8920178413391113,-0.09576806426048279,5.595249176025391,10.650634765625,9.368896484375,-44.586181640625
0.1874999,0.18315643072128296,-0.7218518257141113,5.937620162963867,3.90625,-13.519287109375,106.75048828125
0.1924999,-1.2982559204101562,-0.7164648771286011,7.210138320922852,16.78466796875,42.17529296875,212.005615234375
0.1974999,-1.7735048532485962,-1.1803414821624756,8.17380428314209,24.35302734375,21.392822265625,154.4189453125
0.2024999,-0.5482721924781799,-0.8858546018600464,8.365341186523438,21.484375,-9.674072265625,-53.955078125
0.20749990000000001,0.9750386476516724,-0.2801215946674347,7.798513412475586,-65.216064453125,-2.716064453125,-191.619873046875
0.2124999,2.381632089614868,0.08499415963888168,6.667253017425537,-13.0615234375,-44.73876953125,-175.4150390625
0.2174999,2.1116859912872314,0.28131869435310364,6.292560577392578,8.544921875,3.021240234375,-61.614990234375
0.2224999,0.3411737382411957,-0.19273324310779572,6.302735805511475,8.1787109375,2.166748046875,103.302001953125
0.2274999,-1.2970588207244873,-0.47884035110473633,7.477690696716309,14.434814453125,34.72900390625,210.38818359375
0.2324999,-1.9865888357162476,-1.103128433227539,8.686761856079102,26.18408203125,14.434814453125,173.858642578125
0.2374999,-0.9570821523666382,-0.9265560507774353,9.038111686706543,23.98681640625,-3.814697265625,-24.627685546875
0.2424999,0.4531026780605316,-0.24839842319488525,8.471882820129395,-59.600830078125,-1.617431640625,-187.957763671875
0.2474999,2.118269920349121,-0.002992752008140087,7.204751491546631,-22.247314453125,-45.22705078125,-190.12451171875
0.2524999,1.911171555519104,0.30885201692581177,6.141127586364746,8.48388671875,0.244140625,-87.921142578125
0.2574999,0.7128735780715942,-0.1538274586200714,5.711966514587402,7.01904296875,-4.2724609375,81.9091796875
0.2624999,-1.0989385843276978,-0.6721721291542053,6.556521415710449,13.031005859375,33.69140625,198.8525390625
0.2674999,-1.813009262084961,-0.9199720025062561,7.9631147384643555,26.55029296875,19.8974609375,188.78173828125
0.2724999,-1.0911574363708496,-1.0636241436004639,8.592191696166992,32.89794921875,-2.9296875,4.180908203125
0.2774999,0.4489128291606903,-0.44412440061569214,9.017162322998047,-44.281005859375,4.608154296875,-173.736572265625
0.2824999,2.181716203689575,-0.3603273630142212,8.26119327545166,-46.051025390625,-48.40087890625,-192.413330078125
0.28749990000000003,2.32297420501709,-0.09217676520347595,7.138312339782715,7.99560546875,3.0517578125,-107.177734375
0.2924999,1.1540051698684692,-0.5608417391777039,6.519411087036133,10.1318359375,-4.638671875,62.652587890625
0.2974999,-0.8607155084609985,-0.768538773059845,6.94079065322876,9.765625,18.61572265625,192.047119140625
0.3024999,-1.7411831617355347,-1.0935516357421875,7.253832817077637,23.37646484375,32.40966796875,205.902099609375
0.3074999,-1.326986312866211,-0.900818407535553,8.133103370666504,34.820556640625,-1.373291015625,29.693603515625
0.3124999,0.14185644686222076,-0.5410895943641663,7.971494674682617,-26.214599609375,1.434326171875,-164.337158203125
0.3174999,2.103306293487549,-0.22266076505184174,7.5902180671691895,-58.807373046875,-40.1611328125,-201.141357421875
0.3224999,2.1553800106048584,-0.13706804811954498,6.7259111404418945,6.866455078125,-10.43701171875,-126.8310546875
0.3274999,1.3706804513931274,-0.322618693113327,6.494870662689209,8.23974609375,-5.67626953125,42.327880859375
0.3324999,-0.8068459630012512,-0.5285200476646423,6.794744491577148,10.3759765625,10.43701171875,177.490234375
0.3374999,-1.9309237003326416,-0.558447539806366,7.496245384216309,19.866943359375,45.22705078125,219.7265625
0.3424999,-1.6759412288665771,-0.6123170852661133,7.9852614402771,34.3017578125,-4.547119140625,62.347412109375
0.34749990000000003,-0.2849099934101105,-0.45010992884635925,7.560888767242432,-8.636474609375,2.349853515625,-143.951416015625
0.35249990000000003,1.6777368783950806,-0.5644330382347107,6.760627269744873,-76.66015625,-34.5458984375,-201.2939453125
0.3574999,1.974617838859558,-0.5901707410812378,5.684433460235596,15.228271484375,-17.88330078125,-140.93017578125
0.3624999,1.357512354850769,-0.7218518257141113,5.52701473236084,6.744384765625,0.244140625,16.90673828125
0.3674999,-0.5512649416923523,-1.07379949092865,6.096834659576416,6.7138671875,-16.41845703125,156.55517578125
0.3724999,-1.7932571172714233,-0.730231523513794,7.08144998550415,24.139404296875,59.967041015625,223.5107421875
0.3774999,-1.5167267322540283,-1.0642226934432983,7.657854080200195,17.4560546875,34.576416015625,96.6796875
0.3824999,-0.10594342648983002,-0.3776853084564209,6.819284915924072,12.87841796875,-22.674560546875,-121.673583984375
0.3874999,1.4646528959274292,-0.3878606855869293,6.214150428771973,-73.79150390625,-31.8603515625,-198.516845703125
0.3924999,2.1936872005462646,-0.08439560979604721,5.288791656494141,6.072998046875,-21.1181640625,-158.5693359375
0.3974999,1.4460978507995605,-0.14484919607639313,5.468955039978027,5.645751953125,-2.532958984375,-5.340576171875
0.4024999,-0.4620809257030487,-0.7152677774429321,6.53377628326416,5.37109375,-8.758544921875,144.71435546875
0.4074999,-1.8950105905532837,-0.6757634282112122,7.634510517120361,18.035888671875,48.64501953125,226.98974609375
0.41249990000000003,-1.8183962106704712,-1.0528502464294434,8.60775375366211,29.78515625,12.603759765625,118.2861328125
0.41749990000000003,-0.7332242727279663,-0.2148796021938324,7.6111674308776855,19.134521484375,-6.866455078125,-100.921630859375
0.4224999,1.169567584991455,-0.2795230448246002,7.292738437652588,-85.174560546875,-11.29150390625,-204.559326171875
0.4274999,2.121262788772583,0.06404489278793335,5.638344764709473,0,-45.257568359375,-176.513671875
0.4324999,1.9141643047332764,-0.3166331648826599,5.440224647521973,12.02392578125,17.364501953125,-37.53662109375
0.4374999,0.21368250250816345,-1.1773487329483032,5.9088897705078125,4.669189453125,-21.270751953125,122.13134765625
0.4424999,-1.1240776777267456,-1.003769040107727,7.052719593048096,17.913818359375,37.29248046875,223.663330078125
0.4474999,-1.5466543436050415,-1.3874398469924927,7.815272808074951,18.341064453125,43.15185546875,147.674560546875
0.4524999,-0.4231751561164856,-0.7140706777572632,7.757213592529297,23.74267578125,-19.561767578125,-71.4111328125
0.4574999,1.3227964639663696,-0.6171054840087891,7.265803813934326,-63.8427734375,-13.671875,-196.563720703125
0.4624999,2.4384944438934326,-0.1843535304069519,5.86040735244751,-10.498046875,-28.6865234375,-179.107666015625
0.4674999,2.404975652694702,-0.5614402890205383,5.96874475479126,7.50732421875,-4.913330078125,-55.5419921875
0.47249990000000003,0.5644330382347107,-0.983418345451355,6.144120216369629,6.04248046875,0.823974609375,106.50634765625
0.47749990000000003,-1.071405291557312,-1.1767501831054688,7.6997528076171875,13.12255859375,34.11865234375,211.822509765625
0.4824999,-1.7872716188430786,-1.4987702369689941,8.81784439086914,23.895263671875,14.617919921875,162.109375
0.4874999,-0.6602011322975159,-0.9989806413650513,9.312846183776855,17.02880859375,-4.69970703125,-39.459228515625
0.4924999,0.778714120388031,-0.24361002445220947,8.501810073852539,-55.938720703125,-7.537841796875,-188.079833984375
0.4974999,2.2667105197906494,0.1586158573627472,6.9904704093933105,-10.711669921875,-37.841796875,-188.018798828125
0.5024999,1.8453309535980225,0.43275195360183716,6.021417140960693,9.1552734375,8.9111328125,-78.4912109375
0.5074999,0.25917232036590576,0.03711012750864029,5.605424880981445,2.8076171875,-11.3525390625,94.54345703125
0.5124999,-1.5735890865325928,-0.304063618183136,6.400898456573486,13.12255859375,34.698486328125,206.573486328125
0.5174999,-2.186504602432251,-0.5817909836769104,7.89547872543335,19.1650390625,16.265869140625,183.013916015625
0.5224999,-2.186504602432251,-0.5817909836769104,7.89547872543335,19.1650390625,16.265869140625,183.013916015625
0.5274999,-1.0570400953292847,-0.4537012279033661,8.297704696655273,15.19775390625,-3.265380859375,-6.77490234375
0.5324999,0.42018240690231323,0.2902969419956207,8.058284759521484,-44.464111328125,-5.55419921875,-181.70166015625
0.5374999,2.057217836380005,0.3669114112854004,7.296928405761719,-13.824462890625,-37.2314453125,-204.193115234375
0.5424999,1.745373010635376,0.49559974670410156,6.378751754760742,7.6904296875,8.514404296875,-102.020263671875
0.5474999,0.26156654953956604,-0.19033902883529663,6.375759124755859,2.105712890625,-11.474609375,86.7919921875
0.5524999,-1.557428240776062,-0.6889315247535706,7.299921035766602,12.3291015625,29.35791015625,216.156005859375
0.5574999,-2.3918075561523438,-0.8158242106437683,8.548497200012207,20.5078125,20.263671875,197.479248046875
0.5624999,-1.358709454536438,-0.7535749673843384,9.024344444274902,20.3857421875,-2.0751953125,15.533447265625
0.5674999000000001,0.24241292476654053,0.25677812099456787,8.598176956176758,-40.130615234375,-0.67138671875,-173.33984375
0.5724999000000001,2.05781626701355,0.0520738884806633,7.2556281089782715,-26.641845703125,-42.6025390625,-210.052490234375
0.5774999000000001,2.0608091354370117,0.3770867586135864,6.248866558074951,10.467529296875,7.598876953125,-125.640869140625
0.5824999,0.9319429993629456,-0.25917232036590576,5.640140533447266,1.8310546875,-14.434814453125,61.309814453125
0.5874999,-1.0492589473724365,-0.6236895322799683,6.65169095993042,11.53564453125,23.49853515625,195.1904296875
0.5924999,-1.780089020729065,-0.6655880808830261,7.736264228820801,18.463134765625,29.35791015625,207.45849609375
0.5974999,-1.127070426940918,-0.6661866307258606,8.55268669128418,25.81787109375,-0.244140625,41.290283203125
0.6024999,0.6524199843406677,-0.1041477769613266,8.451532363891602,-28.289794921875,-0.8544921875,-157.65380859375
0.6074999,2.405574083328247,-0.15023615956306458,7.42681360244751,-42.266845703125,-41.107177734375,-202.423095703125
0.6124999,2.454655408859253,0.14784196019172668,6.45476770401001,11.41357421875,1.77001953125,-135.31494140625
0.6174999,1.501164436340332,-0.2890998423099518,5.750273704528809,2.655029296875,-12.51220703125,43.701171875
0.6224999,-0.8050503134727478,-0.5045779943466187,6.407482147216797,10.92529296875,13.85498046875,177.734375
0.6274999,-1.8249802589416504,-0.5770025849342346,7.259818077087402,16.9677734375,42.694091796875,215.75927734375
0.6324999,-1.4269442558288574,-0.6805518269538879,8.046313285827637,25.604248046875,-4.39453125,58.7158203125
0.6374999,0.24241292476654053,-0.39384618401527405,7.938574314117432,-21.78955078125,1.28173828125,-151.42822265625
0.6424999,1.9506758451461792,-0.2124854028224945,7.350797653198242,-41.748046875,-36.651611328125,-208.43505859375
0.6474999,2.4229321479797363,-0.15502455830574036,6.243479251861572,4.69970703125,-6.805419921875,-142.76123046875
0.6524999,1.5131354331970215,-0.3992331326007843,5.965153694152832,3.509521484375,-7.415771484375,29.266357421875
0.6574999,-0.7799112200737,-0.6177040338516235,6.241085052490234,9.979248046875,11.871337890625,170.95947265625
0.6624999,-1.9931728839874268,-0.6637924313545227,7.141903877258301,17.15087890625,39.703369140625,220.489501953125
0.6674999,-1.7735048532485962,-0.8601169586181641,7.735067367553711,26.214599609375,1.15966796875,78.094482421875
0.6724999,-0.33698388934135437,-0.4638765752315521,7.745242595672607,-11.04736328125,-1.77001953125,-133.11767578125
0.6774999,1.6154875755310059,-0.42616790533065796,7.441777229309082,-50.78125,-31.524658203125,-199.76806640625
0.6824999,2.1990742683410645,-0.4159925580024719,6.590638637542725,2.9296875,-11.90185546875,-144.805908203125
0.6874999,1.6101006269454956,-0.6344634294509888,6.450577735900879,6.40869140625,-4.547119140625,14.7705078125
0.6924999000000001,-0.5632359385490417,-0.8708908557891846,6.787561893463135,7.6904296875,6.34765625,153.80859375
0.6974999000000001,-1.8381483554840088,-0.7631517648696899,7.599195957183838,16.11328125,40.22216796875,220.855712890625
0.7024999000000001,-1.7334020137786865,-0.812831461429596,7.8529815673828125,26.123046875,3.23486328125,91.522216796875
0.7074999,-0.43095630407333374,-0.020949264988303185,7.600393295288086,-4.913330078125,-2.01416015625,-124.237060546875
0.7124999,1.6160861253738403,0.15263035893440247,6.715137004852295,-56.70166015625,-28.74755859375,-205.169677734375
0.7174999,2.257133722305298,0.4387374520301819,5.992686748504639,7.01904296875,-13.214111328125,-160.736083984375
0.7224999,1.8255788087844849,0.25019407272338867,5.5778913497924805,5.096435546875,-1.953125,0.30517578125
0.7274999,-0.2693476974964142,-0.23283611238002777,6.487688064575195,5.828857421875,0.06103515625,150.0244140625
0.7324999,-1.5909470319747925,-0.27653029561042786,7.519588947296143,15.7470703125,41.3818359375,222.59521484375
0.7374999,-1.490989089012146,-0.595557689666748,8.002618789672852,22.552490234375,4.608154296875,108.0322265625
0.7424999,-0.39564183354377747,0.040701430290937424,7.915829181671143,-3.7841796875,-2.5634765625,-109.039306640625
0.7474999,1.6400281190872192,-0.14065934717655182,7.062296390533447,-49.224853515625,-26.824951171875,-204.833984375
0.7524999,2.1787235736846924,0.01496376097202301,6.419453144073486,3.7841796875,-15.411376953125,-165.924072265625
0.7574999,1.698686122894287,-0.4357447028160095,5.972336292266846,3.96728515625,-2.38037109375,-7.32421875
0.7624999,-0.35733461380004883,-0.9840168952941895,6.7259111404418945,6.2255859375,1.129150390625,149.261474609375
0.7674999,-1.845929503440857,-0.9103952050209045,7.742249965667725,16.4794921875,40.435791015625,228.08837890625
0.7724999,-1.8381483554840088,-1.1103110313415527,8.294113159179688,24.71923828125,4.913330078125,121.002197265625
0.7774999,-0.7535749673843384,0.020350715145468712,7.861361503601074,5.218505859375,-2.044677734375,-96.832275390625
0.7824999,1.2838906049728394,-0.15322890877723694,7.354389190673828,-62.98828125,-20.904541015625,-200.8056640625
0.7874999,2.0177135467529297,0.4800374507904053,6.01303768157959,2.9296875,-24.322509765625,-171.2646484375
0.7924999,1.7046716213226318,0.03711012750864029,5.853823184967041,9.002685546875,5.9814453125,-22.3388671875
0.7974999,-0.16220717132091522,-0.5829881429672241,6.25664758682251,4.2724609375,-13.18359375,134.6435546875
0.8024999,-1.7076643705368042,-0.46567222476005554,7.13891077041626,17.39501953125,48.27880859375,227.142333984375
0.8074999,-1.7579425573349,-0.7817068696022034,8.10437297821045,21.331787109375,14.404296875,136.77978515625
0.8124999,-0.7158663272857666,0.12988543510437012,7.807491779327393,11.627197265625,-8.575439453125,-87.34130859375
0.8174999000000001,1.1665748357772827,0.031124621629714966,7.582436561584473,-67.5048828125,-14.6484375,-206.60400390625
0.8224999000000001,2.2451627254486084,0.3968389332294464,6.317699909210205,-4.0283203125,-31.6162109375,-183.929443359375
0.8274999000000001,1.9321208000183105,-0.2214636504650116,6.053739070892334,15.533447265625,7.26318359375,-42.236328125
0.8324999000000001,0.31184476613998413,-0.9876081943511963,6.3081231117248535,4.730224609375,-16.845703125,120.391845703125
0.8374999,-1.159990668296814,-1.0462661981582642,7.284957408905029,18.98193359375,43.51806640625,218.505859375
0.8424999,-1.4987702369689941,-1.2635399103164673,7.9613189697265625,15.31982421875,34.881591796875,146.636962890625
0.8474999,-0.3884592354297638,-0.3315969407558441,7.8541789054870605,16.29638671875,-20.172119140625,-72.784423828125
0.8524999,1.158793568611145,0.13048399984836578,6.852803707122803,-59.722900390625,-19.012451171875,-194.76318359375
0.8574999,2.366668462753296,0.6476315855979919,6.288370609283447,-3.082275390625,-27.28271484375,-173.858642578125
0.8624999,2.051830768585205,0.444722980260849,5.850830554962158,6.622314453125,0.1220703125,-45.59326171875
0.8674999,0.4040215313434601,-0.3034650683403015,6.710348606109619,4.180908203125,-10.162353515625,119.659423828125
0.8724999,-1.1982979774475098,-0.5662286877632141,7.770980358123779,17.27294921875,45.41015625,225.7080078125
0.8774999,-1.7166426181793213,-1.092953085899353,8.974664688110352,23.162841796875,18.829345703125,161.62109375
0.8824999,-0.5578489899635315,-0.7368155717849731,8.984241485595703,23.223876953125,-12.786865234375,-57.525634765625
0.8874999,0.8601169586181641,-0.4106055796146393,8.440757751464844,-72.69287109375,-0.91552734375,-195.159912109375
0.8924999,0.8601169586181641,-0.4106055796146393,8.440757751464844,-72.69287109375,-0.91552734375,-195.159912109375
0.8974999,2.1146786212921143,-0.09636662155389786,7.047332763671875,-10.040283203125,-55.938720703125,-179.0771484375
0.9024999,1.6956933736801147,0.14006079733371735,6.158485412597656,15.68603515625,21.087646484375,-59.844970703125
0.9074999,-0.15741875767707825,-0.35434186458587646,5.947795391082764,2.716064453125,-26.580810546875,97.16796875
0.9124999,-1.613093376159668,-0.15741875767707825,7.135319709777832,20.5078125,23.406982421875,215.301513671875
0.9174999,-2.1942858695983887,-0.7996633648872375,8.034940719604492,21.697998046875,70.86181640625,175.29296875
0.9224999,-0.7924807667732239,-0.4734533727169037,8.366538047790527,18.37158203125,4.21142578125,-35.400390625
0.9274999,0.71766197681427,-0.3208230137825012,7.571064472198486,-62.56103515625,-30.2734375,-185.272216796875
0.9324999,2.182913303375244,-0.28969839215278625,6.168660640716553,-15.0146484375,-64.422607421875,-186.21826171875
0.9374999,1.878849744796753,0.0035913025494664907,5.701791286468506,16.54052734375,26.0009765625,-74.89013671875
0.9424999000000001,0.07481880486011505,-0.578798234462738,5.7311201095581055,1.739501953125,-27.40478515625,97.198486328125
0.9474999000000001,-1.4718354940414429,-0.32381579279899597,7.364564418792725,16.448974609375,15.56396484375,213.9892578125
0.9524999000000001,-2.0655975341796875,-0.8978256583213806,8.252813339233398,21.3623046875,70.709228515625,179.443359375
0.9574999000000001,-0.7559691667556763,-0.5937620401382446,8.598775863647461,22.796630859375,6.683349609375,-25.848388671875
0.9624999,1.0773907899856567,-0.36810851097106934,8.019977569580078,-53.5888671875,-25.0244140625,-184.99755859375
0.9674999,2.7024552822113037,-0.3734954595565796,6.395511150360107,-27.03857421875,-67.138671875,-192.047119140625
0.9724999,2.3313539028167725,0.06464344263076782,6.090848922729492,20.01953125,24.261474609375,-92.22412109375
0.9774999,0.5542576909065247,-0.5859808921813965,6.066308498382568,1.220703125,-23.468017578125,83.19091796875
0.9824999,-1.4484920501708984,-0.2783259451389313,7.557297706604004,15.2587890625,9.6435546875,205.902099609375
0.9874999,-2.2242133617401123,-0.8756792545318604,8.69334602355957,21.66748046875,69.793701171875,190.73486328125
0.9924999,-1.0773907899856567,-0.578798234462738,9.03511905670166,22.735595703125,10.833740234375,-4.913330078125
0.9974999,0.8900445103645325,-0.47465047240257263,8.44315242767334,-41.015625,-23.529052734375,-176.025390625
1.0024999,2.695272445678711,-0.4985924959182739,6.576273441314697,-39.764404296875,-65.826416015625,-191.0400390625
1.0074999000000002,2.43011474609375,-0.2968810200691223,5.812523365020752,20.172119140625,18.768310546875,-103.3935546875
1.0124999000000001,0.7410054206848145,-0.9044097065925598,5.428852558135986,1.708984375,-19.195556640625,69.244384765625
1.0174999000000002,-1.3395558595657349,-0.6721721291542053,6.48708963394165,11.749267578125,-1.983642578125,197.418212890625
1.0224999000000001,-2.4139537811279297,-0.9876081943511963,7.978078842163086,26.85546875,71.22802734375,205.352783203125
1.0274999,-1.4101848602294922,-0.6883329749107361,8.584410667419434,21.240234375,24.23095703125,24.505615234375
1.0324999000000001,0.3998316824436188,-0.44352585077285767,8.367136001586914,-25.787353515625,-18.341064453125,-164.642333984375
1.0374999,2.6162638664245605,-0.6027402877807617,7.27298641204834,-59.87548828125,-70.37353515625,-199.0966796875
1.0424999000000001,2.4211363792419434,-0.46088382601737976,6.5080389976501465,23.773193359375,10.345458984375,-125.457763671875
1.0474999,1.3724761009216309,-1.094150185585022,6.011241912841797,3.021240234375,-9.21630859375,52.276611328125
1.0524999000000002,-0.7272387742996216,-0.9205705523490906,6.830059051513672,8.36181640625,-6.77490234375,188.8427734375
1.0574999,-1.9219454526901245,-0.945111095905304,7.694964408874512,18.98193359375,64.02587890625,207.244873046875
1.0624999000000002,-1.1408370733261108,-0.8331822156906128,8.143278121948242,21.42333984375,11.53564453125,34.759521484375
1.0674999,0.6835445761680603,-0.4531026780605316,7.948151111602783,-14.068603515625,-23.406982421875,-166.32080078125
1.0724999000000002,2.426523447036743,-0.38726213574409485,7.706935405731201,-45.71533203125,-31.890869140625,-204.77294921875
1.0774999,2.6396074295043945,-0.21966800093650818,6.706757545471191,5.06591796875,-9.490966796875,-140.228271484375
1.0824999000000002,1.5999252796173096,-0.3172317147254944,6.862380504608154,4.302978515625,-6.65283203125,31.585693359375
1.0874999,-0.7984662652015686,-0.4357447028160095,7.502231121063232,8.36181640625,13.671875,169.5556640625
1.0924999000000002,-2.0015525817871094,-0.3471592366695404,8.333019256591797,19.71435546875,33.538818359375,211.9140625
1.0974999,-1.7609353065490723,-0.6099228858947754,8.989628791809082,31.341552734375,3.021240234375,65.887451171875
1.1024999000000002,-0.35434186458587646,-0.33339259028434753,8.509591102600098,-10.894775390625,-1.220703125,-137.451171875
1.1074999,1.789067268371582,-0.2645592987537384,7.946953773498535,-60.9130859375,-33.02001953125,-193.29833984375
1.1124999000000002,2.2577321529388428,-0.1885433793067932,6.605003833770752,4.21142578125,-11.41357421875,-136.5966796875
1.1174999,1.8058266639709473,-0.3471592366695404,6.4601545333862305,8.697509765625,-2.197265625,19.622802734375
1.1224999000000002,-0.4381389021873474,-0.5129576921463013,6.889315605163574,7.232666015625,6.89697265625,155.975341796875
1.1274999,-1.844732403755188,-0.4411316514015198,7.797914981842041,16.9677734375,39.12353515625,223.69384765625
1.1324999000000002,-1.9189527034759521,-0.5680243372917175,8.234856605529785,29.205322265625,2.86865234375,97.47314453125
1.1374999000000001,-0.5123591423034668,0.10295066982507706,7.794922351837158,0.091552734375,-1.28173828125,-119.0185546875
1.1424999000000002,1.4431051015853882,0.10534487664699554,7.19936466217041,-65.399169921875,-27.16064453125,-204.010009765625
1.1474999000000001,2.234388828277588,0.3214215636253357,5.96874475479126,4.45556640625,-20.01953125,-161.0107421875
1.1524999000000002,1.7028759717941284,-0.04668693244457245,5.949591159820557,7.080078125,-0.152587890625,-4.638671875
1.1574999000000001,-0.24779987335205078,-0.646434485912323,6.341641902923584,6.683349609375,-3.5400390625,142.791748046875
1.1624999,-1.670554280281067,-0.6967126727104187,7.513004779815674,15.7470703125,46.08154296875,220.184326171875
1.1674999000000001,-1.4658499956130981,-1.0402805805206299,7.993640899658203,23.92578125,5.06591796875,111.51123046875
1.1724999,-0.3621230125427246,-0.08978256583213806,7.797316551208496,-0.79345703125,-2.685546875,-102.9052734375
1.1774999000000002,1.5963339805603027,-0.17298106849193573,7.133523941040039,-52.3681640625,-22.76611328125,-206.756591796875
1.1824999,2.184709072113037,0.2693476974964142,6.285976409912109,2.44140625,-21.484375,-172.2412109375
1.1874999000000002,1.7130513191223145,-0.1975216418504715,5.927444934844971,4.302978515625,-0.9765625,-18.37158203125
1.1924999,-0.3034650683403015,-0.8056488633155823,6.596624374389648,5.43212890625,-0.457763671875,141.29638671875
1.1974999000000002,-1.742978811264038,-0.7338228225708008,7.595006465911865,15.777587890625,36.956787109375,221.19140625
1.2024999,-1.8932149410247803,-0.9313444495201111,8.125920295715332,22.27783203125,8.026123046875,127.99072265625
1.2074999000000002,-0.6494272351264954,0.13706804811954498,7.909245491027832,2.8076171875,-3.631591796875,-82.82470703125
1.2124999,1.3455413579940796,-0.23104046285152435,7.260416507720947,-52.154541015625,-19.927978515625,-202.056884765625
1.2174999000000002,2.2403743267059326,0.27653029561042786,6.383540153503418,0.8544921875,-23.37646484375,-181.0302734375
1.2224999,1.8824410438537598,-0.4297592043876648,6.100425720214844,5.31005859375,3.204345703125,-36.43798828125
1.2274999000000002,-0.023942016065120697,-1.0324994325637817,6.5912370681762695,3.997802734375,-5.126953125,130.67626953125
1.2324999,-1.7190368175506592,-0.8445546627044678,7.538742542266846,15.594482421875,38.57421875,225.250244140625
1.2374999000000002,-2.05123233795166,-1.0001777410507202,8.251017570495605,20.93505859375,8.11767578125,150.0244140625
1.2424999,-0.7936778664588928,-0.02753331884741783,8.110957145690918,8.453369140625,-3.47900390625,-60.089111328125
1.2474999000000002,0.8517372608184814,0.28550854325294495,7.381922245025635,-54.962158203125,-13.671875,-198.211669921875
1.2524999,2.1068975925445557,0.657806932926178,6.600813865661621,-1.739501953125,-30.76171875,-190.12451171875
1.2574999000000002,1.5592238903045654,0.406415730714798,5.958569526672363,8.514404296875,8.23974609375,-54.168701171875
1.2624999000000001,1.5592238903045654,0.406415730714798,5.958569526672363,8.514404296875,8.23974609375,-54.168701171875
1.2674999000000002,-0.06165069341659546,-0.4704606235027313,6.435614109039307,2.960205078125,-11.23046875,121.368408203125
1.2724999000000001,-1.800439715385437,-0.5805938839912415,7.307103633880615,15.07568359375,39.0625,226.318359375
1.2774999000000002,-2.058414936065674,-0.9714473485946655,8.249820709228516,21.209716796875,11.71875,164.48974609375
1.2824999000000001,-0.5889736413955688,-0.4345476031303406,8.370129585266113,15.56396484375,-2.25830078125,-42.755126953125
1.2874999,1.202487826347351,0.08559270948171616,7.524975776672363,-57.06787109375,-8.9111328125,-197.723388671875
1.2924999000000001,2.671330451965332,0.4908113479614258,6.610989570617676,-8.7890625,-37.04833984375,-200.68359375
1.2974999,2.296638011932373,0.49380409717559814,5.624578475952148,11.23046875,10.3759765625,-77.667236328125
1.3024999000000002,0.42616790533065796,-0.09038111567497253,5.949591159820557,2.532958984375,-17.333984375,105.377197265625
1.3074999,-1.4562731981277466,-0.37169981002807617,6.8575921058654785,15.350341796875,37.59765625,217.376708984375
1.3124999000000002,-2.0236990451812744,-0.8110358119010925,8.350377082824707,20.233154296875,20.69091796875,175.59814453125
1.3174999,-0.7451952695846558,-0.628477931022644,8.535927772521973,19.04296875,-5.7373046875,-26.123046875
1.3224999000000002,0.8301894664764404,0.06224924325942993,7.956530570983887,-54.74853515625,-3.570556640625,-192.138671875
1.3274999,2.5127146244049072,0.1735796183347702,6.899490833282471,-13.824462890625,-44.403076171875,-196.197509765625
1.3324999000000002,2.1487960815429688,0.19393034279346466,5.959766387939453,10.223388671875,8.97216796875,-87.432861328125
1.3374999,0.5321113467216492,-0.4339490532875061,5.891531944274902,2.593994140625,-16.143798828125,88.043212890625
1.3424999000000002,-1.256955862045288,-0.7924807667732239,6.863577842712402,15.472412109375,32.745361328125,206.512451171875
1.3474999,-2.0266916751861572,-1.1767501831054688,8.119336128234863,17.7001953125,31.219482421875,189.544677734375
1.3524999000000002,-0.9852139949798584,-0.8678981065750122,8.579023361206055,23.162841796875,-11.23046875,-7.8125
1.3574999,0.4878185987472534,-0.21308395266532898,8.1941556930542,-50.29296875,1.89208984375,-181.121826171875
1.3624999000000002,2.1559786796569824,-0.284311443567276,7.301117897033691,-20.050048828125,-47.576904296875,-191.802978515625
1.3674999,1.9889830350875854,-0.06224924325942993,6.327875137329102,10.284423828125,9.002685546875,-91.827392578125
1.3724999000000002,0.4985924959182739,-0.8122329115867615,6.099228858947754,3.47900390625,-14.2822265625,77.2705078125
1.3774999,-1.2066776752471924,-0.9199720025062561,7.0341644287109375,14.58740234375,25.604248046875,199.188232421875
1.3824999000000002,-2.1104888916015625,-1.1127052307128906,7.966107368469238,17.547607421875,38.9404296875,197.6318359375
1.3874999000000001,-1.0755951404571533,-0.8188169598579407,8.605359077453613,25.2685546875,-12.115478515625,5.55419921875
1.3924999000000002,0.46746787428855896,0.009576806798577309,7.797914981842041,-43.8232421875,3.936767578125,-178.680419921875
1.3974999000000001,2.22660756111145,0,6.95695161819458,-28.62548828125,-48.309326171875,-200.653076171875
1.4024999000000002,2.1709423065185547,0.5063736438751221,5.9070940017700195,11.688232421875,8.11767578125,-108.642578125
1.4074999000000001,0.9199720025062561,-0.12749123573303223,5.629965305328369,3.60107421875,-15.716552734375,69.2138671875
1.4124999,-0.8852560520172119,-0.29628247022628784,6.982689380645752,14.495849609375,16.7236328125,196.35009765625
1.4174999000000001,-1.8148049116134644,-0.5452794432640076,7.726089000701904,17.364501953125,54.779052734375,206.207275390625
1.4224999,-1.0097545385360718,-0.6446388363838196,8.395268440246582,25.20751953125,-4.913330078125,22.613525390625
1.4274999000000002,0.5422866940498352,-0.2256535142660141,7.9864583015441895,-27.984619140625,-18.768310546875,-172.30224609375
1.4324999,2.204461097717285,-0.518943190574646,6.799532890319824,-41.50390625,-29.541015625,-198.3642578125
1.4374999000000002,2.360682964324951,-0.3663128614425659,5.9286417961120605,8.1787109375,-5.06591796875,-119.659423828125
1.4424999,1.173158884048462,-1.0241197347640991,5.551555156707764,3.662109375,-11.260986328125,51.727294921875
1.4474999000000002,-0.8164227604866028,-1.0121487379074097,6.540360450744629,11.04736328125,14.892578125,186.03515625
1.4524999,-1.8267759084701538,-1.1204863786697388,7.507617950439453,18.798828125,45.0439453125,212.127685546875
1.4574999000000002,-1.213860273361206,-1.0157400369644165,8.3922758102417,31.646728515625,-8.087158203125,36.376953125
1.4624999,0.33099839091300964,-0.667982280254364,8.136096000671387,-25.543212890625,5.096435546875,-161.590576171875
1.4674999000000002,2.3570916652679443,-0.606930136680603,7.554305076599121,-52.001953125,-43.365478515625,-199.005126953125
1.4724999,2.4193408489227295,-0.3926490843296051,6.42543888092041,9.735107421875,-1.708984375,-122.894287109375
1.4774999000000002,1.50355863571167,-0.6236895322799683,6.201581001281738,6.683349609375,-6.927490234375,40.435791015625
1.4824999,-0.8062474131584167,-0.3693056106567383,6.588842868804932,8.72802734375,4.33349609375,175.1708984375
1.4874999000000002,-2.0171148777008057,-0.3645172119140625,7.450755596160889,17.333984375,50.47607421875,219.451904296875
1.4924999,-1.6603789329528809,-0.22026655077934265,8.037335395812988,27.587890625,-4.058837890625,56.94580078125
1.4974999000000002,0.031124621629714966,-0.10295066982507706,7.990049839019775,-18.829345703125,-0.8544921875,-151.0009765625
1.5024999,1.9195512533187866,-0.10295066982507706,7.378331184387207,-52.79541015625,-39.306640625,-202.392578125
1.5074999000000002,2.2230162620544434,-0.1711854189634323,6.547543048858643,12.75634765625,-4.608154296875,-140.350341796875
1.5124999000000001,1.4389152526855469,-0.3555389642715454,6.2404866218566895,4.82177734375,-7.080078125,32.53173828125
1.5174999000000002,-0.8469488620758057,-0.4471171796321869,6.719925403594971,8.758544921875,-0.213623046875,173.4619140625
1.5224999000000001,-2.012925148010254,-0.3669114112854004,7.620145320892334,17.7001953125,54.962158203125,224.2431640625
1.5274999000000002,-1.6364368200302124,-0.4728548228740692,8.13370132446289,26.611328125,-0.54931640625,73.974609375
1.5324999000000001,-0.21428105235099792,-0.1951274424791336,7.906252384185791,-9.33837890625,-6.2255859375,-142.51708984375
1.5374999000000003,1.8507179021835327,-0.29209262132644653,7.393893241882324,-57.281494140625,-31.463623046875,-208.19091796875
1.5424999000000001,2.3343467712402344,-0.3034650683403015,6.448183536529541,7.8125,-10.345458984375,-150.2685546875
1.5474999,1.9051860570907593,-0.7026981711387634,6.202179431915283,4.57763671875,-5.43212890625,14.7705078125
1.5524999000000002,-0.2346317619085312,-0.8966285586357117,6.845621109008789,8.270263671875,4.150390625,157.77587890625
1.5574999,-1.4173674583435059,-0.8816647529602051,7.7183074951171875,16.7236328125,42.022705078125,217.437744140625
1.5624999000000002,-1.2641384601593018,-0.9558850526809692,8.09898567199707,25.665283203125,3.204345703125,83.67919921875
1.5674999,-0.043095629662275314,-0.4345476031303406,7.8529815673828125,-11.04736328125,-2.471923828125,-128.0517578125
1.5724999000000002,1.7741034030914307,-0.3669114112854004,7.122750282287598,-47.210693359375,-29.296875,-201.84326171875
1.5774999,2.255936622619629,-0.13826514780521393,6.142324447631836,3.448486328125,-12.420654296875,-147.03369140625
1.5824999000000002,1.4712369441986084,-0.3196259140968323,5.838260650634766,4.364013671875,0.091552734375,11.04736328125
1.5874999,-0.6859387755393982,-0.5494692921638489,6.5277910232543945,5.67626953125,4.21142578125,155.853271484375
1.5924999000000002,-2.0871453285217285,-0.4058171808719635,7.436988830566406,16.326904296875,34.576416015625,221.099853515625
1.5974999,-1.9375077486038208,-0.5632359385490417,8.149862289428711,22.918701171875,3.90625,100.860595703125
1.6024999000000002,-0.7829039692878723,0.17657238245010376,8.02536392211914,-8.697509765625,-0.8544921875,-113.922119140625
1.6074999,1.216254472732544,0.4507084786891937,7.083844184875488,-43.27392578125,-26.7333984375,-204.2236328125
1.6124999000000002,1.7106571197509766,0.7350199222564697,6.341641902923584,3.631591796875,-12.20703125,-163.543701171875
1.6174999,1.0450690984725952,0.5482721924781799,5.670666694641113,4.180908203125,-2.01416015625,4.608154296875
1.6224999000000002,-0.9421183466911316,-0.041299980133771896,6.537966251373291,5.279541015625,2.471923828125,166.168212890625
1.6274999,-0.9421183466911316,-0.041299980133771896,6.537966251373291,5.279541015625,2.471923828125,166.168212890625
1.6324999000000002,-2.337339401245117,-0.23582886159420013,7.547122478485107,16.265869140625,33.477783203125,234.710693359375
1.6374999000000001,-2.057217836380005,-0.6949170231819153,8.238448143005371,21.026611328125,5.615234375,117.401123046875
1.6424999000000002,-0.7799112200737,0.10474632680416107,8.149264335632324,-0.9765625,-0.9765625,-104.217529296875
1.6474999000000001,1.3742717504501343,-0.028131870552897453,7.655459880828857,-48.919677734375,-24.59716796875,-215.4541015625
1.6524999000000002,2.1559786796569824,0.23523031175136566,7.171831130981445,1.922607421875,-15.31982421875,-187.835693359375
1.6574999000000001,1.7268179655075073,-0.3232172429561615,6.764816761016846,3.47900390625,-2.01416015625,-19.71435546875
1.6624999000000003,-0.12629413604736328,-0.9929951429367065,7.591414928436279,6.683349609375,0.1220703125,155.548095703125
1.6674999000000001,-1.547252893447876,-1.0259153842926025,8.276156425476074,15.7470703125,35.675048828125,229.705810546875
1.6724999,-1.5843629837036133,-1.1210849285125732,8.440159797668457,21.484375,7.659912109375,122.49755859375
1.6774999000000002,-0.3776853084564209,0.06224924325942993,7.800907611846924,2.01416015625,-1.922607421875,-93.017578125
1.6824999,1.5388731956481934,-0.03292027488350868,7.148487567901611,-49.652099609375,-20.843505859375,-213.043212890625
1.6874999000000002,2.2403743267059326,0.4866214990615845,6.203975200653076,-1.0986328125,-20.233154296875,-188.140869140625
1.6924999,1.813009262084961,-0.1346738487482071,6.143521785736084,4.974365234375,0.67138671875,-28.25927734375
1.6974999000000002,-0.17956513166427612,-0.8062474131584167,6.801328659057617,5.615234375,-5.401611328125,145.6298828125
1.7024999,-1.73519766330719,-0.7242460250854492,7.757213592529297,15.56396484375,37.7197265625,234.0087890625
1.7074999000000002,-1.9794062376022339,-0.9415197968482971,8.086416244506836,22.430419921875,8.544921875,140.350341796875
1.7124999,-0.7212532758712769,-0.023942016065120697,7.794323444366455,8.331298828125,-1.312255859375,-74.70703125
1.7174999000000002,0.983418345451355,0.11372458189725876,7.0593037605285645,-54.595947265625,-17.242431640625,-206.146240234375
1.7224999,2.01232647895813,0.48063600063323975,6.388328552246094,-3.387451171875,-23.468017578125,-190.673828125
1.7274999000000002,1.591545581817627,0.14065934717655182,6.174646377563477,5.889892578125,2.044677734375,-42.755126953125
1.7324999,-0.1496376097202301,-0.5333084464073181,6.739078998565674,5.035400390625,-10.6201171875,134.3994140625
1.7374999000000002,-1.6813281774520874,-0.45908817648887634,7.642890453338623,16.2353515625,39.97802734375,231.903076171875
1.7424999,-1.8381483554840088,-0.9103952050209045,8.092401504516602,21.209716796875,10.498046875,151.79443359375
1.7474999000000002,-0.4076128304004669,-0.08080431073904037,7.826046943664551,11.077880859375,-0.152587890625,-61.95068359375
1.7524999,1.2832920551300049,-0.03711012750864029,6.979696273803711,-54.99267578125,-15.9912109375,-206.0546875
1.7574999000000002,2.539050817489624,0.2190694510936737,6.680421352386475,-4.69970703125,-27.4658203125,-198.6083984375
1.7624999000000001,1.9943699836730957,-0.08259996026754379,6.278195381164551,6.805419921875,3.814697265625,-60.516357421875
1.7674999000000002,0.2106897532939911,-0.7954735159873962,7.191583156585693,3.692626953125,-11.65771484375,121.673583984375
1.7724999000000001,-1.4844050407409668,-0.8367735147476196,8.048707962036133,16.021728515625,38.330078125,226.74560546875
1.7774999000000002,-1.8064252138137817,-1.2425906658172607,8.862137794494629,22.216796875,12.02392578125,160.247802734375
1.7824999000000001,-0.42676645517349243,-0.6015431880950928,8.534730911254883,13.85498046875,-1.3427734375,-47.698974609375
1.7874999000000003,1.1755530834197998,-0.060453593730926514,7.153275966644287,-55.328369140625,-11.444091796875,-200.01220703125
1.7924999000000001,2.4133553504943848,0.6063315868377686,6.205770969390869,-8.23974609375,-31.402587890625,-197.113037109375
1.7974999,1.8381483554840088,0.8535329103469849,4.9817352294921875,8.026123046875,6.40869140625,-70.892333984375
1.8024999000000002,-0.03531447425484657,0.3130418658256531,5.405508995056152,3.265380859375,-13.336181640625,110.9619140625
1.8074999,-1.8393454551696777,0.01496376097202301,6.469132900238037,15.106201171875,35.58349609375,223.907470703125
1.8124999000000002,-2.25473952293396,-0.6823474764823914,7.803301811218262,21.8505859375,15.045166015625,172.698974609375
1.8174999,-0.9391255974769592,-0.5351040959358215,8.106766700744629,19.22607421875,-1.068115234375,-30.303955078125
1.8224999000000002,0.7140706777572632,-0.09636662155389786,7.618350028991699,-55.17578125,-6.89697265625,-193.634033203125
1.8274999,2.2882583141326904,0.06404489278793335,6.647500991821289,-14.190673828125,-38.726806640625,-197.784423828125
1.8324999000000002,2.0242974758148193,0.08379705995321274,5.925649166107178,10.894775390625,9.27734375,-84.381103515625
1.8374999,0.42377370595932007,-0.5207388401031494,6.0651116371154785,1.861572265625,-17.02880859375,96.8017578125
1.8424999000000002,-1.2922704219818115,-0.7906851172447205,7.062894821166992,14.251708984375,32.470703125,215.8203125
1.8474999,-1.8740613460540771,-1.0851719379425049,8.175002098083496,19.744873046875,21.240234375,182.92236328125
1.8524999000000002,-0.7948749661445618,-0.667982280254364,8.378508567810059,18.707275390625,-2.9296875,-14.190673828125
1.8574999,0.7134721279144287,0.18614917993545532,7.414244174957275,-48.40087890625,-5.340576171875,-189.117431640625
1.8624999000000002,2.2691047191619873,0.4339490532875061,6.364386558532715,-15.411376953125,-36.9873046875,-203.18603515625
1.8674999,1.9578584432601929,0.5883750915527344,5.52701473236084,8.4228515625,11.1083984375,-96.3134765625
1.8724999000000002,0.46327802538871765,-0.13168109953403473,5.558139324188232,2.3193359375,-14.34326171875,89.996337890625
1.8774999,-1.3443442583084106,-0.6224924325942993,6.765415668487549,12.451171875,28.594970703125,214.447021484375
1.8824999000000002,-2.036867141723633,-0.9313444495201111,8.13908863067627,20.44677734375,19.6533203125,188.5986328125
1.8874999000000001,-1.039083480834961,-0.646434485912323,8.550890922546387,20.111083984375,0.335693359375,1.03759765625
1.8924999000000002,0.5099649429321289,0.18614917993545532,8.273163795471191,-43.548583984375,-4.82177734375,-181.549072265625
1.8974999000000001,2.2206220626831055,0.20350714027881622,7.332242488861084,-19.744873046875,-37.53662109375,-204.9560546875
1.9024999000000002,2.1116859912872314,0.4339490532875061,6.439205646514893,7.75146484375,4.852294921875,-109.710693359375
1.9074999000000001,0.8044517636299133,-0.40521863102912903,6.069900035858154,2.532958984375,-12.725830078125,76.629638671875
1.9124999000000003,-1.0720038414001465,-0.7829039692878723,6.811503887176514,11.3525390625,25.87890625,205.841064453125
1.9174999000000001,-1.8638859987258911,-0.9253589510917664,7.63989782333374,20.050048828125,22.39990234375,198.944091796875
1.9224999,-1.027711033821106,-0.7966706156730652,8.084620475769043,21.17919921875,0,20.6298828125
1.9274999000000002,0.35494041442871094,0.1825578808784485,7.632116317749023,-38.665771484375,-2.38037109375,-171.81396484375
1.9324999,2.0057425498962402,0.23163901269435883,6.656479358673096,-24.017333984375,-38.9404296875,-205.50537109375
1.9374999000000002,1.8142063617706299,0.5159504413604736,5.7544636726379395,7.598876953125,4.638671875,-120.42236328125
1.9424999,0.5261258482933044,-0.06823474913835526,5.462371349334717,2.227783203125,-12.481689453125,64.117431640625
1.9474999000000002,-1.4359225034713745,-0.5033808946609497,6.531980991363525,10.25390625,21.484375,198.822021484375
1.9524999,-2.1493945121765137,-0.689530074596405,7.647678852081299,19.378662109375,26.123046875,209.89990234375
1.9574999000000002,-1.413776159286499,-0.7044938206672668,8.49522590637207,25.0244140625,1.15966796875,41.107177734375
1.9624999,0.545877993106842,-0.16220717132091522,8.309675216674805,-29.449462890625,-0.8544921875,-160.70556640625
1.9674999000000002,2.3277626037597656,0.041299980133771896,7.434594631195068,-37.109375,-38.238525390625,-207.8857421875
1.9724999,2.42472767829895,0.322618693113327,6.455965042114258,9.002685546875,1.5869140625,-136.505126953125
1.9774999000000002,1.2527660131454468,0.026336219161748886,6.05852746963501,2.25830078125,-12.725830078125,48.4619140625
1.9824999,-1.058835744857788,-0.1711854189634323,6.78696346282959,11.16943359375,11.260986328125,190.00244140625
1.9874999000000002,-2.0638017654418945,-0.31783026456832886,7.587823867797852,17.120361328125,39.581298828125,221.221923828125
1.9924999,-1.5652093887329102,-0.436343252658844,8.197746276855469,24.444580078125,-2.777099609375,60.1806640625
1.9974999000000002,-1.5652093887329102,-0.436343252658844,8.197746276855469,24.444580078125,-2.777099609375,60.1806640625
2.0024999,0.2717418968677521,-0.17537526786327362,7.753622055053711,-19.927978515625,2.44140625,-150.360107421875
2.0074999,1.9865888357162476,0.11791443079710007,6.815094947814941,-45.257568359375,-34.515380859375,-214.41650390625
2.0124999000000003,2.342127799987793,0.10893617570400238,6.04655647277832,9.490966796875,-3.662109375,-154.937744140625
2.0174999000000002,1.37906014919281,-0.11971008777618408,5.789179801940918,3.23486328125,-8.48388671875,29.449462890625
2.0224999,-0.8182184100151062,-0.3064578175544739,6.668450355529785,9.490966796875,6.28662109375,180.7861328125
2.0274999,-1.835754156112671,-0.4076128304004669,7.583035469055176,17.76123046875,39.520263671875,220.21484375
2.0324999000000004,-1.3934253454208374,-0.49978959560394287,8.099584579467773,23.0712890625,0.67138671875,70.892333984375
2.0374999000000003,0.26156654953956604,-0.07960720360279083,7.746439456939697,-16.54052734375,-0.335693359375,-140.899658203125
2.0424999,2.1086931228637695,0.07003039866685867,6.922235488891602,-43.9453125,-32.501220703125,-213.287353515625
2.0474999,2.455852508544922,-0.004788403399288654,6.081871032714844,5.828857421875,-6.28662109375,-157.318115234375
2.0524999,1.456871747970581,-0.2346317619085312,5.856815814971924,3.60107421875,-4.547119140625,21.42333984375
2.0574999000000003,-0.9199720025062561,-0.5883750915527344,6.598419666290283,7.38525390625,4.21142578125,175.018310546875
2.0624999,-2.3110032081604004,-0.5871779918670654,7.6566572189331055,16.815185546875,35.552978515625,227.081298828125
2.0674999,-2.070984363555908,-0.6494272351264954,8.17141056060791,25.87890625,5.828857421875,93.75
2.0724999,-0.6368576288223267,0.017956512048840523,7.796717643737793,-6.439208984375,-2.105712890625,-120.91064453125
2.0774999000000003,1.4293384552001953,0.1628057211637497,6.895899295806885,-53.192138671875,-26.2451171875,-206.207275390625
2.0824999,2.0009541511535645,0.30885201692581177,5.942408561706543,5.31005859375,-11.932373046875,-163.299560546875
2.0874999,1.4323312044143677,0.07781155407428741,5.459378242492676,4.302978515625,-3.60107421875,5.7373046875
2.0924999,-0.5614402890205383,-0.38965633511543274,6.139930248260498,6.622314453125,-2.777099609375,161.865234375
2.0974999000000003,-1.92134690284729,-0.3992331326007843,7.183802127838135,16.78466796875,42.205810546875,231.231689453125
2.1024999,-1.703474521636963,-0.5847837924957275,7.700351238250732,24.871826171875,4.913330078125,110.504150390625
2.1074999,-0.40521863102912903,0.22744916379451752,7.29034423828125,1.129150390625,-0.091552734375,-108.642578125
2.1124999,1.5610195398330688,0.08319851011037827,6.767809867858887,-58.53271484375,-24.5361328125,-213.531494140625
2.1174999000000003,2.2589292526245117,0.2932897210121155,6.0417680740356445,3.5400390625,-18.280029296875,-181.21337890625
2.1224999,1.832162857055664,-0.24779987335205078,5.893327713012695,5.035400390625,-0.91552734375,-17.76123046875
2.1274999,-0.07781155407428741,-0.9522937536239624,6.955754280090332,5.523681640625,-7.720947265625,149.444580078125
2.1324999,-1.502361536026001,-0.7972691655158997,7.820061206817627,17.425537109375,44.342041015625,231.903076171875
2.1374999000000003,-1.5275006294250488,-0.9139865040779114,8.355165481567383,22.8271484375,5.828857421875,126.28173828125
2.1424999000000002,-0.3974374830722809,0.2256535142660141,7.6985554695129395,3.997802734375,-0.946044921875,-92.10205078125
2.1474999,1.4975731372833252,-0.05027823522686958,6.995258808135986,-57.373046875,-19.927978515625,-210.3271484375
2.1524999,2.249951124191284,0.34656068682670593,6.2398881912231445,0.885009765625,-22.491455078125,-185.302734375
2.1574999000000004,1.890222191810608,-0.3531447649002075,6.168062210083008,6.40869140625,3.7841796875,-31.005859375
2.1624999000000003,-0.03292027488350868,-0.9995791912078857,7.025784969329834,4.547119140625,-11.71875,142.364501953125
2.1674999,-1.656787633895874,-0.7314286231994629,8.036736488342285,16.9677734375,42.48046875,235.04638671875
2.1724999,-1.8698714971542358,-0.9379284977912903,8.597578048706055,22.369384765625,10.223388671875,145.416259765625
2.1774999000000004,-0.6099228858947754,0.03531447425484657,8.145672798156738,9.246826171875,-1.983642578125,-71.075439453125
2.1824999000000003,1.0271124839782715,0.2406172752380371,7.225700855255127,-58.135986328125,-16.05224609375,-205.2001953125
2.1874999,2.24935245513916,0.5249287486076355,6.542156219482422,-2.86865234375,-26.611328125,-192.5048828125
2.1924999,1.6938977241516113,0.25258827209472656,6.02919864654541,8.270263671875,4.94384765625,-51.45263671875
2.1974999,-0.0011971008498221636,-0.5141547918319702,6.716334342956543,3.47900390625,-12.63427734375,126.46484375
2.2024999000000003,-1.6442179679870605,-0.5764040350914001,7.563881874084473,16.4794921875,39.85595703125,230.438232421875
2.2074999,-1.8519150018692017,-1.0893617868423462,8.317456245422363,22.186279296875,12.786865234375,157.77587890625
2.2124999,-0.42437225580215454,-0.4010287821292877,8.089408874511719,14.251708984375,-2.197265625,-54.74853515625
2.2174999,1.3275848627090454,-0.17657238245010376,7.0353617668151855,-58.685302734375,-11.77978515625,-202.423095703125
2.2224999000000003,2.5689783096313477,0.35913026332855225,6.426037311553955,-6.9580078125,-32.3486328125,-198.30322265625
2.2274999,2.0470423698425293,0.40940847992897034,5.564124584197998,9.246826171875,6.927490234375,-69.15283203125
2.2324999,0.13168109953403473,-0.1346738487482071,6.190208435058594,2.38037109375,-15.56396484375,113.861083984375
2.2374999,-1.668160080909729,-0.2651578485965729,7.136516571044922,16.2353515625,37.109375,225.89111328125
2.2424999000000003,-2.079364061355591,-0.6494272351264954,8.22887134552002,20.263671875,17.425537109375,171.600341796875
2.2474999,-0.7439981698989868,-0.39863458275794983,8.241440773010254,15.19775390625,-3.265380859375,-35.369873046875
2.2524999,1.0007762908935547,0.05925649031996727,7.620744228363037,-53.7109375,-8.48388671875,-197.265625
2.2574999,2.457049608230591,0.3214215636253357,6.824073314666748,-10.8642578125,-34.576416015625,-201.690673828125
2.2624999000000003,2.1338322162628174,-0.0293289702385664,6.07468843460083,9.765625,7.293701171875,-84.259033203125
2.2674999000000002,0.34656068682670593,-0.5494692921638489,6.479308128356934,2.50244140625,-15.106201171875,100.860595703125
2.2724999,-1.4700398445129395,-0.9894038438796997,7.401075839996338,13.336181640625,32.28759765625,220.855712890625
2.2774999,-2.094926595687866,-1.2539631128311157,8.62271785736084,21.728515625,20.111083984375,182.92236328125
2.2824999000000004,-0.9487023949623108,-0.8337807655334473,8.779537200927734,18.463134765625,0.67138671875,-14.068603515625
2.2874999000000003,0.6189011335372925,0.19452889263629913,7.967903137207031,-48.309326171875,-9.429931640625,-188.751220703125
2.2924999,2.2014684677124023,0.5021837949752808,6.799532890319824,-15.838623046875,-35.064697265625,-203.9794921875
2.2974999,1.896806240081787,0.7050924301147461,5.847239017486572,7.62939453125,6.8359375,-99.609375
2.3024999000000004,0.44173020124435425,0.1173158809542656,5.799953460693359,2.471923828125,-12.6953125,88.43994140625
2.3074999000000003,-1.4095861911773682,-0.45908817648887634,6.93959379196167,12.14599609375,27.069091796875,212.890625
2.3124999,-2.099116325378418,-0.7218518257141113,8.241440773010254,20.5078125,20.538330078125,191.314697265625
2.3174999,-1.0959458351135254,-0.49559974670410156,8.629899978637695,20.44677734375,2.01416015625,4.45556640625
2.3224999,0.30705636739730835,0.3274070918560028,8.179191589355469,-42.1142578125,-6.04248046875,-180.17578125
2.3274999000000003,1.9776105880737305,0.28730419278144836,7.132925510406494,-20.599365234375,-34.820556640625,-205.230712890625
2.3324999,1.7519570589065552,0.36092591285705566,6.257844924926758,6.89697265625,3.814697265625,-111.38916015625
2.3374999,0.47644615173339844,-0.3705027103424072,6.032191276550293,2.74658203125,-12.847900390625,76.0498046875
2.3424999,-1.4119805097579956,-0.839766263961792,6.982090473175049,11.566162109375,23.49853515625,207.489013671875
2.3474999000000003,-2.014122247695923,-0.8738836050033569,7.971494674682617,19.134521484375,23.956298828125,202.484130859375
2.3524999,-1.192312479019165,-0.6829460263252258,8.470685958862305,21.697998046875,3.753662109375,25.7568359375
2.3574999,0.5859808921813965,0.07481880486011505,8.039131164550781,-35.0341796875,-4.7607421875,-171.295166015625
2.3624999,0.5859808921813965,0.07481880486011505,8.039131164550781,-35.0341796875,-4.7607421875,-171.295166015625
2.3674999000000003,2.2391772270202637,0.12449848651885986,7.46033239364624,-26.702880859375,-36.0107421875,-211.0595703125
2.3724999,2.2828712463378906,0.17537526786327362,6.54455041885376,6.2255859375,0.946044921875,-128.936767578125
2.3774999,1.0013748407363892,-0.3531447649002075,6.649296760559082,2.532958984375,-11.71875,59.326171875
2.3824999,-1.1049240827560425,-0.7727286219596863,7.5884222984313965,11.077880859375,17.63916015625,198.638916015625
2.3874999000000003,-1.8614917993545532,-0.7876923680305481,8.35456657409668,18.218994140625,28.961181640625,211.12060546875
2.3924999000000002,-1.346139907836914,-0.6248866319656372,8.87410831451416,22.705078125,4.57763671875,46.142578125
2.3974999,0.5500678420066833,-0.03711012750864029,8.289923667907715,-27.496337890625,-3.631591796875,-157.867431640625
2.4024999,2.1164743900299072,0.284311443567276,7.253832817077637,-33.14208984375,-35.003662109375,-211.395263671875
2.4074999000000004,2.2230162620544434,0.38965633511543274,6.278195381164551,6.134033203125,-2.3193359375,-141.4794921875
2.4124999000000003,1.0157400369644165,0.05386953800916672,6.011241912841797,2.532958984375,-9.307861328125,43.45703125
2.4174999,-1.2282254695892334,-0.3471592366695404,6.804919719696045,10.009765625,11.474609375,190.032958984375
2.4224999,-2.2607250213623047,-0.42377370595932007,7.820659637451172,18.4326171875,34.027099609375,222.22900390625
2.4274999000000004,-1.6938977241516113,-0.578798234462738,8.458714485168457,27.008056640625,4.0283203125,67.32177734375
2.4324999000000003,0.076015904545784,-0.10175357013940811,8.03194808959961,-14.373779296875,-0.701904296875,-144.34814453125
2.4374999,2.079364061355591,0.15083470940589905,7.108384609222412,-53.466796875,-33.599853515625,-212.005615234375
2.4424999,2.4163479804992676,0.3058592677116394,6.223128795623779,9.185791015625,-5.7373046875,-156.951904296875
2.4474999,1.6627731323242188,0.15322890877723694,5.922656536102295,3.5400390625,-6.65283203125,21.087646484375
2.4524999000000003,-0.6362590789794922,-0.07003039866685867,6.689998149871826,7.4462890625,2.593994140625,173.248291015625
2.4574999,-1.8555063009262085,-0.1472434103488922,7.691372871398926,17.364501953125,39.306640625,225.006103515625
2.4624999,-1.5646108388900757,-0.3321954905986786,8.02656078338623,22.247314453125,5.18798828125,84.28955078125
2.4674999,-0.04249707981944084,0.008379706181585789,7.930793285369873,-14.7705078125,-1.52587890625,-130.859375
2.4724999000000003,1.8112136125564575,0.11552023142576218,7.146692276000977,-39.642333984375,-30.76171875,-214.7216796875
2.4774999,2.3475148677825928,-0.047884032130241394,6.613383769989014,1.8310546875,-10.223388671875,-164.306640625
2.4824999,1.4508862495422363,-0.28790274262428284,6.3715691566467285,3.814697265625,-3.7841796875,12.51220703125
2.4874999,-0.7206547260284424,-0.767341673374176,7.1257429122924805,7.32421875,2.50244140625,170.7763671875
2.4924999000000003,-2.1344308853149414,-0.7338228225708008,8.0145902633667,16.05224609375,34.60693359375,229.095458984375
2.4974999,-1.9494787454605103,-0.7481880187988281,8.22767448425293,18.341064453125,9.09423828125,105.255126953125
2.5024999,-0.545877993106842,-0.05746084079146385,8.26358699798584,-12.176513671875,-3.936767578125,-111.02294921875
2.5074999,1.314416766166687,-0.047884032130241394,7.284358501434326,-31.06689453125,-25.970458984375,-213.80615234375
2.5124999000000003,2.0027496814727783,-0.13108254969120026,6.943184852600098,-2.044677734375,-14.83154296875,-175.72021484375
2.5174999000000002,1.2258312702178955,-0.6913257241249084,6.790554523468018,3.90625,-1.739501953125,-3.875732421875
2.5224999,-0.6135141849517822,-1.2575544118881226,7.440580368041992,7.4462890625,-1.8310546875,162.750244140625
2.5274999,-2.0644004344940186,-1.1516109704971313,8.592191696166992,15.19775390625,36.407470703125,230.743408203125
2.5324999000000004,-1.7806875705718994,-0.933738648891449,8.632892608642578,19.866943359375,10.040283203125,119.0185546875
2.5374999000000003,-0.6380547285079956,0.29568392038345337,8.300697326660156,-5.462646484375,-0.54931640625,-96.0693359375
2.5424999,1.2180501222610474,0.6039373874664307,7.403470039367676,-38.9404296875,-24.47509765625,-216.30859375
2.5474999,2.0021512508392334,0.7793126702308655,6.6397199630737305,-3.47900390625,-14.404296875,-188.17138671875
2.5524999000000004,1.381454348564148,0.15263035893440247,6.575675010681152,5.18798828125,-1.983642578125,-24.444580078125
2.5574999000000003,-0.21607670187950134,-0.8062474131584167,7.117362976074219,6.256103515625,-6.7138671875,148.345947265625
2.5624999,-1.692102074623108,-0.862511157989502,8.011597633361816,15.533447265625,39.825439453125,232.666015625
2.5674999,-1.723825216293335,-0.9786299467086792,8.093000411987305,19.500732421875,10.6201171875,138.153076171875
2.5724999,-0.4836287498474121,0.046088382601737976,7.599195957183838,-1.0986328125,0.823974609375,-75.86669921875
2.5774999000000003,1.2994530200958252,0.0520738884806633,7.064690589904785,-41.07666015625,-25.08544921875,-212.249755859375
2.5824999,2.23199462890625,0.3076549172401428,6.746860504150391,-3.204345703125,-18.73779296875,-195.831298828125
2.5874999,1.7699135541915894,-0.40462008118629456,6.988076210021973,4.241943359375,-0.6103515625,-43.792724609375
2.5924999,-0.01735796220600605,-1.013944387435913,7.834426403045654,5.43212890625,-6.378173828125,135.7421875
2.5974999000000003,-1.6514005661010742,-1.0055646896362305,8.774150848388672,14.984130859375,37.17041015625,231.4453125
2.6024999,-1.8896236419677734,-1.0863690376281738,8.863334655761719,21.697998046875,13.458251953125,150.909423828125
2.6074999,-0.48961424827575684,-0.10534487664699554,8.397662162780762,6.591796875,-1.068115234375,-58.89892578125
2.6124999,1.05105459690094,0.1041477769613266,7.221510887145996,-48.76708984375,-19.561767578125,-204.89501953125
2.6174999000000003,2.2834699153900146,0.44771572947502136,6.525995254516602,-4.5166015625,-23.956298828125,-197.8759765625
2.6224999,1.668160080909729,0.040701430290937424,5.949591159820557,5.06591796875,2.349853515625,-60.150146484375
2.6274999,-0.18794482946395874,-0.6344634294509888,6.649296760559082,4.2724609375,-9.002685546875,120.42236328125
2.6324999,-1.9171570539474487,-0.7086837291717529,7.67042350769043,14.2822265625,36.2548828125,229.217529296875
2.6374999000000003,-2.3110032081604004,-1.0271124839782715,8.603564262390137,23.345947265625,14.678955078125,168.914794921875
2.6424999000000002,-0.8738836050033569,-0.47165772318840027,8.658031463623047,16.021728515625,-1.89208984375,-37.200927734375
2.6474999,0.9056068062782288,-0.05506663769483566,7.82305383682251,-55.48095703125,-11.3525390625,-194.88525390625
2.6524999,2.4187421798706055,0.3250128924846649,6.868366241455078,-9.307861328125,-33.14208984375,-197.44873046875
2.6574999000000004,2.165555477142334,0.3597288131713867,5.834669589996338,8.087158203125,5.06591796875,-78.094482421875
2.6624999000000003,0.3315969407558441,-0.1454477459192276,6.091447830200195,2.899169921875,-14.495849609375,103.759765625
2.6674999,-1.4550760984420776,-0.34416648745536804,6.843226909637451,14.95361328125,35.491943359375,222.7783203125
2.6724999,-2.1092917919158936,-0.71766197681427,8.194753646850586,21.42333984375,20.477294921875,183.16650390625
2.6774999000000004,-0.8966285586357117,-0.50876784324646,8.283937454223633,17.4560546875,-2.716064453125,-21.392822265625
2.6824999000000003,0.6111199855804443,0.10534487664699554,8.17021369934082,-51.7578125,-6.744384765625,-194.7021484375
2.6874999,2.1948843002319336,0.2777273952960968,7.330447196960449,-14.007568359375,-34.66796875,-205.13916015625
2.6924999,1.875258445739746,0.1496376097202301,6.766014099121094,8.392333984375,4.45556640625,-95.03173828125
2.6974999,0.3064578175544739,-0.46627077460289,6.848613739013672,2.38037109375,-15.472412109375,92.620849609375
2.7024999000000003,-1.3820528984069824,-0.8930372595787048,7.554903507232666,12.87841796875,31.8603515625,221.282958984375
2.7074999,-2.0416555404663086,-1.3210008144378662,8.428787231445312,23.162841796875,24.566650390625,193.572998046875
2.7124999,-0.9193734526634216,-0.8882488012313843,8.562263488769531,21.514892578125,-2.288818359375,-5.43212890625
2.7174999,0.6799532771110535,-0.15682020783424377,7.929595947265625,-47.332763671875,-3.082275390625,-189.39208984375
2.7224999000000003,2.1924901008605957,-0.013766659423708916,7.009025573730469,-21.66748046875,-39.61181640625,-208.526611328125
2.7274999,2.161365509033203,0.11611878126859665,6.276399612426758,9.70458984375,3.41796875,-108.7646484375
2.7324999,2.161365509033203,0.11611878126859665,6.276399612426758,9.70458984375,3.41796875,-108.7646484375
2.7374999,0.5997475385665894,-0.7092822790145874,6.192004203796387,2.25830078125,-13.580322265625,78.155517578125
2.7424999000000003,-1.1240776777267456,-1.015141487121582,7.297526836395264,11.322021484375,25.0244140625,212.677001953125
2.7474999,-1.8854337930679321,-1.4209587574005127,8.054094314575195,22.39990234375,29.9072265625,205.38330078125
2.7524999,-0.9205705523490906,-0.9409212470054626,8.555679321289062,23.895263671875,-2.105712890625,16.265869140625
2.7574999,0.7182605266571045,-0.23702596127986908,7.8763251304626465,-40.924072265625,0.3662109375,-177.215576171875
2.7624999000000003,2.253542423248291,0.08140286058187485,7.126341342926025,-28.6865234375,-43.914794921875,-209.65576171875
2.7674999000000002,2.233790159225464,0.44532153010368347,6.322488307952881,9.70458984375,3.84521484375,-121.27685546875
2.7724999,0.7864952683448792,-0.16220717132091522,6.157288074493408,2.410888671875,-14.801025390625,65.704345703125
2.7774999,-1.037886381149292,-0.4381389021873474,7.21791934967041,9.857177734375,20.172119140625,202.7587890625
2.7824999000000004,-1.6825252771377563,-0.7493851184844971,7.848193168640137,21.759033203125,32.806396484375,211.181640625
2.7874999000000003,-0.8547300100326538,-0.6823474764823914,8.53532886505127,22.76611328125,0.640869140625,34.3017578125
2.7924999,0.9050082564353943,-0.031124621629714966,8.146869659423828,-34.423828125,-1.678466796875,-170.47119140625
2.7974999,2.3056161403656006,0.1280897855758667,7.383119583129883,-31.402587890625,-37.2314453125,-216.644287109375
2.8024999000000004,2.230198860168457,0.19632454216480255,6.5511345863342285,6.89697265625,-1.495361328125,-136.29150390625
2.8074999000000003,0.912190854549408,-0.28131869435310364,6.167463779449463,4.241943359375,-9.307861328125,49.13330078125
2.8124999,-1.194706678390503,-0.8547300100326538,7.053318023681641,7.75146484375,14.46533203125,189.75830078125
2.8174999,-2.0171148777008057,-0.9457096457481384,7.769783020019531,21.514892578125,32.562255859375,214.202880859375
2.8224999,-1.4437036514282227,-0.9313444495201111,8.547300338745117,25.634765625,3.60107421875,53.314208984375
2.8274999000000003,0.3884592354297638,-0.6111199855804443,8.322843551635742,-24.96337890625,-3.692626953125,-152.435302734375
2.8324999,2.056020736694336,-0.3298012912273407,7.70274543762207,-39.398193359375,-31.06689453125,-206.0546875
2.8374999,2.3481132984161377,-0.48063600063323975,6.774393558502197,4.57763671875,-9.27734375,-141.4794921875
2.8424999,1.2982559204101562,-0.5931634902954102,6.713940143585205,4.241943359375,-6.103515625,34.515380859375
2.8474999000000003,-1.07379949092865,-0.8277952671051025,7.3232645988464355,7.6904296875,10.162353515625,180.35888671875
2.8524999,-2.2475569248199463,-0.5548562407493591,8.24742603302002,19.71435546875,35.5224609375,226.165771484375
2.8574999,-1.9482816457748413,-0.5201402902603149,8.638877868652344,27.191162109375,5.218505859375,78.2470703125
2.8624999,-0.36332011222839355,-0.04728548228740692,8.22228717803955,-14.7705078125,-1.953125,-137.237548828125
2.8674999000000003,1.5693992376327515,0.17477671802043915,7.630919456481934,-48.797607421875,-31.097412109375,-209.16748046875
2.8724999,2.1799206733703613,0.1280897855758667,6.6127848625183105,4.425048828125,-10.894775390625,-155.33447265625
2.8774999,1.5741876363754272,-0.14185644686222076,6.556521415710449,4.364013671875,-7.26318359375,16.326904296875
2.8824999,-0.5003881454467773,-0.46986207365989685,7.067683219909668,6.622314453125,3.997802734375,168.548583984375
2.8874999000000003,-1.7519570589065552,-0.557250440120697,8.034940719604492,18.646240234375,40.191650390625,230.438232421875
2.8924999000000002,-1.6101006269454956,-0.639850378036499,8.229470252990723,28.4423828125,6.500244140625,95.245361328125
2.8974999,-0.40282443165779114,-0.026336219161748886,7.84998893737793,-7.75146484375,-1.953125,-123.59619140625
2.9024999,1.4700398445129395,0.21787235140800476,7.226897716522217,-55.633544921875,-29.815673828125,-213.775634765625
2.9074999000000004,2.079364061355591,0.3196259140968323,6.1088056564331055,4.150390625,-10.43701171875,-166.229248046875
2.9124999000000003,1.5975310802459717,0.08200141042470932,5.875969409942627,5.79833984375,-6.103515625,0.42724609375
2.9174999,-0.31124621629714966,-0.5386953949928284,6.5948286056518555,4.608154296875,1.89208984375,155.731201171875
2.9224999,-1.5340847969055176,-0.5943605899810791,7.450755596160889,19.012451171875,37.109375,231.14013671875
2.9274999000000004,-1.3138182163238525,-0.8571242094039917,8.051700592041016,28.656005859375,9.27734375,113.4033203125
2.9324999000000003,-0.16220717132091522,-0.041299980133771896,7.8529815673828125,-1.64794921875,-1.861572265625,-107.147216796875
2.9374999,1.9129672050476074,-0.06344634294509888,7.559093475341797,-59.783935546875,-28.74755859375,-212.860107421875
2.9424999,2.4163479804992676,0.17417816817760468,6.7510504722595215,1.0986328125,-16.082763671875,-176.025390625
2.9474999,1.9596540927886963,-0.25737667083740234,6.521805286407471,8.48388671875,-1.495361328125,-13.641357421875
2.9524999000000003,-0.05267243832349777,-0.9582792520523071,7.102997779846191,3.936767578125,-2.532958984375,146.331787109375
2.9574999,-1.5592238903045654,-0.8601169586181641,7.908048152923584,17.486572265625,36.92626953125,231.201171875
2.9624999,-1.6148890256881714,-1.1001356840133667,8.237251281738281,28.350830078125,10.284423828125,130.55419921875
2.9674999,-0.5428852438926697,0.19033902883529663,7.848193168640137,5.523681640625,-2.777099609375,-89.019775390625
2.9724999000000003,1.3964180946350098,0.0867898091673851,7.650073051452637,-62.3779296875,-18.768310546875,-210.0830078125
2.9774999,2.1074960231781006,0.7978677153587341,6.661866188049316,-2.105712890625,-20.263671875,-184.38720703125
2.9824999,1.8148049116134644,0.10953472554683685,6.9689226150512695,8.636474609375,-0.579833984375,-32.684326171875
2.9874999,-0.08319851011037827,-0.5829881429672241,7.447164535522461,3.23486328125,-8.148193359375,135.55908203125
2.9924999000000003,-1.5717934370040894,-0.6697779297828674,8.362347602844238,15.594482421875,38.909912109375,232.513427734375
2.9974999,-1.8201918601989746,-1.0205284357070923,8.58620548248291,26.4892578125,13.916015625,147.03369140625
3.0024999,-0.5111620426177979,-0.18794482946395874,8.159439086914062,8.72802734375,-2.8076171875,-70.770263671875
3.0074999,1.2437877655029297,-0.07960720360279083,7.547720909118652,-57.31201171875,-15.80810546875,-210.052490234375
3.0124999000000003,2.363675594329834,0.42676645517349243,6.550535678863525,-5.889892578125,-24.10888671875,-195.037841796875
3.0174999000000002,1.899200439453125,-0.0454898327589035,6.353612899780273,8.72802734375,1.28173828125,-52.459716796875
3.0224999,0.16160862147808075,-0.5590460896492004,6.631938934326172,3.173828125,-9.246826171875,125.579833984375
3.0274999,-1.5041571855545044,-0.7050924301147461,7.636904716491699,14.404296875,36.346435546875,227.996826171875
3.0324999000000004,-1.7561469078063965,-1.113303780555725,8.252813339233398,26.336669921875,16.05224609375,158.294677734375
3.0374999000000003,-0.33758243918418884,-0.3968389332294464,8.250418663024902,12.420654296875,-2.838134765625,-52.764892578125
3.0424999,1.2348095178604126,-0.32860419154167175,7.659051418304443,-56.21337890625,-12.75634765625,-203.30810546875
3.0474999,2.47560453414917,0.22924481332302094,6.838438510894775,-8.941650390625,-29.47998046875,-195.220947265625
3.0524999000000004,1.9572598934173584,-0.21966800093650818,6.373963356018066,8.087158203125,1.15966796875,-67.596435546875
3.0574999000000003,0.04668693244457245,-0.6835445761680603,6.711545944213867,3.2958984375,-11.41357421875,110.321044921875
3.0624999,-1.6627731323242188,-0.9678560495376587,7.610568523406982,12.5732421875,33.721923828125,225.799560546875
3.0674999,-2.185307502746582,-1.381454348564148,8.678980827331543,25.726318359375,20.5078125,176.849365234375
3.0724999000000004,-0.9445125460624695,-0.8068459630012512,8.611345291137695,18.98193359375,-3.021240234375,-29.23583984375
3.0774999000000003,0.639850378036499,-0.3495534360408783,8.485649108886719,-54.99267578125,-7.110595703125,-194.366455078125
3.0824999,2.027888774871826,0.17717093229293823,7.100005149841309,-13.48876953125,-35.125732421875,-197.418212890625
3.0874999,1.8405425548553467,-0.016160860657691956,6.450577735900879,8.7890625,0.091552734375,-83.740234375
3.0924999,0.24361002445220947,-0.5512649416923523,6.233902454376221,2.655029296875,-11.8408203125,95.76416015625
3.0974999000000003,0.24361002445220947,-0.5512649416923523,6.233902454376221,2.655029296875,-11.8408203125,95.76416015625
3.1024999,-1.3227964639663696,-0.950498104095459,6.970119476318359,11.566162109375,31.06689453125,219.7265625
3.1074999,-1.8818424940109253,-1.2832920551300049,8.276755332946777,25.238037109375,23.193359375,187.80517578125
3.1124999,-0.7410054206848145,-0.9026140570640564,8.60236644744873,21.97265625,-1.77001953125,-11.77978515625
3.1174999000000003,0.7846996188163757,0.03292027488350868,8.541913032531738,-50.384521484375,-3.021240234375,-191.5283203125
3.1224999,2.255936622619629,0.2555810213088989,7.6782050132751465,-21.392822265625,-38.726806640625,-206.390380859375
3.1274999,2.1577742099761963,0.37169981002807617,6.952761650085449,9.6435546875,3.021240234375,-105.52978515625
3.1324999,0.6278793811798096,-0.2998737692832947,6.731297969818115,2.410888671875,-13.214111328125,78.7353515625
3.1374999000000003,-1.0241197347640991,-0.8242039084434509,7.408258438110352,10.040283203125,26.641845703125,208.648681640625
3.1424999000000002,-1.7573440074920654,-1.2413935661315918,8.1139497756958,24.0478515625,25.970458984375,197.6318359375
3.1474999,-0.7745242714881897,-0.8631097078323364,8.470685958862305,22.705078125,-0.732421875,11.322021484375
3.1524999,0.6703764796257019,-0.07242459803819656,7.817667007446289,-43.39599609375,-2.8076171875,-178.16162109375
3.1574999000000004,2.1517887115478516,0.19692309200763702,7.186196327209473,-24.84130859375,-37.811279296875,-203.4912109375
3.1624999000000003,2.0901381969451904,0.3250128924846649,6.311115741729736,8.575439453125,1.312255859375,-114.288330078125
3.1674999,0.707486629486084,-0.22086510062217712,6.236296653747559,2.532958984375,-12.26806640625,68.66455078125
3.1724999,-1.1300631761550903,-0.7996633648872375,7.31967306137085,9.33837890625,21.3623046875,204.4677734375
3.1774999000000004,-1.8154034614562988,-1.0217255353927612,8.033743858337402,22.796630859375,30.059814453125,210.75439453125
3.1824999000000003,-1.0923545360565186,-0.9038111567497253,8.671798706054688,26.214599609375,0.762939453125,31.768798828125
3.1874999,0.5883750915527344,-0.3645172119140625,8.241440773010254,-34.515380859375,-1.678466796875,-169.12841796875
3.1924999,2.1332337856292725,-0.12988543510437012,7.481281757354736,-34.7900390625,-39.1845703125,-208.55712890625
3.1974999000000004,2.1565771102905273,0.02753331884741783,6.400898456573486,7.659912109375,-2.74658203125,-129.425048828125
3.2024999000000003,0.9074024558067322,-0.3411737382411957,6.035782337188721,3.47900390625,-10.162353515625,49.6826171875
3.2074999,-1.1324573755264282,-0.7571662664413452,6.870760440826416,7.598876953125,16.082763671875,191.95556640625
3.2124999,-1.9255367517471313,-0.8762778043746948,7.593210697174072,21.91162109375,32.5927734375,217.34619140625
3.2174999,-1.3066356182098389,-0.8870517015457153,8.530540466308594,26.18408203125,2.777099609375,51.33056640625
3.2224999000000003,0.568622887134552,-0.6470330357551575,8.430583000183105,-27.16064453125,-0.18310546875,-157.89794921875
3.2274999,2.1559786796569824,-0.19871874153614044,7.840412139892578,-39.520263671875,-35.186767578125,-211.456298828125
3.2324999,2.4175450801849365,-0.2322375625371933,7.022193431854248,7.01904296875,-4.150390625,-143.829345703125
3.2374999,1.294066071510315,-0.2801215946674347,6.687603950500488,3.326416015625,-9.002685546875,39.0625
3.2424999000000003,-0.9409212470054626,-0.579995334148407,7.36396598815918,7.14111328125,14.495849609375,187.957763671875
3.2474999,-1.9632453918457031,-0.507570743560791,8.047510147094727,21.1181640625,31.55517578125,223.08349609375
3.2524999,-1.5502456426620483,-0.7056909799575806,8.680776596069336,25.20751953125,4.486083984375,70.9228515625
3.2574999,0.11252748221158981,-0.1975216418504715,8.193556785583496,-18.218994140625,-1.64794921875,-144.378662109375
3.2624999000000003,1.8507179021835327,0.13347674906253815,7.463325023651123,-44.403076171875,-34.48486328125,-212.432861328125
3.2674999000000002,2.211045265197754,0.2472013235092163,6.445190906524658,6.500244140625,-6.7138671875,-157.257080078125
3.2724999,1.30543851852417,0.0975637212395668,6.225522994995117,2.960205078125,-8.97216796875,24.71923828125
3.2774999,-0.9917980432510376,-0.3381809890270233,6.929418087005615,6.805419921875,8.819580078125,182.43408203125
3.2824999000000004,-2.1523873805999756,-0.4513070285320282,7.830835342407227,19.195556640625,35.491943359375,234.649658203125
3.2874999000000003,-1.8962076902389526,-0.7080851793289185,8.359354972839355,25.81787109375,6.8359375,94.90966796875
3.2924999,-0.5434837937355042,-0.061052143573760986,7.882310390472412,-9.124755859375,-1.03759765625,-128.11279296875
3.2974999,1.4425065517425537,0.055665191262960434,7.3885064125061035,-50.78125,-30.303955078125,-218.658447265625
3.3024999000000004,2.0033483505249023,0.2513911724090576,6.469731330871582,3.204345703125,-9.6435546875,-175.537109375
3.3074999000000003,1.4981716871261597,-0.21308395266532898,6.301538944244385,5.126953125,-5.889892578125,3.35693359375
3.3124999,-0.3776853084564209,-0.71766197681427,7.118560314178467,5.31005859375,5.401611328125,170.318603515625
3.3174999,-1.5298948287963867,-0.8463503122329712,7.875127792358398,18.341064453125,34.210205078125,228.69873046875
3.3224999000000004,-1.2671312093734741,-0.9786299467086792,8.432976722717285,22.8271484375,8.209228515625,105.743408203125
3.3274999000000003,-0.243011474609375,-0.048482585698366165,7.993042469024658,-9.09423828125,-1.40380859375,-113.922119140625
3.3324999,1.6202759742736816,0.21547815203666687,7.589619159698486,-44.219970703125,-28.86962890625,-219.90966796875
3.3374999,2.0644004344940186,0.4620809257030487,6.587646007537842,-0.79345703125,-12.664794921875,-182.769775390625
3.3424999,1.4287399053573608,-0.0005985504249110818,6.254253387451172,7.293701171875,-3.2958984375,-13.153076171875
3.3474999000000003,-0.333991140127182,-0.7344213724136353,6.789956092834473,4.8828125,1.190185546875,158.02001953125
3.3524999,-1.7082629203796387,-0.9684545993804932,7.529165744781494,17.486572265625,34.66796875,231.201171875
3.3574999,-1.5819687843322754,-1.2198457717895508,7.873332500457764,23.98681640625,10.894775390625,125.18310546875
3.3624999,-0.4058171808719635,-0.2735375463962555,7.540538311004639,0.396728515625,-4.45556640625,-91.36962890625
3.3674999000000003,1.4676456451416016,-0.4357447028160095,7.062894821166992,-50.262451171875,-20.56884765625,-209.625244140625
3.3724999,2.183511972427368,0.05446808785200119,6.358401298522949,-2.9296875,-20.751953125,-185.089111328125
3.3774999,1.5735890865325928,-0.4644751250743866,6.563704013824463,6.7138671875,0.1220703125,-35.2783203125
3.3824999,-0.32680854201316833,-0.9074024558067322,7.250839710235596,4.2724609375,-4.180908203125,139.22119140625
3.3874999000000003,-2.005143880844116,-0.7362170219421387,8.241440773010254,14.95361328125,36.102294921875,235.687255859375
3.3924999000000002,-2.187103271484375,-0.8643068075180054,8.534730911254883,22.4609375,10.467529296875,152.801513671875
3.3974999,-0.6823474764823914,-0.16519992053508759,8.2127103805542,9.857177734375,-1.89208984375,-62.835693359375
3.4024999,1.1174936294555664,0.01975216343998909,7.466318130493164,-52.55126953125,-15.93017578125,-201.324462890625
3.4074999000000004,2.446275472640991,0.2759317457675934,6.579864978790283,-6.927490234375,-24.078369140625,-192.657470703125
3.4124999000000003,1.9171570539474487,-0.07003039866685867,6.169857978820801,7.99560546875,-0.3662109375,-57.159423828125
3.4174999,0.13347674906253815,-0.5710170865058899,6.412869453430176,4.058837890625,-9.94873046875,123.046875
3.4224999,-1.6112977266311646,-0.7092822790145874,7.226897716522217,14.129638671875,36.19384765625,230.04150390625
3.4274999000000004,-1.9345149993896484,-0.9289502501487732,8.032546997070312,19.53125,14.862060546875,162.29248046875
3.4324999000000003,-0.5626373887062073,-0.42197805643081665,7.882909297943115,11.688232421875,-0.3662109375,-49.74365234375
3.4374999,0.9900023937225342,0.07062894850969315,7.1903862953186035,-46.875,-15.411376953125,-205.2001953125
3.4424999,2.1966800689697266,0.3878606855869293,6.3302693367004395,-11.322021484375,-24.169921875,-202.880859375
3.4474999000000004,1.6603789329528809,0.1586158573627472,5.513846397399902,8.1787109375,-3.265380859375,-73.333740234375
3.4524999000000003,-0.19273324310779572,-0.44412440061569214,5.8873419761657715,4.33349609375,-9.429931640625,114.044189453125
3.4574999,-1.8405425548553467,-0.8942343592643738,6.8360443115234375,13.61083984375,36.7431640625,228.851318359375
3.4624999,-2.182913303375244,-1.2826935052871704,8.110957145690918,21.148681640625,16.11328125,176.422119140625
3.4674999,-2.182913303375244,-1.2826935052871704,8.110957145690918,21.148681640625,16.11328125,176.422119140625
3.4724999000000003,-0.7727286219596863,-0.9062053561210632,8.270770072937012,16.876220703125,-1.129150390625,-29.449462890625
3.4774999,0.9074024558067322,-0.1149216815829277,8.273163795471191,-49.62158203125,-9.613037109375,-198.1201171875
3.4824999,2.364872694015503,0.42856210470199585,7.251438617706299,-15.167236328125,-31.890869140625,-205.657958984375
3.4874999,1.9165585041046143,0.48303020000457764,6.524798393249512,8.72802734375,4.058837890625,-90.27099609375
3.4924999000000003,0.13048399984836578,-0.010773907415568829,6.424241542816162,3.082275390625,-14.16015625,102.264404296875
3.4974999,-1.6813281774520874,-0.619499683380127,6.91265869140625,12.664794921875,34.393310546875,227.84423828125
3.5024999,-2.2373814582824707,-1.1767501831054688,8.215105056762695,21.759033203125,18.85986328125,191.162109375
3.5074999,-1.1001356840133667,-0.943913996219635,8.319252014160156,21.087646484375,1.495361328125,-9.27734375
3.5124999000000003,0.6518214344978333,-0.07541735470294952,7.978677272796631,-46.7529296875,-4.730224609375,-193.817138671875
3.5174999000000002,2.1978771686553955,0.1215057373046875,6.941389083862305,-22.918701171875,-40.863037109375,-211.761474609375
3.5224999,2.1296424865722656,0.33279404044151306,6.054337501525879,9.796142578125,7.476806640625,-110.504150390625
3.5274999,0.6326677799224854,-0.45429977774620056,5.976525783538818,2.471923828125,-18.310546875,84.89990234375
3.5324999000000004,-1.028908133506775,-0.9319429993629456,7.084442615509033,10.894775390625,29.052734375,222.076416015625
3.5374999000000003,-1.7717092037200928,-1.3120225667953491,8.022970199584961,22.552490234375,26.824951171875,202.7587890625
3.5424999,-0.8188169598579407,-0.8750807046890259,8.483255386352539,20.8740234375,0.06103515625,12.3291015625
3.5474999,0.5692214369773865,0.08858546614646912,7.960720539093018,-43.27392578125,-2.166748046875,-182.647705078125
3.5524999000000004,1.9129672050476074,0.2645592987537384,6.947973251342773,-23.74267578125,-41.32080078125,-214.874267578125
3.5574999000000003,1.821987509727478,0.3274070918560028,6.050746440887451,8.30078125,5.157470703125,-120.513916015625
3.5624999,0.3555389642715454,-0.4381389021873474,5.855020046234131,4.638671875,-12.115478515625,72.052001953125
3.5674999,-1.2425906658172607,-1.1803414821624756,6.834847450256348,9.674072265625,22.979736328125,205.718994140625
3.5724999000000004,-1.824381709098816,-1.2755109071731567,7.820061206817627,21.514892578125,26.7333984375,203.125
3.5774999000000003,-0.8876502513885498,-1.0414776802062988,8.601768493652344,19.744873046875,-0.091552734375,28.6865234375
3.5824999,0.8834604024887085,-0.002394201699644327,8.439560890197754,-36.376953125,-2.0751953125,-171.81396484375
3.5874999,2.294243812561035,0.4207809567451477,7.577049732208252,-26.275634765625,-37.750244140625,-215.362548828125
3.5924999,2.3756465911865234,0.545877993106842,6.676829814910889,7.26318359375,2.410888671875,-133.60595703125
3.5974999000000003,0.973242998123169,0.19393034279346466,6.235099792480469,3.96728515625,-8.48388671875,57.281494140625
3.6024999,-0.9217676520347595,-0.5997475385665894,6.938994884490967,8.11767578125,20.965576171875,197.357177734375
3.6074999,-1.6484078168869019,-0.8146271109580994,7.753622055053711,18.6767578125,23.49853515625,206.146240234375
3.6124999,-0.8990227580070496,-0.9463081955909729,8.413823127746582,12.02392578125,2.685546875,43.487548828125
3.6174999000000003,0.7445967197418213,-0.7715315222740173,8.44315242767334,-27.923583984375,-11.199951171875,-161.2548828125
3.6224999,2.145204782485962,-0.43694180250167847,7.475894927978516,-18.707275390625,-24.10888671875,-209.228515625
3.6274999,2.0679917335510254,-0.706289529800415,6.957550048828125,3.997802734375,-3.90625,-143.951416015625
3.6324999,0.7547720670700073,-0.6949170231819153,6.732495307922363,2.960205078125,-3.875732421875,40.6494140625
3.6374999000000003,-1.45806884765625,-1.0480618476867676,7.508216381072998,7.38525390625,8.23974609375,185.24169921875
3.6424999000000002,-2.380434989929199,-0.7248445749282837,8.4293851852417,13.641357421875,27.008056640625,222.10693359375
3.6474999,-1.8136078119277954,-0.595557689666748,8.722076416015625,9.368896484375,4.791259765625,75.103759765625
3.6524999,-0.028131870552897453,-0.07062894850969315,9.202713012695312,-21.087646484375,-12.176513671875,-138.36669921875
3.6574999000000004,1.643619418144226,0.41718965768814087,7.861959934234619,-18.951416015625,-19.256591796875,-206.6650390625
3.6624999000000003,2.1051018238067627,0.1107318252325058,7.59560489654541,3.5400390625,-4.852294921875,-152.89306640625
3.6674999,0.9894038438796997,-0.06643909960985184,6.898892402648926,6.744384765625,-5.340576171875,25.45166015625
3.6724999,-1.2072762250900269,-0.823006808757782,7.357980251312256,6.103515625,8.23974609375,178.28369140625
3.6774999000000004,-2.409165382385254,-0.8774749040603638,7.8763251304626465,13.12255859375,27.923583984375,224.67041015625
3.6824999000000003,-2.0470423698425293,-0.9911994934082031,8.501810073852539,10.1318359375,3.96728515625,90.087890625
3.6874999,-0.15562310814857483,-0.6697779297828674,9.200318336486816,-18.06640625,-8.453369140625,-127.13623046875
3.6924999,1.40180504322052,-0.06703764945268631,8.283339500427246,-19.866943359375,-18.9208984375,-211.0595703125
3.6974999000000004,2.2427685260772705,-0.3274070918560028,8.345588684082031,2.44140625,-5.4931640625,-166.748046875
3.7024999000000003,1.0666168928146362,-0.29807811975479126,7.6297221183776855,4.7607421875,-7.354736328125,12.542724609375
3.7074999,-1.0372878313064575,-0.8589198589324951,7.923610687255859,6.8359375,8.209228515625,176.69677734375
3.7124999,-2.296039342880249,-0.7757213711738586,8.343194007873535,12.8173828125,27.984619140625,231.87255859375
3.7174999,-1.875258445739746,-0.750582218170166,8.677783966064453,12.298583984375,5.9814453125,104.034423828125
3.7224999000000003,-0.243011474609375,-0.16519992053508759,9.154230117797852,-15.106201171875,-5.9814453125,-116.943359375
3.7274999,1.7298107147216797,0.25079262256622314,7.969698905944824,-25.482177734375,-22.735595703125,-215.39306640625
3.7324999,2.5240871906280518,-0.1149216815829277,7.773374557495117,-2.8076171875,-7.232666015625,-177.1240234375
3.7374999,1.6519991159439087,-0.5704185366630554,7.33703088760376,10.711669921875,-4.638671875,-6.866455078125
3.7424999000000003,-0.1777694821357727,-1.3323732614517212,7.249642848968506,6.866455078125,-0.91552734375,159.698486328125
3.7474999,-1.6903064250946045,-1.3760673999786377,8.398261070251465,12.20703125,33.660888671875,228.515625
3.7524999,-1.3766659498214722,-1.0313023328781128,8.382699012756348,17.913818359375,8.697509765625,107.36083984375
3.7574999,-0.2711433470249176,-0.13048399984836578,8.213309288024902,-10.009765625,-1.15966796875,-113.677978515625
3.7624999000000003,1.569997787475586,0.14185644686222076,7.150283336639404,-32.135009765625,-26.67236328125,-221.00830078125
3.7674999000000002,2.181716203689575,0.18315643072128296,6.145317077636719,-5.06591796875,-8.7890625,-180.84716796875
3.7724999,1.5280991792678833,-0.5644330382347107,5.864596843719482,9.09423828125,-3.60107421875,-11.04736328125
3.7774999,-0.22266076505184174,-1.2096704244613647,6.178237438201904,5.950927734375,-1.922607421875,156.1279296875
3.7824999000000004,-1.722628116607666,-1.2192472219467163,7.571064472198486,12.939453125,34.332275390625,233.551025390625
3.7874999000000003,-1.5807716846466064,-1.0660183429718018,7.951742172241211,17.9443359375,8.9111328125,123.71826171875
3.7924999,-0.6242880821228027,-0.18495208024978638,8.435371398925781,-10.772705078125,-2.3193359375,-96.771240234375
3.7974999,1.1426327228546143,-0.06404489278793335,7.484274387359619,-29.815673828125,-23.98681640625,-207.183837890625
3.8024999000000004,1.7920600175857544,-0.13527239859104156,6.92343282699585,-4.241943359375,-12.20703125,-174.407958984375
3.8074999000000003,1.2737152576446533,-0.8678981065750122,6.557119846343994,7.965087890625,-4.08935546875,-15.045166015625
3.8124999,-0.4387374520301819,-1.5185223817825317,6.677428722381592,5.950927734375,-2.471923828125,150.5126953125
3.8174999,-1.8579005002975464,-1.37906014919281,7.882909297943115,11.77978515625,34.637451171875,235.3515625
3.8224999000000004,-1.7399860620498657,-1.0618284940719604,7.999027729034424,16.082763671875,11.23046875,131.805419921875
3.8274999000000003,-0.596754789352417,0.050876785069704056,9.004592895507812,-11.8408203125,-5.4931640625,-90.118408203125
3.8324999,-0.596754789352417,0.050876785069704056,9.004592895507812,-11.8408203125,-5.4931640625,-90.118408203125
3.8374999,1.235408067703247,0.4842272996902466,8.148066520690918,-28.3203125,-20.8740234375,-209.47265625
3.8424999,2.094327926635742,0.48482584953308105,8.116942405700684,-3.173828125,-9.33837890625,-185.05859375
3.8474999000000003,1.5179238319396973,-0.1975216418504715,7.573458671569824,10.223388671875,-8.148193359375,-25.360107421875
3.8524999,-0.19692309200763702,-1.1755530834197998,7.548319339752197,5.645751953125,1.8310546875,149.23095703125
3.8574999,-1.577778935432434,-1.4012064933776855,8.234258651733398,13.5498046875,33.660888671875,229.1259765625
3.8624999,-1.4245500564575195,-1.5029600858688354,8.256404876708984,19.317626953125,11.23046875,124.08447265625
3.8674999000000003,-0.3597288131713867,-0.6003460884094238,8.010998725891113,-8.697509765625,-4.241943359375,-96.13037109375
3.8724999,1.4867992401123047,-0.44173020124435425,7.350199222564697,-33.5693359375,-25.146484375,-217.529296875
3.8774999,2.167949676513672,-0.2603694200515747,6.542156219482422,-3.11279296875,-11.016845703125,-189.51416015625
3.8824999,1.5855600833892822,-0.6829460263252258,6.211756229400635,6.2255859375,-4.180908203125,-27.740478515625
3.8874999000000003,-0.2298433631658554,-1.2611457109451294,6.5912370681762695,5.43212890625,0.42724609375,148.834228515625
3.8924999000000002,-1.7447744607925415,-1.0504560470581055,7.50462532043457,13.36669921875,32.89794921875,234.86328125
3.8974999,-1.7693150043487549,-1.002571940422058,7.844601631164551,20.20263671875,9.82666015625,136.8408203125
3.9024999,-0.7026981711387634,-0.14484919607639313,7.791330814361572,-4.150390625,-2.5634765625,-83.92333984375
3.9074999000000004,1.0857704877853394,-0.0694318488240242,7.535749912261963,-37.9638671875,-23.651123046875,-211.0595703125
3.9124999000000003,1.8884265422821045,0.0999579206109047,6.628945827484131,-6.53076171875,-13.7939453125,-182.830810546875
3.9174999,1.2407950162887573,-0.5404910445213318,6.779181957244873,9.033203125,-4.638671875,-27.191162109375
3.9224999,-0.4692635238170624,-1.0821791887283325,6.921637058258057,5.767822265625,-3.204345703125,143.6767578125
3.9274999000000004,-1.9572598934173584,-1.0408791303634644,7.994838237762451,11.3525390625,35.125732421875,231.658935546875
3.9324999000000003,-1.8626888990402222,-1.0330979824066162,8.079233169555664,21.66748046875,12.725830078125,135.955810546875
3.9374999,-0.7003039717674255,-0.11192893236875534,7.820659637451172,-2.86865234375,-1.007080078125,-84.197998046875
3.9424999,1.1216834783554077,-0.011372458189725876,7.250241279602051,-38.726806640625,-24.261474609375,-217.22412109375
3.9474999000000004,2.0021512508392334,0.18974047899246216,6.257844924926758,-7.293701171875,-13.5498046875,-189.605712890625
3.9524999000000003,1.4496891498565674,-0.5979518890380859,6.321290969848633,9.124755859375,-4.7607421875,-31.341552734375
3.9574999,-0.21607670187950134,-1.3114240169525146,6.646902561187744,5.92041015625,-0.48828125,144.744873046875
3.9624999,-1.6154875755310059,-1.4538789987564087,7.914033889770508,12.63427734375,34.48486328125,228.82080078125
3.9674999000000004,-1.5532383918762207,-1.525106430053711,8.18876838684082,19.195556640625,11.688232421875,132.049560546875
3.9724999000000003,-0.4255693554878235,-0.6607996821403503,8.06427001953125,-6.77490234375,-3.60107421875,-86.85302734375
3.9774999,1.3658920526504517,-0.4213795065879822,7.251438617706299,-32.501220703125,-24.383544921875,-213.9892578125
3.9824999,2.1481974124908447,-0.23283611238002777,6.421248912811279,-2.716064453125,-12.3291015625,-188.5986328125
3.9874999,1.5783774852752686,-0.6619967818260193,6.035183906555176,5.401611328125,-1.678466796875,-33.782958984375
3.9924999000000003,-0.166995570063591,-1.1965023279190063,6.321290969848633,4.486083984375,-1.708984375,143.096923828125
3.9974999,-1.6759412288665771,-1.0773907899856567,7.364564418792725,11.90185546875,29.937744140625,232.025146484375
4.0024999,-1.7256208658218384,-1.0576386451721191,7.665635108947754,18.37158203125,9.857177734375,140.045166015625
4.0074999,-0.6931213736534119,-0.3998316824436188,7.860164165496826,-5.767822265625,-2.685546875,-79.9560546875
4.0124999,1.1085153818130493,-0.22026655077934265,7.269993305206299,-31.73828125,-21.91162109375,-207.244873046875
4.0174999,1.9129672050476074,0.0005985504249110818,6.5696892738342285,-6.2255859375,-12.26806640625,-182.0068359375
4.022499900000001,1.4754267930984497,-0.4507084786891937,6.5050458908081055,8.6669921875,-1.068115234375,-34.24072265625
4.0274999000000005,-0.26396074891090393,-0.8068459630012512,6.715137004852295,4.7607421875,-8.026123046875,134.46044921875
4.0324999,-1.7908629179000854,-0.7805097699165344,7.832032203674316,11.90185546875,33.966064453125,231.3232421875
4.0374999,-1.92134690284729,-0.8158242106437683,8.164227485656738,16.90673828125,11.505126953125,141.4794921875
4.0424999,-0.9235633015632629,-0.22206220030784607,8.202534675598145,-4.94384765625,-1.800537109375,-78.826904296875
4.0474999,0.8343793153762817,-0.10115502029657364,7.3454108238220215,-30.303955078125,-21.759033203125,-208.892822265625
4.0524999,1.7387889623641968,0.0586579404771328,6.489483833312988,-6.2255859375,-13.641357421875,-184.02099609375
4.0574999,1.4167689085006714,-0.48722004890441895,6.025607109069824,7.781982421875,-3.692626953125,-35.675048828125
4.062499900000001,-0.25677812099456787,-0.9714473485946655,6.190208435058594,5.43212890625,-5.340576171875,136.65771484375
4.0674999000000005,-1.6980875730514526,-0.993593692779541,7.383119583129883,12.359619140625,34.48486328125,235.4736328125
4.0724999,-1.8070237636566162,-1.0690110921859741,7.999626636505127,18.00537109375,10.467529296875,143.218994140625
4.0774999,-0.812831461429596,-0.5063736438751221,8.152256965637207,-3.631591796875,-2.38037109375,-78.0029296875
4.0824999,0.9199720025062561,-0.33518823981285095,7.556100368499756,-32.77587890625,-20.751953125,-208.953857421875
4.0874999,1.7848774194717407,-0.055665191262960434,6.533177852630615,-7.080078125,-13.18359375,-184.051513671875
4.0924999,1.4269442558288574,-0.5590460896492004,6.287173748016357,7.904052734375,-3.173828125,-34.271240234375
4.0974999,-0.20769700407981873,-0.8134300112724304,6.502651691436768,6.195068359375,-7.2021484375,136.90185546875
4.1024999,-1.591545581817627,-0.7553706169128418,7.546523571014404,12.20703125,34.515380859375,233.612060546875
4.1074999000000005,-1.567603588104248,-0.7398083209991455,8.079233169555664,18.890380859375,11.962890625,136.260986328125
4.1124999,-0.558447539806366,-0.05626374110579491,7.725490570068359,-1.89208984375,0.274658203125,-86.0595703125
4.1174999,1.1815385818481445,0.0011971008498221636,7.0790557861328125,-36.2548828125,-22.064208984375,-216.49169921875
4.1224999,1.9141643047332764,0.018555063754320145,5.950189590454102,-10.498046875,-15.411376953125,-187.19482421875
4.1274999,1.4245500564575195,-0.6703764796257019,6.232107162475586,10.8642578125,-2.86865234375,-31.1279296875
4.1324999,-0.30226796865463257,-1.2934675216674805,6.629544734954834,7.476806640625,-2.01416015625,142.364501953125
4.1374999,-1.7375918626785278,-1.1725603342056274,8.059481620788574,12.725830078125,32.16552734375,234.68017578125
4.1424999,-1.725022315979004,-1.184531331062317,8.590993881225586,19.34814453125,9.735107421875,139.129638671875
4.147499900000001,-0.5817909836769104,-0.06165069341659546,8.02536392211914,0.54931640625,-0.152587890625,-82.275390625
4.1524999000000005,1.1552022695541382,0.09397241473197937,7.570465564727783,-41.290283203125,-21.728515625,-210.26611328125
4.1574999,1.933916449546814,0.3405751883983612,6.402693748474121,-8.6669921875,-17.333984375,-180.96923828125
4.1624999,1.337161660194397,-0.2819172441959381,6.62236213684082,10.955810546875,-3.204345703125,-24.749755859375
4.1674999,-0.4531026780605316,-0.983418345451355,6.997054576873779,7.080078125,-1.129150390625,146.759033203125
4.1724999,-1.9889830350875854,-0.9570821523666382,8.221688270568848,12.237548828125,32.28759765625,234.06982421875
4.1774999,-1.8567034006118774,-1.002571940422058,8.561665534973145,23.681640625,11.5966796875,133.148193359375
4.1824999,-0.6350619792938232,0.02753331884741783,7.937376976013184,2.471923828125,-0.152587890625,-90.576171875
4.187499900000001,1.3658920526504517,0.033518824726343155,7.4986395835876465,-49.13330078125,-23.590087890625,-215.8203125
4.1924999000000005,2.147000312805176,0.3878606855869293,6.301538944244385,-3.814697265625,-15.31982421875,-185.6689453125
4.1974999,1.7106571197509766,-0.22026655077934265,6.135141849517822,8.4228515625,-3.570556640625,-30.82275390625
4.2024999,1.7106571197509766,-0.22026655077934265,6.135141849517822,8.4228515625,-3.570556640625,-30.82275390625
4.2074999,-0.20709845423698425,-0.8337807655334473,6.557119846343994,5.767822265625,-4.69970703125,140.228271484375
4.2124999,-1.7082629203796387,-0.7841010689735413,7.424419403076172,13.73291015625,40.008544921875,230.3466796875
4.2174999,-1.6603789329528809,-0.9313444495201111,7.867945194244385,22.857666015625,8.9111328125,127.685546875
4.2224999,-0.578798234462738,0.10055647045373917,7.462726593017578,3.90625,-0.48828125,-95.21484375
4.2274999,1.3551181554794312,-0.10654197633266449,7.190984725952148,-51.544189453125,-24.169921875,-214.111328125
4.2324999000000005,2.051830768585205,0.3172317147254944,6.3697733879089355,-1.922607421875,-16.204833984375,-179.443359375
4.2374999,1.5825673341751099,-0.42197805643081665,6.220734596252441,6.7138671875,-3.753662109375,-21.392822265625
4.2424999,-0.29209262132644653,-1.0696096420288086,6.88332986831665,5.67626953125,-4.974365234375,155.364990234375
4.2474999,-1.8177976608276367,-0.9445125460624695,7.766790390014648,15.533447265625,42.6025390625,243.011474609375
4.2524999,-1.8740613460540771,-1.0773907899856567,8.267777442932129,27.9541015625,8.056640625,130.828857421875
4.2574999,-0.7613561153411865,0.09157821536064148,7.845798969268799,8.36181640625,0.79345703125,-96.25244140625
4.2624999,1.2671312093734741,-0.152031809091568,7.539939880371094,-66.375732421875,-24.444580078125,-213.68408203125
4.2674999,2.072780132293701,0.39145198464393616,6.456563472747803,0.8544921875,-19.59228515625,-181.0302734375
4.272499900000001,1.9033904075622559,-0.3345896899700165,6.152499675750732,8.697509765625,2.5634765625,-24.2919921875
4.2774999000000005,0.03232172131538391,-0.9965864419937134,6.634931564331055,4.2724609375,-16.082763671875,151.702880859375
4.2824999,-1.5107412338256836,-0.9091981053352356,7.168240070343018,17.120361328125,49.49951171875,242.7978515625
4.2874999,-1.513733983039856,-1.1701661348342896,7.923011779785156,24.566650390625,11.77978515625,128.96728515625
4.2924999,-0.5386953949928284,-0.28790274262428284,7.33703088760376,8.636474609375,-2.3193359375,-101.043701171875
4.2974999,1.3341689109802246,-0.5045779943466187,7.086238384246826,-64.910888671875,-24.261474609375,-217.8955078125
4.3024999,2.0231003761291504,0.0628477931022644,6.211756229400635,0.885009765625,-19.71435546875,-184.4482421875
4.3074999,1.5604209899902344,-0.5374982953071594,6.007650852203369,10.3759765625,6.8359375,-26.947021484375
4.312499900000001,-0.2148796021938324,-0.9552865028381348,6.587646007537842,3.96728515625,-19.195556640625,150.2685546875
4.3174999000000005,-1.623268723487854,-0.790086567401886,7.375338554382324,16.6015625,47.119140625,238.1591796875
4.3224999,-1.4245500564575195,-0.9983820915222168,8.007407188415527,21.331787109375,12.725830078125,122.314453125
4.3274999,-0.21847090125083923,-0.2621650993824005,7.3651628494262695,1.64794921875,-2.227783203125,-104.6142578125
4.3324999,1.6400281190872192,-0.18076223134994507,7.277774810791016,-49.25537109375,-25.7568359375,-220.855712890625
4.3374999,2.3744494915008545,0.2735375463962555,6.226121425628662,-5.767822265625,-15.228271484375,-178.863525390625
4.3424999,1.7106571197509766,-0.058059390634298325,6.115389823913574,9.429931640625,-0.335693359375,-25.146484375
4.3474999,-0.30226796865463257,-0.41718965768814087,6.439205646514893,4.669189453125,-6.011962890625,144.83642578125
4.352499900000001,-1.9835960865020752,-0.4159925580024719,7.308300495147705,13.85498046875,38.02490234375,235.015869140625
4.3574999000000005,-2.0488381385803223,-0.7026981711387634,7.739855766296387,24.322509765625,10.589599609375,132.99560546875
4.3624999,-0.8259995579719543,-0.10714052617549896,7.4118499755859375,2.838134765625,-2.166748046875,-87.860107421875
4.3674999,1.192312479019165,-0.17178396880626678,7.181407928466797,-49.346923828125,-20.294189453125,-208.31298828125
4.3724999,2.0045454502105713,0.16879121959209442,6.176441669464111,-5.340576171875,-16.387939453125,-174.31640625
4.3774999,1.53707754611969,-0.2885012924671173,6.1955952644348145,9.307861328125,-1.40380859375,-22.735595703125
4.3824999,-0.4842272996902466,-0.690727174282074,6.63433313369751,5.340576171875,-6.77490234375,143.035888671875
4.3874999,-2.099714994430542,-0.5829881429672241,7.7847466468811035,11.505126953125,36.19384765625,235.870361328125
4.3924999,-2.1805191040039062,-0.6955155730247498,8.333617210388184,22.76611328125,12.725830078125,134.09423828125
4.397499900000001,-0.8265981078147888,0.11252748221158981,7.908048152923584,5.37109375,-0.732421875,-90.087890625
4.4024999000000005,1.1420341730117798,0.22505496442317963,7.398681640625,-47.18017578125,-23.651123046875,-218.475341796875
4.4074999,2.0644004344940186,0.6925228238105774,5.911882400512695,-9.8876953125,-17.88330078125,-184.417724609375
4.4124999,1.6148890256881714,0.23343466222286224,5.746084213256836,11.627197265625,-0.701904296875,-27.130126953125
4.4174999,-0.2885012924671173,-0.27234044671058655,6.037578105926514,5.18798828125,-1.617431640625,144.012451171875
4.4224999,-1.8112136125564575,-0.38067805767059326,7.513603687286377,11.474609375,31.25,233.367919921875
4.4274999,-1.7363947629928589,-0.7158663272857666,8.189367294311523,21.42333984375,12.14599609375,132.110595703125
4.4324999,-0.5548562407493591,-0.19812019169330597,8.061277389526367,-2.5634765625,-1.800537109375,-92.742919921875
4.437499900000001,1.2557587623596191,-0.20949265360832214,7.438186168670654,-37.65869140625,-23.62060546875,-220.306396484375
4.4424999000000005,2.1045033931732178,-0.0065840547904372215,6.069301128387451,-7.9345703125,-13.153076171875,-185.48583984375
4.4474999,1.482010841369629,-0.5943605899810791,5.8442463874816895,9.796142578125,-2.166748046875,-26.947021484375
4.4524999,-0.23942017555236816,-1.049857497215271,6.008249282836914,5.950927734375,-4.913330078125,146.026611328125
4.4574999,-1.7118542194366455,-1.058835744857788,7.327454090118408,10.92529296875,33.5693359375,234.649658203125
4.4624999,-1.6304513216018677,-1.0761936902999878,7.820061206817627,19.95849609375,12.725830078125,131.256103515625
4.4674999,-0.5937620401382446,-0.23582886159420013,7.827243804931641,-4.852294921875,-2.5634765625,-91.461181640625
4.4724999,1.2503718137741089,-0.07182604819536209,7.594407558441162,-34.027099609375,-24.261474609375,-214.691162109375
4.477499900000001,1.9728221893310547,0.05925649031996727,6.721721172332764,-5.889892578125,-11.993408203125,-181.365966796875
4.4824999000000005,1.3778630495071411,-0.5303156971931458,6.842030048370361,8.48388671875,-2.410888671875,-21.270751953125
4.4874999,-0.35075053572654724,-1.1605892181396484,7.047332763671875,5.401611328125,-7.415771484375,148.284912109375
4.4924999,-1.877652645111084,-1.0869675874710083,7.861361503601074,11.260986328125,35.186767578125,236.99951171875
4.4974999,-1.8022353649139404,-0.9804255962371826,7.950545310974121,18.798828125,12.51220703125,132.781982421875
4.5024999,-0.8289923667907715,0.008379706181585789,7.7195048332214355,-5.950927734375,0.091552734375,-91.705322265625
4.5074999,1.0301052331924438,0.10354922711849213,7.3023152351379395,-32.470703125,-24.871826171875,-213.714599609375
4.5124999,1.780089020729065,0.08499415963888168,6.597222805023193,-6.28662109375,-12.420654296875,-180.999755859375
4.5174999,1.2515689134597778,-0.7433996200561523,6.935403823852539,8.97216796875,-3.875732421875,-19.805908203125
4.522499900000001,-0.3555389642715454,-1.5729905366897583,7.174823760986328,6.2255859375,-3.90625,151.4892578125
4.5274999000000005,-1.8303672075271606,-1.4508862495422363,8.288725852966309,11.871337890625,34.66796875,237.701416015625
4.5324999,-1.6394295692443848,-1.2844891548156738,8.346785545349121,19.22607421875,11.29150390625,127.532958984375
4.5374999,-0.6973112225532532,-0.010175357572734356,8.148665428161621,-6.2255859375,-1.0986328125,-97.900390625
4.5424999,1.2054805755615234,0.1885433793067932,7.581239700317383,-33.966064453125,-24.688720703125,-216.339111328125
4.5474999,1.8453309535980225,0.30705636739730835,6.674435615539551,-5.218505859375,-12.51220703125,-179.38232421875
4.5524999,1.215057373046875,-0.45669397711753845,6.752247333526611,8.819580078125,-5.126953125,-12.176513671875
4.5574999,-0.4531026780605316,-1.292868971824646,6.819883346557617,6.40869140625,-1.220703125,158.02001953125
4.562499900000001,-1.8997989892959595,-1.2587515115737915,7.945756912231445,11.627197265625,34.698486328125,234.55810546875
4.5674999000000005,-1.8997989892959595,-1.2587515115737915,7.945756912231445,11.627197265625,34.698486328125,234.55810546875
4.5724999,-1.578976035118103,-1.1103110313415527,8.167819023132324,21.66748046875,11.138916015625,116.424560546875
4.5774999,-0.5285200476646423,0.058059390634298325,7.957727909088135,-5.18798828125,0.1220703125,-109.375
4.5824999,1.4957774877548218,0.3734954595565796,7.832032203674316,-39.36767578125,-28.167724609375,-223.541259765625
4.5874999,2.1936872005462646,0.6189011335372925,6.810306549072266,-5.462646484375,-11.1083984375,-178.253173828125
4.5924999,1.5825673341751099,-0.04249707981944084,7.0371575355529785,10.19287109375,-3.448486328125,-9.09423828125
4.5974999,-0.10714052617549896,-0.7930793166160583,7.354389190673828,6.40869140625,3.326416015625,159.1796875
4.602499900000001,-1.5173252820968628,-0.9253589510917664,8.267178535461426,13.885498046875,32.40966796875,225.5859375
4.6074999000000005,-1.256955862045288,-1.083974838256836,8.330026626586914,20.69091796875,8.7890625,100.372314453125
4.6124999,0.03711012750864029,-0.3579331636428833,8.246828079223633,-12.664794921875,-3.72314453125,-123.626708984375
4.6174999,1.8740613460540771,-0.27653029561042786,7.33703088760376,-33.355712890625,-26.580810546875,-219.573974609375
4.6224999,2.3768436908721924,-0.345363587141037,6.7714009284973145,-1.373291015625,-11.90185546875,-166.07666015625
4.6274999,1.567603588104248,-0.7954735159873962,6.520009994506836,6.9580078125,-3.143310546875,7.476806640625
4.6324999,-0.6769605278968811,-1.3305776119232178,7.110180377960205,6.103515625,4.547119140625,168.914794921875
4.6374999,-2.075772762298584,-1.137245774269104,8.040328025817871,14.495849609375,33.477783203125,234.893798828125
4.6424999,-1.877652645111084,-0.9594763517379761,8.168417930603027,19.34814453125,6.7138671875,102.1728515625
4.647499900000001,-0.4991910457611084,-0.20470423996448517,8.276156425476074,-16.693115234375,-4.791259765625,-121.88720703125
4.6524999000000005,1.326986312866211,0.21009120345115662,7.0988078117370605,-29.23583984375,-25.0244140625,-209.014892578125
4.6574999,1.867477297782898,-0.03890577703714371,6.440402507781982,1.0986328125,-9.552001953125,-154.1748046875
4.6624999,1.0031704902648926,-0.38067805767059326,6.064512729644775,5.79833984375,-6.591796875,19.927978515625
4.6674999,-1.0462661981582642,-1.01753568649292,6.490082263946533,6.4697265625,7.50732421875,176.605224609375
4.6724999,-2.117671489715576,-1.006163239479065,7.5650787353515625,13.671875,31.402587890625,227.630615234375
4.6774999,-1.5723919868469238,-0.8325836658477783,7.892486095428467,19.47021484375,8.148193359375,81.48193359375
4.6824999,0.16998831927776337,-0.4010287821292877,7.996633529663086,-19.22607421875,-5.37109375,-143.707275390625
4.687499900000001,1.7872716188430786,0.15981295704841614,6.957550048828125,-27.40478515625,-26.7333984375,-221.61865234375
4.6924999000000005,2.2882583141326904,-0.33339259028434753,6.358999729156494,1.129150390625,-8.331298828125,-158.538818359375
4.6974999,1.0678139925003052,-0.5841852426528931,6.129156112670898,5.615234375,-6.744384765625,23.98681640625
4.7024999,-1.0863690376281738,-1.1468225717544556,6.671442985534668,7.598876953125,8.148193359375,179.962158203125
4.7074999,-2.117671489715576,-1.1737574338912964,7.91163969039917,13.580322265625,32.28759765625,222.59521484375
4.7124999,-1.534683346748352,-0.9050082564353943,8.186972618103027,18.5546875,6.34765625,67.9931640625
4.7174999,0.2819172441959381,-0.3477577865123749,8.33481502532959,-22.705078125,-7.080078125,-150.848388671875
4.7224999,1.802833914756775,0.14604631066322327,6.997653007507324,-24.139404296875,-25.421142578125,-212.34130859375
4.727499900000001,2.2002713680267334,-0.24001872539520264,6.3949127197265625,2.349853515625,-7.2021484375,-139.251708984375
4.7324999000000005,0.6536170840263367,-0.6488286852836609,5.840056419372559,5.523681640625,-7.87353515625,43.548583984375
4.7374999,-1.4598644971847534,-1.1851298809051514,6.53257942199707,8.270263671875,11.474609375,194.061279296875
4.7424999,-2.406771183013916,-1.2641384601593018,7.441178798675537,14.556884765625,31.524658203125,225.52490234375
4.7474999,-1.6442179679870605,-0.9271546006202698,7.9194207191467285,18.646240234375,4.852294921875,57.31201171875
4.7524999,0.2663549482822418,-0.3860650360584259,7.729680061340332,-26.763916015625,-6.2255859375,-160.21728515625
4.7574999,1.8010382652282715,0.15023615956306458,6.810306549072266,-23.92578125,-25.726318359375,-213.2568359375
4.7624999,2.031480073928833,-0.15322890877723694,6.238092422485352,4.45556640625,-6.04248046875,-131.866455078125
4.7674999,0.444722980260849,-0.5542576909065247,6.123170852661133,6.134033203125,-9.94873046875,52.093505859375
4.772499900000001,-1.4754267930984497,-1.048660397529602,7.032369136810303,8.331298828125,17.08984375,200.01220703125
4.7774999000000005,-2.2194249629974365,-1.105522632598877,7.89547872543335,15.0146484375,28.3203125,210.906982421875
4.7824999,-1.2641384601593018,-0.8972271084785461,8.299500465393066,17.913818359375,4.45556640625,31.06689453125
4.7874999,0.6350619792938232,-0.19632454216480255,8.18996524810791,-30.3955078125,-9.185791015625,-179.931640625
4.7924999,2.0841526985168457,0.0867898091673851,6.7492547035217285,-21.30126953125,-26.275634765625,-217.071533203125
4.7974999,2.1290438175201416,-0.14604631066322327,6.354809761047363,5.615234375,-3.5400390625,-121.978759765625
4.8024999,0.5279214978218079,-0.7068880796432495,5.774814605712891,4.913330078125,-10.345458984375,67.626953125
4.8074999,-1.3162124156951904,-1.1300631761550903,6.4601545333862305,8.636474609375,22.674560546875,206.756591796875
4.812499900000001,-2.0398597717285156,-1.3072341680526733,7.384316444396973,16.6015625,23.86474609375,199.676513671875
4.8174999000000005,-0.9265560507774353,-0.9516952037811279,7.772775650024414,12.3291015625,0.3662109375,11.3525390625
4.8224999,0.6877344250679016,-0.25318682193756104,7.561487674713135,-33.111572265625,-13.61083984375,-184.783935546875
4.8274999,2.299630641937256,0.01735796220600605,6.461950302124023,-14.373779296875,-19.927978515625,-200.50048828125
4.8324999,2.123058319091797,-0.2232593148946762,6.1082072257995605,6.561279296875,-0.67138671875,-100.52490234375
4.8374999,0.43993455171585083,-0.7763199210166931,5.761047840118408,3.753662109375,-10.955810546875,86.3037109375
4.8424999,-1.4089876413345337,-1.2348095178604126,6.856395244598389,8.148193359375,25.054931640625,221.160888671875
4.8474999,-2.1924901008605957,-1.3036428689956665,7.8996686935424805,17.76123046875,20.44677734375,198.6083984375
4.852499900000001,-1.0666168928146362,-0.8457517623901367,8.182184219360352,10.3759765625,0.274658203125,-3.082275390625
4.8574999000000005,0.5464765429496765,-0.28550854325294495,7.50462532043457,-35.003662109375,-14.801025390625,-192.169189453125
4.8624999,1.9955670833587646,-0.023343466222286224,6.472724437713623,-13.092041015625,-18.4326171875,-202.911376953125
4.8674999,1.7980455160140991,-0.3555389642715454,5.70777702331543,7.598876953125,-1.861572265625,-92.193603515625
4.8724999,0.02513911761343479,-0.882861852645874,5.824494361877441,4.180908203125,-12.63427734375,91.6748046875
4.8774999,-1.659181833267212,-1.136048674583435,6.919841289520264,8.544921875,26.123046875,219.329833984375
4.8824999,-2.1553800106048584,-1.2737152576446533,8.104970932006836,17.51708984375,21.78955078125,182.12890625
4.8874999,-0.9301473498344421,-0.7805097699165344,8.200738906860352,7.2021484375,1.52587890625,-26.85546875
4.8924999,0.7966706156730652,-0.3190273642539978,7.195174694061279,-34.97314453125,-17.76123046875,-201.84326171875
4.897499900000001,2.0901381969451904,0.025737667456269264,6.084265232086182,-10.467529296875,-16.448974609375,-198.2421875
4.9024999000000005,1.7908629179000854,-0.2651578485965729,5.043984413146973,8.453369140625,-3.448486328125,-75.042724609375
4.9074999,-0.004189853090792894,-0.7625532150268555,5.126584529876709,4.638671875,-10.25390625,107.879638671875
4.9124999,-1.6154875755310059,-1.0199298858642578,6.315305709838867,9.918212890625,32.2265625,229.095458984375
4.9174999,-2.015319347381592,-1.349731206893921,7.5435309410095215,19.10400390625,17.39501953125,171.69189453125
4.9224999,-0.6823474764823914,-0.973242998123169,7.820659637451172,5.950927734375,-1.28173828125,-45.83740234375
4.9274999,0.9600749015808105,-0.4686649739742279,7.5866265296936035,-37.994384765625,-17.63916015625,-208.19091796875
4.9324999,2.2200236320495605,-0.04369417950510979,6.743268966674805,-9.3994140625,-18.73779296875,-194.2138671875
4.937499900000001,2.2200236320495605,-0.04369417950510979,6.743268966674805,-9.3994140625,-18.73779296875,-194.2138671875
4.9424999000000005,1.734000563621521,-0.11432313174009323,6.435015678405762,8.209228515625,-3.84521484375,-55.694580078125
4.9474999,-0.12928688526153564,-0.3776853084564209,6.336254596710205,5.31005859375,-8.60595703125,122.772216796875
4.9524999,-1.7190368175506592,-0.4537012279033661,7.326855659484863,10.650634765625,34.698486328125,232.421875
4.9574999,-2.015319347381592,-0.7523778676986694,7.849390506744385,19.95849609375,15.2587890625,153.6865234375
4.9624999,-0.5620388388633728,-0.1885433793067932,7.725490570068359,4.08935546875,-1.251220703125,-69.15283203125
4.9674999,1.2168530225753784,-0.31364041566848755,7.395689010620117,-39.947509765625,-20.8740234375,-215.88134765625
4.9724999,2.2876596450805664,0.08978256583213806,6.627748966217041,-8.148193359375,-16.265869140625,-189.056396484375
4.977499900000001,1.8626888990402222,-0.4920084476470947,6.344036102294922,7.99560546875,-4.57763671875,-37.29248046875
4.9824999000000005,-0.166995570063591,-0.7763199210166931,6.500856399536133,5.889892578125,-4.7607421875,139.7705078125
4.9874999,-1.6956933736801147,-0.6727706789970398,7.447164535522461,12.664794921875,37.17041015625,234.649658203125
4.9924999,-1.8842366933822632,-0.8146271109580994,7.835623741149902,22.308349609375,11.8408203125,134.307861328125
4.9974999,-0.6572083830833435,-0.014365210197865963,7.620744228363037,-1.617431640625,-2.166748046875,-92.132568359375
5.0024999,1.0989385843276978,-0.03950432687997818,7.401674747467041,-41.68701171875,-24.200439453125,-219.268798828125
5.0074999,2.0703859329223633,0.10953472554683685,6.511031627655029,-4.638671875,-14.22119140625,-179.87060546875
5.0124999,1.5622166395187378,-0.4734533727169037,6.336853504180908,7.8125,-4.486083984375,-18.768310546875
5.0174999,-0.25019407272338867,-1.0324994325637817,6.718728542327881,5.584716796875,0.213623046875,154.571533203125
5.022499900000001,-1.701080322265625,-0.9277531504631042,7.548917770385742,14.58740234375,36.285400390625,235.748291015625
5.0274999000000005,-1.5783774852752686,-0.9923965930938721,7.88470458984375,23.590087890625,8.72802734375,117.340087890625
5.0324999,-0.6027402877807617,0.15023615956306458,7.888296127319336,-6.34765625,-2.197265625,-109.43603515625
5.0374999,1.3844470977783203,0.28730419278144836,7.570465564727783,-42.6025390625,-25.81787109375,-217.254638671875
5.0424999,1.942894697189331,0.70090252161026,6.788758754730225,-0.48828125,-11.871337890625,-168.15185546875
5.0474999,1.2964602708816528,0.20769700407981873,6.638522624969482,6.2255859375,-4.08935546875,-0.457763671875
5.0524999,-0.5722141861915588,-0.39205053448677063,6.907870292663574,6.2255859375,3.2958984375,169.036865234375
5.0574999,-1.987187385559082,-0.47644615173339844,7.667430877685547,14.6484375,33.050537109375,235.198974609375
5.062499900000001,-1.6861165761947632,-0.6913257241249084,7.814674377441406,22.796630859375,7.843017578125,102.5390625
5.0674999000000005,-0.456095427274704,-0.06224924325942993,7.683591842651367,-9.674072265625,-1.40380859375,-124.08447265625
5.0724999,1.5245078802108765,-0.020350715145468712,7.032967567443848,-40.679931640625,-28.839111328125,-219.05517578125
5.0774999,1.9249382019042969,0.10773907601833344,6.103418827056885,0.67138671875,-9.765625,-162.353515625
5.0824999,1.1049240827560425,-0.4129997789859772,5.832873821258545,6.2255859375,-8.11767578125,11.810302734375
5.0874999,-0.9552865028381348,-0.6961141228675842,6.2392897605896,7.01904296875,6.2255859375,177.001953125
5.0924999,-2.184110403060913,-0.761954665184021,7.225700855255127,14.46533203125,33.447265625,231.231689453125
5.0974999,-1.6543933153152466,-0.6458359360694885,7.7661919593811035,22.308349609375,7.293701171875,85.479736328125
5.102499900000001,-0.1562216579914093,0.0628477931022644,7.8529815673828125,-14.068603515625,-1.678466796875,-140.31982421875
5.1074999000000005,1.7693150043487549,0.40282443165779114,7.243058681488037,-37.567138671875,-30.3955078125,-220.306396484375
5.1124999,2.076371431350708,0.4345476031303406,6.389525890350342,0.518798828125,-7.537841796875,-152.618408203125
5.1174999,0.993593692779541,-0.020949264988303185,6.116586685180664,6.927490234375,-9.765625,24.5361328125
5.1224999,-1.039083480834961,-0.45908817648887634,6.619369029998779,7.720947265625,7.720947265625,183.746337890625
5.1274999,-2.1128830909729004,-0.7212532758712769,7.679401874542236,14.984130859375,35.09521484375,225.250244140625
5.1324999,-1.4766238927841187,-0.6590040326118469,8.12053394317627,22.552490234375,6.805419921875,66.650390625
5.1374999,0.4818331003189087,-0.34596213698387146,8.260594367980957,-20.81298828125,-3.387451171875,-155.303955078125
5.1424999,1.9925743341445923,0.1735796183347702,7.177217960357666,-32.867431640625,-32.012939453125,-218.8720703125
