# Time (seconds),Accel_X,Accel_Y,Accel_Z,Gyro_X,Gyro_Y,Gyro_Z
0.0024999,0.25917232036590576,-0.28371289372444153,9.660603523254395,-8.148193359375,0.518798828125,-2.960205078125
0.0074999,0.25917232036590576,-0.28371289372444153,9.660603523254395,-8.148193359375,0.518798828125,-2.960205078125
0.012499900000000001,0.33099839091300964,-0.23702596127986908,9.929352760314941,9.033203125,-0.48828125,3.2958984375
0.0174999,0.21188685297966003,-0.32680854201316833,9.750386238098145,-11.871337890625,0,-3.753662109375
0.0224999,0.292691171169281,-0.24600422382354736,9.929951667785645,13.641357421875,-0.396728515625,2.227783203125
0.0274999,0.22086510062217712,-0.2974795699119568,9.784503936767578,-12.908935546875,0.946044921875,-1.5869140625
0.0324999,0.26575639843940735,-0.21368250250816345,9.84615421295166,8.9111328125,-0.091552734375,2.105712890625
0.0374999,0.1586158573627472,-0.2717418968677521,9.821614265441895,-9.765625,0.335693359375,-2.105712890625
0.0424999,0.21368250250816345,-0.20530278980731964,9.788095474243164,12.14599609375,0.3662109375,0.8544921875
0.0474999,0.20949265360832214,-0.2783259451389313,9.857526779174805,-13.275146484375,0.396728515625,-1.312255859375
0.0524999,0.16759411990642548,-0.24121582508087158,9.80904483795166,12.420654296875,-0.152587890625,-0.640869140625
0.0574999,0.23044191300868988,-0.3627215623855591,9.849146842956543,-8.97216796875,0.18310546875,1.03759765625
0.0624999,0.243011474609375,-0.30226796865463257,9.77133560180664,6.683349609375,-0.274658203125,-0.640869140625
0.0674999,0.20231004059314728,-0.39564183354377747,9.962273597717285,-6.103515625,-0.457763671875,-0.1220703125
0.0724999,0.24899697303771973,-0.31783026456832886,9.702502250671387,6.7138671875,-0.457763671875,-0.8544921875
0.0774999,0.3076549172401428,-0.36990416049957275,9.991601943969727,-7.781982421875,-0.91552734375,0.762939453125
0.0824999,0.2645592987537384,-0.2885012924671173,9.668983459472656,8.026123046875,0.701904296875,-1.739501953125
0.0874999,0.35494041442871094,-0.3477577865123749,9.870695114135742,-6.103515625,-1.068115234375,2.44140625
0.0924999,0.34656068682670593,-0.2783259451389313,9.59835433959961,2.838134765625,0.8544921875,-3.5400390625
0.0974999,0.3250128924846649,-0.34416648745536804,9.904213905334473,-0.3662109375,-0.30517578125,2.410888671875
0.1024999,0.33099839091300964,-0.2783259451389313,9.50857162475586,-0.8544921875,0.30517578125,-2.105712890625
0.1074999,0.3597288131713867,-0.3100491166114807,9.962871551513672,1.739501953125,0.244140625,2.25830078125
0.1124999,0.2495955228805542,-0.2663549482822418,9.534908294677734,-2.288818359375,1.495361328125,-4.33349609375
0.1174999,0.29388827085494995,-0.28790274262428284,9.953893661499023,3.23486328125,-1.739501953125,3.11279296875
0.1224999,0.23702596127986908,-0.28790274262428284,9.64683723449707,-3.692626953125,1.5869140625,-3.082275390625
0.1274999,0.2059013396501541,-0.23942017555236816,9.98681354522705,5.462646484375,-1.28173828125,3.0517578125
0.1324999,0.19213469326496124,-0.28371289372444153,9.70429801940918,-6.561279296875,0.640869140625,-3.173828125
0.1374999,0.21607670187950134,-0.1885433793067932,9.971850395202637,7.781982421875,-1.15966796875,2.471923828125
0.1424999,0.11611878126859665,-0.20470423996448517,9.700108528137207,-9.796142578125,-0.030517578125,-3.692626953125
0.1474999,0.19033902883529663,-0.262763649225235,9.749788284301758,-12.75634765625,0.48828125,-1.5869140625
0.1524999,0.21368250250816345,-0.24480712413787842,9.837176322937012,11.749267578125,-1.312255859375,0.3662109375
0.1574999,0.27413609623908997,-0.42018240690231323,9.8599214553833,-9.33837890625,0.79345703125,-0.1220703125
0.1624999,0.2885012924671173,-0.31364041566848755,9.810839653015137,7.659912109375,-0.42724609375,-0.152587890625
0.1674999,0.2735375463962555,-0.456095427274704,9.926360130310059,-6.134033203125,0.579833984375,-0.06103515625
0.1724999,0.3381809890270233,-0.28550854325294495,9.703699111938477,6.072998046875,0.335693359375,-1.03759765625
0.17749990000000002,0.3561375141143799,-0.3531447649002075,9.941324234008789,-6.317138671875,-0.3662109375,0.518798828125
0.1824999,0.2908954918384552,-0.24660277366638184,9.63067626953125,6.378173828125,0.701904296875,-1.3427734375
0.1874999,0.38726213574409485,-0.23582886159420013,9.899425506591797,-4.21142578125,-1.03759765625,2.50244140625
0.1924999,0.2801215946674347,-0.2346317619085312,9.619902610778809,1.495361328125,0.79345703125,-4.08935546875
0.1974999,0.2621650993824005,-0.21308395266532898,9.924564361572266,1.5869140625,-0.823974609375,2.777099609375
0.2024999,0.2298433631658554,-0.2861070930957794,9.650428771972656,-3.509521484375,0.335693359375,-2.777099609375
0.20749990000000001,0.14006079733371735,-0.3232172429561615,9.709086418151855,-7.720947265625,0.1220703125,-3.84521484375
0.2124999,0.2651578485965729,-0.20051439106464386,10.010157585144043,9.70458984375,-0.1220703125,3.11279296875
0.2174999,0.15562310814857483,-0.3010708689689636,9.750985145568848,-11.04736328125,1.068115234375,-1.953125
0.2224999,0.2172738015651703,-0.1909375786781311,9.86770248413086,10.589599609375,-1.3427734375,0.79345703125
0.2274999,0.2651578485965729,-0.3932476341724396,9.814431190490723,-9.552001953125,1.312255859375,-0.79345703125
0.2324999,0.2687491476535797,-0.2932897210121155,9.823410034179688,7.720947265625,-0.640869140625,-0.091552734375
0.2374999,0.3076549172401428,-0.5045779943466187,9.93474006652832,-5.645751953125,0.48828125,0.18310546875
0.2424999,0.33039984107017517,-0.32441434264183044,9.73542308807373,4.94384765625,0.244140625,-1.068115234375
0.2474999,0.32620999217033386,-0.40940847992897034,10.017938613891602,-4.791259765625,0.213623046875,0.732421875
0.2524999,0.26156654953956604,-0.24241292476654053,9.610923767089844,3.90625,0.6103515625,-2.044677734375
0.2574999,0.3477577865123749,-0.25977087020874023,9.964069366455078,-2.197265625,-0.91552734375,2.532958984375
0.2624999,0.22505496442317963,-0.22206220030784607,9.589376449584961,-0.091552734375,1.251220703125,-3.35693359375
0.2674999,0.21966800093650818,-0.2861070930957794,9.655815124511719,-5.615234375,0.823974609375,-3.143310546875
0.2724999,0.21308395266532898,-0.15322890877723694,9.909601211547852,7.049560546875,-0.701904296875,1.922607421875
0.2774999,0.15801730751991272,-0.31783026456832886,9.725846290588379,-8.209228515625,0.1220703125,-1.861572265625
0.2824999,0.25917232036590576,-0.15801730751991272,9.841964721679688,9.185791015625,-0.06103515625,1.556396484375
0.28749990000000003,0.19033902883529663,-0.3345896899700165,9.834183692932129,-10.467529296875,-0.1220703125,-2.25830078125
0.2924999,0.23942017555236816,-0.20889410376548767,9.792284965515137,10.92529296875,-0.54931640625,0.244140625
0.2974999,0.304063618183136,-0.33758243918418884,9.922768592834473,-9.552001953125,-0.274658203125,1.40380859375
0.3024999,0.2555810213088989,-0.2693476974964142,9.744400978088379,5.79833984375,-0.030517578125,-3.0517578125
0.3074999,0.304063618183136,-0.32620999217033386,9.889848709106445,-2.105712890625,0,2.38037109375
0.3124999,0.30226796865463257,-0.30226796865463257,9.622296333312988,-0.67138671875,0.48828125,-2.471923828125
0.3174999,0.2974795699119568,-0.32620999217033386,9.93474006652832,3.143310546875,0,2.349853515625
0.3224999,0.2693476974964142,-0.3106476664543152,9.633070945739746,-4.94384765625,0.762939453125,-3.143310546875
0.3274999,0.2106897532939911,-0.29628247022628784,9.750985145568848,-9.185791015625,0.79345703125,-3.021240234375
0.3324999,0.2519897222518921,-0.26096799969673157,9.927556991577148,11.077880859375,-0.3662109375,1.495361328125
0.3374999,0.25019407272338867,-0.3010708689689636,9.870096206665039,-9.735107421875,0.885009765625,-0.152587890625
0.3424999,0.17537526786327362,-0.2364274114370346,9.814431190490723,7.965087890625,-0.8544921875,-1.46484375
0.34749990000000003,0.25318682193756104,-0.304063618183136,9.95090103149414,-4.974365234375,0.030517578125,1.190185546875
0.35249990000000003,0.22924481332302094,-0.23163901269435883,9.720458984375,2.25830078125,0.091552734375,-2.166748046875
0.3574999,0.2172738015651703,-0.2902969419956207,9.948506355285645,0.3662109375,0.06103515625,2.13623046875
0.3624999,0.23523031175136566,-0.27054479718208313,9.584588050842285,-2.777099609375,0.1220703125,-2.99072265625
0.3674999,0.30047231912612915,-0.28969839215278625,9.928754806518555,4.791259765625,-0.91552734375,2.288818359375
0.3724999,0.23942017555236816,-0.3519476354122162,9.583391189575195,-7.2021484375,0.579833984375,-2.899169921875
0.3774999,0.3256114423274994,-0.2944868206977844,9.850942611694336,9.735107421875,-1.251220703125,2.044677734375
0.3824999,0.3321954905986786,-0.383670836687088,9.737217903137207,-9.27734375,1.03759765625,-1.190185546875
0.3874999,0.3250128924846649,-0.3124433159828186,9.834183692932129,-6.500244140625,0.885009765625,1.15966796875
0.3924999,0.24001872539520264,-0.1759738177061081,9.713874816894531,3.753662109375,-0.213623046875,-1.861572265625
0.3974999,0.2148796021938324,-0.20350714027881622,9.943120002746582,-0.732421875,0,1.89208984375
0.4024999,0.19273324310779572,-0.15083470940589905,9.651026725769043,-1.5869140625,0.030517578125,-2.685546875
0.4074999,0.2364274114370346,-0.1975216418504715,10.02452278137207,3.60107421875,-0.244140625,2.5634765625
0.41249990000000003,0.16579847037792206,-0.23044191300868988,9.682151794433594,-6.4697265625,0.579833984375,-3.265380859375
0.41749990000000003,0.28730419278144836,-0.27892449498176575,9.876082420349121,8.758544921875,-1.03759765625,1.983642578125
0.4224999,0.28730419278144836,-0.27892449498176575,9.876082420349121,8.758544921875,-1.03759765625,1.983642578125
0.4274999,0.30885201692581177,-0.3663128614425659,9.791686058044434,-9.521484375,0.91552734375,-0.8544921875
0.4324999,0.2783259451389313,-0.32202014327049255,9.747992515563965,9.185791015625,-0.885009765625,-0.6103515625
0.4374999,0.39564183354377747,-0.35733461380004883,9.857526779174805,-5.9814453125,0.54931640625,1.03759765625
0.4424999,0.28371289372444153,-0.2621650993824005,9.682151794433594,2.960205078125,0,-2.349853515625
0.4474999,0.2298433631658554,-0.22026655077934265,9.651625633239746,-2.838134765625,0.42724609375,-2.532958984375
0.4524999,0.21847090125083923,-0.22685061395168304,10.012551307678223,4.82177734375,-0.42724609375,2.197265625
0.4574999,0.1472434103488922,-0.29867666959762573,9.742605209350586,-6.927490234375,0.06103515625,-2.777099609375
0.4624999,0.2454056739807129,-0.24121582508087158,9.948506355285645,8.97216796875,-0.213623046875,1.46484375
0.4674999,0.24420857429504395,-0.36810851097106934,9.889249801635742,-9.6435546875,0.579833984375,-0.8544921875
0.47249990000000003,0.2579752206802368,-0.27473464608192444,9.770736694335938,9.246826171875,-0.244140625,-0.640869140625
0.47749990000000003,0.36750996112823486,-0.3250128924846649,9.92097282409668,-5.889892578125,0.3662109375,1.52587890625
0.4824999,0.29388827085494995,-0.22266076505184174,9.9000244140625,2.25830078125,-0.42724609375,2.74658203125
0.4874999,0.29388827085494995,-0.22266076505184174,9.9000244140625,2.25830078125,-0.42724609375,2.74658203125
0.4924999,0.243011474609375,-0.28969839215278625,9.695320129394531,-4.974365234375,0.091552734375,-2.50244140625
0.4974999,0.22086510062217712,-0.2017114907503128,9.920374870300293,7.080078125,-0.6103515625,0.9765625
0.5024999,0.152031809091568,-0.38726213574409485,9.804854393005371,-6.77490234375,0.06103515625,-0.946044921875
0.5074999,0.3405751883983612,-0.33937808871269226,10.04307746887207,-2.349853515625,-0.3662109375,2.471923828125
0.5124999,0.2519897222518921,-0.2669534981250763,9.702502250671387,-1.220703125,1.007080078125,-2.9296875
0.5174999,0.2801215946674347,-0.2172738015651703,9.906607627868652,5.157470703125,-0.762939453125,1.89208984375
0.5224999,0.2322375625371933,-0.2621650993824005,9.759963035583496,-6.866455078125,1.15966796875,-1.77001953125
0.5274999,0.18315643072128296,-0.21308395266532898,9.788095474243164,7.080078125,-0.3662109375,0
0.5324999,0.25917232036590576,-0.284311443567276,9.824606895446777,-5.2490234375,0.18310546875,0.579833984375
0.5374999,0.2621650993824005,-0.2717418968677521,9.676764488220215,2.716064453125,0.244140625,-2.0751953125
0.5424999,0.3064578175544739,-0.2902969419956207,9.881468772888184,0.030517578125,-0.3662109375,2.13623046875
0.5474999,0.2908954918384552,-0.2795230448246002,9.580398559570312,-3.0517578125,0,-2.44140625
0.5524999,0.31783026456832886,-0.2663549482822418,9.897629737854004,5.096435546875,-0.152587890625,1.5869140625
0.5574999,0.26755204796791077,-0.28371289372444153,9.790489196777344,8.48388671875,-0.396728515625,1.129150390625
0.5624999,0.22266076505184174,-0.3034650683403015,9.680954933166504,6.28662109375,0.06103515625,-1.89208984375
0.5674999000000001,0.22266076505184174,-0.3034650683403015,9.680954933166504,6.28662109375,0.06103515625,-1.89208984375
0.5724999000000001,0.3477577865123749,-0.2944868206977844,9.88386344909668,-2.044677734375,-0.213623046875,2.13623046875
0.5774999000000001,0.23343466222286224,-0.33099839091300964,9.719860076904297,-2.3193359375,0.457763671875,-3.23486328125
0.5824999,0.2621650993824005,-0.28371289372444153,9.891644477844238,5.9814453125,-0.396728515625,2.0751953125
0.5874999,0.2974795699119568,-0.3794809579849243,9.845556259155273,-7.293701171875,0.335693359375,-1.190185546875
0.5924999,0.2861070930957794,-0.28790274262428284,9.856329917907715,6.561279296875,0.18310546875,-0.579833984375
0.5974999,0.30705636739730835,-0.3495534360408783,9.956287384033203,-3.7841796875,0.3662109375,1.312255859375
0.6024999,0.2950853705406189,-0.28072014451026917,9.73542308807373,1.220703125,0.54931640625,-1.739501953125
0.6074999,0.2561795711517334,-0.2753331959247589,10.025120735168457,1.373291015625,-0.030517578125,1.373291015625
0.6124999,0.19931729137897491,-0.292691171169281,9.662399291992188,-4.547119140625,0.30517578125,-2.532958984375
0.6174999,0.18555063009262085,-0.2867056429386139,9.66539192199707,2.01416015625,-0.091552734375,-2.99072265625
0.6224999,0.31124621629714966,-0.21847090125083923,9.843161582946777,2.410888671875,-0.762939453125,2.166748046875
0.6274999,0.27234044671058655,-0.3208230137825012,9.667187690734863,-5.706787109375,0.6103515625,-2.166748046875
0.6324999,0.28371289372444153,-0.2687491476535797,9.744400978088379,7.26318359375,-0.457763671875,0.701904296875
0.6374999,0.34177228808403015,-0.304063618183136,9.784503936767578,-6.011962890625,0,0.457763671875
0.6424999,0.2537853717803955,-0.304063618183136,9.68574333190918,3.448486328125,0.335693359375,-2.25830078125
0.6474999,0.2992752194404602,-0.2944868206977844,9.906607627868652,0.152587890625,-0.48828125,2.105712890625
0.6524999,0.25498247146606445,-0.3100491166114807,9.716867446899414,-3.509521484375,0.18310546875,-2.227783203125
0.6574999,0.22206220030784607,-0.3471592366695404,9.823410034179688,-5.523681640625,0.06103515625,-0.762939453125
0.6624999,0.2669534981250763,-0.2735375463962555,9.798869132995605,4.82177734375,-0.1220703125,-0.48828125
0.6674999,0.24839842319488525,-0.3280056416988373,9.919178009033203,-3.326416015625,-0.18310546875,0.6103515625
0.6724999,0.2651578485965729,-0.284311443567276,9.62828254699707,0.823974609375,0.18310546875,-1.64794921875
0.6774999,0.3363853394985199,-0.2992752194404602,9.885659217834473,2.50244140625,-0.30517578125,1.739501953125
0.6824999,0.25019407272338867,-0.2908954918384552,9.613917350769043,-4.730224609375,0.213623046875,-2.01416015625
0.6874999,0.33698388934135437,-0.262763649225235,9.737217903137207,6.53076171875,-0.67138671875,0.67138671875
0.6924999000000001,0.27892449498176575,-0.3256114423274994,9.824606895446777,-6.622314453125,0.6103515625,-0.18310546875
0.6974999000000001,0.26156654953956604,-0.25498247146606445,9.67077922821045,4.638671875,-0.335693359375,-1.556396484375
0.7024999000000001,0.3166331648826599,-0.29867666959762573,9.944915771484375,-0.732421875,0.06103515625,1.861572265625
0.7074999,0.21966800093650818,-0.27473464608192444,9.700108528137207,-2.655029296875,0.335693359375,-2.410888671875
0.7124999,0.28131869435310364,-0.2364274114370346,9.836577415466309,5.4931640625,-0.457763671875,1.40380859375
0.7174999,0.30705636739730835,-0.24480712413787842,9.840767860412598,5.218505859375,-0.244140625,1.861572265625
0.7224999,0.23762452602386475,-0.30526071786880493,9.819818496704102,-6.317138671875,0.396728515625,-0.91552734375
0.7274999,0.2537853717803955,-0.30526071786880493,9.750985145568848,5.645751953125,-0.42724609375,-0.946044921875
0.7324999,0.30047231912612915,-0.284311443567276,9.982025146484375,-2.38037109375,0.518798828125,1.678466796875
0.7374999,0.21667525172233582,-0.30945056676864624,9.713275909423828,-1.3427734375,0.152587890625,-2.532958984375
0.7424999,0.3214215636253357,-0.23702596127986908,9.86351203918457,4.7607421875,-0.732421875,1.495361328125
0.7474999,0.22385786473751068,-0.2795230448246002,9.81024169921875,-6.2255859375,0.335693359375,-1.068115234375
0.7524999,0.2472013235092163,-0.2777273952960968,9.734824180603027,5.462646484375,-0.6103515625,-0.8544921875
0.7574999,0.2968810200691223,-0.2669534981250763,9.963470458984375,-2.288818359375,-0.06103515625,1.434326171875
0.7624999,0.33099839091300964,-0.24660277366638184,9.86111831665039,4.486083984375,-0.18310546875,1.52587890625
0.7674999,0.2322375625371933,-0.28790274262428284,9.81024169921875,-6.072998046875,0.48828125,-0.946044921875
0.7724999,0.24779987335205078,-0.29209262132644653,9.72165584564209,5.2490234375,-0.42724609375,-0.762939453125
0.7774999,0.2849099934101105,-0.25318682193756104,9.91977596282959,-1.953125,-0.06103515625,1.617431640625
0.7824999,0.011372458189725876,-0.8355764150619507,9.194931983947754,-3.936767578125,-1.28173828125,1.129150390625
0.7874999,-0.5817909836769104,-1.382651448249817,8.368931770324707,2.532958984375,-9.796142578125,26.031494140625
0.7924999,-1.2886791229248047,-2.6569652557373047,7.082048416137695,-1.922607421875,-26.702880859375,84.808349609375
0.7974999,-2.3127987384796143,-2.9077579975128174,5.6634840965271,21.636962890625,-59.4482421875,228.82080078125
0.8024999,-3.3033998012542725,-2.778470993041992,5.724536418914795,40.83251953125,-56.94580078125,327.728271484375
0.8074999,-3.887584924697876,-1.3922282457351685,5.494692802429199,115.936279296875,-19.4091796875,341.705322265625
0.8124999,-3.7175967693328857,-0.67815762758255,5.836465358734131,109.4970703125,-0.579833984375,322.75390625
0.8174999000000001,-3.4512417316436768,0.983418345451355,6.191405773162842,145.263671875,-27.252197265625,296.5087890625
0.8224999000000001,-0.43694180250167847,2.295440912246704,7.350199222564697,200.5615234375,-63.079833984375,233.642578125
0.8274999000000001,1.1204863786697388,2.8221652507781982,8.283937454223633,145.56884765625,-83.43505859375,203.06396484375
0.8324999000000001,2.8580782413482666,3.4638113975524902,8.779537200927734,96.61865234375,-102.6611328125,151.85546875
0.8374999,4.2544965744018555,3.492541790008545,8.71489429473877,118.255615234375,-113.6474609375,97.747802734375
0.8424999,5.390544891357422,3.247136116027832,8.198944091796875,117.401123046875,-133.453369140625,87.188720703125
0.8474999,6.251859188079834,2.698265314102173,7.53275728225708,82.183837890625,-140.289306640625,81.146240234375
0.8524999,6.568492412567139,2.5761611461639404,7.38132381439209,63.201904296875,-134.552001953125,55.267333984375
0.8574999,6.656479358673096,2.7012581825256348,7.463325023651123,60.455322265625,-128.23486328125,14.739990234375
0.8624999,6.243479251861572,2.963423252105713,7.402273178100586,44.00634765625,-104.3701171875,-4.791259765625
0.8674999,5.784989833831787,3.316567897796631,7.519588947296143,23.284912109375,-86.0595703125,-15.13671875
0.8724999,5.351639270782471,3.6355953216552734,7.339425086975098,7.720947265625,-73.18115234375,-28.1982421875
0.8774999,4.820126533508301,3.7020344734191895,6.901885032653809,-20.721435546875,-69.671630859375,-41.9921875
0.8824999,3.9618053436279297,3.5410242080688477,6.276998519897461,-86.944580078125,-16.510009765625,-49.041748046875
0.8874999,4.01268196105957,3.4392707347869873,6.237493991851807,-109.130859375,19.012451171875,-47.088623046875
0.8924999,4.269460201263428,3.4739866256713867,6.450577735900879,-122.833251953125,35.430908203125,-42.236328125
0.8974999,4.2515034675598145,3.335123062133789,6.4266357421875,-130.7373046875,66.71142578125,-24.261474609375
0.9024999,4.3640313148498535,3.1717185974121094,6.591835975646973,-146.392822265625,89.691162109375,-25.7568359375
0.9074999,4.129399299621582,2.9885623455047607,6.775590896606445,-167.999267578125,98.0224609375,-38.970947265625
0.9124999,3.9893386363983154,3.006518840789795,6.8821330070495605,-202.423095703125,103.790283203125,-46.783447265625
0.9174999,3.669114112854004,2.6402058601379395,6.95695161819458,-213.104248046875,125.18310546875,-51.422119140625
0.9224999,3.732560396194458,1.9500772953033447,7.744045257568359,-209.381103515625,162.78076171875,-44.43359375
0.9274999,3.949235677719116,0.5979518890380859,9.5624418258667,-159.7900390625,244.049072265625,-33.14208984375
0.9324999,4.308365821838379,-1.810615062713623,12.263699531555176,-35.064697265625,329.376220703125,-28.564453125
0.9374999,-4.719570159912109,-5.9986724853515625,9.066842079162598,27.03857421875,23.8037109375,-67.718505859375
0.9424999000000001,-5.562329292297363,-3.7427358627319336,6.235099792480469,29.4189453125,11.993408203125,-57.891845703125
0.9474999000000001,-5.536591529846191,-1.6603789329528809,5.361216068267822,33.172607421875,17.913818359375,-53.192138671875
0.9524999000000001,-5.167285919189453,0.041299980133771896,6.297947406768799,13.0615234375,17.425537109375,-42.236328125
0.9574999000000001,-4.462193489074707,1.1635819673538208,8.299500465393066,-2.8076171875,-2.593994140625,-8.85009765625
0.9624999,-2.876633405685425,1.7818846702575684,10.994174003601074,0.946044921875,-24.749755859375,6.561279296875
0.9674999,-2.0386626720428467,1.413776159286499,10.797849655151367,-18.73779296875,-39.6728515625,-3.72314453125
0.9724999,-1.4065934419631958,0.945111095905304,10.026318550109863,-17.547607421875,-48.33984375,5.06591796875
0.9774999,-0.20889410376548767,-0.1322796493768692,9.494805335998535,-12.054443359375,-49.468994140625,0.06103515625
0.9824999,0.33698388934135437,-0.5823895931243896,9.813833236694336,-18.73779296875,-46.0205078125,-4.21142578125
0.9874999,0.9427168965339661,-0.8541314601898193,10.350732803344727,-8.880615234375,-37.9638671875,6.927490234375
0.9924999,1.3670891523361206,-1.0007762908935547,10.52790355682373,6.317138671875,-29.052734375,11.566162109375
0.9974999,1.8183962106704712,-1.0420763492584229,10.398616790771484,1.007080078125,-23.681640625,-0.762939453125
1.0024999,1.944091796875,-0.9516952037811279,10.146626472473145,-4.302978515625,-16.78466796875,-9.521484375
1.0074999000000002,1.9818004369735718,-0.790086567401886,9.790489196777344,5.06591796875,-4.2724609375,3.143310546875
1.0124999000000001,1.9632453918457031,-0.5171475410461426,9.666589736938477,9.09423828125,5.31005859375,5.7373046875
1.0174999000000002,1.7459715604782104,-0.21607670187950134,9.560047149658203,-0.06103515625,10.772705078125,-8.97216796875
1.0224999000000001,1.602918028831482,0.028730420395731926,9.552266120910645,-2.899169921875,17.7001953125,-5.9814453125
1.0274999,1.2773065567016602,0.18555063009262085,9.707290649414062,3.204345703125,24.5361328125,8.453369140625
1.0324999000000001,0.9427168965339661,0.19692309200763702,9.715071678161621,5.79833984375,24.35302734375,1.556396484375
1.0374999,0.6141127347946167,0.04429273307323456,9.835380554199219,-4.08935546875,20.294189453125,-12.054443359375
1.0424999000000001,0.20949265360832214,-0.18914192914962769,9.989208221435547,0.8544921875,18.98193359375,-1.983642578125
1.0474999,-0.16639702022075653,-0.3818751573562622,9.958083152770996,10.284423828125,15.7470703125,9.70458984375
1.0524999000000002,-0.3531447649002075,-0.5339069962501526,9.955689430236816,3.662109375,7.537841796875,-5.615234375
1.0574999,-0.5931634902954102,-0.5249287486076355,9.88506031036377,-1.251220703125,2.227783203125,-11.322021484375
1.0624999000000002,-0.6278793811798096,-0.3926490843296051,9.822811126708984,2.9296875,-0.213623046875,7.9345703125
1.0674999,-0.6278793811798096,-0.3926490843296051,9.822811126708984,2.9296875,-0.213623046875,7.9345703125
1.0724999000000002,-0.5285200476646423,-0.2232593148946762,9.758167266845703,1.64794921875,-4.852294921875,6.500244140625
1.0774999,-0.46088382601737976,-0.03890577703714371,9.674968719482422,-5.126953125,-10.833740234375,-12.298583984375
1.0824999000000002,-0.2561795711517334,0.008379706181585789,9.687539100646973,-6.439208984375,-11.077880859375,-1.800537109375
1.0874999,-0.06823474913835526,-0.04429273307323456,9.790489196777344,-0.8544921875,-8.819580078125,14.0380859375
1.0924999000000002,0.14365209639072418,-0.10175357013940811,9.750386238098145,0.3662109375,-11.627197265625,-0.762939453125
1.0974999,0.40880993008613586,-0.26755204796791077,9.853337287902832,-7.6904296875,-11.53564453125,-10.711669921875
1.1024999000000002,0.7242460250854492,-0.4189853072166443,9.883264541625977,6.683349609375,-0.885009765625,10.25390625
1.1074999,0.8930372595787048,-0.47225627303123474,9.873687744140625,-3.143310546875,-1.64794921875,-9.765625
1.1124999000000002,0.8188169598579407,-0.4578910768032074,9.895236015319824,-3.23486328125,3.021240234375,-6.53076171875
1.1174999,0.7511807680130005,-0.39564183354377747,9.883264541625977,6.9580078125,8.392333984375,11.3525390625
1.1224999000000002,0.5021837949752808,-0.3196259140968323,9.84256362915039,-3.631591796875,4.302978515625,-14.5263671875
1.1274999,0.5021837949752808,-0.3196259140968323,9.84256362915039,-3.631591796875,4.302978515625,-14.5263671875
1.1324999000000002,0.3705027103424072,-0.3172317147254944,9.832387924194336,3.082275390625,8.270263671875,7.2021484375
1.1374999000000001,0.2513911724090576,-0.3124433159828186,9.821015357971191,4.913330078125,5.584716796875,8.697509765625
1.1424999000000002,0.08798690885305405,-0.27892449498176575,9.769539833068848,-2.0751953125,-0.335693359375,-14.22119140625
1.1474999000000001,-0.0077811554074287415,-0.2825157940387726,9.795876502990723,-1.40380859375,0.701904296875,-2.532958984375
1.1524999000000002,-0.04010287672281265,-0.19871874153614044,9.815628051757812,3.753662109375,1.0986328125,14.58740234375
1.1574999000000001,0.08080431073904037,-0.18974047899246216,9.874286651611328,1.434326171875,-0.762939453125,13.73291015625
1.1624999,0.18076223134994507,-0.19931729137897491,9.764751434326172,3.96728515625,-3.997802734375,3.631591796875
1.1674999000000001,0.33997663855552673,-0.26575639843940735,9.783905029296875,-7.32421875,-6.500244140625,-14.7705078125
1.1724999,0.39145198464393616,-0.304063618183136,9.927556991577148,-0.579833984375,-0.274658203125,5.218505859375
1.1774999000000002,0.4686649739742279,-0.3124433159828186,9.79527759552002,7.32421875,1.678466796875,11.77978515625
1.1824999,0.606930136680603,-0.35913026332855225,9.764751434326172,-4.57763671875,-2.25830078125,-12.969970703125
1.1874999000000002,0.5770025849342346,-0.3477577865123749,9.847352027893066,-3.11279296875,1.739501953125,-4.608154296875
1.1924999,0.5171475410461426,-0.2992752194404602,9.78869342803955,8.209228515625,6.134033203125,14.58740234375
1.1974999000000002,0.518943190574646,-0.2693476974964142,9.734824180603027,-1.800537109375,1.251220703125,-7.232666015625
1.2024999,0.19452889263629913,-0.24600422382354736,9.875483512878418,7.080078125,5.2490234375,13.397216796875
1.2074999000000002,0.19572599232196808,-0.2932897210121155,9.791088104248047,1.953125,-0.91552734375,6.439208984375
1.2124999,0.20769700407981873,-0.29209262132644653,9.812037467956543,-6.8359375,-4.8828125,-16.387939453125
1.2174999000000002,0.22266076505184174,-0.284311443567276,9.844358444213867,2.62451171875,-0.6103515625,6.439208984375
1.2224999,0.3256114423274994,-0.2890998423099518,9.786299705505371,3.082275390625,0.213623046875,10.345458984375
1.2274999000000002,0.3345896899700165,-0.25677812099456787,9.766547203063965,-6.134033203125,-3.753662109375,-15.380859375
1.2324999,0.3196259140968323,-0.2890998423099518,9.88506031036377,1.190185546875,-0.152587890625,2.44140625
1.2374999000000002,0.35913026332855225,-0.24779987335205078,9.824007987976074,4.5166015625,1.861572265625,12.786865234375
1.2424999,0.3387795388698578,-0.2364274114370346,9.782109260559082,-4.82177734375,-1.739501953125,-14.16015625
1.2474999000000002,0.3190273642539978,-0.2902969419956207,9.900622367858887,0.48828125,0.79345703125,-1.129150390625
1.2524999,0.3363853394985199,-0.2717418968677521,9.80904483795166,4.730224609375,4.33349609375,14.34326171875
1.2574999000000002,0.3345896899700165,-0.3597288131713867,9.855731010437012,-0.579833984375,0.244140625,-3.72314453125
1.2624999000000001,0.35254621505737305,-0.31603461503982544,9.801262855529785,4.7607421875,3.662109375,14.16015625
1.2674999000000002,0.3405751883983612,-0.31842881441116333,9.745597839355469,-3.753662109375,-1.40380859375,-10.7421875
1.2724999000000001,0.32680854201316833,-0.3711012601852417,9.84376049041748,-1.03759765625,-0.91552734375,-4.119873046875
1.2774999000000002,0.3196259140968323,-0.28969839215278625,9.791686058044434,4.547119140625,2.685546875,14.251708984375
1.2824999000000001,0.2908954918384552,-0.23283611238002777,9.777320861816406,4.82177734375,1.129150390625,13.885498046875
1.2874999,0.28969839215278625,-0.2406172752380371,9.713275909423828,-4.2724609375,-2.8076171875,-10.25390625
1.2924999000000001,0.30705636739730835,-0.30705636739730835,9.837775230407715,-0.54931640625,-1.8310546875,-4.058837890625
1.2974999,0.33518823981285095,-0.2346317619085312,9.779715538024902,4.974365234375,2.13623046875,13.214111328125
1.3024999000000002,0.34835633635520935,-0.262763649225235,9.739612579345703,-4.302978515625,-1.251220703125,-10.986328125
1.3074999,0.37828385829925537,-0.24420857429504395,9.795876502990723,4.547119140625,2.5634765625,12.6953125
1.3124999000000002,0.37828385829925537,-0.2561795711517334,9.775525093078613,-5.2490234375,-1.190185546875,-11.8408203125
1.3174999,0.3513490855693817,-0.2998737692832947,9.896432876586914,1.708984375,0.518798828125,-0.8544921875
1.3224999000000002,0.36810851097106934,-0.20290859043598175,9.799467086791992,3.936767578125,2.471923828125,11.505126953125
1.3274999,0.32202014327049255,-0.23104046285152435,9.78869342803955,-5.950927734375,-1.373291015625,-12.786865234375
1.3324999000000002,0.2825157940387726,-0.2711433470249176,9.896432876586914,3.23486328125,0.640869140625,2.13623046875
1.3374999,0.2932897210121155,-0.18614917993545532,9.764751434326172,2.410888671875,1.495361328125,9.70458984375
1.3424999000000002,0.26755204796791077,-0.22206220030784607,9.804854393005371,-6.500244140625,-1.922607421875,-13.3056640625
1.3474999,0.25258827209472656,-0.2603694200515747,9.897629737854004,5.096435546875,0.701904296875,5.18798828125
1.3524999000000002,0.2950853705406189,-0.18794482946395874,9.758167266845703,0.640869140625,0.396728515625,6.622314453125
1.3574999,0.2759317457675934,-0.2645592987537384,9.8599214553833,-5.828857421875,-2.3193359375,-12.26806640625
1.3624999000000002,0.32022446393966675,-0.2346317619085312,9.839570045471191,7.75146484375,1.678466796875,11.16943359375
1.3674999,0.3818751573562622,-0.19033902883529663,9.725846290588379,-4.7607421875,-0.6103515625,-4.21142578125
1.3724999000000002,0.3124433159828186,-0.27653029561042786,9.893440246582031,-2.227783203125,-0.457763671875,-6.28662109375
1.3774999,0.31842881441116333,-0.20290859043598175,9.80904483795166,7.99560546875,1.739501953125,11.627197265625
1.3824999000000002,0.36332011222839355,-0.21428105235099792,9.749788284301758,-7.110595703125,-1.220703125,-8.941650390625
1.3874999000000001,0.25438392162323,-0.26156654953956604,9.923966407775879,1.3427734375,0.1220703125,-1.0986328125
1.3924999000000002,0.2819172441959381,-0.1759738177061081,9.730634689331055,5.859375,1.15966796875,9.124755859375
1.3974999000000001,0.314238965511322,-0.2346317619085312,9.771934509277344,-8.148193359375,-1.40380859375,-11.474609375
1.4024999000000002,0.22206220030784607,-0.2795230448246002,9.88386344909668,4.5166015625,1.129150390625,4.669189453125
1.4074999000000001,0.27473464608192444,-0.22206220030784607,9.694721221923828,1.617431640625,0.274658203125,3.997802734375
1.4124999,0.333991140127182,-0.2932897210121155,9.832986831665039,-6.591796875,-2.105712890625,-10.833740234375
1.4174999000000001,0.32202014327049255,-0.21188685297966003,9.642647743225098,-3.448486328125,-0.8544921875,-2.38037109375
1.4224999,0.39145198464393616,-0.3100491166114807,9.906009674072266,-2.50244140625,-0.762939453125,-6.134033203125
1.4274999000000002,0.2861070930957794,-0.24181437492370605,9.757569313049316,7.080078125,1.922607421875,10.07080078125
1.4324999,0.36092591285705566,-0.3016694188117981,9.712079048156738,-6.77490234375,-1.312255859375,-7.598876953125
1.4374999000000002,0.365115761756897,-0.3429693877696991,9.94970417022705,2.9296875,0.640869140625,0.946044921875
1.4424999,0.3992331326007843,-0.2735375463962555,9.867103576660156,6.65283203125,1.495361328125,7.99560546875
1.4474999000000002,0.36571431159973145,-0.22685061395168304,9.657012939453125,-2.86865234375,-0.396728515625,-3.326416015625
1.4524999,0.37409400939941406,-0.3423708379268646,9.816825866699219,-2.0751953125,-0.823974609375,-5.889892578125
1.4574999000000002,0.3776853084564209,-0.25737667083740234,9.768342971801758,6.103515625,1.89208984375,10.284423828125
1.4624999,0.3274070918560028,-0.2974795699119568,9.712677955627441,-7.354736328125,-0.8544921875,-9.09423828125
1.4674999000000002,0.3190273642539978,-0.2861070930957794,9.75637149810791,0.91552734375,1.129150390625,5.43212890625
1.4724999,0.25677812099456787,-0.3495534360408783,9.916184425354004,-6.34765625,-1.3427734375,-9.246826171875
1.4774999000000002,0.2519897222518921,-0.3561375141143799,9.929352760314941,9.246826171875,0.885009765625,8.087158203125
1.4824999,0.3166331648826599,-0.26396074891090393,9.722254753112793,-6.28662109375,-0.91552734375,-3.11279296875
1.4874999000000002,0.23403321206569672,-0.3381809890270233,9.980229377746582,-0.54931640625,0.091552734375,-2.86865234375
1.4924999,0.26096799969673157,-0.1975216418504715,9.713874816894531,6.866455078125,0.946044921875,6.8359375
1.4974999000000002,0.2974795699119568,-0.2693476974964142,9.740809440612793,-9.490966796875,-1.556396484375,-9.33837890625
1.5024999,0.2645592987537384,-0.31364041566848755,9.9371337890625,6.2255859375,1.03759765625,5.7373046875
1.5074999000000002,0.2867056429386139,-0.20949265360832214,9.644442558288574,-0.946044921875,-0.3662109375,-0.244140625
1.5124999000000001,0.3172317147254944,-0.3932476341724396,9.952696800231934,-4.69970703125,-0.9765625,-6.8359375
1.5174999000000002,0.3034650683403015,-0.24121582508087158,9.783905029296875,8.48388671875,1.373291015625,8.331298828125
1.5224999000000001,0.29149407148361206,-0.2017114907503128,9.682151794433594,-7.2021484375,-0.9765625,-6.378173828125
1.5274999000000002,0.333991140127182,-0.08080431073904037,9.617507934570312,-0.48828125,0.457763671875,1.617431640625
1.5324999000000001,0.32022446393966675,-0.29867666959762573,9.850942611694336,-5.43212890625,-1.251220703125,-6.195068359375
1.5374999000000003,0.3603273630142212,-0.22744916379451752,9.816226959228516,8.453369140625,0.91552734375,7.904052734375
1.5424999000000001,0.30226796865463257,-0.2783259451389313,9.728240013122559,-8.85009765625,-1.556396484375,-8.270263671875
1.5474999,0.2795230448246002,-0.365115761756897,9.9772367477417,5.859375,0.030517578125,1.556396484375
1.5524999000000002,0.34656068682670593,-0.26096799969673157,9.678560256958008,1.312255859375,0.457763671875,4.69970703125
1.5574999,0.314238965511322,-0.3495534360408783,9.906009674072266,-6.7138671875,-0.732421875,-8.1787109375
1.5624999000000002,0.33339259028434753,-0.284311443567276,9.790489196777344,10.101318359375,1.8310546875,6.805419921875
1.5674999,0.35913026332855225,-0.2861070930957794,9.655815124511719,-9.185791015625,-0.48828125,-4.638671875
1.5724999000000002,0.3381809890270233,-0.39803603291511536,9.99220085144043,3.47900390625,0.54931640625,1.64794921875
1.5774999,0.28072014451026917,-0.27892449498176575,9.625288963317871,2.471923828125,-0.06103515625,2.0751953125
1.5824999000000002,0.304063618183136,-0.45848962664604187,9.928754806518555,-7.26318359375,-1.64794921875,-7.26318359375
1.5874999,0.28969839215278625,-0.2717418968677521,9.968857765197754,5.0048828125,0.274658203125,2.044677734375
1.5924999000000002,0.2603694200515747,-0.06883329898118973,9.61331844329834,-0.457763671875,0.885009765625,1.89208984375
1.5974999,0.23343466222286224,-0.2890998423099518,9.908403396606445,-5.462646484375,-0.67138671875,-4.94384765625
1.6024999000000002,0.26994624733924866,-0.2974795699119568,9.752182006835938,-11.138916015625,-1.5869140625,-8.056640625
1.6074999,0.2968810200691223,-0.28969839215278625,9.9586820602417,9.063720703125,0.48828125,3.143310546875
1.6124999000000002,0.3411737382411957,-0.25019407272338867,9.63067626953125,-2.5634765625,0.213623046875,0.54931640625
1.6174999,0.3447650372982025,-0.3256114423274994,10.013748168945312,-3.41796875,-0.396728515625,-3.84521484375
1.6224999000000002,0.3214215636253357,-0.2555810213088989,9.751583099365234,8.270263671875,1.77001953125,5.55419921875
1.6274999,0.3130418658256531,-0.3495534360408783,9.813234329223633,-10.955810546875,-1.64794921875,-6.256103515625
1.6324999000000002,0.262763649225235,-0.26994624733924866,10.001178741455078,7.537841796875,0.244140625,2.716064453125
1.6374999000000001,0.3166331648826599,-0.22744916379451752,9.610923767089844,-1.64794921875,-0.457763671875,-0.701904296875
1.6424999000000002,0.3495534360408783,-0.3292027413845062,10.00716495513916,-3.60107421875,-1.03759765625,-3.448486328125
1.6474999000000001,0.322618693113327,-0.26815059781074524,9.73542308807373,9.09423828125,1.678466796875,4.7607421875
1.6524999000000002,0.3423708379268646,-0.35434186458587646,9.844358444213867,-11.3525390625,-1.220703125,-4.638671875
1.6574999000000001,0.3944447338581085,-0.3034650683403015,9.955689430236816,10.1318359375,1.40380859375,5.4931640625
1.6624999000000003,0.25498247146606445,-0.2495955228805542,9.769539833068848,9.613037109375,1.739501953125,4.913330078125
1.6674999000000001,0.25498247146606445,-0.2495955228805542,9.769539833068848,9.613037109375,1.739501953125,4.913330078125
1.6724999,0.24480712413787842,-0.28371289372444153,9.813234329223633,-13.458251953125,-1.89208984375,-6.591796875
1.6774999000000002,0.23163901269435883,-0.2777273952960968,9.891644477844238,12.939453125,1.068115234375,4.39453125
1.6824999,0.35434186458587646,-0.3232172429561615,9.989208221435547,4.669189453125,0.3662109375,2.349853515625
1.6874999000000002,0.35434186458587646,-0.3232172429561615,9.989208221435547,4.669189453125,0.3662109375,2.349853515625
1.6924999,0.29807811975479126,-0.23283611238002777,9.601346969604492,-0.579833984375,1.251220703125,-1.3427734375
1.6974999000000002,0.3280056416988373,-0.322618693113327,9.925761222839355,-4.638671875,-1.708984375,-1.373291015625
1.7024999,0.37648820877075195,-0.23403321206569672,9.673771858215332,8.1787109375,1.922607421875,4.08935546875
1.7074999000000002,0.34416648745536804,-0.2867056429386139,9.68574333190918,-12.420654296875,-0.3662109375,-4.150390625
1.7124999,0.3411737382411957,-0.35673606395721436,10.019135475158691,7.32421875,-0.1220703125,3.875732421875
1.7174999000000002,0.2932897210121155,-0.30885201692581177,9.585186958312988,-3.11279296875,-0.579833984375,-3.082275390625
1.7224999,0.3627215623855591,-0.4106055796146393,10.081384658813477,-0.885009765625,-0.79345703125,-0.42724609375
1.7274999000000002,0.2711433470249176,-0.29209262132644653,9.706093788146973,6.40869140625,2.288818359375,1.617431640625
1.7324999,0.24420857429504395,-0.3711012601852417,9.945513725280762,-9.613037109375,-2.410888671875,-2.8076171875
1.7374999000000002,0.3064578175544739,-0.2651578485965729,9.819219589233398,10.92529296875,1.46484375,3.662109375
1.7424999,0.20111294090747833,-0.26755204796791077,9.741408348083496,-12.603759765625,-1.678466796875,-5.859375
1.7474999000000002,0.2693476974964142,-0.2495955228805542,9.924564361572266,14.068603515625,1.0986328125,5.18798828125
1.7524999,0.2669534981250763,-0.2082955539226532,9.613917350769043,-10.406494140625,0.030517578125,-3.753662109375
1.7574999000000002,0.28730419278144836,-0.2651578485965729,10.030508041381836,5.035400390625,-0.213623046875,2.349853515625
1.7624999000000001,0.3232172429561615,-0.18555063009262085,9.668983459472656,7.2021484375,2.50244140625,1.251220703125
1.7674999000000002,0.30466216802597046,-0.3106476664543152,9.896432876586914,-9.735107421875,-1.739501953125,-2.349853515625
1.7724999000000001,0.38067805767059326,-0.22625206410884857,9.736021041870117,11.077880859375,0.946044921875,2.86865234375
1.7774999000000002,0.2717418968677521,-0.29867666959762573,9.725247383117676,-13.275146484375,-1.8310546875,-5.55419921875
1.7824999000000001,0.3208230137825012,-0.25737667083740234,9.835380554199219,14.83154296875,1.3427734375,4.913330078125
1.7874999000000003,0.3034650683403015,-0.30286651849746704,9.619303703308105,-12.0849609375,0.152587890625,-3.662109375
1.7924999000000001,0.33099839091300964,-0.31842881441116333,9.985616683959961,7.4462890625,-0.762939453125,3.0517578125
1.7974999,0.262763649225235,-0.2579752206802368,9.547477722167969,-4.669189453125,-0.244140625,-4.39453125
1.8024999000000002,0.365115761756897,-0.3531447649002075,10.012551307678223,2.3193359375,-1.190185546875,2.8076171875
1.8074999,0.304063618183136,-0.21428105235099792,9.607333183288574,2.13623046875,2.62451171875,-0.67138671875
1.8124999000000002,0.26755204796791077,-0.3196259140968323,9.979032516479492,-5.67626953125,-1.861572265625,-0.640869140625
1.8174999,0.21847090125083923,-0.3429693877696991,9.93593692779541,-10.284423828125,-1.922607421875,-3.143310546875
1.8224999000000002,0.24361002445220947,-0.2849099934101105,9.799467086791992,14.495849609375,2.166748046875,3.96728515625
1.8274999,0.2388216257095337,-0.35673606395721436,9.818621635437012,-14.09912109375,-1.28173828125,-3.23486328125
1.8324999000000002,0.3100491166114807,-0.28131869435310364,9.932944297790527,11.810302734375,0.244140625,2.8076171875
1.8374999,0.2064998894929886,-0.2513911724090576,9.674968719482422,-10.3759765625,-0.701904296875,-5.279541015625
1.8424999000000002,0.3034650683403015,-0.24899697303771973,9.573814392089844,-1.800537109375,1.068115234375,-2.50244140625
1.8474999,0.34177228808403015,-0.28371289372444153,10.059837341308594,-0.79345703125,-0.79345703125,1.739501953125
1.8524999000000002,0.2825157940387726,-0.22206220030784607,9.589975357055664,3.265380859375,1.800537109375,-1.3427734375
1.8574999,0.4082113802433014,-0.25737667083740234,10.035296440124512,-6.34765625,-2.777099609375,-0.640869140625
1.8624999000000002,0.24420857429504395,-0.2621650993824005,9.801861763000488,-13.214111328125,-1.373291015625,-3.90625
1.8674999,0.28790274262428284,-0.2322375625371933,9.815628051757812,15.167236328125,1.220703125,3.448486328125
1.8724999000000002,0.2651578485965729,-0.33039984107017517,9.73542308807373,-13.336181640625,-0.48828125,-2.86865234375
1.8774999,0.3447650372982025,-0.3076549172401428,9.941922187805176,10.07080078125,-0.48828125,2.86865234375
1.8824999000000002,0.24420857429504395,-0.2861070930957794,9.677961349487305,-9.94873046875,-0.54931640625,-5.157470703125
1.8874999000000001,0.3992331326007843,-0.30286651849746704,9.963470458984375,11.3525390625,-0.396728515625,4.57763671875
1.8924999000000002,0.2950853705406189,-0.24839842319488525,9.627084732055664,-9.8876953125,1.251220703125,-3.5400390625
1.8974999000000001,0.345363587141037,-0.2759317457675934,9.95748519897461,6.927490234375,-1.922607421875,2.655029296875
1.9024999000000002,0.32202014327049255,-0.27712884545326233,9.530119895935059,-4.302978515625,1.52587890625,-2.9296875
1.9074999000000001,0.09397241473197937,-1.5310919284820557,9.085396766662598,-2.99072265625,-1.068115234375,5.2490234375
1.9124999000000003,-2.855085611343384,-7.615955829620361,4.279635429382324,295.0439453125,-60.638427734375,432.891845703125
1.9174999000000001,-3.971980571746826,-6.229712963104248,3.156156301498413,209.259033203125,80.01708984375,264.129638671875
1.9224999,-5.227739334106445,-2.8993782997131348,2.601898670196533,177.55126953125,-12.939453125,218.841552734375
1.9274999000000002,-5.249885559082031,0.8978256583213806,1.182137131690979,264.0380859375,-147.03369140625,191.070556640625
1.9324999,-4.167108058929443,3.7445313930511475,0.0035913025494664907,309.051513671875,-212.799072265625,141.78466796875
1.9374999000000002,-2.5438392162323,5.541379928588867,0.19692309200763702,300.384521484375,-242.218017578125,75.958251953125
1.9424999,-0.33279404044151306,7.006631374359131,1.7525556087493896,236.02294921875,-257.6904296875,44.158935546875
1.9474999000000002,2.0452468395233154,7.684788703918457,4.213795185089111,165.46630859375,-272.64404296875,39.12353515625
1.9524999,4.005499362945557,8.082226753234863,6.448183536529541,135.711669921875,-280.792236328125,55.17578125
1.9574999000000002,5.308543682098389,8.71609115600586,8.030152320861816,134.979248046875,-282.562255859375,34.698486328125
1.9624999,6.100425720214844,8.468291282653809,8.504204750061035,115.17333984375,-261.505126953125,-17.02880859375
1.9674999000000002,6.662464618682861,3.8786067962646484,5.762843608856201,67.9931640625,-81.939697265625,27.587890625
1.9724999,6.827664852142334,3.0125043392181396,5.351639270782471,50.201416015625,-37.841796875,26.611328125
1.9774999000000002,6.830657482147217,2.829347848892212,5.152322292327881,52.947998046875,-0.701904296875,30.09033203125
1.9824999,6.733692169189453,2.8401217460632324,5.082291603088379,39.886474609375,17.15087890625,34.423828125
1.9874999000000002,6.703764915466309,3.337517261505127,5.377377033233643,-7.232666015625,10.223388671875,15.045166015625
1.9924999,6.449380874633789,3.9007530212402344,5.881356239318848,-38.787841796875,8.575439453125,-3.7841796875
1.9974999000000002,6.172850608825684,4.622604846954346,6.3302693367004395,-51.3916015625,31.158447265625,-6.683349609375
2.0024999,5.946000099182129,5.081094741821289,6.603806972503662,-64.178466796875,51.422119140625,-18.524169921875
2.0074999,5.526416301727295,5.038597583770752,6.71334171295166,-93.93310546875,59.661865234375,-30.120849609375
2.0124999000000003,5.193023681640625,4.8285064697265625,6.384139060974121,-122.772216796875,69.854736328125,-25.970458984375
2.0174999000000002,4.2975921630859375,4.324526786804199,6.130951881408691,-177.8564453125,124.8779296875,-39.73388671875
2.0224999,4.0330328941345215,4.314949989318848,6.250063419342041,-215.087890625,123.931884765625,-45.928955078125
2.0274999,3.816956043243408,4.472967147827148,6.252457618713379,-225.9521484375,135.6201171875,-44.189453125
2.0324999000000004,3.4153287410736084,4.14915132522583,6.116586685180664,-238.189697265625,159.576416015625,-38.909912109375
2.0374999000000003,3.224989652633667,3.7385458946228027,6.038775444030762,-263.5498046875,174.652099609375,-49.407958984375
2.0424999,2.8844144344329834,3.224989652633667,5.994482517242432,-294.12841796875,176.727294921875,-54.931640625
2.0474999,2.7240030765533447,2.741360902786255,5.899312973022461,-324.798583984375,185.791015625,-46.32568359375
2.0524999,2.5480291843414307,2.096123695373535,6.603208065032959,-324.64599609375,216.6748046875,-50.10986328125
2.0574999000000003,3.292027235031128,0.7134721279144287,8.465897560119629,-240.142822265625,327.880859375,-49.591064453125
2.0624999,3.4410665035247803,-2.078166961669922,11.32577133178711,-4.57763671875,459.381103515625,-57.18994140625
2.0674999,1.4598644971847534,-8.349180221557617,15.89929485321045,-7.476806640625,91.339111328125,-62.408447265625
2.0724999,-1.003769040107727,-9.876082420349121,14.906299591064453,5.92041015625,74.188232421875,-64.697265625
2.0774999000000003,-3.202244758605957,-9.132083892822266,11.397597312927246,3.997802734375,41.107177734375,-75.897216796875
2.0824999,-4.831499099731445,-4.660313606262207,3.112462282180786,12.603759765625,-14.46533203125,-84.53369140625
2.0874999,-4.822520732879639,-2.741959571838379,1.3443442583084106,44.647216796875,0.701904296875,-93.963623046875
2.0924999,-4.99669885635376,-1.678335428237915,1.9931728839874268,50.750732421875,33.8134765625,-76.84326171875
2.0974999000000003,-5.197213172912598,-1.4443022012710571,5.079298973083496,55.0537109375,34.637451171875,-42.48046875
2.1024999,-5.496488571166992,-1.4778209924697876,9.1260986328125,49.163818359375,0.06103515625,-31.982421875
2.1074999,-5.3360772132873535,-1.4939818382263184,12.38221263885498,6.927490234375,-31.707763671875,-24.261474609375
2.1124999,-4.873397350311279,-1.2000936269760132,13.831303596496582,-5.584716796875,-54.168701171875,-2.38037109375
2.1174999000000003,-3.8073792457580566,-0.5482721924781799,13.037026405334473,8.453369140625,-66.070556640625,17.63916015625
2.1224999,-1.4425065517425537,0.6254851818084717,9.3643217086792,-23.895263671875,-69.915771484375,9.735107421875
2.1274999,-0.4183867573738098,0.8565256595611572,8.877100944519043,-18.5546875,-69.39697265625,20.477294921875
2.1324999,0.46806642413139343,1.0283095836639404,9.229647636413574,-7.415771484375,-63.53759765625,15.7470703125
2.1374999000000003,1.2575544118881226,0.8200140595436096,10.204087257385254,-27.862548828125,-56.365966796875,-1.861572265625
2.1424999000000002,1.7836803197860718,0.49978959560394287,11.076175689697266,-17.2119140625,-55.938720703125,1.28173828125
2.1474999,2.1978771686553955,-0.12629413604736328,11.261726379394531,3.448486328125,-47.79052734375,10.589599609375
2.1524999,2.233790159225464,-0.7553706169128418,10.715250015258789,-1.556396484375,-36.773681640625,-0.54931640625
2.1574999000000004,2.27209734916687,-1.3521254062652588,10.034697532653809,-5.92041015625,-27.069091796875,-5.43212890625
2.1624999000000003,2.167351007461548,-1.6202759742736816,9.59596061706543,13.12255859375,-14.068603515625,4.0283203125
2.1674999,2.1535844802856445,-1.3940238952636719,9.221866607666016,11.1083984375,-2.99072265625,1.739501953125
2.1724999,2.2158336639404297,-0.9744400978088379,9.237428665161133,-8.575439453125,7.049560546875,-13.12255859375
2.1774999000000004,2.1272482872009277,-0.43993455171585083,9.306262016296387,3.23486328125,20.69091796875,-4.608154296875
2.1824999000000003,1.5807716846466064,0.3124433159828186,9.596558570861816,-5.859375,41.259765625,-5.462646484375
2.1874999,1.1593921184539795,0.18375498056411743,9.838373184204102,6.9580078125,42.694091796875,7.537841796875
2.1924999,0.5991489887237549,-0.0454898327589035,9.885659217834473,2.01416015625,37.750244140625,-3.0517578125
2.1974999,0.15502455830574036,-0.38067805767059326,10.04846477508545,-6.011962890625,31.55517578125,-10.528564453125
2.2024999000000003,-0.5129576921463013,-0.628477931022644,10.20528507232666,10.406494140625,21.636962890625,4.2724609375
2.2074999,-0.9343371987342834,-0.7445967197418213,10.038289070129395,10.25390625,9.27734375,2.288818359375
2.2124999,-1.2258312702178955,-0.7194576263427734,9.912593841552734,-4.57763671875,1.0986328125,-10.986328125
2.2174999,-1.4197616577148438,-0.5919663906097412,9.803657531738281,4.33349609375,-8.85009765625,4.364013671875
2.2224999000000003,-1.1887211799621582,-0.243011474609375,9.652822494506836,3.631591796875,-15.80810546875,8.087158203125
2.2274999,-0.9074024558067322,-0.058059390634298325,9.625887870788574,-11.1083984375,-19.866943359375,-10.68115234375
2.2324999,-0.46567222476005554,0.09277531504631042,9.792284965515137,-6.04248046875,-19.6533203125,1.77001953125
2.2374999,0.8403648138046265,-0.38905778527259827,9.839570045471191,-6.805419921875,-13.031005859375,-4.486083984375
2.2424999000000003,1.0582371950149536,-0.5644330382347107,9.849745750427246,7.01904296875,-7.476806640625,10.955810546875
2.2474999,1.1408370733261108,-0.6248866319656372,9.66958236694336,0.18310546875,-3.570556640625,-3.570556640625
2.2524999,1.2473790645599365,-0.6997054219245911,9.724648475646973,-4.94384765625,1.0986328125,-9.185791015625
2.2574999,1.0678139925003052,-0.5979518890380859,9.84256362915039,8.819580078125,6.011962890625,8.514404296875
2.2624999000000003,0.9929951429367065,-0.4626794755458832,9.733627319335938,1.495361328125,7.080078125,-0.3662109375
2.2674999000000002,0.8804676532745361,-0.3968389332294464,9.880271911621094,-7.293701171875,9.70458984375,-11.16943359375
2.2724999,0.6236895322799683,-0.27054479718208313,9.891045570373535,8.087158203125,10.68115234375,7.354736328125
2.2774999,0.5428852438926697,-0.1885433793067932,9.77133560180664,1.373291015625,8.23974609375,2.0751953125
2.2824999000000004,0.37469255924224854,-0.24361002445220947,9.776124000549316,-7.415771484375,7.171630859375,-12.481689453125
2.2874999000000003,0.12928688526153564,-0.2950853705406189,9.834781646728516,8.1787109375,5.126953125,6.561279296875
2.2924999,-0.08559270948171616,-0.38965633511543274,9.897629737854004,7.32421875,-1.953125,6.8359375
2.2974999,-0.010773907415568829,-0.32620999217033386,9.836577415466309,0.1220703125,-5.035400390625,5.92041015625
2.3024999000000004,-0.010773907415568829,-0.32620999217033386,9.836577415466309,0.1220703125,-5.035400390625,5.92041015625
2.3074999000000003,-0.016160860657691956,-0.3645172119140625,9.890447616577148,-8.544921875,-4.852294921875,-12.237548828125
2.3124999,0.17537526786327362,-0.3363853394985199,9.943717956542969,5.096435546875,-4.364013671875,6.16455078125
2.3174999,0.2974795699119568,-0.2819172441959381,9.847949981689453,0.885009765625,-5.79833984375,6.683349609375
2.3224999,0.6422445774078369,-0.31184476613998413,9.712079048156738,1.953125,-1.129150390625,4.5166015625
2.3274999000000003,0.6422445774078369,-0.31184476613998413,9.712079048156738,1.953125,-1.129150390625,4.5166015625
2.3324999,0.657806932926178,-0.3878606855869293,9.731232643127441,-7.049560546875,1.15966796875,-10.68115234375
2.3374999,0.67815762758255,-0.3693056106567383,9.913191795349121,6.28662109375,2.655029296875,6.378173828125
2.3424999,0.5536591410636902,-0.40282443165779114,9.82879638671875,-7.720947265625,3.570556640625,-10.25390625
2.3474999000000003,0.5057750940322876,-0.3794809579849243,9.942521095275879,6.683349609375,3.814697265625,7.171630859375
2.3524999,0.37409400939941406,-0.3387795388698578,9.75278091430664,1.77001953125,1.8310546875,0.30517578125
2.3574999,0.383670836687088,-0.3992331326007843,9.767744064331055,-7.659912109375,2.655029296875,-9.429931640625
2.3624999,0.3016694188117981,-0.3585317134857178,9.903017044067383,7.568359375,1.64794921875,9.124755859375
2.3674999000000003,0.20350714027881622,-0.29209262132644653,9.665990829467773,0.06103515625,-1.190185546875,-1.556396484375
2.3724999,0.2537853717803955,-0.375291109085083,9.841964721679688,-7.415771484375,-0.244140625,-9.09423828125
2.3774999,0.19931729137897491,-0.3124433159828186,9.926959037780762,8.1787109375,-1.556396484375,9.82666015625
2.3824999,0.18495208024978638,-0.3034650683403015,9.723451614379883,-3.35693359375,-3.570556640625,-3.082275390625
2.3874999000000003,0.3315969407558441,-0.3794809579849243,9.915586471557617,-5.218505859375,-1.03759765625,-5.92041015625
2.3924999000000002,0.25079262256622314,-0.32022446393966675,9.864110946655273,9.857177734375,-2.166748046875,10.772705078125
2.3974999,0.39803603291511536,-0.33518823981285095,9.64923095703125,-7.50732421875,-2.38037109375,-6.072998046875
2.4024999,0.42676645517349243,-0.3429693877696991,9.712677955627441,9.857177734375,-0.640869140625,9.552001953125
2.4074999000000004,0.5476736426353455,-0.3663128614425659,9.676166534423828,-10.19287109375,0.42724609375,-7.14111328125
2.4124999000000003,0.524330198764801,-0.4118026793003082,9.926959037780762,3.143310546875,2.227783203125,0.518798828125
2.4174999,0.49799394607543945,-0.27473464608192444,9.73781681060791,6.805419921875,0.152587890625,4.33349609375
2.4224999,0.5530605912208557,-0.37828385829925537,9.818022727966309,-11.199951171875,2.197265625,-9.368896484375
2.4274999000000004,0.3860650360584259,-0.3693056106567383,9.95329475402832,7.720947265625,2.9296875,6.378173828125
2.4324999000000003,0.3902548849582672,-0.3477577865123749,9.782708168029785,1.434326171875,0.030517578125,0.1220703125
2.4374999,0.3627215623855591,-0.4159925580024719,9.874884605407715,-9.09423828125,1.678466796875,-8.97216796875
2.4424999,0.25737667083740234,-0.3669114112854004,9.893440246582031,12.451171875,0.457763671875,9.490966796875
2.4474999,0.33937808871269226,-0.2992752194404602,9.639056205749512,-6.34765625,-1.64794921875,-2.8076171875
2.4524999000000003,0.2819172441959381,-0.33937808871269226,9.831789016723633,-2.716064453125,0.457763671875,-4.82177734375
2.4574999,0.26994624733924866,-0.2537853717803955,9.727641105651855,10.467529296875,-1.373291015625,8.97216796875
2.4624999,0.3064578175544739,-0.37169981002807617,9.97065258026123,4.45556640625,-0.54931640625,1.068115234375
2.4674999,0.3064578175544739,-0.37169981002807617,9.97065258026123,4.45556640625,-0.54931640625,1.068115234375
2.4724999000000003,0.37469255924224854,-0.32860419154167175,9.749788284301758,4.730224609375,-2.13623046875,3.35693359375
2.4774999,0.4465186297893524,-0.4321534037590027,9.852140426635742,-11.444091796875,-0.152587890625,-8.331298828125
2.4824999,0.4985924959182739,-0.40282443165779114,9.893440246582031,-4.302978515625,1.678466796875,-5.9814453125
2.4874999,0.4471171796321869,-0.30226796865463257,9.782109260559082,11.993408203125,0.762939453125,8.209228515625
2.4924999000000003,0.4920084476470947,-0.3321954905986786,9.756970405578613,-12.5732421875,0.54931640625,-5.950927734375
2.4974999,0.34596213698387146,-0.37229835987091064,9.945513725280762,5.401611328125,1.52587890625,1.64794921875
2.5024999,0.41718965768814087,-0.3190273642539978,9.720458984375,4.0283203125,-0.48828125,1.52587890625
2.5074999,0.3357867896556854,-0.39205053448677063,9.855133056640625,-10.80322265625,0.8544921875,-7.965087890625
2.5124999000000003,0.32202014327049255,-0.3315969407558441,9.871294021606445,13.702392578125,0.6103515625,8.1787109375
2.5174999000000002,0.28790274262428284,-0.3429693877696991,9.987412452697754,-1.15966796875,0.48828125,-2.471923828125
2.5224999,0.2932897210121155,-0.2932897210121155,9.774328231811523,9.33837890625,-1.068115234375,6.317138671875
2.5274999,0.3357867896556854,-0.35733461380004883,9.856928825378418,-13.946533203125,-0.946044921875,-7.415771484375
2.5324999000000004,0.30226796865463257,-0.37469255924224854,9.945513725280762,10.3759765625,-0.396728515625,4.21142578125
2.5374999000000003,0.42437225580215454,-0.3130418658256531,9.657610893249512,-3.35693359375,-1.007080078125,-1.556396484375
2.5424999,0.414795458316803,-0.32860419154167175,9.912593841552734,-4.57763671875,0.91552734375,-2.5634765625
2.5474999,0.4405331015586853,-0.29628247022628784,9.746196746826172,12.481689453125,-0.091552734375,7.32421875
2.5524999000000004,0.4842272996902466,-0.2968810200691223,9.741408348083496,-14.495849609375,-0.030517578125,-7.843017578125
2.5574999000000003,0.4076128304004669,-0.4016273319721222,9.944316864013672,7.9345703125,0.6103515625,2.593994140625
2.5624999,0.4183867573738098,-0.5027823448181152,9.941922187805176,-7.26318359375,1.068115234375,-4.730224609375
2.5674999,0.36571431159973145,-0.37169981002807617,9.81263542175293,14.312744140625,0.91552734375,5.859375
2.5724999,0.4058171808719635,-0.3321954905986786,9.700706481933594,-13.885498046875,0.396728515625,-5.950927734375
2.5774999000000003,0.3429693877696991,-0.3471592366695404,9.986215591430664,6.439208984375,1.220703125,2.62451171875
2.5824999,0.333991140127182,-0.25677812099456787,9.648633003234863,1.3427734375,-0.67138671875,0.42724609375
2.5874999,0.3770867586135864,-0.4189853072166443,9.932345390319824,-8.453369140625,0.213623046875,-3.96728515625
2.5924999,0.3130418658256531,-0.3100491166114807,9.850942611694336,14.862060546875,-0.213623046875,5.79833984375
2.5974999000000003,0.36571431159973145,-0.3148375153541565,9.677363395690918,-14.09912109375,-0.640869140625,-5.584716796875
2.6024999,0.37648820877075195,-0.3489548861980438,9.967659950256348,7.232666015625,-0.396728515625,2.74658203125
2.6074999,0.32441434264183044,-0.26336219906806946,9.620500564575195,-0.42724609375,-1.3427734375,-0.885009765625
2.6124999,0.40521863102912903,-0.3998316824436188,9.953893661499023,-6.7138671875,-0.152587890625,-2.410888671875
2.6174999000000003,0.333991140127182,-0.30047231912612915,9.818621635437012,13.916015625,-0.244140625,4.45556640625
2.6224999,0.41718965768814087,-0.36092591285705566,9.702502250671387,-14.617919921875,0.030517578125,-5.615234375
2.6274999,0.44532153010368347,-0.345363587141037,9.934141159057617,9.21630859375,0.54931640625,4.2724609375
2.6324999,0.42676645517349243,-0.38307225704193115,9.786299705505371,-14.068603515625,0.701904296875,-3.96728515625
2.6374999000000003,0.3818751573562622,-0.35673606395721436,9.9000244140625,11.932373046875,0.244140625,4.730224609375
2.6424999000000002,0.33698388934135437,-0.34356793761253357,9.585186958312988,-8.72802734375,-0.3662109375,-5.859375
2.6474999,0.4040215313434601,-0.3800795078277588,9.963470458984375,5.31005859375,1.007080078125,2.777099609375
2.6524999,0.33279404044151306,-0.27892449498176575,9.673172950744629,3.0517578125,-0.18310546875,0.213623046875
2.6574999000000004,0.37888240814208984,-0.3734954595565796,9.853935241699219,-9.70458984375,-0.48828125,-2.227783203125
2.6624999000000003,0.38546648621559143,-0.2950853705406189,9.813833236694336,11.749267578125,-0.762939453125,3.448486328125
2.6674999,0.3232172429561615,-0.3381809890270233,9.68155288696289,-12.3291015625,-0.152587890625,-5.645751953125
2.6724999,0.4387374520301819,-0.3818751573562622,9.977835655212402,12.0849609375,0.18310546875,5.37109375
2.6774999000000004,0.36750996112823486,-0.31842881441116333,9.706093788146973,-8.48388671875,-0.335693359375,-4.180908203125
2.6824999000000003,0.3687070608139038,-0.3381809890270233,9.837176322937012,-10.040283203125,0.732421875,-2.50244140625
2.6874999,0.4465186297893524,-0.3172317147254944,9.809642791748047,12.725830078125,0.18310546875,4.638671875
2.6924999,0.37169981002807617,-0.3058592677116394,9.679757118225098,-15.228271484375,0.213623046875,-6.805419921875
2.6974999,0.40462008118629456,-0.34835633635520935,9.954492568969727,13.671875,0.18310546875,3.96728515625
2.7024999000000003,0.3998316824436188,-0.3010708689689636,9.624092102050781,-7.171630859375,0.54931640625,-2.8076171875
2.7074999,0.36750996112823486,-0.3998316824436188,10.010157585144043,0.579833984375,0.244140625,1.678466796875
2.7124999,0.3800795078277588,-0.35015198588371277,9.667187690734863,4.486083984375,-0.732421875,0.030517578125
2.7174999,0.3429693877696991,-0.4165911078453064,9.956886291503906,-9.09423828125,0.6103515625,-3.021240234375
2.7224999000000003,0.3627215623855591,-0.375291109085083,9.75936508178711,-17.51708984375,0.030517578125,-4.57763671875
2.7274999,0.3082534670829773,-0.33937808871269226,9.923966407775879,14.251708984375,-1.007080078125,3.173828125
2.7324999,0.3645172119140625,-0.353743314743042,9.619902610778809,-0.1220703125,-0.823974609375,-2.838134765625
2.7374999,0.49559974670410156,-0.38486793637275696,9.990405082702637,-5.615234375,0.274658203125,-0.30517578125
2.7424999000000003,0.3878606855869293,-0.3405751883983612,9.716269493103027,12.63427734375,0.3662109375,0.91552734375
2.7474999,0.44592007994651794,-0.39384618401527405,9.781511306762695,-14.556884765625,0.640869140625,-1.953125
2.7524999,0.43095630407333374,-0.31543606519699097,9.813833236694336,13.00048828125,-0.213623046875,2.044677734375
2.7574999,0.3818751573562622,-0.4165911078453064,9.627683639526367,-11.993408203125,0.54931640625,-3.72314453125
2.7624999000000003,0.4513070285320282,-0.3932476341724396,9.973047256469727,12.02392578125,0.1220703125,4.791259765625
2.7674999000000002,0.33339259028434753,-0.3974374830722809,9.59596061706543,-9.8876953125,0.06103515625,-5.43212890625
2.7724999,0.43694180250167847,-0.37828385829925537,9.982025146484375,6.072998046875,0.152587890625,3.082275390625
2.7774999,0.3471592366695404,-0.30705636739730835,9.62947940826416,-0.152587890625,0.67138671875,-1.953125
2.7824999000000004,0.3902548849582672,-0.2711433470249176,9.910798072814941,-4.5166015625,-0.18310546875,1.46484375
2.7874999000000003,0.4213795065879822,-0.27892449498176575,9.747992515563965,13.18359375,-0.244140625,3.11279296875
2.7924999,0.3513490855693817,-0.31124621629714966,9.701904296875,-16.204833984375,-0.30517578125,-4.608154296875
2.7974999,0.39564183354377747,-0.3100491166114807,9.809642791748047,17.425537109375,-0.91552734375,2.9296875
2.8024999000000004,0.4165911078453064,-0.34835633635520935,9.66299819946289,-14.251708984375,0.701904296875,-2.38037109375
2.8074999000000003,0.4183867573738098,-0.32680854201316833,9.979032516479492,9.613037109375,-0.3662109375,3.23486328125
2.8124999,0.4387374520301819,-0.406415730714798,9.673172950744629,-7.32421875,0.335693359375,-4.5166015625
2.8174999,0.45908817648887634,-0.3776853084564209,10.06043529510498,4.791259765625,0,3.082275390625
2.8224999,0.3621230125427246,-0.3944447338581085,9.622296333312988,-1.251220703125,-0.3662109375,-2.8076171875
2.8274999000000003,0.4704606235027313,-0.3974374830722809,9.989806175231934,-1.89208984375,0.244140625,1.373291015625
2.8324999,0.322618693113327,-0.3561375141143799,9.667187690734863,7.568359375,0.91552734375,-1.800537109375
2.8374999,0.4279635548591614,-0.32441434264183044,9.911396026611328,-9.735107421875,0,1.28173828125
2.8424999,0.3280056416988373,-0.2992752194404602,9.852738380432129,-9.918212890625,0.274658203125,-0.8544921875
2.8474999000000003,0.41120412945747375,-0.29149407148361206,9.819818496704102,10.467529296875,-0.701904296875,2.3193359375
2.8524999,0.2950853705406189,-0.3597288131713867,9.743204116821289,-12.5732421875,0.030517578125,-4.39453125
2.8574999,0.4189853072166443,-0.3519476354122162,9.837176322937012,16.326904296875,-0.244140625,3.265380859375
2.8624999,0.35015198588371277,-0.3926490843296051,9.665990829467773,-15.869140625,0.396728515625,-2.74658203125
2.8674999000000003,0.3992331326007843,-0.3208230137825012,9.90122127532959,13.641357421875,-0.91552734375,2.74658203125
2.8724999,0.3998316824436188,-0.38067805767059326,9.676166534423828,-10.8642578125,0.91552734375,-3.753662109375
2.8774999,0.38127660751342773,-0.29867666959762573,10.005369186401367,7.537841796875,-0.48828125,3.204345703125
2.8824999,0.36332011222839355,-0.27892449498176575,9.861717224121094,-4.638671875,-0.3662109375,2.0751953125
2.8874999000000003,0.39564183354377747,-0.31603461503982544,9.697115898132324,4.82177734375,-0.3662109375,-0.54931640625
2.8924999000000002,0.34656068682670593,-0.3974374830722809,9.950302124023438,-6.65283203125,0.3662109375,-1.190185546875
2.8974999,0.39145198464393616,-0.40222588181495667,9.730634689331055,10.162353515625,-0.274658203125,-0.762939453125
2.9024999,0.414795458316803,-0.4429273009300232,9.95748519897461,-12.176513671875,0.18310546875,0.18310546875
2.9074999000000004,0.3770867586135864,-0.38905778527259827,9.755773544311523,14.556884765625,-0.213623046875,1.617431640625
2.9124999000000003,0.4554968774318695,-0.37828385829925537,9.880870819091797,-14.58740234375,0.1220703125,-0.79345703125
2.9174999,0.36092591285705566,-0.3345896899700165,9.836577415466309,12.054443359375,-0.732421875,-1.678466796875
2.9224999,0.395043283700943,-0.38965633511543274,9.79288387298584,-11.16943359375,0.946044921875,-0.42724609375
2.9274999000000004,0.3842693865299225,-0.30945056676864624,9.824606895446777,10.498046875,-0.732421875,2.197265625
2.9324999000000003,0.44532153010368347,-0.3214215636253357,9.818022727966309,12.20703125,-0.42724609375,0.67138671875
2.9374999,0.32860419154167175,-0.37169981002807617,9.738415718078613,-12.75634765625,0.48828125,-3.143310546875
2.9424999,0.4513070285320282,-0.3124433159828186,9.859322547912598,15.045166015625,-0.152587890625,3.936767578125
2.9474999,0.4513070285320282,-0.3124433159828186,9.859322547912598,15.045166015625,-0.152587890625,3.936767578125
2.9524999000000003,0.34596213698387146,-0.32202014327049255,9.743802070617676,-14.6484375,0.91552734375,-2.3193359375
2.9574999,0.395043283700943,-0.25977087020874023,9.86111831665039,12.939453125,-0.9765625,0.244140625
2.9624999,0.3579331636428833,-0.31184476613998413,9.90241813659668,11.016845703125,-1.220703125,2.685546875
2.9674999,0.3579331636428833,-0.31184476613998413,9.90241813659668,11.016845703125,-1.220703125,2.685546875
2.9724999000000003,0.37229835987091064,-0.4489128291606903,9.694721221923828,-9.8876953125,0.335693359375,-1.739501953125
2.9774999,0.3968389332294464,-0.3585317134857178,9.886856079101562,9.70458984375,-0.762939453125,1.3427734375
2.9824999,0.3315969407558441,-0.47165772318840027,9.668384552001953,-10.43701171875,0.518798828125,-3.7841796875
2.9874999,0.4554968774318695,-0.3519476354122162,9.921571731567383,12.115478515625,-0.030517578125,3.23486328125
2.9924999000000003,0.4429273009300232,-0.2825157940387726,9.934141159057617,12.20703125,-0.42724609375,2.899169921875
2.9974999,0.4429273009300232,-0.2825157940387726,9.934141159057617,12.20703125,-0.42724609375,2.899169921875
3.0024999,0.34416648745536804,-0.33518823981285095,9.728240013122559,-12.3291015625,1.861572265625,-3.265380859375
3.0074999,0.3770867586135864,-0.22505496442317963,9.870695114135742,11.16943359375,-1.373291015625,0.823974609375
3.0124999000000003,0.37469255924224854,-0.38307225704193115,9.70429801940918,-10.68115234375,0.885009765625,-2.25830078125
3.0174999000000002,0.3579331636428833,-0.31184476613998413,9.897629737854004,10.7421875,-1.007080078125,2.685546875
3.0224999,0.36990416049957275,-0.4776432514190674,9.701904296875,-9.368896484375,0.30517578125,-1.77001953125
3.0274999,0.41359832882881165,-0.3214215636253357,9.874884605407715,9.552001953125,-0.79345703125,0.579833984375
3.0324999000000004,0.34835633635520935,-0.4812345504760742,9.688735961914062,-10.1318359375,0.457763671875,-2.716064453125
3.0374999000000003,0.47824180126190186,-0.2968810200691223,9.871891975402832,11.505126953125,0.274658203125,3.448486328125
3.0424999,0.3603273630142212,-0.3770867586135864,9.734824180603027,-12.481689453125,0.396728515625,-2.62451171875
3.0474999,0.43275195360183716,-0.30526071786880493,9.874884605407715,12.786865234375,-0.79345703125,1.708984375
3.0524999000000004,0.3627215623855591,-0.3429693877696991,9.813234329223633,-13.671875,1.251220703125,-2.044677734375
3.0574999000000003,0.3274070918560028,-0.35673606395721436,9.880870819091797,10.955810546875,-1.0986328125,0.6103515625
3.0624999,0.38067805767059326,-0.42437225580215454,9.802460670471191,-9.490966796875,0.30517578125,-0.6103515625
3.0674999,0.3818751573562622,-0.29628247022628784,9.822212219238281,8.36181640625,-0.30517578125,-0.274658203125
3.0724999000000004,0.39863458275794983,-0.3776853084564209,9.840168952941895,-8.11767578125,0.640869140625,-0.091552734375
3.0774999000000003,0.47165772318840027,-0.2669534981250763,9.79408073425293,7.62939453125,0.30517578125,-0.244140625
3.0824999,0.39564183354377747,-0.35015198588371277,9.874884605407715,-8.575439453125,0.48828125,-0.54931640625
3.0874999,0.4159925580024719,-0.3148375153541565,9.73542308807373,10.009765625,-0.3662109375,0.48828125
3.0924999,0.4058171808719635,-0.3208230137825012,9.856329917907715,-10.162353515625,0.18310546875,0.274658203125
3.0974999000000003,0.333991140127182,-0.27892449498176575,9.661202430725098,9.796142578125,-0.48828125,-1.617431640625
3.1024999,0.43694180250167847,-0.30945056676864624,9.882665634155273,-8.697509765625,0.335693359375,1.708984375
3.1074999,0.38127660751342773,-0.314238965511322,9.908403396606445,0.579833984375,-0.457763671875,2.288818359375
3.1124999,0.3974374830722809,-0.3728969097137451,9.733028411865234,-1.861572265625,0.152587890625,-2.685546875
3.1174999000000003,0.3902548849582672,-0.3124433159828186,9.990405082702637,3.2958984375,0,2.5634765625
3.1224999,0.44352585077285767,-0.3705027103424072,9.97364616394043,7.659912109375,0.1220703125,2.74658203125
3.1274999,0.3166331648826599,-0.4273650050163269,9.668384552001953,-8.60595703125,0.518798828125,-2.471923828125
3.1324999,0.41359832882881165,-0.3100491166114807,9.891644477844238,9.3994140625,-0.640869140625,1.8310546875
3.1374999000000003,0.3166331648826599,-0.3513490855693817,9.7605619430542,-10.650634765625,0.8544921875,-2.471923828125
3.1424999000000002,0.3824737071990967,-0.3513490855693817,9.85034465789795,-10.07080078125,1.03759765625,-0.335693359375
3.1474999,0.3106476664543152,-0.33279404044151306,9.804255485534668,10.31494140625,-0.91552734375,-0.6103515625
3.1524999,0.47884035110473633,-0.38486793637275696,9.88506031036377,-8.331298828125,0.762939453125,1.220703125
3.1574999000000004,0.3597288131713867,-0.3315969407558441,9.746196746826172,6.134033203125,0.091552734375,-2.471923828125
3.1624999000000003,0.44592007994651794,-0.3794809579849243,9.821614265441895,-4.150390625,0.091552734375,2.105712890625
3.1674999,0.3531447649002075,-0.3603273630142212,9.683348655700684,1.556396484375,-0.091552734375,-2.62451171875
3.1724999,0.3728969097137451,-0.33039984107017517,9.813833236694336,0.79345703125,-0.091552734375,2.532958984375
3.1774999000000004,0.3902548849582672,-0.3842693865299225,9.656414031982422,-2.62451171875,0.213623046875,-3.082275390625
3.1824999000000003,0.39564183354377747,-0.2974795699119568,9.898228645324707,4.7607421875,-0.457763671875,2.0751953125
3.1874999,0.4040215313434601,-0.4165911078453064,9.707889556884766,-5.523681640625,0.244140625,-2.166748046875
3.1924999,0.4100070297718048,-0.3405751883983612,9.919178009033203,7.01904296875,-0.48828125,1.312255859375
3.1974999000000004,0.36332011222839355,-0.45190557837486267,9.707889556884766,-7.8125,0.274658203125,-1.708984375
3.2024999000000003,0.39863458275794983,-0.3531447649002075,9.792284965515137,-6.591796875,0,-0.213623046875
3.2074999,0.3926490843296051,-0.26156654953956604,9.727043151855469,4.8828125,-0.30517578125,-1.77001953125
3.2124999,0.35075053572654724,-0.2172738015651703,9.891644477844238,-3.47900390625,0.18310546875,1.373291015625
3.2174999,0.3429693877696991,-0.2645592987537384,9.673771858215332,0.8544921875,0.06103515625,-1.5869140625
3.2224999000000003,0.353743314743042,-0.30945056676864624,10.052654266357422,1.40380859375,-0.274658203125,1.220703125
3.2274999,0.3447650372982025,-0.37828385829925537,9.743802070617676,-3.41796875,0.06103515625,-2.166748046875
3.2324999,0.4225766062736511,-0.29628247022628784,9.975440979003906,5.43212890625,0.030517578125,1.77001953125
3.2374999,0.36990416049957275,-0.39863458275794983,9.750985145568848,-6.34765625,0.18310546875,-1.64794921875
3.2424999000000003,0.4423287510871887,-0.3076549172401428,9.836577415466309,6.8359375,0.274658203125,0.732421875
3.2474999,0.3860650360584259,-0.3705027103424072,9.830592155456543,-6.988525390625,0.457763671875,-0.762939453125
3.2524999,0.3974374830722809,-0.3274070918560028,9.948506355285645,-4.2724609375,0.244140625,0.457763671875
3.2574999,0.3734954595565796,-0.31364041566848755,9.674370765686035,1.983642578125,-0.091552734375,-1.52587890625
3.2624999000000003,0.3932476341724396,-0.32202014327049255,10.003573417663574,0.67138671875,0.030517578125,1.556396484375
3.2674999000000002,0.3471592366695404,-0.36092591285705566,9.671976089477539,-2.86865234375,-0.091552734375,-2.13623046875
3.2724999,0.40701428055763245,-0.292691171169281,9.906009674072266,4.638671875,-0.396728515625,1.312255859375
3.2774999,0.33518823981285095,-0.38726213574409485,9.707290649414062,-6.134033203125,0.274658203125,-1.556396484375
3.2824999000000004,0.4040215313434601,-0.33698388934135437,9.803058624267578,6.744384765625,0,0.946044921875
3.2874999000000003,0.34177228808403015,-0.39205053448677063,9.781511306762695,-6.2255859375,0.3662109375,-0.457763671875
3.2924999,0.3902548849582672,-0.3734954595565796,9.731232643127441,5.035400390625,-0.06103515625,-0.885009765625
3.2974999,0.5129576921463013,-0.43754035234451294,9.822212219238281,-3.814697265625,0.91552734375,-0.54931640625
3.3024999000000004,1.0989385843276978,-1.3772644996643066,9.582193374633789,4.69970703125,6.2255859375,-18.096923828125
3.3074999000000003,2.3116016387939453,-2.6180596351623535,9.638457298278809,41.015625,27.435302734375,-65.36865234375
3.3124999,6.233902454376221,-7.123348712921143,9.827000617980957,51.26953125,31.494140625,-227.142333984375
3.3174999,5.881356239318848,-5.777807235717773,8.99621295928955,18.585205078125,20.81298828125,-195.61767578125
3.3224999000000004,3.929483652114868,-3.1705214977264404,8.784924507141113,-28.1982421875,-1.708984375,-181.854248046875
3.3274999000000003,1.647210717201233,0.30945056676864624,7.371747016906738,-77.362060546875,-33.935546875,-114.74609375
3.3324999,-0.6931213736534119,3.2758665084838867,5.857414245605469,-137.054443359375,-56.09130859375,-65.216064453125
3.3374999,-2.5438392162323,5.816712856292725,5.122992992401123,-77.0263671875,-48.88916015625,-13.153076171875
3.3424999,-4.274847030639648,7.316680431365967,5.682637691497803,46.7529296875,9.979248046875,17.730712890625
3.3474999000000003,-5.184643745422363,8.60775375366211,8.054094314575195,126.983642578125,56.0302734375,34.423828125
3.3524999,-5.767033576965332,8.992621421813965,10.533888816833496,61.614990234375,51.6357421875,8.331298828125
3.3574999,-5.378573894500732,8.71728801727295,12.546215057373047,-27.16064453125,-2.899169921875,16.082763671875
3.3624999,-1.2132617235183716,1.0199298858642578,7.860762596130371,-25.360107421875,-34.85107421875,48.919677734375
3.3674999000000003,-0.3818751573562622,-0.6667851805686951,8.999804496765137,-26.336669921875,-24.139404296875,30.426025390625
3.3724999,0.4572925269603729,-1.922544002532959,10.565611839294434,-18.951416015625,-27.77099609375,21.453857421875
3.3774999,1.2012907266616821,-2.6144683361053467,11.264120101928711,-13.946533203125,-35.247802734375,6.77490234375
3.3824999,1.8160020112991333,-2.9885623455047607,11.209053993225098,-23.13232421875,-37.78076171875,11.23046875
3.3874999000000003,1.9596540927886963,-2.9975404739379883,10.23880386352539,1.40380859375,-31.67724609375,7.87353515625
3.3924999000000002,2.1110873222351074,-2.9107506275177,9.207501411437988,0.823974609375,-16.90673828125,10.589599609375
3.3974999,1.8692729473114014,-2.626439332962036,8.462904930114746,28.717041015625,-6.622314453125,2.044677734375
3.4024999,1.8411411046981812,-2.270900249481201,8.236652374267578,8.7890625,6.04248046875,-4.119873046875
3.4074999000000004,1.6502034664154053,-1.699883222579956,8.58261489868164,27.03857421875,14.495849609375,-8.453369140625
3.4124999000000003,1.5107412338256836,-0.3345896899700165,9.759963035583496,19.744873046875,27.313232421875,-8.636474609375
3.4174999,1.3533225059509277,0.28131869435310364,9.987412452697754,-0.42724609375,25.360107421875,-12.02392578125
3.4224999,1.1773487329483032,0.839766263961792,10.432135581970215,3.90625,29.11376953125,-4.0283203125
3.4274999000000004,0.8074445128440857,1.047463297843933,10.286088943481445,-3.72314453125,25.299072265625,-4.94384765625
3.4324999000000003,0.6021417379379272,0.983418345451355,10.433931350708008,-5.889892578125,25.238037109375,7.99560546875
3.4374999,0.11312603205442429,0.6206967830657959,10.215459823608398,-2.166748046875,18.035888671875,0
3.4424999,-0.47165772318840027,-0.9780313968658447,9.77672290802002,7.38525390625,-4.425048828125,-1.77001953125
3.4474999000000004,-0.4465186297893524,-1.0690110921859741,9.659406661987305,-5.828857421875,-5.767822265625,-1.89208984375
3.4524999000000003,-0.25498247146606445,-1.060032844543457,9.685144424438477,15.380859375,-12.6953125,0.8544921875
3.4574999,1.0079588890075684,-0.002394201699644327,9.98681354522705,5.4931640625,-2.655029296875,3.662109375
3.4624999,0.99479079246521,-0.14604631066322327,9.746794700622559,-8.026123046875,-2.74658203125,-2.899169921875
3.4674999,1.082777738571167,-0.21966800093650818,9.926360130310059,2.532958984375,4.547119140625,2.44140625
3.4724999000000003,0.8583213090896606,-0.3884592354297638,9.676166534423828,-1.190185546875,0.823974609375,-3.90625
3.4774999,0.943913996219635,-0.4381389021873474,9.75637149810791,-1.922607421875,8.819580078125,3.387451171875
3.4824999,0.70090252161026,-0.5333084464073181,9.641449928283691,3.753662109375,5.06591796875,-4.638671875
3.4874999,0.6745663285255432,-0.4908113479614258,9.72165584564209,-2.01416015625,8.85009765625,2.62451171875
3.4924999000000003,0.5680243372917175,-0.4728548228740692,9.730634689331055,3.143310546875,4.730224609375,-3.35693359375
3.4974999,0.14844051003456116,-0.30466216802597046,9.809642791748047,11.474609375,-2.38037109375,-1.312255859375
3.5024999,0.2974795699119568,-0.29867666959762573,9.77013874053955,-11.383056640625,-1.007080078125,1.922607421875
3.5074999,0.1825578808784485,-0.34416648745536804,9.840767860412598,9.063720703125,-4.45556640625,-1.861572265625
3.5124999000000003,0.3106476664543152,-0.39145198464393616,9.734225273132324,-9.246826171875,-2.593994140625,0.42724609375
3.5174999000000002,0.3166331648826599,-0.4465186297893524,9.858125686645508,8.575439453125,-5.4931640625,0.457763671875
3.5224999,0.36750996112823486,-0.4991910457611084,9.746794700622559,-9.33837890625,-2.3193359375,0
3.5274999,0.48722004890441895,-0.46746787428855896,9.831191062927246,13.18359375,-4.5166015625,0.885009765625
3.5324999000000004,0.545877993106842,-0.4554968774318695,9.764153480529785,-13.3056640625,-1.5869140625,-1.8310546875
3.5374999000000003,0.6171054840087891,-0.345363587141037,9.807847023010254,13.336181640625,-0.30517578125,0.1220703125
3.5424999,0.6991068720817566,-0.28969839215278625,9.874884605407715,9.1552734375,2.838134765625,1.739501953125
3.5474999,0.6272808313369751,-0.4100070297718048,9.671976089477539,-10.894775390625,2.99072265625,-2.5634765625
3.5524999000000004,0.6272808313369751,-0.4100070297718048,9.671976089477539,-10.894775390625,2.99072265625,-2.5634765625
3.5574999000000003,0.6278793811798096,-0.3214215636253357,9.831789016723633,12.02392578125,3.387451171875,0.640869140625
3.5624999,0.4902127981185913,-0.4129997789859772,9.693524360656738,-11.3525390625,1.28173828125,-3.11279296875
3.5674999,0.4495113790035248,-0.3196259140968323,9.836577415466309,10.894775390625,2.655029296875,1.739501953125
3.5724999000000004,0.406415730714798,-0.4141969084739685,9.73661994934082,-8.819580078125,-0.213623046875,-1.190185546875
3.5774999000000003,0.31783026456832886,-0.34835633635520935,9.946112632751465,8.392333984375,-0.18310546875,2.410888671875
3.5824999,0.34596213698387146,-0.4405331015586853,9.77253246307373,-8.575439453125,-1.190185546875,-2.105712890625
3.5874999,0.3495534360408783,-0.35075053572654724,9.98681354522705,8.9111328125,-1.556396484375,1.434326171875
3.5924999,0.47644615173339844,-0.29209262132644653,9.872490882873535,11.04736328125,-0.42724609375,2.105712890625
3.5974999000000003,0.44532153010368347,-0.36571431159973145,9.70429801940918,-9.918212890625,-3.23486328125,-2.044677734375
3.6024999,0.5656301379203796,-0.39145198464393616,9.715670585632324,-8.514404296875,-1.64794921875,-1.861572265625
3.6074999,0.5656301379203796,-0.39145198464393616,9.715670585632324,-8.514404296875,-1.64794921875,-1.861572265625
3.6124999,0.5566518902778625,-0.3381809890270233,9.91977596282959,7.843017578125,0.885009765625,1.89208984375
3.6174999000000003,0.5740098357200623,-0.44831427931785583,9.770736694335938,-8.6669921875,0.30517578125,-1.861572265625
3.6224999,0.6057330369949341,-0.3866635859012604,9.963470458984375,8.60595703125,1.129150390625,1.190185546875
3.6274999,0.5249287486076355,-0.4297592043876648,9.741408348083496,-9.8876953125,0.91552734375,-3.2958984375
3.6324999,0.5979518890380859,-0.3477577865123749,9.835979461669922,11.505126953125,2.13623046875,1.739501953125
3.6374999000000003,0.4908113479614258,-0.37229835987091064,9.72165584564209,-10.650634765625,-0.244140625,-1.373291015625
3.6424999000000002,0.4985924959182739,-0.30945056676864624,9.803058624267578,10.284423828125,1.953125,1.220703125
3.6474999,0.4602852761745453,-0.4106055796146393,9.774328231811523,-9.185791015625,0.42724609375,-1.312255859375
3.6524999,0.48063600063323975,-0.3513490855693817,9.91977596282959,8.72802734375,-0.732421875,0.67138671875
3.6574999000000004,0.4531026780605316,-0.3860650360584259,9.718064308166504,-10.223388671875,0.335693359375,-1.556396484375
3.6624999000000003,0.4686649739742279,-0.3447650372982025,9.81024169921875,12.298583984375,-1.068115234375,0.91552734375
3.6674999,0.5530605912208557,-0.36810851097106934,9.751583099365234,-12.20703125,-0.946044921875,-0.1220703125
3.6724999,0.45489832758903503,-0.3555389642715454,9.773730278015137,11.199951171875,-0.54931640625,-0.54931640625
3.6774999000000004,0.6536170840263367,-0.4207809567451477,9.833584785461426,-8.941650390625,-0.762939453125,0.640869140625
3.6824999000000003,0.5039794445037842,-0.36990416049957275,9.858125686645508,7.87353515625,-0.48828125,-1.068115234375
3.6874999,0.5746083855628967,-0.4423287510871887,9.82999324798584,-6.9580078125,0.79345703125,0.640869140625
3.6924999,0.5530605912208557,-0.36750996112823486,9.850942611694336,6.622314453125,-0.6103515625,-0.8544921875
3.6974999000000004,0.5237316489219666,-0.37169981002807617,9.795876502990723,-6.9580078125,2.227783203125,0.67138671875
3.7024999000000003,0.4752490520477295,-0.3579331636428833,9.73661994934082,8.270263671875,-1.46484375,-1.678466796875
3.7074999,0.3776853084564209,-0.3513490855693817,9.689932823181152,8.48388671875,-0.91552734375,-2.655029296875
3.7124999,0.5620388388633728,-0.272938996553421,9.70429801940918,-5.55419921875,1.708984375,3.021240234375
3.7174999,0.3974374830722809,-0.3693056106567383,9.745597839355469,2.716064453125,-0.54931640625,-3.47900390625
3.7224999000000003,0.4752490520477295,-0.3292027413845062,9.832387924194336,-1.007080078125,1.190185546875,1.953125
3.7274999,0.43993455171585083,-0.414795458316803,9.799467086791992,-0.396728515625,-1.068115234375,-2.532958984375
3.7324999,0.4842272996902466,-0.383670836687088,9.970054626464844,1.46484375,1.0986328125,2.716064453125
3.7374999,0.4423287510871887,-0.4207809567451477,9.785101890563965,-2.01416015625,-2.3193359375,-3.204345703125
3.7424999000000003,0.569819986820221,-0.39205053448677063,9.97065258026123,2.99072265625,1.922607421875,1.861572265625
3.7474999,0.4321534037590027,-0.4189853072166443,9.73781681060791,-3.5400390625,-2.62451171875,-3.143310546875
3.7524999,0.5500678420066833,-0.345363587141037,9.86889934539795,4.669189453125,1.007080078125,2.99072265625
3.7574999,0.4794389009475708,-0.43095630407333374,9.722254753112793,-5.37109375,-1.708984375,-2.38037109375
3.7624999000000003,0.47584760189056396,-0.2885012924671173,9.81143856048584,7.2021484375,0.67138671875,1.5869140625
3.7674999000000002,0.4944026470184326,-0.3196259140968323,9.853935241699219,8.148193359375,0,0.48828125
3.7724999,0.5267243981361389,-0.4818331003189087,9.787496566772461,-7.50732421875,0.18310546875,0.091552734375
3.7774999,0.5536591410636902,-0.3561375141143799,9.88506031036377,7.965087890625,0.091552734375,0.3662109375
3.7824999000000004,0.5554547905921936,-0.4010287821292877,9.82640266418457,-8.7890625,1.373291015625,-1.373291015625
3.7874999000000003,0.4944026470184326,-0.31842881441116333,9.806650161743164,9.796142578125,-0.518798828125,-1.068115234375
3.7924999,0.5889736413955688,-0.25737667083740234,9.77672290802002,-9.796142578125,1.251220703125,1.40380859375
3.7974999,0.4106055796146393,-0.30945056676864624,9.715071678161621,8.331298828125,-0.30517578125,-1.739501953125
3.8024999000000004,0.5770025849342346,-0.23523031175136566,9.751583099365234,-5.18798828125,0.67138671875,2.410888671875
3.8074999000000003,0.4423287510871887,-0.3519476354122162,9.727043151855469,1.953125,-0.6103515625,-3.72314453125
3.8124999,0.5105634927749634,-0.3357867896556854,9.855731010437012,0.06103515625,1.007080078125,2.13623046875
3.8174999,0.49559974670410156,-0.4405331015586853,9.77253246307373,-1.617431640625,-0.91552734375,-2.532958984375
3.8224999000000004,0.47824180126190186,-0.41359832882881165,9.9401273727417,3.7841796875,0.54931640625,2.288818359375
3.8274999000000003,0.45848962664604187,-0.3705027103424072,9.707889556884766,-7.38525390625,-1.495361328125,-2.3193359375
3.8324999,0.5201402902603149,-0.3016694188117981,9.810839653015137,8.697509765625,0.640869140625,1.495361328125
3.8374999,0.5530605912208557,-0.39205053448677063,9.77013874053955,-9.185791015625,-0.79345703125,-0.91552734375
3.8424999,0.43514615297317505,-0.40043023228645325,9.859322547912598,6.28662109375,-0.18310546875,-2.410888671875
3.8474999000000003,0.5159504413604736,-0.4034229815006256,9.833584785461426,-4.425048828125,0.79345703125,2.410888671875
3.8524999,0.41718965768814087,-0.3705027103424072,9.81263542175293,2.227783203125,-0.885009765625,-2.471923828125
3.8574999,0.4411316514015198,-0.33698388934135437,9.841964721679688,0.335693359375,1.15966796875,2.13623046875
3.8624999,0.4357447028160095,-0.33099839091300964,9.722254753112793,-2.0751953125,-0.91552734375,-2.349853515625
3.8674999000000003,0.5153518915176392,-0.2711433470249176,9.8784761428833,3.875732421875,0.701904296875,1.708984375
3.8724999,0.5692214369773865,-0.33099839091300964,9.907206535339355,6.561279296875,1.28173828125,1.3427734375
3.8774999,0.4854243993759155,-0.363918662071228,9.714473724365234,-7.87353515625,-0.946044921875,-1.40380859375
3.8824999,0.5159504413604736,-0.37888240814208984,9.792284965515137,9.124755859375,0.30517578125,0.762939453125
3.8874999000000003,0.5668272376060486,-0.35434186458587646,9.717466354370117,-8.270263671875,-0.244140625,0.152587890625
3.8924999000000002,0.46088382601737976,-0.3669114112854004,9.713874816894531,7.415771484375,-0.030517578125,-1.922607421875
3.8974999,0.619499683380127,-0.3734954595565796,9.823410034179688,-5.096435546875,0.42724609375,1.8310546875
3.9024999,0.48243165016174316,-0.3818751573562622,9.830592155456543,2.532958984375,-0.518798828125,-2.777099609375
3.9074999000000004,0.5111620426177979,-0.4010287821292877,9.958083152770996,0.18310546875,1.068115234375,2.9296875
3.9124999000000003,0.4710591733455658,-0.4411316514015198,9.858723640441895,-3.5400390625,-0.67138671875,-3.0517578125
3.9174999,0.41778820753097534,-0.37828385829925537,9.910199165344238,5.340576171875,0.946044921875,1.28173828125
3.9224999,0.4387374520301819,-0.4944026470184326,9.734824180603027,-6.16455078125,-0.335693359375,-0.9765625
3.9274999000000004,0.43933600187301636,-0.365115761756897,9.806051254272461,7.049560546875,0.274658203125,0.335693359375
3.9324999000000003,0.4884171485900879,-0.4489128291606903,9.743204116821289,-5.889892578125,0.42724609375,0
3.9374999,0.5057750940322876,-0.353743314743042,9.84495735168457,5.218505859375,-0.30517578125,-1.40380859375
3.9424999,0.5351040959358215,-0.32381579279899597,9.849146842956543,-4.8828125,0.823974609375,0.640869140625
3.9474999000000004,0.52552729845047,-0.31783026456832886,9.783307075500488,3.692626953125,-1.64794921875,-1.556396484375
3.9524999000000003,0.5722141861915588,-0.28790274262428284,9.883264541625977,-1.3427734375,1.007080078125,1.983642578125
3.9574999,0.47584760189056396,-0.37648820877075195,9.713275909423828,-0.54931640625,-1.64794921875,-2.25830078125
3.9624999,0.5722141861915588,-0.35254621505737305,9.880271911621094,3.265380859375,0.946044921875,1.89208984375
3.9674999000000004,0.4531026780605316,-0.38905778527259827,9.715071678161621,-5.126953125,-1.03759765625,-2.38037109375
3.9724999000000003,0.49978959560394287,-0.34356793761253357,9.782109260559082,7.293701171875,0.3662109375,0.79345703125
3.9774999,0.5494692921638489,-0.31543606519699097,9.756970405578613,-7.62939453125,-0.091552734375,-0.3662109375
3.9824999,0.4812345504760742,-0.29628247022628784,9.719860076904297,7.01904296875,-0.030517578125,-1.52587890625
3.9874999,0.6021417379379272,-0.3489548861980438,9.889848709106445,-5.18798828125,0.732421875,1.739501953125
3.9924999000000003,0.4231751561164856,-0.40701428055763245,9.783307075500488,2.410888671875,-0.701904296875,-2.716064453125
3.9974999,0.5380968451499939,-0.3800795078277588,9.90241813659668,1.495361328125,0.8544921875,2.8076171875
4.0024999,0.38307225704193115,-0.46567222476005554,9.791686058044434,-4.150390625,-0.42724609375,-3.021240234375
4.0074999,0.4495113790035248,-0.32620999217033386,9.797073364257812,6.65283203125,0.3662109375,1.312255859375
4.0124999,0.4902127981185913,-0.3711012601852417,9.825803756713867,-8.056640625,-0.1220703125,-1.0986328125
4.0174999,0.41539400815963745,-0.2950853705406189,9.7791166305542,7.75146484375,-0.3662109375,-0.732421875
4.022499900000001,0.5560533404350281,-0.33279404044151306,9.904213905334473,-6.2255859375,0.244140625,1.556396484375
4.0274999000000005,0.4129997789859772,-0.3232172429561615,9.79408073425293,3.173828125,-0.54931640625,-2.716064453125
4.0324999,0.5452794432640076,-0.314238965511322,9.898228645324707,0.3662109375,0.79345703125,2.471923828125
4.0374999,0.4129997789859772,-0.3728969097137451,9.801262855529785,-3.72314453125,-0.640869140625,-2.838134765625
4.0424999,0.48722004890441895,-0.3298012912273407,9.833584785461426,6.561279296875,0.30517578125,1.52587890625
4.0474999,0.517746090888977,-0.35733461380004883,9.847352027893066,-7.38525390625,0,-0.946044921875
4.0524999,0.43694180250167847,-0.35254621505737305,9.780313491821289,7.537841796875,-0.152587890625,-0.762939453125
4.0574999,0.5416881442070007,-0.3076549172401428,9.923367500305176,1.434326171875,1.03759765625,2.349853515625
4.062499900000001,0.41718965768814087,-0.3884592354297638,9.80904483795166,-4.94384765625,-0.091552734375,-2.38037109375
4.0674999000000005,0.46627077460289,-0.3190273642539978,9.834183692932129,6.988525390625,0.3662109375,1.068115234375
4.0724999,0.5518634915351868,-0.3280056416988373,9.78869342803955,-7.568359375,-0.244140625,-0.3662109375
4.0774999,0.42856210470199585,-0.35733461380004883,9.734225273132324,6.622314453125,-0.457763671875,-1.434326171875
4.0824999,0.6326677799224854,-0.3471592366695404,9.813833236694336,-3.631591796875,0.30517578125,2.044677734375
4.0874999,0.4638765752315521,-0.3878606855869293,9.718663215637207,0.3662109375,-0.732421875,-2.99072265625
4.0924999,0.5758054852485657,-0.3411737382411957,9.80904483795166,3.23486328125,0.732421875,2.0751953125
4.0974999,0.5524620413780212,-0.4411316514015198,9.819818496704102,-6.072998046875,-0.30517578125,-1.77001953125
4.1024999,0.5063736438751221,-0.3621230125427246,9.828198432922363,7.293701171875,0.091552734375,0.152587890625
4.1074999000000005,0.5979518890380859,-0.39205053448677063,9.806051254272461,-6.7138671875,0.54931640625,0.6103515625
4.1124999,0.3968389332294464,-0.36750996112823486,9.750985145568848,-3.143310546875,-0.396728515625,-2.74658203125
4.1174999,0.48303020000457764,-0.3363853394985199,9.825803756713867,5.889892578125,0.244140625,1.373291015625
4.1224999,0.5476736426353455,-0.3513490855693817,9.803058624267578,-6.9580078125,0.06103515625,-0.518798828125
4.1274999,0.4297592043876648,-0.353743314743042,9.756970405578613,6.439208984375,-0.152587890625,-1.15966796875
4.1324999,0.619499683380127,-0.3693056106567383,9.848548889160156,-3.47900390625,0.42724609375,1.708984375
4.1374999,0.4507084786891937,-0.38726213574409485,9.781511306762695,0.1220703125,-0.518798828125,-2.9296875
4.1424999,0.5416881442070007,-0.3645172119140625,9.849745750427246,3.662109375,0.54931640625,2.0751953125
4.147499900000001,0.5452794432640076,-0.40462008118629456,9.885659217834473,-5.9814453125,-0.335693359375,-1.52587890625
4.1524999000000005,0.4620809257030487,-0.3489548861980438,9.807847023010254,7.049560546875,-0.579833984375,-0.213623046875
4.1574999,0.5770025849342346,-0.3908534348011017,9.921571731567383,-5.43212890625,0.244140625,1.0986328125
4.1624999,0.39205053448677063,-0.37169981002807617,9.77133560180664,2.8076171875,-0.6103515625,-2.593994140625
4.1674999,0.5596446394920349,-0.3705027103424072,9.725247383117676,-6.134033203125,0.091552734375,0.3662109375
4.1724999,0.4129997789859772,-0.3860650360584259,9.720458984375,3.997802734375,-0.54931640625,-2.227783203125
4.1774999,0.5847837924957275,-0.32441434264183044,9.728240013122559,-0.30517578125,0.79345703125,2.227783203125
4.1824999,0.4423287510871887,-0.3555389642715454,9.745597839355469,-3.47900390625,-0.457763671875,-2.5634765625
4.187499900000001,0.4866214990615845,-0.37169981002807617,9.829395294189453,6.28662109375,-0.06103515625,0.823974609375
4.1924999000000005,0.5632359385490417,-0.3387795388698578,9.816825866699219,-6.378173828125,0.030517578125,0.030517578125
4.1974999,0.3944447338581085,-0.4040215313434601,9.788095474243164,4.94384765625,-0.396728515625,-1.8310546875
4.2024999,0.6189011335372925,-0.3274070918560028,9.80904483795166,-1.15966796875,0.67138671875,2.197265625
4.2074999,0.4357447028160095,-0.38486793637275696,9.75278091430664,-2.593994140625,-0.30517578125,-2.38037109375
4.2124999,0.5027823448181152,-0.38546648621559143,9.815628051757812,5.767822265625,0.152587890625,1.129150390625
4.2174999,0.6332663297653198,-0.31603461503982544,9.828198432922363,-1.678466796875,0.244140625,1.953125
4.2224999,0.43514615297317505,-0.3974374830722809,9.770736694335938,-1.922607421875,-0.67138671875,-2.5634765625
4.2274999,0.49559974670410156,-0.38127660751342773,9.835380554199219,5.37109375,0.213623046875,1.15966796875
4.2324999000000005,0.49559974670410156,-0.38127660751342773,9.835380554199219,5.37109375,0.213623046875,1.15966796875
4.2374999,0.5524620413780212,-0.37169981002807617,9.813234329223633,-6.53076171875,0.06103515625,-0.396728515625
4.2424999,0.38486793637275696,-0.38905778527259827,9.764751434326172,5.523681640625,-0.213623046875,-1.434326171875
4.2474999,0.618302583694458,-0.31842881441116333,9.827000617980957,-1.708984375,0.1220703125,1.922607421875
4.2524999,0.43335050344467163,-0.3902548849582672,9.768941879272461,-2.044677734375,-0.152587890625,-2.532958984375
4.2574999,0.49799394607543945,-0.3824737071990967,9.84376049041748,5.218505859375,0.396728515625,1.28173828125
4.2624999,0.5650315880775452,-0.36571431159973145,9.815628051757812,-6.34765625,0.091552734375,-0.244140625
4.2674999,0.3998316824436188,-0.3878606855869293,9.781511306762695,5.0048828125,-0.213623046875,-1.708984375
4.272499900000001,0.45190557837486267,-0.37229835987091064,9.791088104248047,-2.25830078125,-0.335693359375,-2.349853515625
4.2774999000000005,0.5015852451324463,-0.38546648621559143,9.856329917907715,5.859375,-0.274658203125,0.67138671875
4.2824999,0.5524620413780212,-0.3627215623855591,9.798270225524902,-6.256103515625,0.30517578125,0.1220703125
4.2874999,0.383670836687088,-0.4076128304004669,9.774927139282227,3.936767578125,-0.213623046875,-1.89208984375
4.2924999,0.586579442024231,-0.3196259140968323,9.7791166305542,-0.396728515625,0.457763671875,1.800537109375
4.2974999,0.46327802538871765,-0.39384618401527405,9.802460670471191,-3.387451171875,-0.244140625,-2.044677734375
4.3024999,0.5171475410461426,-0.38127660751342773,9.856928825378418,6.195068359375,-0.1220703125,0.701904296875
4.3074999,0.5835866928100586,-0.39863458275794983,9.824606895446777,-5.584716796875,0.457763671875,0.396728515625
4.312499900000001,0.43694180250167847,-0.38127660751342773,9.777320861816406,2.899169921875,-0.244140625,-2.0751953125
4.3174999000000005,0.578798234462738,-0.29388827085494995,9.723451614379883,0.9765625,0.3662109375,2.044677734375
4.3224999,0.5249287486076355,-0.3711012601852417,9.753378868103027,-4.364013671875,-0.213623046875,-1.983642578125
4.3274999,0.4908113479614258,-0.3298012912273407,9.782708168029785,6.134033203125,-0.030517578125,-0.1220703125
4.3324999,0.40880993008613586,-0.436343252658844,9.847949981689453,1.556396484375,-0.335693359375,-2.3193359375
4.3374999,0.4866214990615845,-0.3818751573562622,9.858125686645508,2.471923828125,0.3662109375,1.953125
4.3424999,0.4854243993759155,-0.3711012601852417,9.844358444213867,-5.340576171875,-0.1220703125,-1.220703125
4.3474999,0.43335050344467163,-0.32441434264183044,9.720458984375,5.92041015625,-0.091552734375,-0.79345703125
4.352499900000001,0.5871779918670654,-0.36810851097106934,9.877279281616211,-3.265380859375,0.335693359375,1.495361328125
4.3574999000000005,0.4357447028160095,-0.37169981002807617,9.77791976928711,-0.457763671875,-0.030517578125,-2.532958984375
4.3624999,0.497395396232605,-0.39624038338661194,9.82640266418457,4.364013671875,0.213623046875,1.40380859375
4.3674999,0.5674257874488831,-0.30885201692581177,9.783905029296875,-6.011962890625,-0.030517578125,-0.335693359375
4.3724999,0.41539400815963745,-0.3190273642539978,9.716867446899414,4.7607421875,-0.030517578125,-1.495361328125
4.3774999,0.646434485912323,-0.2585737705230713,9.770736694335938,-1.0986328125,0.244140625,1.800537109375
4.3824999,0.4710591733455658,-0.333991140127182,9.789292335510254,-2.62451171875,-0.091552734375,-2.0751953125
4.3874999,0.5261258482933044,-0.38546648621559143,9.837176322937012,5.55419921875,0.335693359375,0.823974609375
4.3924999,0.4207809567451477,-0.41778820753097534,9.749788284301758,2.532958984375,-0.335693359375,-2.0751953125
4.397499900000001,0.5722141861915588,-0.31124621629714966,9.674968719482422,1.708984375,0.1220703125,1.708984375
4.4024999000000005,0.4644751250743866,-0.3908534348011017,9.77253246307373,-0.030517578125,-0.274658203125,-2.288818359375
4.4074999,0.5051765441894531,-0.3884592354297638,9.814431190490723,4.33349609375,0.091552734375,1.15966796875
4.4124999,0.5602431893348694,-0.33099839091300964,9.789292335510254,-5.859375,0.42724609375,-0.396728515625
4.4174999,0.4118026793003082,-0.34177228808403015,9.707889556884766,4.547119140625,-0.1220703125,-1.46484375
4.4224999,0.6422445774078369,-0.2561795711517334,9.767744064331055,-0.67138671875,0.030517578125,1.678466796875
4.4274999,0.5249287486076355,-0.3860650360584259,9.780912399291992,-3.2958984375,0,-2.044677734375
4.4324999,0.5452794432640076,-0.3603273630142212,9.830592155456543,5.4931640625,0.030517578125,0.396728515625
4.437499900000001,0.4381389021873474,-0.45250412821769714,9.824007987976074,1.3427734375,-0.48828125,-2.349853515625
4.4424999000000005,0.4381389021873474,-0.45250412821769714,9.824007987976074,1.3427734375,-0.48828125,-2.349853515625
4.4474999,0.4572925269603729,-0.314238965511322,9.712079048156738,1.8310546875,0.091552734375,1.8310546875
4.4524999,0.45489832758903503,-0.31603461503982544,9.113529205322266,-13.97705078125,0.06103515625,2.44140625
4.4574999,0.01496376097202301,-0.9917980432510376,7.560888767242432,-21.78955078125,2.50244140625,15.289306640625
4.4624999,-0.3627215623855591,-0.558447539806366,5.37438440322876,-49.49951171875,19.073486328125,115.570068359375
4.4674999,-0.9870096445083618,-1.1061211824417114,3.4566287994384766,114.6240234375,-13.275146484375,316.7724609375
4.4724999,-1.657984733581543,0.406415730714798,2.78086519241333,301.666259765625,-77.45361328125,279.23583984375
4.477499900000001,-2.2164323329925537,1.5526398420333862,2.9688100814819336,115.325927734375,-3.60107421875,124.176025390625
4.4824999000000005,-2.3133974075317383,2.870049238204956,3.597288131713867,-7.9345703125,-47.637939453125,71.533203125
4.4874999,-2.1308395862579346,3.311779499053955,3.688267707824707,-14.70947265625,-139.801025390625,46.539306640625
4.4924999,-1.589151382446289,3.403956174850464,2.894589900970459,24.688720703125,-177.42919921875,64.605712890625
4.4974999,-0.6853402256965637,3.3877954483032227,1.9063831567764282,3.692626953125,-172.515869140625,52.093505859375
4.5024999,6.840832710266113,6.626551628112793,12.96460247039795,-2.99072265625,13.85498046875,10.19287109375
4.5074999,6.6828155517578125,5.832873821258545,12.717400550842285,-10.589599609375,-11.23046875,15.31982421875
4.5124999,5.899911403656006,4.222174644470215,11.903372764587402,-15.289306640625,20.172119140625,15.56396484375
4.5174999,4.630385875701904,2.6180596351623535,10.83855152130127,-31.005859375,38.75732421875,-0.18310546875
4.522499900000001,3.3441011905670166,0.9882067441940308,9.95209789276123,-40.802001953125,49.62158203125,-2.349853515625
4.5274999000000005,2.319382905960083,-0.2825157940387726,9.057863235473633,-15.228271484375,56.671142578125,3.23486328125
4.5324999,1.5322890281677246,-1.2533645629882812,8.721478462219238,-14.923095703125,59.356689453125,-10.43701171875
4.5374999,0.9289502501487732,-2.0266916751861572,8.873510360717773,1.129150390625,68.572998046875,-7.14111328125
4.5424999,0.7805097699165344,-2.097919225692749,9.180566787719727,-2.166748046875,55.6640625,-11.322021484375
4.5474999,0.5746083855628967,-2.0805611610412598,9.628880500793457,-10.711669921875,61.82861328125,-1.03759765625
4.5524999,0.27473464608192444,-1.7872716188430786,9.898228645324707,11.23046875,58.89892578125,1.03759765625
4.5574999,-0.10115502029657364,-1.4927847385406494,10.174758911132812,-4.5166015625,44.464111328125,-13.946533203125
4.562499900000001,-1.1204863786697388,0.09277531504631042,10.15141487121582,14.129638671875,-4.486083984375,0.579833984375
4.5674999000000005,-0.922366201877594,0.05027823522686958,9.916184425354004,-11.199951171875,-4.913330078125,-2.74658203125
4.5724999,-0.7577648162841797,-0.016160860657691956,9.95090103149414,4.974365234375,-10.040283203125,4.852294921875
4.5774999,0.8104372620582581,-0.4207809567451477,9.86770248413086,18.768310546875,-24.322509765625,5.67626953125
4.5824999,0.8547300100326538,-0.2932897210121155,9.84495735168457,0.823974609375,-27.008056640625,-3.7841796875
4.5874999,0.9870096445083618,-0.2454056739807129,9.756970405578613,-3.72314453125,-7.476806640625,3.631591796875
4.5924999,1.028908133506775,-0.09157821536064148,9.922768592834473,15.838623046875,-19.683837890625,2.74658203125
4.5974999,1.0636241436004639,0.07242459803819656,9.71926212310791,-7.598876953125,-12.14599609375,-5.31005859375
4.602499900000001,1.2425906658172607,0.14903905987739563,9.766547203063965,0.54931640625,2.105712890625,2.685546875
4.6074999000000005,1.159990668296814,0.18555063009262085,9.829395294189453,10.68115234375,-9.94873046875,-2.3193359375
4.6124999,1.2826935052871704,0.18136078119277954,9.57441234588623,-16.9677734375,8.209228515625,-5.523681640625
4.6174999,1.2084733247756958,-0.013766659423708916,9.650428771972656,1.77001953125,1.678466796875,-5.523681640625
4.6224999,1.2575544118881226,-0.21188685297966003,9.589376449584961,-15.777587890625,22.003173828125,-0.274658203125
4.6274999,1.0720038414001465,-0.3016694188117981,9.837775230407715,13.73291015625,10.80322265625,3.173828125
4.6324999,0.9229647517204285,-0.3758896589279175,9.655815124511719,-6.591796875,9.94873046875,-4.5166015625
4.6374999,0.8122329115867615,-0.40222588181495667,9.819219589233398,-6.134033203125,22.613525390625,1.617431640625
4.6424999,0.5033808946609497,-0.30705636739730835,9.870096206665039,15.2587890625,0.79345703125,-0.640869140625
4.647499900000001,0.4620809257030487,-0.25977087020874023,9.770736694335938,-14.2822265625,10.772705078125,-3.7841796875
4.6524999000000005,0.2472013235092163,-0.19393034279346466,9.99339771270752,4.730224609375,8.9111328125,4.21142578125
4.6574999,0.10055647045373917,-0.17956513166427612,9.93593692779541,4.150390625,-6.8359375,-3.021240234375
4.6624999,0.15921440720558167,-0.16220717132091522,9.855133056640625,-13.5498046875,8.60595703125,-0.8544921875
4.6674999,0.05027823522686958,-0.166995570063591,9.982624053955078,16.17431640625,-8.85009765625,3.662109375
4.6724999,0.22445641458034515,-0.09816227108240128,9.698312759399414,-7.781982421875,-9.3994140625,-3.204345703125
4.6774999,0.9205705523490906,-0.055665191262960434,9.646238327026367,-12.542724609375,-0.91552734375,-3.021240234375
4.6824999,0.922366201877594,-0.07900865375995636,9.860519409179688,2.44140625,7.01904296875,4.82177734375
4.687499900000001,0.828393816947937,-0.09516951441764832,9.824007987976074,6.16455078125,-8.36181640625,-2.8076171875
4.6924999000000005,0.9319429993629456,-0.11791443079710007,9.73542308807373,-14.6484375,13.031005859375,-1.220703125
4.6974999,0.7368155717849731,-0.17417816817760468,9.937732696533203,15.045166015625,-0.18310546875,2.166748046875
4.7024999,0.7445967197418213,-0.12928688526153564,9.642048835754395,-9.185791015625,0.30517578125,-4.425048828125
4.7074999,0.579995334148407,-0.11611878126859665,9.724050521850586,10.009765625,-8.1787109375,-3.5400390625
4.7124999,0.6488286852836609,-0.16819266974925995,9.619303703308105,-15.167236328125,11.505126953125,-1.46484375
4.7174999,0.545877993106842,-0.17298106849193573,9.892242431640625,12.298583984375,0.732421875,3.11279296875
4.7224999,0.5009866952896118,-0.22505496442317963,9.781511306762695,-6.256103515625,-2.86865234375,-5.279541015625
4.727499900000001,0.5704185366630554,-0.21966800093650818,9.876082420349121,-1.861572265625,10.772705078125,2.716064453125
4.7324999000000005,0.4644751250743866,-0.20889410376548767,9.993996620178223,11.1083984375,-11.871337890625,-3.326416015625
4.7374999,0.5416881442070007,-0.16819266974925995,9.714473724365234,-13.336181640625,5.92041015625,-0.54931640625
4.7424999,0.5374982953071594,-0.19632454216480255,9.980828285217285,10.833740234375,-3.35693359375,4.547119140625
4.7474999,0.4926069974899292,-0.12449848651885986,9.716867446899414,-6.317138671875,-6.53076171875,-5.7373046875
4.7524999,0.6416460275650024,-0.13766659796237946,9.752182006835938,-0.091552734375,8.4228515625,3.570556640625
4.7574999,0.6015431880950928,-0.08858546614646912,9.793481826782227,9.3994140625,-13.458251953125,-1.89208984375
4.7624999,0.6751648783683777,-0.07062894850969315,9.610923767089844,-12.359619140625,5.92041015625,-0.152587890625
4.7674999,0.6721721291542053,-0.11791443079710007,9.737217903137207,-9.21630859375,-5.645751953125,-5.67626953125
4.772499900000001,0.689530074596405,-0.19273324310779572,9.86650562286377,2.227783203125,9.490966796875,4.39453125
4.7774999000000005,0.7086837291717529,-0.19812019169330597,9.908403396606445,6.195068359375,-11.16943359375,-2.13623046875
4.7824999,0.706289529800415,-0.2172738015651703,9.805453300476074,-11.505126953125,9.09423828125,-0.579833984375
4.7874999,0.6751648783683777,-0.20949265360832214,9.944316864013672,14.7705078125,-4.08935546875,1.617431640625
4.7924999,0.7380126714706421,-0.16579847037792206,9.741408348083496,-13.3056640625,-0.885009765625,-5.035400390625
4.7974999,0.6584054827690125,-0.16879121959209442,9.889249801635742,5.706787109375,9.124755859375,4.364013671875
4.8024999,0.6673837304115295,-0.15981295704841614,9.763554573059082,1.220703125,-8.331298828125,-3.173828125
4.8074999,0.7475894689559937,-0.15562310814857483,9.768941879272461,-8.60595703125,12.39013671875,1.15966796875
4.812499900000001,0.5889736413955688,-0.1711854189634323,9.88745403289795,14.373779296875,-6.988525390625,-1.220703125
4.8174999000000005,0.7098808288574219,-0.14844051003456116,9.677961349487305,-14.007568359375,3.5400390625,-2.471923828125
4.8224999,0.6320692300796509,-0.13706804811954498,9.904812812805176,8.880615234375,4.241943359375,4.730224609375
4.8274999,0.5770025849342346,-0.18136078119277954,9.948506355285645,11.932373046875,-3.35693359375,2.86865234375
4.8324999,0.5770025849342346,-0.18136078119277954,9.948506355285645,11.932373046875,-3.35693359375,2.86865234375
4.8374999,0.5859808921813965,-0.19871874153614044,9.776124000549316,-11.53564453125,-2.899169921875,-5.035400390625
4.8424999,0.5991489887237549,-0.25737667083740234,9.91738224029541,8.758544921875,6.7138671875,4.5166015625
4.8474999,0.6560112833976746,-0.19393034279346466,9.812037467956543,-0.91552734375,-11.23046875,-3.692626953125
4.852499900000001,0.6625953316688538,-0.2388216257095337,9.82999324798584,-5.37109375,8.880615234375,2.410888671875
4.8574999000000005,0.586579442024231,-0.21428105235099792,9.90122127532959,10.3759765625,-8.7890625,-1.434326171875
4.8624999,0.6949170231819153,-0.19452889263629913,9.725846290588379,-14.434814453125,5.2490234375,-1.556396484375
4.8674999,0.5979518890380859,-0.1999158412218094,9.931148529052734,14.495849609375,0.8544921875,2.13623046875
4.8724999,0.7589619159698486,-0.10714052617549896,9.787496566772461,4.69970703125,8.30078125,4.69970703125
4.8774999,0.645237386226654,-0.08918401598930359,9.780912399291992,-0.335693359375,-9.429931640625,-5.035400390625
4.8824999,0.6003460884094238,-0.166995570063591,9.70310115814209,-12.6953125,-3.814697265625,-4.638671875
4.8874999,0.5500678420066833,-0.1454477459192276,9.86889934539795,8.6669921875,7.904052734375,3.570556640625
4.8924999,0.5506663918495178,-0.14185644686222076,9.73781681060791,-2.3193359375,-8.514404296875,-3.90625
4.897499900000001,0.6607996821403503,-0.07661445438861847,9.764153480529785,-2.74658203125,8.697509765625,3.692626953125
4.9024999000000005,0.5141547918319702,-0.11252748221158981,9.794678688049316,7.9345703125,-9.613037109375,-3.021240234375
4.9074999,0.7134721279144287,-0.12270283699035645,9.695320129394531,-11.566162109375,5.767822265625,0.335693359375
4.9124999,0.6380547285079956,-0.19692309200763702,9.877279281616211,4.974365234375,8.880615234375,3.60107421875
4.9174999,0.6057330369949341,-0.20709845423698425,9.8599214553833,1.03759765625,-8.819580078125,-3.2958984375
4.9224999,0.6955155730247498,-0.21667525172233582,9.891045570373535,-5.157470703125,8.30078125,2.74658203125
4.9274999,0.5949591398239136,-0.2364274114370346,9.946710586547852,9.185791015625,-6.500244140625,-1.983642578125
4.9324999,0.7320271730422974,-0.2495955228805542,9.835380554199219,-12.87841796875,4.669189453125,-0.457763671875
4.937499900000001,0.6266822814941406,-0.18794482946395874,10.006566047668457,13.885498046875,-0.3662109375,0.48828125
4.9424999000000005,0.6272808313369751,-0.13407529890537262,9.730035781860352,-11.90185546875,-1.861572265625,-1.89208984375
4.9474999,0.6619967818260193,-0.14844051003456116,9.925163269042969,9.765625,4.2724609375,3.326416015625
4.9524999,0.6548141837120056,-0.18734627962112427,9.809642791748047,6.378173828125,8.7890625,4.058837890625
4.9574999,0.6542156338691711,-0.14484919607639313,9.750985145568848,-0.823974609375,-8.23974609375,-3.631591796875
4.9624999,0.6506243348121643,-0.11133038252592087,9.719860076904297,-2.899169921875,6.8359375,3.387451171875
4.9674999,0.5817909836769104,-0.0802057534456253,9.79647445678711,5.523681640625,-6.7138671875,-2.899169921875
4.9724999,0.6865373253822327,-0.07062894850969315,9.708487510681152,-9.185791015625,5.950927734375,0.6103515625
4.977499900000001,0.5327098965644836,-0.09576806426048279,9.91738224029541,13.397216796875,-3.631591796875,-0.885009765625
4.9824999000000005,0.6685808300971985,-0.12868833541870117,9.658807754516602,-12.969970703125,-0.091552734375,0
4.9874999,0.6374561786651611,-0.16819266974925995,9.876082420349121,10.8642578125,1.007080078125,1.922607421875
4.9924999,0.6135141849517822,-0.1412578970193863,9.640253067016602,-10.894775390625,-2.13623046875,-3.47900390625
4.9974999,0.6631938815116882,-0.1586158573627472,9.78989028930664,11.688232421875,4.547119140625,3.509521484375
5.0024999,0.6218938827514648,-0.1346738487482071,9.692327499389648,-9.735107421875,-7.01904296875,-4.5166015625
5.0074999,0.6254851818084717,-0.12210428714752197,9.804255485534668,5.523681640625,7.781982421875,3.448486328125
5.0124999,0.6973112225532532,-0.10235211998224258,9.783905029296875,-0.8544921875,7.049560546875,3.936767578125
5.0174999,0.5901707410812378,-0.1041477769613266,9.79647445678711,3.96728515625,-7.049560546875,-3.662109375
5.022499900000001,0.7523778676986694,-0.07122749835252762,9.722254753112793,-7.75146484375,6.683349609375,1.312255859375
5.0274999000000005,0.6165069341659546,-0.06404489278793335,9.868300437927246,10.345458984375,-3.692626953125,-2.8076171875
5.0324999,0.6530185341835022,-0.10654197633266449,9.758766174316406,-9.857177734375,1.52587890625,1.46484375
5.0374999,0.6218938827514648,-0.1825578808784485,9.906607627868652,9.33837890625,-0.579833984375,0.732421875
5.0424999,0.6212953329086304,-0.21607670187950134,9.84376049041748,-12.02392578125,0.457763671875,-3.11279296875
5.0474999,0.596754789352417,-0.2645592987537384,9.94970417022705,14.83154296875,1.495361328125,0.885009765625
5.0524999,0.6368576288223267,-0.2783259451389313,9.813833236694336,-13.214111328125,-4.21142578125,-1.3427734375
5.0574999,0.6087257862091064,-0.23582886159420013,9.942521095275879,10.07080078125,4.486083984375,2.838134765625
5.062499900000001,0.5835866928100586,-0.2388216257095337,9.727043151855469,-7.568359375,-4.852294921875,-3.692626953125
5.0674999000000005,0.6703764796257019,-0.22026655077934265,9.900622367858887,7.232666015625,5.37109375,3.60107421875
5.0724999,0.6751648783683777,-0.18614917993545532,9.836577415466309,3.936767578125,7.75146484375,3.265380859375
5.0774999,0.6368576288223267,-0.14604631066322327,9.78869342803955,-0.06103515625,-6.89697265625,-3.753662109375
5.0824999,0.6266822814941406,-0.08918401598930359,9.783905029296875,-0.9765625,4.82177734375,4.0283203125
5.0874999,0.5961562395095825,-0.12449848651885986,9.72165584564209,1.5869140625,-4.852294921875,-2.9296875
5.0924999,0.7134721279144287,-0.05925649031996727,9.720458984375,-4.425048828125,6.2255859375,1.617431640625
5.0974999,0.5632359385490417,-0.1346738487482071,9.773131370544434,7.537841796875,-5.18798828125,-3.082275390625
5.102499900000001,0.7487865686416626,-0.020350715145468712,9.619303703308105,-9.002685546875,3.021240234375,2.716064453125
5.1074999000000005,0.6153098344802856,-0.08619125932455063,9.785101890563965,9.70458984375,-1.953125,-1.739501953125
5.1124999,0.6530185341835022,-0.04189852997660637,9.68694019317627,-8.331298828125,1.5869140625,0.67138671875
5.1174999,0.619499683380127,-0.14006079733371735,9.847949981689453,8.697509765625,-1.03759765625,0
5.1224999,0.7044938206672668,-0.1777694821357727,9.829395294189453,-11.932373046875,1.0986328125,-1.556396484375
5.1274999,0.5985504388809204,-0.22026655077934265,9.922170639038086,14.2822265625,1.46484375,-0.152587890625
5.1324999,0.6135141849517822,-0.1777694821357727,9.92097282409668,10.162353515625,2.5634765625,0.885009765625
5.1374999,0.5919663906097412,-0.15083470940589905,9.785101890563965,-9.21630859375,-2.01416015625,-2.044677734375
5.1424999,0.6320692300796509,-0.18794482946395874,9.896432876586914,10.406494140625,1.495361328125,2.38037109375
5.147499900000001,0.5793967843055725,-0.1693897694349289,9.788095474243164,-11.65771484375,-3.90625,-3.509521484375
5.1524999000000005,0.6117185354232788,-0.18914192914962769,9.847949981689453,11.688232421875,5.157470703125,2.105712890625
5.1574999,0.6171054840087891,-0.20231004059314728,9.719860076904297,-8.7890625,-5.157470703125,-2.593994140625
5.1624999,0.6153098344802856,-0.15502455830574036,9.861717224121094,7.2021484375,3.96728515625,2.593994140625
5.1674999,0.6224924325942993,-0.20769700407981873,9.70429801940918,-6.8359375,-3.692626953125,-3.387451171875
5.1724999,0.7122750282287598,-0.22086510062217712,9.908403396606445,6.988525390625,4.425048828125,3.387451171875
5.1774999,0.6159083843231201,-0.22206220030784607,9.798270225524902,-6.744384765625,-5.9814453125,-3.814697265625
5.1824999,0.6823474764823914,-0.22266076505184174,9.857526779174805,5.67626953125,6.28662109375,3.082275390625
5.187499900000001,0.6506243348121643,-0.20290859043598175,9.748590469360352,-3.509521484375,-5.279541015625,-3.997802734375
5.1924999000000005,0.7086837291717529,-0.055665191262960434,9.749189376831055,3.173828125,4.33349609375,3.265380859375
5.1974999,0.5626373887062073,-0.0736217051744461,9.671976089477539,-2.13623046875,-5.828857421875,-3.448486328125
5.2024999,0.6667851805686951,-0.11851298063993454,9.776124000549316,0.30517578125,3.60107421875,3.0517578125
5.2074999,0.6368576288223267,-0.24121582508087158,9.797672271728516,-0.946044921875,-3.753662109375,-3.631591796875
5.2124999,0.6865373253822327,-0.17657238245010376,9.873088836669922,0.67138671875,3.96728515625,2.99072265625
5.2174999,0.5752069354057312,-0.16759411990642548,9.843161582946777,0.3662109375,-5.279541015625,-3.173828125
5.2224999,0.7511807680130005,-0.1843535304069519,9.864110946655273,-1.15966796875,4.852294921875,2.838134765625
5.227499900000001,0.6105214357376099,-0.14365209639072418,9.835380554199219,2.532958984375,-4.21142578125,-3.997802734375
5.2324999000000005,0.7068880796432495,-0.13407529890537262,9.838972091674805,-1.251220703125,3.265380859375,3.509521484375
