# Time (seconds),Accel_X,Accel_Y,Accel_Z,Gyro_X,Gyro_Y,Gyro_Z
0.0024999,0.2059013396501541,-0.028131870552897453,9.746196746826172,-0.091552734375,0.152587890625,-0.18310546875
0.0074999,0.20709845423698425,-0.028131870552897453,9.745597839355469,-0.1220703125,0.152587890625,-0.152587890625
0.012499900000000001,0.2064998894929886,-0.02454056777060032,9.744400978088379,-0.091552734375,0.152587890625,-0.152587890625
0.0174999,0.2059013396501541,-0.02454056777060032,9.743802070617676,-0.06103515625,0.030517578125,-0.06103515625
0.0224999,0.2059013396501541,-0.023942016065120697,9.744400978088379,0.030517578125,0.06103515625,-0.18310546875
0.0274999,0.2059013396501541,-0.023942016065120697,9.744400978088379,0.030517578125,0.06103515625,-0.18310546875
0.0324999,0.20769700407981873,-0.02454056777060032,9.743802070617676,0,0,-0.091552734375
0.0374999,0.20350714027881622,-0.0293289702385664,9.744400978088379,-0.06103515625,0.091552734375,-0.18310546875
0.0424999,0.20350714027881622,-0.030526071786880493,9.743802070617676,0.030517578125,-0.1220703125,-0.06103515625
0.0474999,0.2041056901216507,-0.0347159244120121,9.744400978088379,-0.091552734375,-0.091552734375,-0.152587890625
0.0524999,0.2059013396501541,-0.0347159244120121,9.744400978088379,-0.274658203125,0.1220703125,-0.18310546875
0.0574999,0.2106897532939911,-0.0347159244120121,9.746196746826172,-0.1220703125,0.1220703125,-0.091552734375
0.0624999,0.21188685297966003,-0.03770867735147476,9.749189376831055,-0.030517578125,0.091552734375,-0.1220703125
0.0674999,0.2124854028224945,-0.04189852997660637,9.750386238098145,-0.091552734375,0.030517578125,0.06103515625
0.0724999,0.20889410376548767,-0.046088382601737976,9.752182006835938,-0.091552734375,0.030517578125,-0.1220703125
0.0774999,0.20709845423698425,-0.047884032130241394,9.753378868103027,-0.091552734375,-0.091552734375,-0.152587890625
0.0824999,0.2059013396501541,-0.046088382601737976,9.751583099365234,-0.091552734375,-0.18310546875,-0.091552734375
0.0874999,0.21128830313682556,-0.04010287672281265,9.750386238098145,-0.091552734375,-0.1220703125,-0.091552734375
0.0924999,0.2172738015651703,-0.03711012750864029,9.747992515563965,0.06103515625,-0.06103515625,-0.1220703125
0.0974999,0.22206220030784607,-0.031124621629714966,9.745597839355469,-0.030517578125,0.152587890625,-0.213623046875
0.1024999,0.2214636504650116,-0.033518824726343155,9.744999885559082,-0.091552734375,0.3662109375,-0.030517578125
0.1074999,0.2172738015651703,-0.03232172131538391,9.746196746826172,-0.18310546875,0.030517578125,0.06103515625
0.1124999,0.21368250250816345,-0.038307227194309235,9.748590469360352,-0.18310546875,-0.1220703125,-0.18310546875
0.1174999,0.21188685297966003,-0.040701430290937424,9.749788284301758,-0.18310546875,0.030517578125,-0.244140625
0.1224999,0.21308395266532898,-0.04668693244457245,9.752182006835938,0,0.213623046875,-0.274658203125
0.1274999,0.21128830313682556,-0.04668693244457245,9.752182006835938,0.091552734375,0.18310546875,-0.274658203125
0.1324999,0.2082955539226532,-0.046088382601737976,9.75278091430664,-0.091552734375,0.152587890625,-0.213623046875
0.1374999,0.20051439106464386,-0.04429273307323456,9.751583099365234,-0.06103515625,0.152587890625,-0.1220703125
0.1424999,0.2041056901216507,-0.03531447425484657,9.75278091430664,-0.06103515625,0.06103515625,0.030517578125
0.1474999,0.19931729137897491,-0.03770867735147476,9.751583099365234,-0.030517578125,-0.152587890625,-0.1220703125
0.1524999,0.20889410376548767,-0.026336219161748886,9.749189376831055,0.06103515625,-0.030517578125,0
0.1574999,0.21188685297966003,-0.028730420395731926,9.747992515563965,0,0.091552734375,-0.091552734375
0.1624999,0.22026655077934265,-0.023343466222286224,9.745597839355469,0.030517578125,0.091552734375,-0.30517578125
0.1674999,0.22685061395168304,-0.0293289702385664,9.747393608093262,-0.06103515625,0.1220703125,-0.244140625
0.1724999,0.22924481332302094,-0.03172317147254944,9.751583099365234,0.1220703125,0.396728515625,-0.213623046875
0.17749990000000002,0.22505496442317963,-0.03770867735147476,9.75397777557373,0.152587890625,0.396728515625,-0.152587890625
0.1824999,0.21787235140800476,-0.03950432687997818,9.75517463684082,0.091552734375,0.18310546875,-0.18310546875
0.1874999,0.2082955539226532,-0.03711012750864029,9.755773544311523,0.091552734375,0.030517578125,-0.213623046875
0.1924999,0.20111294090747833,-0.035913024097681046,9.754576683044434,0.091552734375,0.213623046875,-0.18310546875
0.1974999,0.19812019169330597,-0.035913024097681046,9.754576683044434,0.1220703125,0.244140625,-0.30517578125
0.2024999,0.19871874153614044,-0.03890577703714371,9.753378868103027,0,0.091552734375,-0.244140625
0.20749990000000001,0.19931729137897491,-0.040701430290937424,9.75397777557373,0.1220703125,0,-0.1220703125
0.2124999,0.20470423996448517,-0.04369417950510979,9.752182006835938,0,-0.030517578125,-0.152587890625
0.2174999,0.20769700407981873,-0.03950432687997818,9.753378868103027,0.06103515625,-0.030517578125,-0.274658203125
0.2224999,0.2148796021938324,-0.03651157766580582,9.752182006835938,0.06103515625,0.030517578125,-0.213623046875
0.2274999,0.21787235140800476,-0.02992752194404602,9.750386238098145,0.030517578125,0.030517578125,-0.213623046875
0.2324999,0.21667525172233582,-0.025737667456269264,9.747393608093262,0,0,-0.18310546875
0.2374999,0.21428105235099792,-0.02214636653661728,9.747393608093262,0.030517578125,-0.06103515625,-0.1220703125
0.2424999,0.2064998894929886,-0.023942016065120697,9.750985145568848,-0.091552734375,-0.06103515625,-0.274658203125
0.2474999,0.19931729137897491,-0.02513911761343479,9.752182006835938,-0.091552734375,0.030517578125,-0.18310546875
0.2524999,0.19452889263629913,-0.03232172131538391,9.75517463684082,-0.091552734375,0.030517578125,-0.18310546875
0.2574999,0.19452889263629913,-0.03950432687997818,9.751583099365234,-0.091552734375,-0.06103515625,-0.1220703125
0.2624999,0.1951274424791336,-0.04429273307323456,9.748590469360352,-0.152587890625,-0.030517578125,-0.213623046875
0.2674999,0.1999158412218094,-0.04668693244457245,9.745597839355469,-0.152587890625,-0.152587890625,-0.152587890625
0.2724999,0.2041056901216507,-0.0454898327589035,9.746794700622559,-0.091552734375,-0.335693359375,-0.091552734375
0.2774999,0.20350714027881622,-0.040701430290937424,9.747393608093262,-0.152587890625,-0.335693359375,-0.091552734375
0.2824999,0.20470423996448517,-0.040701430290937424,9.750386238098145,-0.274658203125,-0.3662109375,-0.1220703125
0.28749990000000003,0.2041056901216507,-0.03770867735147476,9.754576683044434,-0.091552734375,-0.48828125,-0.1220703125
0.2924999,0.20709845423698425,-0.035913024097681046,9.753378868103027,-0.06103515625,-0.42724609375,0.06103515625
0.2974999,0.21368250250816345,-0.031124621629714966,9.752182006835938,-0.1220703125,-0.42724609375,0
0.3024999,0.2214636504650116,-0.0293289702385664,9.747393608093262,-0.18310546875,-0.3662109375,-0.091552734375
0.3074999,0.2298433631658554,-0.02693476900458336,9.73781681060791,0.030517578125,-0.396728515625,-0.18310546875
0.3124999,0.2364274114370346,-0.028131870552897453,9.73542308807373,-0.030517578125,-0.396728515625,-0.1220703125
0.3174999,0.24001872539520264,-0.03531447425484657,9.731831550598145,-0.152587890625,0.06103515625,-0.030517578125
0.3224999,0.24121582508087158,-0.03651157766580582,9.736021041870117,0,0.244140625,-0.091552734375
0.3274999,0.22924481332302094,-0.041299980133771896,9.745597839355469,0,0.18310546875,-0.152587890625
0.3324999,0.2232593148946762,-0.04189852997660637,9.75397777557373,-0.091552734375,-0.06103515625,-0.091552734375
0.3374999,0.21188685297966003,-0.04249707981944084,9.763554573059082,-0.152587890625,-0.152587890625,-0.030517578125
0.3424999,0.21128830313682556,-0.043095629662275314,9.764751434326172,0,-0.091552734375,-0.030517578125
0.34749990000000003,0.2124854028224945,-0.04249707981944084,9.762955665588379,0.030517578125,0.244140625,-0.1220703125
0.35249990000000003,0.21428105235099792,-0.04249707981944084,9.758766174316406,0,0.213623046875,-0.06103515625
0.3574999,0.21368250250816345,-0.038307227194309235,9.75278091430664,-0.091552734375,0.1220703125,-0.152587890625
0.3624999,0.20889410376548767,-0.040701430290937424,9.750386238098145,-0.152587890625,0.091552734375,-0.335693359375
0.3674999,0.2059013396501541,-0.04010287672281265,9.747992515563965,-0.091552734375,0.18310546875,-0.274658203125
0.3724999,0.19871874153614044,-0.0454898327589035,9.745597839355469,-0.1220703125,0.06103515625,-0.18310546875
0.3774999,0.19812019169330597,-0.043095629662275314,9.745597839355469,-0.18310546875,0.06103515625,-0.244140625
0.3824999,0.19692309200763702,-0.043095629662275314,9.742006301879883,0.06103515625,0,-0.091552734375
0.3874999,0.1999158412218094,-0.03890577703714371,9.741408348083496,-0.06103515625,0.091552734375,-0.1220703125
0.3924999,0.2041056901216507,-0.0347159244120121,9.740809440612793,0.06103515625,0,-0.18310546875
0.3974999,0.2041056901216507,-0.0347159244120121,9.740809440612793,0.06103515625,0,-0.18310546875
0.4024999,0.20769700407981873,-0.0347159244120121,9.740809440612793,0.030517578125,-0.1220703125,-0.1220703125
0.4074999,0.21009120345115662,-0.03172317147254944,9.742006301879883,0,0.091552734375,-0.213623046875
0.41249990000000003,0.2124854028224945,-0.03232172131538391,9.743204116821289,-0.030517578125,0.1220703125,-0.030517578125
0.41749990000000003,0.21607670187950134,-0.03531447425484657,9.746794700622559,0,0.06103515625,-0.1220703125
0.4224999,0.21847090125083923,-0.038307227194309235,9.747393608093262,-0.06103515625,0.18310546875,-0.213623046875
0.4274999,0.22385786473751068,-0.04489128291606903,9.751583099365234,0.152587890625,0.30517578125,-0.030517578125
0.4324999,0.22685061395168304,-0.05446808785200119,9.750985145568848,0.06103515625,0.6103515625,-0.244140625
0.4374999,0.22685061395168304,-0.05626374110579491,9.750985145568848,0.030517578125,0.732421875,-0.30517578125
0.4424999,0.22445641458034515,-0.05746084079146385,9.749788284301758,0.1220703125,0.6103515625,-0.213623046875
0.4474999,0.2172738015651703,-0.053270988166332245,9.750985145568848,0.213623046875,0.6103515625,-0.335693359375
0.4524999,0.21128830313682556,-0.0454898327589035,9.752182006835938,0.152587890625,0.732421875,-0.274658203125
0.4574999,0.20350714027881622,-0.04010287672281265,9.753378868103027,0.152587890625,0.579833984375,-0.1220703125
0.4624999,0.1999158412218094,-0.0347159244120121,9.75397777557373,0.152587890625,0.457763671875,-0.244140625
0.4674999,0.19812019169330597,-0.03411737456917763,9.752182006835938,0.030517578125,0.335693359375,-0.244140625
0.47249990000000003,0.20111294090747833,-0.033518824726343155,9.752182006835938,0.1220703125,0.3662109375,-0.30517578125
0.47749990000000003,0.20231004059314728,-0.03232172131538391,9.747992515563965,0.1220703125,0.396728515625,-0.091552734375
0.4824999,0.19812019169330597,-0.028730420395731926,9.743204116821289,0.091552734375,0.274658203125,-0.091552734375
0.4874999,0.19931729137897491,-0.023942016065120697,9.739612579345703,-0.1220703125,0.030517578125,-0.18310546875
0.4924999,0.19393034279346466,-0.018555063754320145,9.737217903137207,-0.091552734375,-0.1220703125,-0.213623046875
0.4974999,0.19452889263629913,-0.019153613597154617,9.739013671875,0.091552734375,-0.091552734375,0.091552734375
0.5024999,0.20051439106464386,-0.019153613597154617,9.742006301879883,-0.152587890625,0.030517578125,0.091552734375
0.5074999,0.2106897532939911,-0.02753331884741783,9.744999885559082,-0.335693359375,0.030517578125,0
0.5124999,0.21667525172233582,-0.03651157766580582,9.743802070617676,-0.18310546875,0.335693359375,0
0.5174999,0.22266076505184174,-0.043095629662275314,9.746196746826172,-0.091552734375,0.3662109375,-0.091552734375
0.5224999,0.22086510062217712,-0.053270988166332245,9.747393608093262,-0.1220703125,0.18310546875,-0.030517578125
0.5274999,0.20949265360832214,-0.05147533491253853,9.747393608093262,-0.18310546875,0.244140625,-0.18310546875
0.5324999,0.1999158412218094,-0.050876785069704056,9.748590469360352,-0.18310546875,0.1220703125,-0.030517578125
0.5374999,0.19273324310779572,-0.050876785069704056,9.747393608093262,-0.18310546875,0.091552734375,0
0.5424999,0.18974047899246216,-0.048482585698366165,9.747393608093262,-0.152587890625,0,-0.06103515625
0.5474999,0.18914192914962769,-0.046088382601737976,9.749788284301758,-0.18310546875,0.030517578125,0.091552734375
0.5524999,0.1999158412218094,-0.046088382601737976,9.75397777557373,-0.244140625,0.1220703125,0
0.5574999,0.21128830313682556,-0.050876785069704056,9.754576683044434,-0.152587890625,0.30517578125,-0.152587890625
0.5624999,0.21128830313682556,-0.0454898327589035,9.761159896850586,0.091552734375,0.30517578125,-0.091552734375
0.5674999000000001,0.2190694510936737,-0.05386953800916672,9.7605619430542,-0.1220703125,0.091552734375,-0.091552734375
0.5724999000000001,0.2124854028224945,-0.043095629662275314,9.765350341796875,-0.091552734375,0.152587890625,-0.1220703125
0.5774999000000001,0.20530278980731964,-0.041299980133771896,9.766547203063965,-0.06103515625,0.213623046875,-0.274658203125
0.5824999,0.2064998894929886,-0.03232172131538391,9.765350341796875,-0.06103515625,0.213623046875,-0.152587890625
0.5874999,0.20051439106464386,-0.03172317147254944,9.761758804321289,-0.06103515625,0.18310546875,-0.3662109375
0.5924999,0.1999158412218094,-0.030526071786880493,9.754576683044434,0.1220703125,0.091552734375,-0.274658203125
0.5974999,0.20350714027881622,-0.03172317147254944,9.749189376831055,0.030517578125,0.1220703125,-0.091552734375
0.6024999,0.20470423996448517,-0.031124621629714966,9.745597839355469,0.06103515625,0.152587890625,-0.1220703125
0.6074999,0.20769700407981873,-0.02693476900458336,9.748590469360352,-0.1220703125,0.244140625,-0.1220703125
0.6124999,0.2041056901216507,-0.02513911761343479,9.752182006835938,-0.18310546875,0.213623046875,-0.152587890625
0.6174999,0.20051439106464386,-0.023343466222286224,9.75517463684082,-0.091552734375,0.091552734375,-0.1220703125
0.6224999,0.19452889263629913,-0.023942016065120697,9.75397777557373,0,0.152587890625,-0.091552734375
0.6274999,0.1933317929506302,-0.028131870552897453,9.747393608093262,-0.1220703125,0.152587890625,0.030517578125
0.6324999,0.19153612852096558,-0.03232172131538391,9.742605209350586,-0.091552734375,0.091552734375,-0.1220703125
0.6374999,0.18914192914962769,-0.035913024097681046,9.737217903137207,-0.030517578125,0.152587890625,0.06103515625
0.6424999,0.19153612852096558,-0.04369417950510979,9.738415718078613,-0.1220703125,0.1220703125,0.06103515625
0.6474999,0.19632454216480255,-0.0454898327589035,9.738415718078613,-0.091552734375,0.213623046875,0
0.6524999,0.19871874153614044,-0.05027823522686958,9.742605209350586,0,0.335693359375,-0.152587890625
0.6574999,0.20111294090747833,-0.046088382601737976,9.744400978088379,-0.06103515625,0.213623046875,0
0.6624999,0.19871874153614044,-0.043095629662275314,9.748590469360352,-0.18310546875,0.152587890625,-0.06103515625
0.6674999,0.1975216418504715,-0.03890577703714371,9.750985145568848,-0.30517578125,0,0.030517578125
0.6724999,0.19572599232196808,-0.0347159244120121,9.75637149810791,-0.152587890625,0.06103515625,0.18310546875
0.6774999,0.19572599232196808,-0.03411737456917763,9.756970405578613,-0.091552734375,0.030517578125,0.06103515625
0.6824999,0.19452889263629913,-0.03651157766580582,9.761758804321289,-0.06103515625,-0.030517578125,0.06103515625
0.6874999,0.19393034279346466,-0.03711012750864029,9.7605619430542,-0.18310546875,0,0.1220703125
0.6924999000000001,0.1975216418504715,-0.043095629662275314,9.762357711791992,-0.1220703125,-0.1220703125,0.30517578125
0.6974999000000001,0.20530278980731964,-0.04908113554120064,9.758766174316406,-0.091552734375,0.1220703125,0.091552734375
0.7024999000000001,0.21188685297966003,-0.05267243832349777,9.75637149810791,-0.1220703125,0.18310546875,0
0.7074999,0.21308395266532898,-0.055665191262960434,9.75278091430664,-0.1220703125,0.274658203125,0
0.7124999,0.2148796021938324,-0.05746084079146385,9.747393608093262,-0.152587890625,0.091552734375,0.06103515625
0.7174999,0.20709845423698425,-0.05626374110579491,9.748590469360352,-0.152587890625,0.18310546875,-0.030517578125
0.7224999,0.20889410376548767,-0.05925649031996727,9.747992515563965,-0.091552734375,0.1220703125,-0.1220703125
0.7274999,0.20530278980731964,-0.05925649031996727,9.75278091430664,-0.030517578125,0.213623046875,-0.091552734375
0.7324999,0.2059013396501541,-0.05626374110579491,9.754576683044434,-0.06103515625,0.335693359375,-0.030517578125
0.7374999,0.2059013396501541,-0.05386953800916672,9.7605619430542,-0.1220703125,0.3662109375,0.030517578125
0.7424999,0.2041056901216507,-0.046088382601737976,9.757569313049316,-0.06103515625,0.274658203125,-0.1220703125
0.7474999,0.20530278980731964,-0.04189852997660637,9.7605619430542,-0.091552734375,0.274658203125,-0.152587890625
0.7524999,0.2041056901216507,-0.0347159244120121,9.754576683044434,-0.1220703125,0.30517578125,-0.030517578125
0.7574999,0.16639702022075653,-0.005985504016280174,9.747393608093262,-0.152587890625,0.640869140625,0.42724609375
0.7624999,0.16639702022075653,-0.005985504016280174,9.747393608093262,-0.152587890625,0.640869140625,0.42724609375
0.7674999,0.17896658182144165,-0.015562310814857483,9.748590469360352,-0.06103515625,0.54931640625,1.739501953125
0.7724999,0.17477671802043915,-0.011372458189725876,9.748590469360352,-0.244140625,-0.1220703125,0.91552734375
0.7774999,0.18315643072128296,-0.03232172131538391,9.752182006835938,0.030517578125,0.335693359375,-0.213623046875
0.7824999,0.22864626348018646,-0.06165069341659546,9.7605619430542,-0.06103515625,-0.152587890625,0
0.7874999,0.21966800093650818,-0.07182604819536209,9.756970405578613,-0.091552734375,-0.1220703125,-0.1220703125
0.7924999,0.2298433631658554,-0.07422025501728058,9.75278091430664,-0.030517578125,0,-0.244140625
0.7974999,0.22385786473751068,-0.06464344263076782,9.744999885559082,-0.06103515625,-0.030517578125,-0.213623046875
0.8024999,0.21667525172233582,-0.0454898327589035,9.739013671875,-0.030517578125,0.18310546875,0.030517578125
0.8074999,0.21787235140800476,-0.03890577703714371,9.739612579345703,-0.06103515625,0.030517578125,0.091552734375
0.8124999,0.20530278980731964,-0.023343466222286224,9.740211486816406,-0.1220703125,0.18310546875,-0.1220703125
0.8174999000000001,0.20350714027881622,-0.03411737456917763,9.749788284301758,-0.213623046875,0.335693359375,-0.06103515625
0.8224999000000001,0.2017114907503128,-0.03531447425484657,9.75397777557373,-0.213623046875,0.213623046875,-0.213623046875
0.8274999000000001,0.1933317929506302,-0.043095629662275314,9.761758804321289,0,0.42724609375,-0.18310546875
0.8324999000000001,0.1999158412218094,-0.0454898327589035,9.763554573059082,-0.030517578125,0.30517578125,-0.152587890625
0.8374999,0.1951274424791336,-0.048482585698366165,9.762357711791992,-0.030517578125,0.396728515625,-0.18310546875
0.8424999,0.1975216418504715,-0.04908113554120064,9.758167266845703,0.030517578125,0.335693359375,-0.18310546875
0.8474999,0.19692309200763702,-0.053270988166332245,9.75278091430664,0.091552734375,0.3662109375,-0.42724609375
0.8524999,0.1975216418504715,-0.0586579404771328,9.751583099365234,0.18310546875,0.42724609375,-0.48828125
0.8574999,0.19812019169330597,-0.08140286058187485,9.75397777557373,0.091552734375,0.244140625,-0.6103515625
0.8624999,0.20709845423698425,-0.2825157940387726,9.894038200378418,0.823974609375,0.091552734375,-1.40380859375
0.8674999,0.17238251864910126,-0.7326257228851318,9.655217170715332,5.37109375,-2.532958984375,-10.55908203125
0.8724999,-0.06344634294509888,-0.23822307586669922,9.553462982177734,-3.23486328125,13.7939453125,-10.92529296875
0.8774999,-0.07062894850969315,-0.07182604819536209,9.25299072265625,-0.3662109375,-7.75146484375,24.383544921875
0.8824999,-0.017956512048840523,0.5398924946784973,9.138668060302734,-0.67138671875,-3.2958984375,-8.758544921875
0.8874999,0.07422025501728058,0.9271546006202698,9.206902503967285,0.1220703125,1.64794921875,-5.401611328125
0.8924999,0.3405751883983612,0.7218518257141113,9.430760383605957,0.1220703125,0.518798828125,2.38037109375
0.8974999,0.40940847992897034,0.3208230137825012,9.624691009521484,-0.42724609375,-1.15966796875,0.701904296875
0.9024999,0.3603273630142212,0.12988543510437012,9.761159896850586,-0.335693359375,-0.67138671875,0.8544921875
0.9074999,0.322618693113327,-0.1107318252325058,9.834183692932129,-0.091552734375,0.244140625,0.06103515625
0.9124999,0.2890998423099518,-0.16101007163524628,9.881468772888184,-0.18310546875,-0.396728515625,0.30517578125
0.9174999,0.21368250250816345,-0.18495208024978638,9.871891975402832,-0.030517578125,-0.18310546875,0.396728515625
0.9224999,0.1628057211637497,-0.13946224749088287,9.849146842956543,-0.244140625,-0.1220703125,0.732421875
0.9274999,0.07721300423145294,-0.07900865375995636,9.80904483795166,-0.152587890625,-0.244140625,1.556396484375
0.9324999,0.076015904545784,0.005386953707784414,9.761159896850586,-0.091552734375,-0.54931640625,3.173828125
0.9374999,0.07781155407428741,0.002394201699644327,9.746794700622559,-0.030517578125,-0.67138671875,0.396728515625
0.9424999000000001,0.16519992053508759,0.01975216343998909,9.737217903137207,-0.152587890625,-0.457763671875,0.335693359375
0.9474999000000001,0.2190694510936737,-0.011372458189725876,9.747992515563965,-0.091552734375,-0.3662109375,0.701904296875
0.9524999000000001,0.23163901269435883,-0.0065840547904372215,9.756970405578613,0.1220703125,-0.244140625,0.152587890625
0.9574999000000001,0.1693897694349289,0.043095629662275314,9.747992515563965,0.244140625,-0.732421875,1.28173828125
0.9624999,0.11611878126859665,0.06763619929552078,9.750386238098145,0.335693359375,-1.03759765625,1.312255859375
0.9674999,0.11851298063993454,0.038307227194309235,9.75397777557373,0.274658203125,-0.9765625,0.18310546875
0.9724999,0.19812019169330597,-0.06763619929552078,9.761159896850586,0.1220703125,-0.67138671875,-0.152587890625
0.9774999,0.284311443567276,-0.15921440720558167,9.768342971801758,0.213623046875,-0.244140625,-0.335693359375
0.9824999,0.3597288131713867,-0.22206220030784607,9.774927139282227,0.30517578125,-0.091552734375,-0.48828125
0.9874999,0.3597288131713867,-0.20350714027881622,9.766547203063965,0.18310546875,-0.396728515625,-0.3662109375
0.9924999,0.30286651849746704,-0.15442600846290588,9.75397777557373,0.244140625,-0.30517578125,-0.274658203125
0.9974999,0.2585737705230713,-0.11432313174009323,9.752182006835938,0.091552734375,-0.6103515625,-0.244140625
1.0024999,0.20769700407981873,-0.08858546614646912,9.740211486816406,0.152587890625,-0.67138671875,-0.396728515625
1.0074999000000002,0.1693897694349289,-0.08439560979604721,9.737217903137207,0.244140625,-0.42724609375,-0.42724609375
1.0124999000000001,0.15981295704841614,-0.08200141042470932,9.741408348083496,0.18310546875,-0.762939453125,-0.335693359375
1.0174999000000002,0.15801730751991272,-0.08619125932455063,9.749788284301758,0.335693359375,-0.8544921875,-0.457763671875
1.0224999000000001,0.1586158573627472,-0.07122749835252762,9.747393608093262,0.244140625,-0.732421875,-0.48828125
1.0274999,0.1933317929506302,-0.07900865375995636,9.750386238098145,0.244140625,-0.9765625,-0.518798828125
1.0324999000000001,0.18614917993545532,-0.06224924325942993,9.742006301879883,0.42724609375,-0.6103515625,-0.457763671875
1.0374999,0.21547815203666687,-0.05626374110579491,9.748590469360352,0.30517578125,-0.579833984375,-0.579833984375
1.0424999000000001,0.19871874153614044,-0.05506663769483566,9.738415718078613,0.48828125,-0.640869140625,-0.6103515625
1.0474999,0.21667525172233582,-0.04249707981944084,9.75637149810791,0.54931640625,-0.6103515625,-0.518798828125
1.0524999000000002,0.19812019169330597,-0.0454898327589035,9.758766174316406,0.42724609375,-0.732421875,-0.579833984375
1.0574999,0.19632454216480255,-0.03411737456917763,9.758766174316406,0.579833984375,-0.8544921875,-0.701904296875
1.0624999000000002,0.20290859043598175,-0.03770867735147476,9.773131370544434,0.3662109375,-1.129150390625,-1.129150390625
1.0674999,0.18375498056411743,-0.0520738884806633,9.773131370544434,0.30517578125,-1.129150390625,-1.3427734375
1.0724999000000002,0.19812019169330597,-0.05027823522686958,9.780313491821289,0.18310546875,-1.15966796875,-3.143310546875
1.0774999,0.19871874153614044,-0.058059390634298325,9.768941879272461,0.152587890625,-1.739501953125,-2.5634765625
1.0824999000000002,0.2232593148946762,-0.050876785069704056,9.763554573059082,-0.213623046875,-2.471923828125,-1.495361328125
1.0874999,0.2825157940387726,-0.020350715145468712,9.752182006835938,-0.06103515625,-1.617431640625,-1.708984375
1.0924999000000002,0.29388827085494995,-0.0017956512747332454,9.741408348083496,0.1220703125,-0.48828125,-1.617431640625
1.0974999,0.3076549172401428,0.008379706181585789,9.763554573059082,0.091552734375,0.030517578125,-0.579833984375
1.1024999000000002,0.30226796865463257,0.011971008032560349,9.745597839355469,-0.18310546875,-0.396728515625,-0.6103515625
1.1074999,0.33758243918418884,-0.019153613597154617,9.73781681060791,-0.091552734375,0.335693359375,-1.129150390625
1.1124999000000002,0.365115761756897,-0.07781155407428741,9.726444244384766,0.244140625,1.068115234375,-1.495361328125
1.1174999,0.33279404044151306,-0.08080431073904037,9.710882186889648,0,-0.06103515625,1.8310546875
1.1224999000000002,0.22445641458034515,-0.08080431073904037,9.730634689331055,-0.030517578125,0.030517578125,1.64794921875
1.1274999,0.10654197633266449,-0.038307227194309235,9.745597839355469,-0.48828125,-1.129150390625,-0.396728515625
1.1324999000000002,0.10654197633266449,-0.038307227194309235,9.745597839355469,-0.48828125,-1.129150390625,-0.396728515625
1.1374999000000001,0.04728548228740692,-0.011971008032560349,9.762955665588379,-0.518798828125,-0.91552734375,-0.274658203125
1.1424999000000002,0.076015904545784,0.011971008032560349,9.748590469360352,0.48828125,1.28173828125,-0.18310546875
1.1474999000000001,0.12988543510437012,-0.012569558806717396,9.753378868103027,0.42724609375,1.220703125,-0.42724609375
1.1524999000000002,0.17238251864910126,-0.012569558806717396,9.739013671875,-0.1220703125,-0.3662109375,-0.213623046875
1.1574999000000001,0.18136078119277954,-0.014365210197865963,9.75637149810791,-0.274658203125,-0.9765625,-0.30517578125
1.1624999,0.19033902883529663,-0.03890577703714371,9.75278091430664,-0.152587890625,-0.30517578125,-0.18310546875
1.1674999000000001,0.22206220030784607,-0.03292027488350868,9.764751434326172,-0.091552734375,-0.42724609375,0
1.1724999,0.24839842319488525,-0.05267243832349777,9.744400978088379,-0.1220703125,-0.274658203125,0.06103515625
1.1774999000000002,0.2645592987537384,-0.06165069341659546,9.732429504394531,0.30517578125,0.823974609375,0.1220703125
1.1824999,0.25917232036590576,-0.03770867735147476,9.724648475646973,0.457763671875,1.007080078125,-0.3662109375
1.1874999000000002,0.23523031175136566,-0.05746084079146385,9.727641105651855,0.06103515625,0.030517578125,-0.42724609375
1.1924999,0.2059013396501541,-0.011971008032560349,9.734824180603027,-0.213623046875,-1.007080078125,-0.3662109375
1.1974999000000002,0.19273324310779572,-0.02992752194404602,9.750386238098145,-0.396728515625,-0.885009765625,-0.06103515625
1.2024999,0.2124854028224945,-0.031124621629714966,9.756970405578613,-0.18310546875,-0.457763671875,0.274658203125
1.2074999000000002,0.25677812099456787,-0.02992752194404602,9.756970405578613,0.335693359375,0.640869140625,0.030517578125
1.2124999,0.25019407272338867,-0.05746084079146385,9.754576683044434,0.54931640625,1.434326171875,-0.274658203125
1.2174999000000002,0.22685061395168304,-0.023343466222286224,9.770736694335938,0.213623046875,0.335693359375,-0.30517578125
1.2224999,0.181959331035614,-0.004189853090792894,9.769539833068848,-0.42724609375,-1.434326171875,-0.42724609375
1.2274999000000002,0.16759411990642548,-0.01975216343998909,9.773730278015137,-0.457763671875,-1.434326171875,0.030517578125
1.2324999,0.1867477297782898,-0.01496376097202301,9.765948295593262,0,-0.091552734375,0.152587890625
1.2374999000000002,0.24480712413787842,-0.05386953800916672,9.745597839355469,0.48828125,1.28173828125,-0.18310546875
1.2424999,0.24001872539520264,-0.04369417950510979,9.742006301879883,0.457763671875,1.556396484375,-0.54931640625
1.2474999000000002,0.2124854028224945,-0.03651157766580582,9.746794700622559,-0.152587890625,-0.396728515625,-0.579833984375
1.2524999,0.17836803197860718,-0.0077811554074287415,9.770736694335938,-0.762939453125,-1.861572265625,-0.1220703125
1.2574999000000002,0.18315643072128296,-0.023942016065120697,9.762357711791992,-0.48828125,-1.129150390625,0.18310546875
1.2624999000000001,0.23702596127986908,-0.038307227194309235,9.773131370544434,0.213623046875,0.8544921875,0.1220703125
1.2674999000000002,0.2454056739807129,-0.048482585698366165,9.73542308807373,0.823974609375,2.25830078125,-0.518798828125
1.2724999000000001,0.23044191300868988,-0.03651157766580582,9.75936508178711,0.18310546875,0.518798828125,-0.823974609375
1.2774999000000002,0.1693897694349289,-0.002394201699644327,9.753378868103027,-0.732421875,-2.0751953125,-0.48828125
1.2824999000000001,0.16998831927776337,-0.01496376097202301,9.768941879272461,-0.6103515625,-1.708984375,0.244140625
1.2874999,0.22924481332302094,-0.03770867735147476,9.786897659301758,0.335693359375,0.79345703125,0.274658203125
1.2924999000000001,0.2555810213088989,-0.03651157766580582,9.73542308807373,0.91552734375,2.62451171875,-0.518798828125
1.2974999,0.2346317619085312,-0.050876785069704056,9.774927139282227,0.152587890625,0.54931640625,-1.312255859375
1.3024999000000002,0.18495208024978638,-0.0017956512747332454,9.744400978088379,-1.007080078125,-2.5634765625,-0.579833984375
1.3074999,0.1825578808784485,-0.020350715145468712,9.754576683044434,-0.91552734375,-2.166748046875,0.30517578125
1.3124999000000002,0.2256535142660141,-0.04010287672281265,9.744400978088379,0.6103515625,1.495361328125,0.1220703125
1.3174999,0.2759317457675934,-0.09038111567497253,9.733627319335938,1.220703125,3.204345703125,-0.091552734375
1.3224999000000002,0.22625206410884857,-0.0736217051744461,9.721057891845703,-0.030517578125,-0.091552734375,0.152587890625
1.3274999,0.18734627962112427,-0.07242459803819656,9.746794700622559,-1.373291015625,-3.265380859375,-0.48828125
1.3324999000000002,0.22625206410884857,-0.09636662155389786,9.747992515563965,-0.8544921875,-1.983642578125,0.67138671875
1.3374999,0.26994624733924866,-0.08858546614646912,9.771934509277344,1.220703125,3.021240234375,0.091552734375
1.3424999000000002,0.2555810213088989,-0.08379705995321274,9.75397777557373,1.434326171875,3.41796875,-0.152587890625
1.3474999,0.20111294090747833,-0.02753331884741783,9.791088104248047,-0.91552734375,-2.166748046875,-0.762939453125
1.3524999000000002,0.15442600846290588,-0.0071826050989329815,9.748590469360352,-1.89208984375,-4.608154296875,0.42724609375
1.3574999,0.20709845423698425,-0.0017956512747332454,9.764153480529785,0.091552734375,0.18310546875,0.274658203125
1.3624999000000002,0.24121582508087158,-0.03950432687997818,9.732429504394531,2.166748046875,5.462646484375,-0.457763671875
1.3674999,0.20949265360832214,-0.030526071786880493,9.729436874389648,0.518798828125,1.190185546875,-0.732421875
1.3724999000000002,0.1693897694349289,-0.02214636653661728,9.740211486816406,-2.25830078125,-5.584716796875,0.18310546875
1.3774999,0.20231004059314728,-0.07721300423145294,9.706692695617676,-1.28173828125,-3.0517578125,0.42724609375
1.3824999000000002,0.2346317619085312,-0.04668693244457245,9.734225273132324,2.166748046875,5.340576171875,-0.579833984375
1.3874999000000001,0.23942017555236816,-0.05446808785200119,9.701305389404297,2.01416015625,4.33349609375,-1.129150390625
1.3924999000000002,0.181959331035614,0.005985504016280174,9.750386238098145,-2.01416015625,-4.913330078125,0.091552734375
1.3974999000000001,0.20470423996448517,-0.009576806798577309,9.718064308166504,-2.25830078125,-5.584716796875,0.732421875
1.4024999000000002,0.2190694510936737,-0.005386953707784414,9.770736694335938,1.5869140625,4.33349609375,-0.48828125
1.4074999000000001,0.24480712413787842,-0.03232172131538391,9.733627319335938,2.838134765625,6.4697265625,-1.15966796875
1.4124999,0.19632454216480255,-0.01496376097202301,9.77791976928711,-1.3427734375,-3.692626953125,0.152587890625
1.4174999000000001,0.20889410376548767,-0.01496376097202301,9.75397777557373,-2.655029296875,-6.8359375,1.068115234375
1.4224999,0.18974047899246216,-0.02274491637945175,9.771934509277344,1.0986328125,3.143310546875,-0.79345703125
1.4274999000000002,0.22385786473751068,-0.0454898327589035,9.724050521850586,2.655029296875,6.561279296875,-1.373291015625
1.4324999,0.2017114907503128,-0.05626374110579491,9.767146110534668,-1.15966796875,-2.960205078125,0.396728515625
1.4374999000000002,0.228047713637352,-0.0628477931022644,9.714473724365234,-2.410888671875,-6.34765625,1.312255859375
1.4424999,0.16340427100658417,-0.040701430290937424,9.783307075500488,1.03759765625,3.326416015625,-0.91552734375
1.4474999000000002,0.1843535304069519,-0.038307227194309235,9.751583099365234,2.197265625,5.43212890625,-1.52587890625
1.4524999,0.21787235140800476,-0.043095629662275314,9.764751434326172,-1.46484375,-3.90625,0.79345703125
1.4574999000000002,0.2585737705230713,-0.046088382601737976,9.751583099365234,-1.617431640625,-4.57763671875,0.823974609375
1.4624999,0.181959331035614,0.0071826050989329815,9.768941879272461,1.678466796875,5.096435546875,-1.3427734375
1.4674999000000002,0.21009120345115662,-0.01975216343998909,9.79527759552002,1.03759765625,2.899169921875,-1.434326171875
1.4724999,0.25318682193756104,-0.02214636653661728,9.79408073425293,-1.953125,-5.401611328125,1.8310546875
1.4774999000000002,0.24001872539520264,-0.028730420395731926,9.79408073425293,-0.54931640625,-1.495361328125,-0.244140625
1.4824999,0.19273324310779572,-0.013766659423708916,9.762357711791992,2.25830078125,6.378173828125,-1.800537109375
1.4874999000000002,0.2256535142660141,-0.05267243832349777,9.739612579345703,-0.335693359375,-1.007080078125,-0.42724609375
1.4924999,0.30466216802597046,-0.06584054976701736,9.706093788146973,-1.922607421875,-5.950927734375,2.0751953125
1.4974999000000002,0.30466216802597046,-0.06584054976701736,9.706093788146973,-1.922607421875,-5.950927734375,2.0751953125
1.5024999,0.20709845423698425,-0.030526071786880493,9.737217903137207,1.068115234375,2.899169921875,-1.251220703125
1.5074999000000002,0.18914192914962769,-0.041299980133771896,9.740809440612793,1.800537109375,5.0048828125,-1.861572265625
1.5124999000000001,0.2537853717803955,-0.06464344263076782,9.73781681060791,-1.678466796875,-4.94384765625,1.64794921875
1.5174999000000002,0.27054479718208313,-0.06883329898118973,9.732429504394531,-0.91552734375,-3.387451171875,0.579833984375
1.5224999000000001,0.1472434103488922,-0.031124621629714966,9.73661994934082,2.197265625,6.622314453125,-1.89208984375
1.5274999000000002,0.2017114907503128,-0.06224924325942993,9.722254753112793,-0.030517578125,0.244140625,-0.518798828125
1.5324999000000001,0.27892449498176575,-0.076015904545784,9.712079048156738,-2.105712890625,-6.40869140625,2.50244140625
1.5374999000000003,0.15322890877723694,-0.014365210197865963,9.761758804321289,1.15966796875,2.655029296875,-1.373291015625
1.5424999000000001,0.12868833541870117,-0.017956512048840523,9.761758804321289,1.678466796875,5.157470703125,-1.617431640625
1.5474999,0.2495955228805542,-0.035913024097681046,9.75936508178711,-1.983642578125,-5.2490234375,1.861572265625
1.5524999000000002,0.2346317619085312,-0.004788403399288654,9.781511306762695,-0.42724609375,-2.38037109375,0.244140625
1.5574999,0.11013327538967133,0.020949264988303185,9.739013671875,2.13623046875,6.500244140625,-2.227783203125
1.5624999000000002,0.23403321206569672,-0.03651157766580582,9.724648475646973,-0.823974609375,-1.556396484375,0.79345703125
1.5674999,0.31184476613998413,-0.058059390634298325,9.699509620666504,-1.678466796875,-5.645751953125,2.13623046875
1.5724999000000002,0.16101007163524628,-0.01735796220600605,9.729436874389648,1.953125,5.035400390625,-2.50244140625
1.5774999,0.20709845423698425,-0.05686229094862938,9.738415718078613,0.579833984375,2.227783203125,-0.457763671875
1.5824999000000002,0.3250128924846649,-0.09217676520347595,9.746196746826172,-2.105712890625,-6.28662109375,2.99072265625
1.5874999,0.1951274424791336,-0.008379706181585789,9.801262855529785,1.007080078125,2.0751953125,-1.800537109375
1.5924999000000002,0.13587094843387604,-0.033518824726343155,9.776124000549316,1.312255859375,4.7607421875,-1.434326171875
1.5974999,0.29807811975479126,-0.0628477931022644,9.770736694335938,-1.8310546875,-5.279541015625,2.716064453125
1.6024999000000002,0.22026655077934265,0,9.777320861816406,0.18310546875,-0.885009765625,-0.8544921875
1.6074999,0.10893617570400238,-0.004189853090792894,9.767744064331055,1.8310546875,5.7373046875,-2.3193359375
1.6124999000000002,0.2849099934101105,-0.046088382601737976,9.739013671875,-1.52587890625,-3.60107421875,2.716064453125
1.6174999,0.2902969419956207,-0.010175357572734356,9.765350341796875,-0.579833984375,-2.74658203125,0.18310546875
1.6224999000000002,0.12749123573303223,-0.0065840547904372215,9.770736694335938,1.89208984375,5.767822265625,-2.838134765625
1.6274999,0.2932897210121155,-0.07062894850969315,9.736021041870117,-1.129150390625,-2.166748046875,2.197265625
1.6324999000000002,0.32381579279899597,-0.0586579404771328,9.7605619430542,-0.91552734375,-3.936767578125,0.701904296875
1.6374999000000001,0.11312603205442429,-0.035913024097681046,9.758766174316406,2.01416015625,5.279541015625,-3.0517578125
1.6424999000000002,0.25318682193756104,-0.10115502029657364,9.723451614379883,-0.732421875,-0.946044921875,1.861572265625
1.6474999000000001,0.2992752194404602,-0.06404489278793335,9.730634689331055,-1.15966796875,-4.39453125,1.46484375
1.6524999000000002,0.08798690885305405,-0.011372458189725876,9.738415718078613,1.861572265625,4.791259765625,-3.41796875
1.6574999000000001,0.22685061395168304,-0.076015904545784,9.70549488067627,-0.518798828125,-0.274658203125,1.708984375
1.6624999000000003,0.30286651849746704,-0.03292027488350868,9.727043151855469,-1.068115234375,-4.39453125,1.739501953125
1.6674999000000001,0.09696517139673233,0.009576806798577309,9.75278091430664,1.739501953125,4.425048828125,-3.509521484375
1.6724999,0.2364274114370346,-0.08619125932455063,9.73542308807373,-0.732421875,-0.335693359375,1.983642578125
1.6774999000000002,0.3148375153541565,-0.0347159244120121,9.765350341796875,-1.068115234375,-4.180908203125,1.739501953125
1.6824999,0.10474632680416107,-0.004788403399288654,9.795876502990723,1.708984375,4.45556640625,-3.96728515625
1.6874999000000002,0.2495955228805542,-0.10354922711849213,9.755773544311523,-0.732421875,-0.518798828125,2.044677734375
1.6924999,0.314238965511322,-0.03950432687997818,9.777320861816406,-0.885009765625,-3.7841796875,1.40380859375
1.6974999000000002,0.1107318252325058,-0.0011971008498221636,9.793481826782227,1.8310546875,4.364013671875,-3.936767578125
1.7024999,0.27892449498176575,-0.10893617570400238,9.730035781860352,-1.190185546875,-1.15966796875,2.532958984375
1.7074999000000002,0.3082534670829773,0.005386953707784414,9.776124000549316,-0.579833984375,-3.173828125,0.91552734375
1.7124999,0.10773907601833344,0.013766659423708916,9.77791976928711,1.77001953125,4.608154296875,-3.72314453125
1.7174999000000002,0.2890998423099518,-0.08559270948171616,9.714473724365234,-1.617431640625,-2.197265625,3.265380859375
1.7224999,0.243011474609375,0.023942016065120697,9.77133560180664,-0.152587890625,-1.922607421875,-0.213623046875
1.7274999000000002,0.08080431073904037,-0.002394201699644327,9.740211486816406,1.5869140625,4.638671875,-3.570556640625
1.7324999,0.29388827085494995,-0.0999579206109047,9.701305389404297,-1.739501953125,-3.387451171875,3.936767578125
1.7374999000000002,0.21308395266532898,0.0293289702385664,9.780313491821289,0.6103515625,-0.30517578125,-1.15966796875
1.7424999,0.1364694982767105,-0.03531447425484657,9.731831550598145,1.220703125,3.72314453125,-2.838134765625
1.7474999000000002,0.35015198588371277,-0.11432313174009323,9.723451614379883,-2.044677734375,-4.39453125,4.39453125
1.7524999,0.1933317929506302,0.031124621629714966,9.782708168029785,1.373291015625,1.77001953125,-2.349853515625
1.7574999000000002,0.1867477297782898,-0.07302315533161163,9.70549488067627,0.579833984375,2.01416015625,-1.556396484375
1.7624999000000001,0.35015198588371277,-0.08080431073904037,9.756970405578613,-1.739501953125,-4.45556640625,4.425048828125
1.7674999000000002,0.13048399984836578,0.03950432687997818,9.774328231811523,1.800537109375,3.60107421875,-3.936767578125
1.7724999000000001,0.2256535142660141,-0.11971008777618408,9.746794700622559,-0.732421875,-0.1220703125,0.18310546875
1.7774999000000002,0.2777273952960968,-0.06464344263076782,9.783905029296875,-1.007080078125,-3.143310546875,3.753662109375
1.7824999000000001,0.09576806426048279,0.0035913025494664907,9.787496566772461,2.01416015625,4.150390625,-4.974365234375
1.7874999000000003,0.27234044671058655,-0.13048399984836578,9.707889556884766,-1.46484375,-2.532958984375,2.593994140625
1.7924999000000001,0.20949265360832214,-0.0017956512747332454,9.769539833068848,0.213623046875,-0.6103515625,1.89208984375
1.7974999,0.12270283699035645,-0.018555063754320145,9.697713851928711,1.434326171875,3.23486328125,-5.55419921875
1.8024999000000002,0.29867666959762573,-0.14245499670505524,9.676764488220215,-1.8310546875,-3.84521484375,5.06591796875
1.8074999,0.15981295704841614,0.02513911761343479,9.750985145568848,1.373291015625,2.349853515625,-1.0986328125
1.8124999000000002,0.20350714027881622,-0.07960720360279083,9.6803560256958,0.274658203125,0.823974609375,-3.84521484375
1.8174999,0.3172317147254944,-0.07062894850969315,9.767146110534668,-1.495361328125,-3.265380859375,5.79833984375
1.8224999000000002,0.14365209639072418,0.05925649031996727,9.79527759552002,1.953125,3.90625,-4.486083984375
1.8274999,0.3016694188117981,-0.10115502029657364,9.740211486816406,-1.220703125,-2.044677734375,-0.1220703125
1.8324999000000002,0.23343466222286224,-0.020949264988303185,9.804854393005371,-0.213623046875,-0.67138671875,4.364013671875
1.8374999,0.14065934717655182,-0.013766659423708916,9.739013671875,1.373291015625,3.265380859375,-6.53076171875
1.8424999000000002,0.28790274262428284,-0.16400282084941864,9.704896926879883,-1.800537109375,-3.7841796875,4.486083984375
1.8474999,0.13108254969120026,0.004189853090792894,9.765350341796875,1.373291015625,2.471923828125,-0.1220703125
1.8524999000000002,0.2124854028224945,-0.11013327538967133,9.678560256958008,0.1220703125,0.274658203125,-4.913330078125
1.8574999,0.28072014451026917,-0.07481880486011505,9.768941879272461,-1.068115234375,-2.8076171875,6.988525390625
1.8624999000000002,0.1346738487482071,0.053270988166332245,9.77013874053955,1.77001953125,3.7841796875,-5.462646484375
1.8674999,0.1346738487482071,0.053270988166332245,9.77013874053955,1.77001953125,3.7841796875,-5.462646484375
1.8724999000000002,0.3076549172401428,-0.08738835901021957,9.729436874389648,-1.46484375,-2.838134765625,0.396728515625
1.8774999,0.20051439106464386,0.05027823522686958,9.813833236694336,0.396728515625,0.762939453125,4.364013671875
1.8824999000000002,0.18614917993545532,-0.009576806798577309,9.704896926879883,0.762939453125,1.800537109375,-7.537841796875
1.8874999000000001,0.304063618183136,-0.10235211998224258,9.767744064331055,-1.617431640625,-3.662109375,6.53076171875
1.8924999000000002,0.1280897855758667,0.0293289702385664,9.804854393005371,1.5869140625,3.265380859375,-2.38037109375
1.8974999000000001,0.28730419278144836,-0.1472434103488922,9.727641105651855,-0.885009765625,-1.708984375,-3.23486328125
1.9024999000000002,0.19033902883529663,-0.04010287672281265,9.825204849243164,-0.1220703125,-0.457763671875,6.744384765625
1.9074999000000001,0.1538274586200714,-0.04010287672281265,9.70549488067627,1.007080078125,2.532958984375,-7.965087890625
1.9124999000000003,0.27234044671058655,-0.14604631066322327,9.712677955627441,-1.64794921875,-3.662109375,4.69970703125
1.9174999000000001,0.10893617570400238,0.01496376097202301,9.769539833068848,1.373291015625,3.021240234375,0.091552734375
1.9224999,0.27234044671058655,-0.13527239859104156,9.677961349487305,-0.6103515625,-1.0986328125,-5.55419921875
1.9274999000000002,0.21188685297966003,-0.02693476900458336,9.803058624267578,-0.30517578125,-1.068115234375,7.904052734375
1.9324999,0.16998831927776337,0.01496376097202301,9.729436874389648,1.190185546875,2.8076171875,-7.62939453125
1.9374999000000002,0.3016694188117981,-0.08918401598930359,9.724050521850586,-1.64794921875,-3.5400390625,3.60107421875
1.9424999,0.12389993667602539,0.07182604819536209,9.801861763000488,1.373291015625,2.99072265625,1.373291015625
1.9474999000000002,0.29568392038345337,-0.08798690885305405,9.68933391571045,-0.54931640625,-1.190185546875,-6.34765625
1.9524999,0.21607670187950134,-0.005386953707784414,9.815628051757812,-0.457763671875,-1.373291015625,8.209228515625
1.9574999000000002,0.18974047899246216,0.020350715145468712,9.716867446899414,1.28173828125,2.593994140625,-7.568359375
1.9624999,0.3100491166114807,-0.10175357013940811,9.728838920593262,-1.46484375,-3.2958984375,3.570556640625
1.9674999000000002,0.13407529890537262,0.060453593730926514,9.800664901733398,1.434326171875,3.11279296875,1.312255859375
1.9724999,0.314238965511322,-0.1256955862045288,9.675567626953125,-0.732421875,-1.434326171875,-6.256103515625
1.9774999000000002,0.20470423996448517,-0.008978256024420261,9.82640266418457,-0.091552734375,-0.6103515625,8.392333984375
1.9824999,0.20051439106464386,-0.013168109580874443,9.691129684448242,1.03759765625,2.25830078125,-8.11767578125
1.9874999000000002,0.284311443567276,-0.10534487664699554,9.75278091430664,-1.617431640625,-3.326416015625,4.669189453125
1.9924999,0.10953472554683685,0.06404489278793335,9.789292335510254,1.52587890625,3.2958984375,-0.244140625
1.9974999000000002,0.3076549172401428,-0.13587094843387604,9.698312759399414,-1.0986328125,-2.197265625,-4.8828125
2.0024999,0.16220717132091522,0.048482585698366165,9.821614265441895,0.54931640625,0.579833984375,7.781982421875
2.0074999,0.23403321206569672,-0.033518824726343155,9.66958236694336,0.48828125,1.190185546875,-8.575439453125
2.0124999000000003,0.2753331959247589,-0.043095629662275314,9.768342971801758,-1.15966796875,-2.685546875,6.561279296875
2.0174999000000002,0.13347674906253815,0.06643909960985184,9.740809440612793,1.617431640625,3.47900390625,-3.0517578125
2.0224999,0.3321954905986786,-0.14245499670505524,9.683947563171387,-1.40380859375,-3.265380859375,-1.922607421875
2.0274999,0.11133038252592087,0.047884032130241394,9.807249069213867,0.9765625,2.197265625,5.584716796875
2.0324999000000004,0.2950853705406189,-0.1430535465478897,9.640253067016602,-0.48828125,-0.42724609375,-8.392333984375
2.0374999000000003,0.18794482946395874,-0.04668693244457245,9.822811126708984,-0.640869140625,-1.190185546875,8.148193359375
2.0424999,0.17836803197860718,-0.03531447425484657,9.716269493103027,1.220703125,2.62451171875,-6.53076171875
2.0474999,0.2849099934101105,-0.12749123573303223,9.788095474243164,-1.64794921875,-3.23486328125,2.50244140625
2.0524999,0.0999579206109047,0.06584054976701736,9.820416450500488,1.617431640625,3.448486328125,1.3427734375
2.0574999000000003,0.33039984107017517,-0.14425064623355865,9.687539100646973,-1.28173828125,-2.38037109375,-5.615234375
2.0624999,0.13826514780521393,0.06464344263076782,9.82999324798584,0.54931640625,1.251220703125,7.598876953125
2.0674999,0.2717418968677521,-0.07841010391712189,9.631275177001953,0.152587890625,0.579833984375,-8.60595703125
2.0724999,0.2298433631658554,-0.026336219161748886,9.77253246307373,-0.91552734375,-2.13623046875,6.8359375
2.0774999000000003,0.14484919607639313,0.023343466222286224,9.700108528137207,1.373291015625,3.173828125,-4.364013671875
2.0824999,0.3106476664543152,-0.1454477459192276,9.712079048156738,-1.617431640625,-3.448486328125,0.274658203125
2.0874999,0.1041477769613266,0.04908113554120064,9.822212219238281,1.556396484375,3.326416015625,3.082275390625
2.0924999,0.33937808871269226,-0.17238251864910126,9.64564037322998,-1.0986328125,-2.3193359375,-6.500244140625
2.0974999000000003,0.15263035893440247,0.033518824726343155,9.828198432922363,0.54931640625,0.79345703125,7.8125
2.1024999,0.27712884545326233,-0.09876082092523575,9.633070945739746,0.274658203125,0.67138671875,-8.23974609375
2.1074999,0.2364274114370346,-0.03232172131538391,9.797672271728516,-0.9765625,-2.105712890625,6.439208984375
2.1124999,0.1496376097202301,0.017956512048840523,9.712677955627441,1.434326171875,3.143310546875,-3.936767578125
2.1174999000000003,0.30466216802597046,-0.12868833541870117,9.75637149810791,-1.708984375,-3.631591796875,0.244140625
2.1224999,0.0933738648891449,0.07900865375995636,9.844358444213867,1.678466796875,3.509521484375,2.655029296875
2.1274999,0.353743314743042,-0.1454477459192276,9.668983459472656,-1.15966796875,-2.716064453125,-5.828857421875
2.1324999,0.12270283699035645,0.06224924325942993,9.82640266418457,0.79345703125,1.5869140625,7.26318359375
2.1374999000000003,0.3190273642539978,-0.11552023142576218,9.618705749511719,0,-0.18310546875,-8.23974609375
2.1424999000000002,0.20111294090747833,-0.01975216343998909,9.805453300476074,-0.579833984375,-1.3427734375,6.866455078125
2.1474999,0.18136078119277954,-0.010773907415568829,9.674370765686035,1.068115234375,2.44140625,-5.55419921875
2.1524999,0.2801215946674347,-0.09816227108240128,9.824606895446777,-1.46484375,-3.387451171875,2.471923828125
2.1574999000000004,0.09457096457481384,0.08200141042470932,9.821015357971191,1.708984375,3.753662109375,0.152587890625
2.1624999000000003,0.3489548861980438,-0.14604631066322327,9.725846290588379,-1.617431640625,-3.387451171875,-3.47900390625
2.1674999,0.10714052617549896,0.06584054976701736,9.869498252868652,1.373291015625,2.8076171875,5.584716796875
2.1724999,0.3693056106567383,-0.17298106849193573,9.606135368347168,-0.8544921875,-1.739501953125,-7.4462890625
2.1774999000000004,0.17058686912059784,0.021547814831137657,9.782708168029785,0.3662109375,0.213623046875,7.415771484375
2.1824999000000003,0.28730419278144836,-0.12629413604736328,9.561244010925293,0.48828125,0.762939453125,-7.354736328125
2.1874999,0.2322375625371933,-0.06404489278793335,9.774328231811523,-0.823974609375,-2.227783203125,5.7373046875
2.1924999,0.16639702022075653,-0.038307227194309235,9.66539192199707,1.46484375,3.11279296875,-4.0283203125
2.1974999,0.29628247022628784,-0.17657238245010376,9.785700798034668,-1.617431640625,-3.60107421875,1.129150390625
2.2024999000000003,0.09816227108240128,0.010175357572734356,9.81263542175293,1.708984375,3.7841796875,1.0986328125
2.2074999,0.37229835987091064,-0.2232593148946762,9.676764488220215,-1.64794921875,-3.5400390625,-3.814697265625
2.2124999,0.10893617570400238,0.016759412363171577,9.832387924194336,1.52587890625,2.838134765625,5.43212890625
2.2174999,0.38127660751342773,-0.1999158412218094,9.57860279083252,-0.885009765625,-1.739501953125,-7.14111328125
2.2224999000000003,0.14844051003456116,0.02753331884741783,9.78989028930664,0.3662109375,0.640869140625,7.049560546875
2.2274999,0.3058592677116394,-0.10833762586116791,9.5809965133667,0.30517578125,0.457763671875,-7.232666015625
2.2324999,0.3058592677116394,-0.10833762586116791,9.5809965133667,0.30517578125,0.457763671875,-7.232666015625
2.2374999,0.2232593148946762,0.0035913025494664907,9.835380554199219,-0.518798828125,-1.739501953125,6.103515625
2.2424999000000003,0.1933317929506302,0.013766659423708916,9.658807754516602,1.28173828125,2.532958984375,-4.974365234375
2.2474999,0.28311434388160706,-0.06524199992418289,9.865307807922363,-1.495361328125,-3.143310546875,2.532958984375
2.2524999,0.10055647045373917,0.07481880486011505,9.79527759552002,1.77001953125,3.875732421875,-0.79345703125
2.2574999,0.31184476613998413,-0.1412578970193863,9.755773544311523,-1.678466796875,-3.7841796875,-1.52587890625
2.2624999000000003,0.06643909960985184,0.07422025501728058,9.851541519165039,1.739501953125,3.35693359375,3.2958984375
2.2674999000000002,0.3555389642715454,-0.1843535304069519,9.621698379516602,-1.46484375,-3.11279296875,-5.18798828125
2.2724999,0.07841010391712189,0.0586579404771328,9.819818496704102,1.220703125,2.25830078125,6.256103515625
2.2774999,0.3477577865123749,-0.17417816817760468,9.569025993347168,-0.8544921875,-1.251220703125,-7.110595703125
2.2824999000000004,0.12509703636169434,0.04189852997660637,9.815030097961426,0.244140625,0.335693359375,6.683349609375
2.2874999000000003,0.28790274262428284,-0.11013327538967133,9.603142738342285,0.274658203125,0.823974609375,-6.927490234375
2.2924999,0.2232593148946762,0.0005985504249110818,9.884461402893066,-0.701904296875,-1.678466796875,5.615234375
2.2974999,0.21009120345115662,-0.015562310814857483,9.675567626953125,1.15966796875,2.532958984375,-4.669189453125
2.3024999000000004,0.28131869435310364,-0.07541735470294952,9.910798072814941,-1.3427734375,-3.204345703125,2.9296875
2.3074999000000003,0.1256955862045288,0.033518824726343155,9.78869342803955,1.77001953125,3.662109375,-1.46484375
2.3124999,0.3076549172401428,-0.15083470940589905,9.801262855529785,-1.77001953125,-3.96728515625,-0.396728515625
2.3174999,0.076015904545784,0.060453593730926514,9.84256362915039,1.8310546875,3.997802734375,1.8310546875
2.3224999,0.36332011222839355,-0.17956513166427612,9.655217170715332,-1.739501953125,-3.5400390625,-3.60107421875
2.3274999000000003,0.08379705995321274,0.08798690885305405,9.803657531738281,1.617431640625,3.204345703125,4.669189453125
2.3324999,0.39863458275794983,-0.17178396880626678,9.552865028381348,-1.373291015625,-2.410888671875,-5.9814453125
2.3374999,0.10534487664699554,0.0694318488240242,9.786299705505371,1.068115234375,1.861572265625,6.317138671875
2.3424999,0.3561375141143799,-0.17896658182144165,9.549273490905762,-0.48828125,-0.823974609375,-6.744384765625
2.3474999000000003,0.11911153793334961,0.03531447425484657,9.822212219238281,0.244140625,0.1220703125,6.439208984375
2.3524999,0.2753331959247589,-0.14185644686222076,9.596558570861816,0.244140625,0.701904296875,-6.378173828125
2.3574999,0.1975216418504715,0.002992752008140087,9.911994934082031,-0.42724609375,-1.617431640625,5.4931640625
2.3624999,0.22266076505184174,-0.04668693244457245,9.667187690734863,1.007080078125,2.288818359375,-5.096435546875
2.3674999000000003,0.25019407272338867,-0.048482585698366165,9.953893661499023,-1.220703125,-2.99072265625,3.7841796875
2.3724999,0.14604631066322327,0.0347159244120121,9.73542308807373,1.678466796875,3.2958984375,-2.960205078125
2.3774999,0.2561795711517334,-0.09038111567497253,9.874884605407715,-1.678466796875,-3.72314453125,1.373291015625
2.3824999,0.08439560979604721,0.07242459803819656,9.797073364257812,1.77001953125,3.814697265625,-0.457763671875
2.3874999000000003,0.3166331648826599,-0.12868833541870117,9.755773544311523,-1.861572265625,-3.814697265625,-1.0986328125
2.3924999000000002,0.07661445438861847,0.090979665517807,9.816825866699219,1.89208984375,3.84521484375,1.983642578125
2.3974999,0.3705027103424072,-0.15741875767707825,9.62947940826416,-1.77001953125,-3.631591796875,-3.2958984375
2.4024999,0.07721300423145294,0.1173158809542656,9.788095474243164,1.64794921875,3.35693359375,3.875732421875
2.4074999000000004,0.395043283700943,-0.15322890877723694,9.567230224609375,-1.40380859375,-2.777099609375,-4.852294921875
2.4124999000000003,0.09277531504631042,0.11552023142576218,9.817423820495605,1.40380859375,2.3193359375,5.43212890625
2.4174999,0.3908534348011017,-0.152031809091568,9.580398559570312,-1.03759765625,-1.800537109375,-6.04248046875
2.4224999,0.10175357013940811,0.08319851011037827,9.858125686645508,0.701904296875,1.129150390625,5.889892578125
2.4274999000000004,0.33758243918418884,-0.17178396880626678,9.584588050842285,-0.42724609375,-0.6103515625,-6.28662109375
2.4324999000000003,0.09576806426048279,0.04668693244457245,9.86351203918457,0.213623046875,0.091552734375,6.072998046875
2.4374999,0.28072014451026917,-0.15682020783424377,9.585186958312988,0.1220703125,0.579833984375,-6.04248046875
2.4424999,0.1586158573627472,0.023343466222286224,9.892841339111328,-0.457763671875,-1.15966796875,5.43212890625
2.4474999,0.26396074891090393,-0.08200141042470932,9.609128952026367,0.79345703125,1.739501953125,-5.37109375
2.4524999000000003,0.2472013235092163,-0.0011971008498221636,9.946710586547852,-0.732421875,-2.105712890625,4.57763671875
2.4574999,0.23523031175136566,-0.01975216343998909,9.660005569458008,1.007080078125,2.532958984375,-4.486083984375
2.4624999,0.2585737705230713,-0.047884032130241394,9.948506355285645,-1.3427734375,-2.99072265625,3.326416015625
2.4674999,0.16340427100658417,0.0071826050989329815,9.68933391571045,1.495361328125,3.204345703125,-2.960205078125
2.4724999000000003,0.23942017555236816,-0.09157821536064148,9.864709854125977,-1.5869140625,-3.5400390625,2.13623046875
2.4774999,0.1041477769613266,0.03292027488350868,9.708487510681152,1.64794921875,3.72314453125,-1.678466796875
2.4824999,0.2687491476535797,-0.12389993667602539,9.785700798034668,-1.64794921875,-3.72314453125,0.701904296875
2.4874999,0.10055647045373917,0.043095629662275314,9.75517463684082,1.8310546875,3.90625,-0.30517578125
2.4924999000000003,0.3387795388698578,-0.15023615956306458,9.725247383117676,-1.800537109375,-3.84521484375,-0.885009765625
2.4974999,0.11013327538967133,0.048482585698366165,9.77791976928711,1.861572265625,3.84521484375,1.251220703125
2.5024999,0.383670836687088,-0.17717093229293823,9.671378135681152,-1.77001953125,-3.72314453125,-2.105712890625
2.5074999,0.09816227108240128,0.07122749835252762,9.784503936767578,1.8310546875,3.662109375,2.227783203125
2.5124999000000003,0.3908534348011017,-0.18136078119277954,9.627683639526367,-1.678466796875,-3.570556640625,-2.9296875
2.5174999000000002,0.07422025501728058,0.09876082092523575,9.794678688049316,1.77001953125,3.23486328125,3.143310546875
2.5224999,0.3902548849582672,-0.16759411990642548,9.589376449584961,-1.495361328125,-3.021240234375,-3.936767578125
2.5274999,0.061052143573760986,0.11851298063993454,9.813234329223633,1.3427734375,2.685546875,3.96728515625
2.5324999000000004,0.38965633511543274,-0.16101007163524628,9.59835433959961,-1.3427734375,-2.349853515625,-4.791259765625
2.5374999000000003,0.0628477931022644,0.11611878126859665,9.857526779174805,1.28173828125,2.25830078125,4.7607421875
2.5424999,0.37888240814208984,-0.1801636815071106,9.610923767089844,-1.15966796875,-1.953125,-5.096435546875
2.5474999,0.07541735470294952,0.08738835901021957,9.895236015319824,1.068115234375,1.678466796875,5.0048828125
2.5524999000000004,0.365115761756897,-0.20051439106464386,9.599552154541016,-0.885009765625,-1.28173828125,-5.4931640625
2.5574999000000003,0.09157821536064148,0.076015904545784,9.910199165344238,0.79345703125,1.190185546875,5.126953125
2.5624999,0.3555389642715454,-0.1867477297782898,9.59476375579834,-0.579833984375,-0.9765625,-5.767822265625
2.5674999,0.09576806426048279,0.07661445438861847,9.908403396606445,0.54931640625,0.67138671875,5.401611328125
2.5724999,0.3405751883983612,-0.18555063009262085,9.585784912109375,-0.48828125,-0.213623046875,-5.67626953125
2.5774999000000003,0.0975637212395668,0.07122749835252762,9.896432876586914,0.396728515625,0.244140625,5.615234375
2.5824999,0.3292027413845062,-0.18136078119277954,9.578003883361816,-0.335693359375,0.030517578125,-5.79833984375
2.5874999,0.10594342648983002,0.07481880486011505,9.889848709106445,0.244140625,-0.18310546875,5.37109375
2.5924999,0.3190273642539978,-0.15921440720558167,9.573814392089844,-0.091552734375,0.48828125,-5.7373046875
2.5974999000000003,0.11791443079710007,0.07721300423145294,9.890447616577148,0.030517578125,-0.518798828125,5.31005859375
2.6024999,0.11791443079710007,0.07721300423145294,9.890447616577148,0.030517578125,-0.518798828125,5.31005859375
2.6074999,0.3076549172401428,-0.1472434103488922,9.566033363342285,0.06103515625,0.732421875,-5.523681640625
2.6124999,0.13108254969120026,0.06165069341659546,9.90122127532959,-0.091552734375,-0.946044921875,5.2490234375
2.6174999000000003,0.30286651849746704,-0.1412578970193863,9.563638687133789,0.396728515625,1.068115234375,-5.31005859375
2.6224999,0.1454477459192276,0.03950432687997818,9.91977596282959,-0.18310546875,-0.9765625,5.06591796875
2.6274999,0.3010708689689636,-0.12868833541870117,9.569025993347168,0.518798828125,1.28173828125,-5.218505859375
2.6324999,0.1628057211637497,0.03411737456917763,9.931747436523438,-0.42724609375,-1.373291015625,4.94384765625
2.6374999000000003,0.2968810200691223,-0.10773907601833344,9.57860279083252,0.48828125,1.373291015625,-5.0048828125
2.6424999000000002,0.1801636815071106,0.040701430290937424,9.938929557800293,-0.640869140625,-1.861572265625,4.82177734375
2.6474999,0.2885012924671173,-0.08738835901021957,9.5809965133667,0.42724609375,1.5869140625,-4.852294921875
2.6524999,0.1885433793067932,0.043095629662275314,9.939528465270996,-0.54931640625,-1.678466796875,4.57763671875
2.6574999000000004,0.2801215946674347,-0.08259996026754379,9.573814392089844,0.579833984375,1.800537109375,-5.0048828125
2.6624999000000003,0.18974047899246216,0.02992752194404602,9.931148529052734,-0.54931640625,-1.800537109375,4.45556640625
2.6674999,0.26994624733924866,-0.08978256583213806,9.567828178405762,0.732421875,1.8310546875,-4.669189453125
2.6724999,0.18974047899246216,0.013766659423708916,9.926959037780762,-0.701904296875,-1.708984375,4.364013671875
2.6774999000000004,0.2621650993824005,-0.09157821536064148,9.570821762084961,0.701904296875,1.953125,-4.791259765625
2.6824999000000003,0.18734627962112427,0.008379706181585789,9.93593692779541,-0.640869140625,-1.800537109375,4.425048828125
2.6874999,0.26336219906806946,-0.09277531504631042,9.576807022094727,0.67138671875,1.800537109375,-4.69970703125
2.6924999,0.1867477297782898,0.0065840547904372215,9.940725326538086,-0.579833984375,-1.708984375,4.21142578125
2.6974999,0.26396074891090393,-0.09636662155389786,9.57201862335205,0.701904296875,1.800537109375,-4.638671875
2.7024999000000003,0.181959331035614,0.008379706181585789,9.932345390319824,-0.762939453125,-1.678466796875,4.2724609375
2.7074999,0.2651578485965729,-0.09935937076807022,9.555258750915527,0.54931640625,1.77001953125,-4.57763671875
2.7124999,0.17417816817760468,0.01496376097202301,9.925163269042969,-0.67138671875,-1.678466796875,4.33349609375
2.7174999,0.2717418968677521,-0.10055647045373917,9.546878814697266,0.640869140625,1.77001953125,-4.608154296875
2.7224999000000003,0.166995570063591,0.02454056777060032,9.926360130310059,-0.42724609375,-1.46484375,4.45556640625
2.7274999,0.27892449498176575,-0.10474632680416107,9.544485092163086,0.48828125,1.5869140625,-4.852294921875
2.7324999,0.152031809091568,0.03531447425484657,9.928754806518555,-0.3662109375,-1.40380859375,4.39453125
2.7374999,0.28131869435310364,-0.10714052617549896,9.539097785949707,0.335693359375,1.3427734375,-4.94384765625
2.7424999000000003,0.13287819921970367,0.04369417950510979,9.938331604003906,-0.335693359375,-1.251220703125,4.608154296875
2.7474999,0.28131869435310364,-0.1173158809542656,9.546878814697266,0.396728515625,1.15966796875,-4.69970703125
2.7524999,0.12270283699035645,0.04369417950510979,9.945513725280762,-0.30517578125,-1.251220703125,4.730224609375
2.7574999,0.29149407148361206,-0.14604631066322327,9.557653427124023,0.213623046875,0.91552734375,-5.0048828125
2.7624999000000003,0.12090718746185303,0.03890577703714371,9.939528465270996,-0.30517578125,-0.9765625,4.852294921875
2.7674999000000002,0.3064578175544739,-0.17238251864910126,9.561244010925293,0,0.6103515625,-5.157470703125
2.7724999,0.11432313174009323,0.04967968538403511,9.931747436523438,-0.030517578125,-0.640869140625,4.8828125
2.7774999,0.31603461503982544,-0.17956513166427612,9.561842918395996,-0.1220703125,0.335693359375,-5.2490234375
2.7824999000000004,0.10714052617549896,0.0736217051744461,9.931148529052734,0.091552734375,-0.18310546875,4.82177734375
2.7874999000000003,0.33099839091300964,-0.17298106849193573,9.57201862335205,-0.213623046875,0.18310546875,-5.096435546875
2.7924999,0.10654197633266449,0.08499415963888168,9.947908401489258,0.3662109375,0.1220703125,5.035400390625
2.7974999,0.34835633635520935,-0.17238251864910126,9.589975357055664,-0.48828125,-0.274658203125,-5.2490234375
2.8024999000000004,0.11133038252592087,0.08559270948171616,9.962871551513672,0.396728515625,0.457763671875,4.7607421875
2.8074999000000003,0.3585317134857178,-0.181959331035614,9.585784912109375,-0.6103515625,-0.823974609375,-5.06591796875
2.8124999,0.10714052617549896,0.10354922711849213,9.94970417022705,0.732421875,0.79345703125,4.791259765625
2.8174999,0.36152446269989014,-0.1801636815071106,9.573814392089844,-0.823974609375,-1.0986328125,-4.8828125
2.8224999,0.08798690885305405,0.12389993667602539,9.926959037780762,0.885009765625,1.3427734375,4.486083984375
2.8274999000000003,0.365115761756897,-0.166995570063591,9.591172218322754,-0.91552734375,-1.495361328125,-4.547119140625
2.8324999,0.06344634294509888,0.13706804811954498,9.908403396606445,1.0986328125,1.77001953125,4.2724609375
2.8374999,0.3597288131713867,-0.15801730751991272,9.61212158203125,-1.312255859375,-1.922607421875,-4.364013671875
2.8424999,0.0454898327589035,0.14245499670505524,9.889848709106445,1.28173828125,1.983642578125,3.875732421875
2.8474999000000003,0.3645172119140625,-0.16998831927776337,9.607931137084961,-1.28173828125,-2.593994140625,-3.631591796875
2.8524999,0.0520738884806633,0.12330138683319092,9.869498252868652,1.46484375,2.44140625,3.326416015625
2.8574999,0.37469255924224854,-0.18914192914962769,9.633070945739746,-1.556396484375,-2.593994140625,-3.509521484375
2.8624999,0.07003039866685867,0.10594342648983002,9.86231517791748,1.708984375,2.899169921875,2.655029296875
2.8674999000000003,0.3627215623855591,-0.18794482946395874,9.693524360656738,-1.617431640625,-2.9296875,-2.716064453125
2.8724999,0.07422025501728058,0.09696517139673233,9.860519409179688,1.708984375,3.143310546875,1.8310546875
2.8774999,0.353743314743042,-0.1843535304069519,9.733627319335938,-1.64794921875,-3.265380859375,-2.0751953125
2.8824999,0.08918401598930359,0.076015904545784,9.833584785461426,1.739501953125,3.265380859375,1.15966796875
2.8874999000000003,0.33698388934135437,-0.1759738177061081,9.771934509277344,-1.739501953125,-3.265380859375,-0.9765625
2.8924999000000002,0.11312603205442429,0.0586579404771328,9.803058624267578,1.739501953125,3.47900390625,0.244140625
2.8974999,0.3076549172401428,-0.15741875767707825,9.812037467956543,-1.77001953125,-3.41796875,0
2.9024999,0.1280897855758667,0.041299980133771896,9.740809440612793,1.708984375,3.41796875,-0.640869140625
2.9074999000000004,0.284311443567276,-0.12988543510437012,9.838373184204102,-1.678466796875,-3.2958984375,0.762939453125
2.9124999000000003,0.15921440720558167,0.03232172131538391,9.661202430725098,1.678466796875,3.11279296875,-1.617431640625
2.9174999,0.27892449498176575,-0.0933738648891449,9.86889934539795,-1.3427734375,-3.021240234375,1.5869140625
2.9224999,0.20709845423698425,0.012569558806717396,9.59596061706543,1.495361328125,2.99072265625,-2.44140625
2.9274999000000004,0.26396074891090393,-0.05386953800916672,9.88506031036377,-1.312255859375,-2.777099609375,2.532958984375
2.9324999000000003,0.2519897222518921,-0.005985504016280174,9.519944190979004,1.0986328125,2.5634765625,-3.23486328125
2.9374999,0.23523031175136566,-0.012569558806717396,9.876082420349121,-0.885009765625,-2.288818359375,3.2958984375
2.9424999,0.2861070930957794,-0.040701430290937424,9.46727180480957,0.79345703125,1.922607421875,-3.84521484375
2.9474999,0.17298106849193573,0.016759412363171577,9.895236015319824,-0.640869140625,-1.46484375,3.997802734375
2.9524999000000003,0.2753331959247589,-0.11432313174009323,9.47265911102295,0.48828125,1.220703125,-4.45556640625
2.9574999,0.08918401598930359,0.02753331884741783,9.922768592834473,-0.1220703125,-0.701904296875,4.241943359375
2.9624999,0.2735375463962555,-0.17956513166427612,9.509170532226562,0,0.42724609375,-4.730224609375
2.9674999,0.2735375463962555,-0.17956513166427612,9.509170532226562,0,0.42724609375,-4.730224609375
2.9724999000000003,0.06584054976701736,0.040701430290937424,9.947309494018555,0.18310546875,-0.06103515625,4.486083984375
2.9774999,0.31783026456832886,-0.2064998894929886,9.549872398376465,-0.457763671875,-0.335693359375,-4.94384765625
2.9824999,0.09157821536064148,0.08738835901021957,9.973047256469727,0.701904296875,0.732421875,4.364013671875
2.9874999,0.3693056106567383,-0.18794482946395874,9.592369079589844,-0.91552734375,-1.312255859375,-4.5166015625
2.9924999000000003,0.09397241473197937,0.14185644686222076,9.944915771484375,1.129150390625,1.556396484375,3.875732421875
2.9974999,0.3878606855869293,-0.15801730751991272,9.61571216583252,-1.190185546875,-1.922607421875,-3.90625
3.0024999,0.06344634294509888,0.1562216579914093,9.900622367858887,1.40380859375,2.38037109375,3.326416015625
3.0074999,0.3603273630142212,-0.14604631066322327,9.64923095703125,-1.52587890625,-2.532958984375,-3.265380859375
3.0124999000000003,0.0520738884806633,0.14006079733371735,9.874884605407715,1.64794921875,2.716064453125,2.288818359375
3.0174999000000002,0.33937808871269226,-0.17058686912059784,9.709685325622559,-1.617431640625,-3.0517578125,-2.044677734375
3.0224999,0.07541735470294952,0.0867898091673851,9.844358444213867,1.983642578125,3.2958984375,1.373291015625
3.0274999,0.3232172429561615,-0.18375498056411743,9.782109260559082,-1.739501953125,-3.47900390625,-0.8544921875
3.0324999000000004,0.11372458189725876,0.03711012750864029,9.79408073425293,1.953125,3.47900390625,-0.152587890625
3.0374999000000003,0.2944868206977844,-0.15322890877723694,9.856329917907715,-1.739501953125,-3.265380859375,0.48828125
3.0424999,0.16519992053508759,0.030526071786880493,9.713275909423828,1.800537109375,3.265380859375,-1.373291015625
3.0474999,0.27653029561042786,-0.09576806426048279,9.896432876586914,-1.52587890625,-3.082275390625,1.678466796875
3.0524999000000004,0.23582886159420013,0.011971008032560349,9.582792282104492,1.46484375,2.8076171875,-2.593994140625
3.0574999000000003,0.2579752206802368,-0.03411737456917763,9.873088836669922,-1.190185546875,-2.593994140625,2.9296875
3.0624999,0.28969839215278625,-0.030526071786880493,9.446921348571777,0.9765625,2.166748046875,-3.60107421875
3.0674999,0.1801636815071106,0.012569558806717396,9.851541519165039,-0.579833984375,-1.617431640625,3.72314453125
3.0724999000000004,0.2902969419956207,-0.09696517139673233,9.403226852416992,0.518798828125,1.190185546875,-4.33349609375
3.0774999000000003,0.08439560979604721,0.03770867735147476,9.8784761428833,-0.213623046875,-0.79345703125,4.150390625
3.0824999,0.2890998423099518,-0.1777694821357727,9.456498146057129,-0.244140625,0.244140625,-4.7607421875
3.0874999,0.06404489278793335,0.05506663769483566,9.929951667785645,0.396728515625,0.335693359375,4.39453125
3.0924999,0.33279404044151306,-0.21547815203666687,9.534309387207031,-0.67138671875,-0.885009765625,-4.5166015625
3.0974999000000003,0.0694318488240242,0.09876082092523575,9.943717956542969,1.03759765625,1.434326171875,3.96728515625
3.1024999,0.3621230125427246,-0.19213469326496124,9.592967987060547,-1.0986328125,-1.861572265625,-3.96728515625
3.1074999,0.05506663769483566,0.14245499670505524,9.906607627868652,1.434326171875,2.410888671875,3.173828125
3.1124999,0.35434186458587646,-0.15682020783424377,9.667786598205566,-1.434326171875,-2.86865234375,-2.86865234375
3.1174999000000003,0.05626374110579491,0.14006079733371735,9.884461402893066,1.739501953125,3.0517578125,2.0751953125
3.1224999,0.33518823981285095,-0.15322890877723694,9.764751434326172,-2.01416015625,-3.35693359375,-1.434326171875
3.1274999,0.09576806426048279,0.08439560979604721,9.850942611694336,1.89208984375,3.47900390625,0.518798828125
3.1324999,0.3106476664543152,-0.16519992053508759,9.84376049041748,-1.89208984375,-3.387451171875,0.030517578125
3.1374999000000003,0.15921440720558167,0.018555063754320145,9.743802070617676,1.64794921875,3.35693359375,-1.129150390625
3.1424999000000002,0.2795230448246002,-0.13407529890537262,9.88386344909668,-1.708984375,-3.11279296875,1.46484375
3.1474999,0.22625206410884857,-0.013766659423708916,9.57979965209961,1.40380859375,3.0517578125,-2.38037109375
3.1524999,0.2388216257095337,-0.05446808785200119,9.876082420349121,-1.190185546875,-2.44140625,2.74658203125
3.1574999000000004,0.28550854325294495,-0.041299980133771896,9.446322441101074,0.9765625,2.197265625,-3.7841796875
3.1624999000000003,0.1586158573627472,0.009576806798577309,9.874286651611328,-0.54931640625,-1.5869140625,3.875732421875
3.1674999,0.30526071786880493,-0.12210428714752197,9.422380447387695,0.274658203125,0.9765625,-4.5166015625
3.1724999,0.076015904545784,0.03651157766580582,9.920374870300293,0.244140625,-0.396728515625,4.0283203125
3.1774999000000004,0.30705636739730835,-0.1999158412218094,9.493009567260742,-0.274658203125,-0.335693359375,-4.57763671875
3.1824999000000003,0.05985504388809204,0.07900865375995636,9.96825885772705,0.640869140625,1.068115234375,3.84521484375
3.1874999,0.345363587141037,-0.18614917993545532,9.59596061706543,-0.946044921875,-1.678466796875,-4.119873046875
3.1924999,0.06524199992418289,0.1472434103488922,9.956886291503906,1.373291015625,2.13623046875,3.5400390625
3.1974999000000004,0.3687070608139038,-0.14185644686222076,9.674968719482422,-1.52587890625,-2.62451171875,-3.35693359375
3.2024999000000003,0.06703764945268631,0.16340427100658417,9.8970308303833,1.64794921875,2.99072265625,2.227783203125
3.2074999,0.3489548861980438,-0.13946224749088287,9.746196746826172,-1.800537109375,-3.265380859375,-1.617431640625
3.2124999,0.10654197633266449,0.09876082092523575,9.837775230407715,1.922607421875,3.509521484375,0.579833984375
3.2174999,0.32022446393966675,-0.15263035893440247,9.847352027893066,-1.739501953125,-3.35693359375,-0.152587890625
3.2224999000000003,0.17896658182144165,0.02992752194404602,9.745597839355469,1.739501953125,3.41796875,-1.129150390625
3.2274999,0.29149407148361206,-0.1107318252325058,9.910199165344238,-1.52587890625,-3.173828125,1.739501953125
3.2324999,0.27413609623908997,0.0011971008498221636,9.57321548461914,1.40380859375,2.685546875,-2.838134765625
3.2374999,0.25079262256622314,-0.02214636653661728,9.9000244140625,-1.007080078125,-2.227783203125,3.326416015625
3.2424999000000003,0.33937808871269226,-0.058059390634298325,9.414599418640137,0.701904296875,1.800537109375,-4.058837890625
3.2474999,0.15921440720558167,0.02513911761343479,9.869498252868652,-0.42724609375,-1.0986328125,3.90625
3.2524999,0.3357867896556854,-0.17477671802043915,9.402029991149902,-0.030517578125,0.396728515625,-4.39453125
3.2574999,0.08259996026754379,0.03890577703714371,9.9000244140625,0.396728515625,0.457763671875,4.2724609375
3.2624999000000003,0.33997663855552673,-0.23343466222286224,9.516353607177734,-0.8544921875,-0.946044921875,-4.5166015625
3.2674999000000002,0.05686229094862938,0.09157821536064148,9.931747436523438,1.0986328125,1.800537109375,3.72314453125
3.2724999,0.35913026332855225,-0.19812019169330597,9.61331844329834,-1.3427734375,-2.288818359375,-3.570556640625
3.2774999,0.05506663769483566,0.13168109953403473,9.88625717163086,1.617431640625,2.777099609375,2.288818359375
3.2824999000000004,0.3531447649002075,-0.17657238245010376,9.699509620666504,-1.64794921875,-3.173828125,-1.953125
3.2874999000000003,0.09816227108240128,0.0802057534456253,9.837775230407715,1.89208984375,3.509521484375,0.8544921875
3.2924999,0.3190273642539978,-0.18974047899246216,9.835380554199219,-1.708984375,-3.5400390625,-0.18310546875
3.2974999,0.16639702022075653,0.005386953707784414,9.765948295593262,1.739501953125,3.35693359375,-0.9765625
3.3024999000000004,0.27473464608192444,-0.13587094843387604,9.928754806518555,-1.52587890625,-3.173828125,1.800537109375
3.3074999000000003,0.25917232036590576,-0.015562310814857483,9.594164848327637,1.312255859375,2.9296875,-2.777099609375
3.3124999,0.22445641458034515,-0.02513911761343479,9.914389610290527,-1.068115234375,-2.25830078125,3.173828125
3.3174999,0.32860419154167175,-0.06404489278793335,9.421183586120605,0.732421875,1.5869140625,-3.96728515625
3.3224999000000004,0.1346738487482071,0.035913024097681046,9.870096206665039,-0.274658203125,-0.732421875,4.241943359375
3.3274999000000003,0.33279404044151306,-0.1735796183347702,9.398438453674316,-0.18310546875,0.213623046875,-4.45556640625
3.3324999,0.33279404044151306,-0.1735796183347702,9.398438453674316,-0.18310546875,0.213623046875,-4.45556640625
3.3374999,0.07422025501728058,0.07182604819536209,9.895833969116211,0.54931640625,0.6103515625,4.180908203125
3.3424999,0.3519476354122162,-0.2064998894929886,9.526528358459473,-0.79345703125,-1.52587890625,-4.33349609375
3.3474999000000003,0.07003039866685867,0.12509703636169434,9.926959037780762,1.312255859375,1.953125,3.265380859375
3.3524999,0.37169981002807617,-0.16519992053508759,9.672574996948242,-1.434326171875,-2.716064453125,-2.960205078125
3.3574999,0.07422025501728058,0.13108254969120026,9.9000244140625,1.800537109375,3.143310546875,1.953125
3.3624999,0.33518823981285095,-0.15143325924873352,9.79647445678711,-1.708984375,-3.509521484375,-1.251220703125
3.3674999000000003,0.11671733111143112,0.076015904545784,9.82640266418457,1.800537109375,3.662109375,-0.244140625
3.3724999,0.2777273952960968,-0.1346738487482071,9.911994934082031,-1.77001953125,-3.326416015625,0.579833984375
3.3774999,0.19572599232196808,0.016160860657691956,9.6803560256958,1.617431640625,3.2958984375,-1.953125
3.3824999,0.22206220030784607,-0.05386953800916672,9.938331604003906,-1.3427734375,-2.716064453125,2.593994140625
3.3874999000000003,0.27473464608192444,-0.043095629662275314,9.481637001037598,0.91552734375,2.105712890625,-3.5400390625
3.3924999000000002,0.13347674906253815,0.01975216343998909,9.880870819091797,-0.518798828125,-1.52587890625,3.753662109375
3.3974999,0.31184476613998413,-0.15083470940589905,9.390059471130371,0.18310546875,0.701904296875,-4.39453125
3.4024999,0.06584054976701736,0.04369417950510979,9.881468772888184,0.274658203125,0.213623046875,4.39453125
3.4074999000000004,0.33698388934135437,-0.22505496442317963,9.48343276977539,-0.67138671875,-1.190185546875,-4.241943359375
3.4124999000000003,0.05746084079146385,0.09397241473197937,9.906009674072266,1.03759765625,1.800537109375,3.326416015625
3.4174999,0.36750996112823486,-0.19213469326496124,9.618106842041016,-1.3427734375,-2.62451171875,-3.204345703125
3.4224999,0.06883329898118973,0.1280897855758667,9.873088836669922,1.8310546875,2.838134765625,2.197265625
3.4274999000000004,0.34656068682670593,-0.152031809091568,9.749788284301758,-1.678466796875,-3.47900390625,-1.434326171875
3.4324999000000003,0.1173158809542656,0.08140286058187485,9.818621635437012,1.77001953125,3.5400390625,0.091552734375
3.4374999,0.2908954918384552,-0.13407529890537262,9.899425506591797,-1.739501953125,-3.47900390625,0.579833984375
3.4424999,0.20111294090747833,0.0065840547904372215,9.695320129394531,1.77001953125,3.448486328125,-1.8310546875
3.4474999000000004,0.2322375625371933,-0.06344634294509888,9.946710586547852,-1.251220703125,-2.716064453125,2.5634765625
3.4524999000000003,0.28730419278144836,-0.05147533491253853,9.48762321472168,0.9765625,2.227783203125,-3.5400390625
3.4574999,0.14006079733371735,0.01975216343998909,9.88745403289795,-0.518798828125,-1.40380859375,3.692626953125
3.4624999,0.3250128924846649,-0.1454477459192276,9.386467933654785,0.213623046875,0.579833984375,-4.39453125
3.4674999,0.07661445438861847,0.0586579404771328,9.882665634155273,0.48828125,0.091552734375,4.2724609375
3.4724999000000003,0.35015198588371277,-0.2106897532939911,9.49121379852295,-0.823974609375,-1.15966796875,-4.21142578125
3.4774999,0.06763619929552078,0.11372458189725876,9.900622367858887,1.129150390625,1.953125,3.143310546875
3.4824999,0.3669114112854004,-0.17836803197860718,9.64564037322998,-1.3427734375,-2.716064453125,-3.021240234375
3.4874999,0.07003039866685867,0.1322796493768692,9.879075050354004,1.739501953125,3.204345703125,1.739501953125
3.4924999000000003,0.32381579279899597,-0.15263035893440247,9.803058624267578,-1.708984375,-3.60107421875,-1.007080078125
3.4974999,0.12270283699035645,0.058059390634298325,9.815030097961426,1.800537109375,3.509521484375,-0.274658203125
3.5024999,0.2645592987537384,-0.1280897855758667,9.93593692779541,-1.52587890625,-3.448486328125,1.190185546875
3.5074999,0.22924481332302094,-0.004189853090792894,9.641449928283691,1.495361328125,3.0517578125,-2.471923828125
3.5124999000000003,0.2059013396501541,-0.035913024097681046,9.941922187805176,-1.190185546875,-2.3193359375,2.9296875
3.5174999000000002,0.31842881441116333,-0.07242459803819656,9.441534042358398,0.67138671875,1.861572265625,-3.875732421875
3.5224999,0.12330138683319092,0.04010287672281265,9.893440246582031,-0.274658203125,-0.732421875,3.96728515625
3.5274999,0.3447650372982025,-0.18076223134994507,9.404424667358398,-0.1220703125,-0.1220703125,-4.5166015625
3.5324999000000004,0.06763619929552078,0.08738835901021957,9.890447616577148,0.67138671875,1.03759765625,3.936767578125
3.5374999000000003,0.3621230125427246,-0.19931729137897491,9.528324127197266,-0.946044921875,-1.77001953125,-3.96728515625
3.5424999,0.05925649031996727,0.14425064623355865,9.886856079101562,1.495361328125,2.62451171875,2.8076171875
3.5474999,0.3585317134857178,-0.16998831927776337,9.698312759399414,-1.5869140625,-3.265380859375,-1.953125
3.5524999000000004,0.090979665517807,0.10354922711849213,9.855133056640625,1.8310546875,3.387451171875,0.823974609375
3.5574999000000003,0.30047231912612915,-0.1628057211637497,9.876680374145508,-1.739501953125,-3.753662109375,0.030517578125
3.5624999,0.17238251864910126,0.012569558806717396,9.748590469360352,1.64794921875,3.387451171875,-1.46484375
3.5674999,0.2346317619085312,-0.08499415963888168,9.956287384033203,-1.52587890625,-3.021240234375,2.13623046875
3.5724999000000004,0.27413609623908997,-0.041299980133771896,9.530119895935059,1.220703125,2.471923828125,-3.204345703125
3.5774999000000003,0.1454477459192276,0.021547814831137657,9.900622367858887,-0.67138671875,-1.495361328125,3.570556640625
3.5824999,0.3250128924846649,-0.13527239859104156,9.394847869873047,0.18310546875,0.701904296875,-4.33349609375
3.5874999,0.07242459803819656,0.07122749835252762,9.876680374145508,0.335693359375,0.18310546875,4.08935546875
3.5924999,0.34416648745536804,-0.20051439106464386,9.47265911102295,-0.701904296875,-1.28173828125,-4.119873046875
3.5974999000000003,0.058059390634298325,0.12389993667602539,9.882067680358887,1.068115234375,2.105712890625,3.143310546875
3.6024999,0.3555389642715454,-0.17537526786327362,9.634865760803223,-1.52587890625,-2.777099609375,-2.8076171875
3.6074999,0.07661445438861847,0.12509703636169434,9.868300437927246,1.739501953125,3.387451171875,1.3427734375
3.6124999,0.3124433159828186,-0.16101007163524628,9.82640266418457,-1.77001953125,-3.509521484375,-0.640869140625
3.6174999000000003,0.14604631066322327,0.04249707981944084,9.806051254272461,1.8310546875,3.692626953125,-0.79345703125
3.6224999,0.25258827209472656,-0.11552023142576218,9.955090522766113,-1.678466796875,-3.2958984375,1.64794921875
3.6274999,0.2651578485965729,-0.02513911761343479,9.600749015808105,1.190185546875,2.899169921875,-2.899169921875
3.6324999,0.1759738177061081,-0.005985504016280174,9.932944297790527,-0.8544921875,-2.044677734375,3.41796875
3.6374999000000003,0.33997663855552673,-0.11791443079710007,9.418190956115723,0.54931640625,1.0986328125,-4.241943359375
3.6424999000000002,0.0933738648891449,0.060453593730926514,9.894038200378418,0.091552734375,-0.152587890625,4.180908203125
3.6474999,0.3531447649002075,-0.21188685297966003,9.446921348571777,-0.54931640625,-0.701904296875,-4.119873046875
3.6524999,0.05446808785200119,0.09816227108240128,9.874286651611328,1.190185546875,1.922607421875,3.448486328125
3.6574999000000004,0.35494041442871094,-0.2017114907503128,9.592369079589844,-1.3427734375,-2.74658203125,-2.99072265625
3.6624999000000003,0.06703764945268631,0.11133038252592087,9.84256362915039,1.617431640625,3.082275390625,1.77001953125
3.6674999,0.3196259140968323,-0.1646013706922531,9.779715538024902,-1.953125,-3.41796875,-1.0986328125
3.6724999,0.13287819921970367,0.050876785069704056,9.793481826782227,1.708984375,3.631591796875,-0.457763671875
3.6774999000000004,0.2561795711517334,-0.11611878126859665,9.941922187805176,-1.617431640625,-3.41796875,1.52587890625
3.6824999000000003,0.2513911724090576,-0.01496376097202301,9.625887870788574,1.495361328125,2.960205078125,-2.655029296875
3.6874999,0.17657238245010376,-0.008379706181585789,9.959878921508789,-0.9765625,-2.13623046875,3.265380859375
3.6924999,0.3345896899700165,-0.10773907601833344,9.44752025604248,0.518798828125,1.46484375,-4.21142578125
3.6974999000000004,0.09576806426048279,0.07122749835252762,9.923367500305176,0.091552734375,-0.3662109375,4.119873046875
3.7024999000000003,0.09576806426048279,0.07122749835252762,9.923367500305176,0.091552734375,-0.3662109375,4.119873046875
3.7074999,0.35254621505737305,-0.19632454216480255,9.46487808227539,-0.518798828125,-0.823974609375,-4.119873046875
3.7124999,0.05267243832349777,0.11552023142576218,9.889249801635742,0.91552734375,1.617431640625,3.387451171875
3.7174999,0.3561375141143799,-0.181959331035614,9.604938507080078,-1.373291015625,-2.62451171875,-2.99072265625
3.7224999000000003,0.06703764945268631,0.12509703636169434,9.850942611694336,1.678466796875,3.23486328125,1.739501953125
3.7274999,0.3190273642539978,-0.152031809091568,9.792284965515137,-1.77001953125,-3.35693359375,-0.732421875
3.7324999,0.14484919607639313,0.055665191262960434,9.791686058044434,1.77001953125,3.753662109375,-0.579833984375
3.7374999,0.2585737705230713,-0.10055647045373917,9.943717956542969,-1.678466796875,-3.448486328125,1.678466796875
3.7424999000000003,0.2687491476535797,-0.01496376097202301,9.605537414550781,1.3427734375,2.86865234375,-2.655029296875
3.7474999,0.17836803197860718,0.0065840547904372215,9.941922187805176,-0.823974609375,-2.044677734375,3.41796875
3.7524999,0.35075053572654724,-0.1173158809542656,9.428964614868164,0.579833984375,1.0986328125,-3.96728515625
3.7574999,0.10295066982507706,0.06823474913835526,9.90361499786377,0.06103515625,-0.244140625,4.33349609375
3.7624999000000003,0.36092591285705566,-0.2082955539226532,9.467870712280273,-0.701904296875,-1.007080078125,-3.570556640625
3.7674999000000002,0.06823474913835526,0.10115502029657364,9.880870819091797,1.15966796875,1.77001953125,3.7841796875
3.7724999,0.3447650372982025,-0.2017114907503128,9.627084732055664,-1.40380859375,-2.777099609375,-1.495361328125
3.7774999,0.08858546614646912,0.08978256583213806,9.841365814208984,1.64794921875,2.99072265625,2.716064453125
3.7824999000000004,0.31124621629714966,-0.16759411990642548,9.809642791748047,-1.52587890625,-3.41796875,0.732421875
3.7874999000000003,0.16519992053508759,0.028131870552897453,9.762357711791992,1.89208984375,3.2958984375,-0.640869140625
3.7924999,0.2406172752380371,-0.06763619929552078,9.9371337890625,-1.3427734375,-2.86865234375,2.0751953125
3.7974999,0.2603694200515747,-0.017956512048840523,9.552865028381348,1.190185546875,2.50244140625,-2.99072265625
3.8024999000000004,0.13946224749088287,0.0454898327589035,9.925163269042969,-0.67138671875,-1.861572265625,3.60107421875
3.8074999000000003,0.3345896899700165,-0.13287819921970367,9.408015251159668,0.244140625,0.579833984375,-4.241943359375
3.8124999,0.08738835901021957,0.090979665517807,9.892242431640625,0.42724609375,0.42724609375,4.364013671875
3.8174999,0.365115761756897,-0.21308395266532898,9.495404243469238,-0.762939453125,-1.46484375,-4.0283203125
3.8224999000000004,0.06823474913835526,0.12868833541870117,9.871891975402832,1.312255859375,2.38037109375,2.716064453125
3.8274999000000003,0.345363587141037,-0.1777694821357727,9.672574996948242,-1.556396484375,-3.11279296875,-2.166748046875
3.8324999,0.08559270948171616,0.10235211998224258,9.831191062927246,1.678466796875,3.47900390625,0.518798828125
3.8374999,0.2825157940387726,-0.14185644686222076,9.871294021606445,-1.678466796875,-3.60107421875,0.030517578125
3.8424999,0.1951274424791336,-0.0005985504249110818,9.718663215637207,1.556396484375,3.387451171875,-1.708984375
3.8474999000000003,0.22266076505184174,-0.06224924325942993,9.96945571899414,-1.251220703125,-2.899169921875,2.655029296875
3.8524999,0.32202014327049255,-0.09935937076807022,9.50498104095459,0.885009765625,2.01416015625,-3.60107421875
3.8574999,0.14664486050605774,0.028131870552897453,9.925163269042969,-0.3662109375,-0.823974609375,4.150390625
3.8624999,0.36571431159973145,-0.19692309200763702,9.421782493591309,-0.091552734375,0,-4.33349609375
3.8674999000000003,0.06823474913835526,0.09876082092523575,9.874286651611328,0.701904296875,1.15966796875,3.753662109375
3.8724999,0.35434186458587646,-0.19931729137897491,9.546878814697266,-1.068115234375,-2.13623046875,-3.265380859375
3.8774999,0.053270988166332245,0.13766659796237946,9.84256362915039,1.40380859375,2.960205078125,2.197265625
3.8824999,0.3190273642539978,-0.14844051003456116,9.743802070617676,-1.52587890625,-3.387451171875,-1.251220703125
3.8874999000000003,0.12210428714752197,0.06643909960985184,9.790489196777344,1.678466796875,3.7841796875,-0.213623046875
3.8924999000000002,0.25977087020874023,-0.10953472554683685,9.916184425354004,-1.678466796875,-3.326416015625,0.91552734375
3.8974999,0.2603694200515747,-0.028131870552897453,9.619902610778809,1.495361328125,2.899169921875,-2.777099609375
3.9024999,0.1909375786781311,-0.010175357572734356,9.950302124023438,-0.79345703125,-2.227783203125,3.35693359375
3.9074999000000004,0.3597288131713867,-0.1322796493768692,9.440936088562012,0.48828125,1.312255859375,-4.058837890625
3.9124999000000003,0.12210428714752197,0.0628477931022644,9.909601211547852,0.091552734375,-0.1220703125,4.058837890625
3.9174999,0.37648820877075195,-0.2148796021938324,9.470863342285156,-0.54931640625,-1.0986328125,-4.08935546875
3.9224999,0.0736217051744461,0.11252748221158981,9.870096206665039,0.9765625,2.01416015625,3.265380859375
3.9274999000000004,0.34835633635520935,-0.1933317929506302,9.637260437011719,-1.40380859375,-2.99072265625,-2.410888671875
3.9324999000000003,0.076015904545784,0.10893617570400238,9.841365814208984,1.617431640625,3.509521484375,1.220703125
3.9374999,0.28730419278144836,-0.14664486050605774,9.858723640441895,-1.739501953125,-3.60107421875,-0.06103515625
3.9424999,0.1711854189634323,0.014365210197865963,9.761159896850586,1.52587890625,3.5400390625,-1.373291015625
3.9474999000000004,0.2214636504650116,-0.06344634294509888,9.991601943969727,-1.3427734375,-2.8076171875,2.3193359375
3.9524999000000003,0.2974795699119568,-0.07302315533161163,9.541492462158203,0.91552734375,2.044677734375,-3.509521484375
3.9574999,0.1388636976480484,0.03531447425484657,9.946112632751465,-0.42724609375,-1.220703125,3.84521484375
3.9624999,0.35673606395721436,-0.17477671802043915,9.418190956115723,-0.091552734375,0.244140625,-4.39453125
3.9674999000000004,0.07302315533161163,0.10773907601833344,9.86889934539795,0.579833984375,1.15966796875,3.631591796875
3.9724999000000003,0.36750996112823486,-0.1951274424791336,9.525331497192383,-1.0986328125,-2.105712890625,-3.326416015625
3.9774999,0.07122749835252762,0.13946224749088287,9.82640266418457,1.46484375,2.8076171875,2.197265625
3.9824999,0.33518823981285095,-0.14784196019172668,9.734225273132324,-1.617431640625,-3.448486328125,-1.434326171875
3.9874999,0.13347674906253815,0.06224924325942993,9.77672290802002,1.739501953125,3.631591796875,-0.1220703125
3.9924999000000003,0.2585737705230713,-0.10714052617549896,9.917980194091797,-1.434326171875,-3.47900390625,1.46484375
3.9974999,0.26096799969673157,-0.03651157766580582,9.609726905822754,1.28173828125,2.899169921875,-2.86865234375
4.0024999,0.1693897694349289,-0.008978256024420261,9.955090522766113,-0.79345703125,-1.800537109375,3.509521484375
4.0074999,0.345363587141037,-0.1430535465478897,9.44991397857666,0.335693359375,1.129150390625,-4.0283203125
4.0124999,0.09636662155389786,0.07182604819536209,9.916184425354004,0.1220703125,-0.091552734375,3.997802734375
4.0174999,0.35733461380004883,-0.21966800093650818,9.498396873474121,-0.762939453125,-1.434326171875,-4.08935546875
4.022499900000001,0.05746084079146385,0.12389993667602539,9.876082420349121,1.0986328125,2.0751953125,2.838134765625
4.0274999000000005,0.3363853394985199,-0.18315643072128296,9.66958236694336,-1.28173828125,-2.99072265625,-2.25830078125
4.0324999,0.07900865375995636,0.10594342648983002,9.820416450500488,1.77001953125,3.448486328125,0.54931640625
4.0374999,0.27473464608192444,-0.13287819921970367,9.873088836669922,-1.617431640625,-3.662109375,0.54931640625
4.0424999,0.19812019169330597,0.0071826050989329815,9.693524360656738,1.46484375,3.204345703125,-1.800537109375
4.0474999,0.20231004059314728,-0.05027823522686958,9.981427192687988,-1.007080078125,-2.685546875,2.655029296875
4.0524999,0.32202014327049255,-0.10295066982507706,9.50617790222168,0.823974609375,1.89208984375,-3.875732421875
4.0574999,0.12210428714752197,0.04908113554120064,9.956886291503906,-0.152587890625,-0.6103515625,3.96728515625
4.062499900000001,0.36571431159973145,-0.19812019169330597,9.47146224975586,-0.30517578125,-0.518798828125,-4.486083984375
4.0674999000000005,0.36571431159973145,-0.19812019169330597,9.47146224975586,-0.30517578125,-0.518798828125,-4.486083984375
4.0724999,0.06344634294509888,0.11372458189725876,9.889249801635742,0.8544921875,1.3427734375,3.23486328125
4.0774999,0.3471592366695404,-0.19153612852096558,9.596558570861816,-1.15966796875,-2.5634765625,-3.0517578125
4.0824999,0.06404489278793335,0.12389993667602539,9.825204849243164,1.708984375,3.204345703125,1.52587890625
4.0874999,0.2885012924671173,-0.1454477459192276,9.791686058044434,-1.5869140625,-3.5400390625,-0.48828125
4.0924999,0.14664486050605774,0.04189852997660637,9.740211486816406,1.678466796875,3.509521484375,-1.068115234375
4.0974999,0.22625206410884857,-0.06524199992418289,9.942521095275879,-1.3427734375,-3.0517578125,2.0751953125
4.1024999,0.28790274262428284,-0.05746084079146385,9.528923034667969,1.068115234375,2.38037109375,-3.326416015625
4.1074999000000005,0.15143325924873352,0.03711012750864029,9.925163269042969,-0.457763671875,-1.373291015625,3.631591796875
4.1124999,0.3603273630142212,-0.17417816817760468,9.405022621154785,0,0.30517578125,-4.364013671875
4.1174999,0.076015904545784,0.10354922711849213,9.86889934539795,0.579833984375,0.946044921875,3.692626953125
4.1224999,0.35673606395721436,-0.2106897532939911,9.534908294677734,-0.8544921875,-1.953125,-3.35693359375
4.1274999,0.055665191262960434,0.1364694982767105,9.84615421295166,1.52587890625,2.9296875,2.0751953125
4.1324999,0.31124621629714966,-0.15801730751991272,9.768941879272461,-1.46484375,-3.41796875,-1.15966796875
4.1374999,0.1149216815829277,0.06464344263076782,9.798270225524902,1.64794921875,3.47900390625,-0.396728515625
4.1424999,0.24121582508087158,-0.0975637212395668,9.95209789276123,-1.46484375,-3.326416015625,1.312255859375
4.147499900000001,0.26396074891090393,-0.038307227194309235,9.61331844329834,1.220703125,2.838134765625,-2.960205078125
4.1524999000000005,0.17477671802043915,0.0077811554074287415,9.961075782775879,-0.79345703125,-1.77001953125,3.41796875
4.1574999,0.36750996112823486,-0.15502455830574036,9.433155059814453,0.30517578125,0.732421875,-4.2724609375
4.1624999,0.11252748221158981,0.08918401598930359,9.88506031036377,0.30517578125,0.335693359375,3.7841796875
4.1674999,0.3824737071990967,-0.22625206410884857,9.48462963104248,-0.823974609375,-1.64794921875,-3.753662109375
4.1724999,0.07481880486011505,0.12868833541870117,9.833584785461426,1.373291015625,2.38037109375,2.5634765625
4.1774999,0.3447650372982025,-0.1801636815071106,9.689932823181152,-1.495361328125,-3.11279296875,-1.8310546875
4.1824999,0.10714052617549896,0.07661445438861847,9.79288387298584,1.739501953125,3.509521484375,0.30517578125
4.187499900000001,0.2651578485965729,-0.11911153793334961,9.912593841552734,-1.617431640625,-3.47900390625,0.8544921875
4.1924999000000005,0.23582886159420013,-0.030526071786880493,9.654019355773926,1.312255859375,3.11279296875,-2.288818359375
4.1974999,0.17477671802043915,-0.020350715145468712,9.985017776489258,-1.03759765625,-2.197265625,3.23486328125
4.2024999,0.3363853394985199,-0.13946224749088287,9.478644371032715,0.48828125,1.3427734375,-3.96728515625
4.2074999,0.0975637212395668,0.08319851011037827,9.929951667785645,0.1220703125,-0.091552734375,4.0283203125
4.2124999,0.36092591285705566,-0.21128830313682556,9.491812705993652,-0.640869140625,-1.28173828125,-3.84521484375
4.2174999,0.05446808785200119,0.13527239859104156,9.864709854125977,0.946044921875,2.105712890625,2.899169921875
4.2224999,0.3411737382411957,-0.19153612852096558,9.654618263244629,-1.617431640625,-2.86865234375,-2.410888671875
4.2274999,0.08140286058187485,0.0975637212395668,9.804255485534668,1.708984375,3.47900390625,0.579833984375
4.2324999000000005,0.2777273952960968,-0.14245499670505524,9.869498252868652,-1.64794921875,-3.448486328125,0.48828125
4.2374999,0.21368250250816345,-0.005985504016280174,9.673771858215332,1.617431640625,3.2958984375,-2.0751953125
4.2424999,0.19572599232196808,-0.0293289702385664,9.974244117736816,-0.9765625,-2.62451171875,2.838134765625
4.2474999,0.3321954905986786,-0.11432313174009323,9.481637001037598,0.701904296875,1.861572265625,-3.84521484375
4.2524999,0.11252748221158981,0.08858546614646912,9.928754806518555,-0.091552734375,-0.335693359375,3.662109375
4.2574999,0.36092591285705566,-0.2059013396501541,9.46607494354248,-0.518798828125,-0.54931640625,-4.21142578125
4.2624999,0.058059390634298325,0.13347674906253815,9.860519409179688,1.007080078125,1.922607421875,3.082275390625
4.2674999,0.33937808871269226,-0.21009120345115662,9.623494148254395,-1.28173828125,-2.685546875,-2.50244140625
4.272499900000001,0.07481880486011505,0.10534487664699554,9.806650161743164,1.556396484375,3.2958984375,0.91552734375
4.2774999000000005,0.284311443567276,-0.15023615956306458,9.845556259155273,-1.64794921875,-3.41796875,0.030517578125
4.2824999,0.19213469326496124,0.013168109580874443,9.703699111938477,1.46484375,3.387451171875,-1.8310546875
4.2874999,0.21667525172233582,-0.03770867735147476,9.977835655212402,-1.251220703125,-2.8076171875,2.593994140625
4.2924999,0.33039984107017517,-0.10594342648983002,9.513360023498535,0.640869140625,1.861572265625,-3.5400390625
4.2974999,0.14185644686222076,0.0628477931022644,9.946112632751465,-0.244140625,-0.8544921875,3.753662109375
4.3024999,0.3800795078277588,-0.21667525172233582,9.46727180480957,-0.30517578125,-0.335693359375,-4.150390625
4.3074999,0.07781155407428741,0.12030863761901855,9.870096206665039,0.8544921875,1.434326171875,3.47900390625
4.312499900000001,0.35913026332855225,-0.2232593148946762,9.606135368347168,-1.129150390625,-2.471923828125,-2.9296875
4.3174999000000005,0.07721300423145294,0.11372458189725876,9.819219589233398,1.64794921875,3.11279296875,1.190185546875
4.3224999,0.2944868206977844,-0.16101007163524628,9.82759952545166,-1.617431640625,-3.570556640625,-0.030517578125
4.3274999,0.17058686912059784,0.01975216343998909,9.731232643127441,1.64794921875,3.387451171875,-1.52587890625
4.3324999,0.21547815203666687,-0.0586579404771328,9.973047256469727,-1.312255859375,-2.86865234375,2.288818359375
4.3374999,0.3076549172401428,-0.09816227108240128,9.517550468444824,0.885009765625,2.13623046875,-3.570556640625
4.3424999,0.13706804811954498,0.061052143573760986,9.93474006652832,-0.335693359375,-0.885009765625,3.875732421875
4.3474999,0.37229835987091064,-0.1999158412218094,9.43375301361084,-0.152587890625,-0.213623046875,-4.241943359375
4.352499900000001,0.06883329898118973,0.13826514780521393,9.853337287902832,0.8544921875,1.373291015625,3.47900390625
4.3574999000000005,0.35434186458587646,-0.19572599232196808,9.575610160827637,-1.220703125,-2.288818359375,-2.86865234375
4.3624999,0.06643909960985184,0.14006079733371735,9.809642791748047,1.556396484375,3.143310546875,1.312255859375
4.3674999,0.29149407148361206,-0.14185644686222076,9.812037467956543,-1.678466796875,-3.35693359375,-0.42724609375
4.3724999,0.15562310814857483,0.030526071786880493,9.732429504394531,1.64794921875,3.509521484375,-1.312255859375
4.3774999,0.21607670187950134,-0.06165069341659546,9.965864181518555,-1.28173828125,-3.11279296875,2.197265625
4.3824999,0.292691171169281,-0.10714052617549896,9.526528358459473,1.007080078125,1.983642578125,-3.23486328125
4.3874999,0.13826514780521393,0.048482585698366165,9.9401273727417,-0.396728515625,-1.15966796875,3.814697265625
4.3924999,0.3711012601852417,-0.228047713637352,9.444527626037598,-0.1220703125,-0.06103515625,-4.08935546875
4.397499900000001,0.076015904545784,0.11791443079710007,9.876680374145508,0.885009765625,1.251220703125,3.60107421875
4.4024999000000005,0.3663128614425659,-0.23403321206569672,9.594164848327637,-1.190185546875,-2.3193359375,-2.86865234375
4.4074999,0.0802057534456253,0.1256955862045288,9.840168952941895,1.434326171875,3.082275390625,1.434326171875
4.4124999,0.30526071786880493,-0.16340427100658417,9.824606895446777,-1.77001953125,-3.509521484375,-0.579833984375
4.4174999,0.1711854189634323,0.023343466222286224,9.752182006835938,1.52587890625,3.387451171875,-1.312255859375
4.4224999,0.23343466222286224,-0.06584054976701736,9.96945571899414,-1.220703125,-2.960205078125,2.197265625
4.4274999,0.3058592677116394,-0.10534487664699554,9.526528358459473,1.007080078125,2.3193359375,-3.265380859375
4.4324999,0.1472434103488922,0.06524199992418289,9.935338973999023,-0.335693359375,-1.251220703125,3.7841796875
4.437499900000001,0.1472434103488922,0.06524199992418289,9.935338973999023,-0.335693359375,-1.251220703125,3.7841796875
4.4424999000000005,0.36750996112823486,-0.21308395266532898,9.43255615234375,-0.18310546875,-0.152587890625,-4.180908203125
4.4474999,0.06524199992418289,0.14484919607639313,9.86650562286377,0.762939453125,1.312255859375,3.448486328125
4.4524999,0.3495534360408783,-0.21847090125083923,9.585784912109375,-1.129150390625,-2.410888671875,-2.777099609375
4.4574999,0.0628477931022644,0.1412578970193863,9.831191062927246,1.5869140625,2.899169921875,1.52587890625
4.4624999,0.2885012924671173,-0.14784196019172668,9.819818496704102,-1.556396484375,-3.47900390625,-0.48828125
4.4674999,0.152031809091568,0.03411737456917763,9.745597839355469,1.678466796875,3.47900390625,-1.312255859375
4.4724999,0.21428105235099792,-0.043095629662275314,9.973047256469727,-1.46484375,-2.9296875,2.25830078125
4.477499900000001,0.2974795699119568,-0.10474632680416107,9.530718803405762,0.79345703125,2.197265625,-3.41796875
4.4824999000000005,0.14903905987739563,0.0736217051744461,9.944316864013672,-0.213623046875,-1.007080078125,3.814697265625
4.4874999,0.38546648621559143,-0.24001872539520264,9.435548782348633,-0.1220703125,-0.091552734375,-3.753662109375
4.4924999,0.08978256583213806,0.1173158809542656,9.862914085388184,0.762939453125,1.129150390625,3.631591796875
4.4974999,0.37469255924224854,-0.25498247146606445,9.5809965133667,-1.251220703125,-2.38037109375,-2.655029296875
4.5024999,0.08140286058187485,0.11312603205442429,9.824007987976074,1.678466796875,3.11279296875,1.556396484375
4.5074999,0.2998737692832947,-0.166995570063591,9.821614265441895,-1.678466796875,-3.692626953125,-0.244140625
4.5124999,0.1646013706922531,0.019153613597154617,9.740211486816406,1.739501953125,3.570556640625,-1.312255859375
4.5174999,0.2148796021938324,-0.0293289702385664,9.97364616394043,-1.3427734375,-3.082275390625,2.655029296875
4.522499900000001,0.2902969419956207,-0.09935937076807022,9.519944190979004,0.946044921875,2.44140625,-2.99072265625
4.5274999000000005,0.10833762586116791,0.13407529890537262,9.944915771484375,-0.3662109375,-1.0986328125,3.90625
4.5324999,0.322618693113327,-0.1909375786781311,9.430760383605957,-0.3662109375,-0.18310546875,-4.08935546875
4.5374999,0.020949264988303185,0.20889410376548767,9.856329917907715,0.701904296875,1.373291015625,2.777099609375
4.5424999,0.3232172429561615,-0.2388216257095337,9.566033363342285,-1.312255859375,-2.716064453125,-3.143310546875
4.5474999,0.07841010391712189,0.16519992053508759,9.798270225524902,1.77001953125,3.082275390625,0.823974609375
4.5524999,0.32680854201316833,-0.22685061395168304,9.807847023010254,-1.739501953125,-3.692626953125,0.1220703125
4.5574999,0.2298433631658554,0.031124621629714966,9.706093788146973,1.739501953125,3.7841796875,-1.434326171875
4.562499900000001,0.24600422382354736,-0.12330138683319092,9.971251487731934,-1.312255859375,-3.021240234375,2.5634765625
4.5674999000000005,0.3357867896556854,-0.09277531504631042,9.506776809692383,0.91552734375,2.13623046875,-3.814697265625
4.5724999,0.1256955862045288,0.043095629662275314,9.943717956542969,-0.42724609375,-0.9765625,3.41796875
4.5774999,0.35733461380004883,-0.1777694821357727,9.44871711730957,-0.152587890625,-0.3662109375,-4.39453125
4.5824999,0.050876785069704056,0.1562216579914093,9.862914085388184,0.823974609375,1.556396484375,2.99072265625
4.5874999,0.33518823981285095,-0.19812019169330597,9.600150108337402,-1.251220703125,-2.38037109375,-2.38037109375
4.5924999,0.07122749835252762,0.15921440720558167,9.798270225524902,1.64794921875,3.387451171875,0.91552734375
4.5974999,0.2759317457675934,-0.16819266974925995,9.838373184204102,-1.739501953125,-3.47900390625,-0.030517578125
4.602499900000001,0.19632454216480255,0.05506663769483566,9.753378868103027,1.46484375,3.47900390625,-1.922607421875
4.6074999000000005,0.19632454216480255,-0.0586579404771328,9.995193481445312,-1.373291015625,-2.716064453125,2.9296875
4.6124999,0.3387795388698578,-0.08259996026754379,9.549872398376465,0.6103515625,1.77001953125,-3.448486328125
4.6174999,0.13826514780521393,0.05985504388809204,9.899425506591797,-0.335693359375,-0.762939453125,3.875732421875
4.6224999,0.39624038338661194,-0.2172738015651703,9.403825759887695,-0.335693359375,-0.30517578125,-4.058837890625
4.6274999,0.08499415963888168,0.11611878126859665,9.783307075500488,1.03759765625,2.105712890625,3.387451171875
4.6324999,0.3489548861980438,-0.23942017555236816,9.59057331085205,-1.434326171875,-2.74658203125,-1.922607421875
4.6374999,0.0802057534456253,0.11133038252592087,9.778518676757812,1.77001953125,3.2958984375,0.518798828125
4.6424999,0.2585737705230713,-0.14185644686222076,9.871891975402832,-1.5869140625,-3.692626953125,0.67138671875
4.647499900000001,0.1975216418504715,0.03651157766580582,9.671378135681152,1.556396484375,3.448486328125,-2.044677734375
4.6524999000000005,0.17178396880626678,0.002394201699644327,9.99459457397461,-1.0986328125,-2.532958984375,2.44140625
4.6574999,0.3292027413845062,-0.11432313174009323,9.50737476348877,0.67138671875,1.46484375,-3.814697265625
4.6624999,0.11133038252592087,0.10055647045373917,9.952696800231934,-0.06103515625,-0.42724609375,3.7841796875
4.6674999,0.375291109085083,-0.25498247146606445,9.495404243469238,-0.732421875,-1.007080078125,-4.0283203125
4.6724999,0.06524199992418289,0.14365209639072418,9.84495735168457,1.0986328125,2.349853515625,2.716064453125
4.6774999,0.3280056416988373,-0.22864626348018646,9.645041465759277,-1.52587890625,-2.960205078125,-1.922607421875
4.6824999,0.08140286058187485,0.1107318252325058,9.752182006835938,1.708984375,3.7841796875,0.091552734375
4.687499900000001,0.2495955228805542,-0.13287819921970367,9.884461402893066,-1.739501953125,-3.509521484375,0.732421875
4.6924999000000005,0.23403321206569672,-0.010773907415568829,9.622895240783691,1.28173828125,3.021240234375,-2.716064453125
4.6974999,0.1777694821357727,0.002992752008140087,9.975440979003906,-0.946044921875,-2.44140625,3.204345703125
4.7024999,0.3561375141143799,-0.16519992053508759,9.456498146057129,0.396728515625,1.068115234375,-3.96728515625
4.7074999,0.1107318252325058,0.12749123573303223,9.905410766601562,0.274658203125,0.091552734375,3.570556640625
4.7124999,0.3800795078277588,-0.25258827209472656,9.491812705993652,-0.823974609375,-1.40380859375,-3.387451171875
4.7174999,0.0694318488240242,0.17238251864910126,9.849745750427246,1.312255859375,2.532958984375,2.410888671875
4.7224999,0.32620999217033386,-0.2106897532939911,9.730634689331055,-1.64794921875,-3.509521484375,-1.3427734375
4.727499900000001,0.10534487664699554,0.11611878126859665,9.798270225524902,1.8310546875,3.631591796875,-0.274658203125
4.7324999000000005,0.23582886159420013,-0.11851298063993454,9.952696800231934,-1.64794921875,-3.47900390625,1.28173828125
4.7374999,0.24480712413787842,-0.018555063754320145,9.615114212036133,1.373291015625,2.960205078125,-2.86865234375
4.7424999,0.15263035893440247,0.0035913025494664907,9.974244117736816,-0.885009765625,-2.105712890625,3.326416015625
4.7474999,0.345363587141037,-0.18315643072128296,9.424176216125488,0.18310546875,0.79345703125,-3.96728515625
4.7524999,0.08319851011037827,0.11312603205442429,9.877279281616211,0.3662109375,0.457763671875,3.570556640625
4.7574999,0.36332011222839355,-0.2555810213088989,9.496601104736328,-0.8544921875,-1.739501953125,-3.2958984375
4.7624999,0.07422025501728058,0.1646013706922531,9.824606895446777,1.46484375,2.74658203125,1.89208984375
4.7674999,0.314238965511322,-0.2232593148946762,9.757569313049316,-1.617431640625,-3.60107421875,-0.79345703125
4.772499900000001,0.14903905987739563,0.10893617570400238,9.771934509277344,1.861572265625,3.631591796875,-0.9765625
4.7774999000000005,0.23582886159420013,-0.12509703636169434,9.963470458984375,-1.678466796875,-3.41796875,1.922607421875
4.7824999,0.29149407148361206,-0.004189853090792894,9.570222854614258,1.0986328125,2.838134765625,-3.265380859375
4.7874999,0.15023615956306458,0.02454056777060032,9.964667320251465,-0.762939453125,-1.556396484375,3.570556640625
4.7924999,0.3627215623855591,-0.15562310814857483,9.433155059814453,0.18310546875,0.213623046875,-4.0283203125
4.7974999,0.06584054976701736,0.12928688526153564,9.870695114135742,0.67138671875,1.007080078125,3.47900390625
4.8024999,0.3423708379268646,-0.22086510062217712,9.552865028381348,-1.15966796875,-2.166748046875,-2.899169921875
4.8074999,0.3423708379268646,-0.22086510062217712,9.552865028381348,-1.15966796875,-2.166748046875,-2.899169921875
4.812499900000001,0.06823474913835526,0.16400282084941864,9.820416450500488,1.556396484375,3.11279296875,1.373291015625
4.8174999000000005,0.2932897210121155,-0.19213469326496124,9.806650161743164,-1.617431640625,-3.509521484375,-0.457763671875
4.8224999,0.17836803197860718,0.076015904545784,9.740211486816406,1.800537109375,3.570556640625,-1.373291015625
4.8274999,0.21547815203666687,-0.11013327538967133,9.992799758911133,-1.434326171875,-3.082275390625,2.471923828125
4.8324999,0.31842881441116333,-0.0586579404771328,9.545083999633789,0.9765625,2.25830078125,-3.60107421875
4.8374999,0.13287819921970367,0.03770867735147476,9.972448348999023,-0.457763671875,-0.885009765625,3.692626953125
4.8424999,0.3770867586135864,-0.1759738177061081,9.467870712280273,-0.30517578125,-0.274658203125,-4.150390625
4.8474999,0.07481880486011505,0.1412578970193863,9.867103576660156,0.885009765625,1.52587890625,3.204345703125
4.852499900000001,0.35015198588371277,-0.21188685297966003,9.601346969604492,-1.28173828125,-2.74658203125,-2.38037109375
4.8574999000000005,0.08200141042470932,0.14664486050605774,9.784503936767578,1.64794921875,3.387451171875,0.79345703125
4.8624999,0.2663549482822418,-0.1693897694349289,9.835380554199219,-1.800537109375,-3.5400390625,0.3662109375
4.8674999,0.19692309200763702,0.06404489278793335,9.667187690734863,1.52587890625,3.41796875,-2.105712890625
4.8724999,0.1693897694349289,-0.06464344263076782,9.982624053955078,-1.190185546875,-2.5634765625,2.838134765625
4.8774999,0.33339259028434753,-0.08319851011037827,9.494805335998535,0.67138671875,1.617431640625,-3.90625
4.8824999,0.11671733111143112,0.0520738884806633,9.936535835266113,-0.18310546875,-0.396728515625,3.72314453125
4.8874999,0.3842693865299225,-0.20470423996448517,9.475651741027832,-0.54931640625,-0.946044921875,-3.692626953125
4.8924999,0.0802057534456253,0.1322796493768692,9.843161582946777,1.190185546875,2.13623046875,2.62451171875
4.897499900000001,0.33997663855552673,-0.19812019169330597,9.670180320739746,-1.434326171875,-2.8076171875,-1.708984375
4.9024999000000005,0.1107318252325058,0.11851298063993454,9.775525093078613,1.739501953125,3.631591796875,0.091552734375
4.9074999,0.2519897222518921,-0.14664486050605774,9.906607627868652,-1.52587890625,-3.41796875,1.03759765625
4.9124999,0.25258827209472656,0.0065840547904372215,9.621698379516602,1.40380859375,2.99072265625,-2.655029296875
4.9174999,0.16101007163524628,-0.04967968538403511,9.967061996459961,-0.91552734375,-2.01416015625,3.2958984375
4.9224999,0.34835633635520935,-0.13048399984836578,9.441534042358398,0.48828125,1.129150390625,-4.180908203125
4.9274999,0.08439560979604721,0.08858546614646912,9.888651847839355,0.244140625,0.30517578125,3.47900390625
4.9324999,0.35733461380004883,-0.19393034279346466,9.502586364746094,-0.823974609375,-1.617431640625,-3.47900390625
4.937499900000001,0.06165069341659546,0.15562310814857483,9.82879638671875,1.3427734375,2.685546875,2.105712890625
4.9424999000000005,0.31184476613998413,-0.18734627962112427,9.753378868103027,-1.556396484375,-3.082275390625,-1.068115234375
4.9474999,0.1388636976480484,0.09157821536064148,9.774328231811523,1.861572265625,3.41796875,-0.701904296875
4.9524999,0.23582886159420013,-0.1280897855758667,9.966463088989258,-1.46484375,-3.2958984375,1.77001953125
4.9574999,0.29149407148361206,-0.028131870552897453,9.583391189575195,1.129150390625,2.593994140625,-3.387451171875
4.9624999,0.15322890877723694,-0.0071826050989329815,9.971251487731934,-0.6103515625,-1.373291015625,3.631591796875
4.9674999,0.37169981002807617,-0.166995570063591,9.444527626037598,0.091552734375,0.244140625,-4.180908203125
4.9724999,0.07541735470294952,0.0933738648891449,9.870695114135742,0.640869140625,0.91552734375,3.509521484375
4.977499900000001,0.3513490855693817,-0.21847090125083923,9.564237594604492,-0.9765625,-2.01416015625,-2.86865234375
4.9824999000000005,0.07182604819536209,0.14065934717655182,9.813234329223633,1.5869140625,2.960205078125,1.3427734375
4.9874999,0.28371289372444153,-0.16998831927776337,9.810839653015137,-1.46484375,-3.326416015625,-0.18310546875
4.9924999,0.1777694821357727,0.07422025501728058,9.707290649414062,1.708984375,3.387451171875,-1.40380859375
4.9974999,0.2017114907503128,-0.08619125932455063,9.971251487731934,-1.40380859375,-2.86865234375,2.410888671875
5.0024999,0.32441434264183044,-0.05686229094862938,9.512762069702148,0.885009765625,2.01416015625,-3.631591796875
5.0074999,0.13168109953403473,0.035913024097681046,9.947309494018555,-0.30517578125,-0.762939453125,3.875732421875
5.0124999,0.3842693865299225,-0.1711854189634323,9.469666481018066,-0.274658203125,-0.396728515625,-3.936767578125
5.0174999,0.07721300423145294,0.1364694982767105,9.860519409179688,0.762939453125,1.64794921875,3.021240234375
5.022499900000001,0.34596213698387146,-0.18614917993545532,9.634865760803223,-1.312255859375,-2.5634765625,-2.349853515625
5.0274999000000005,0.09277531504631042,0.13347674906253815,9.77791976928711,1.708984375,3.2958984375,0.67138671875
5.0324999,0.26156654953956604,-0.14425064623355865,9.859322547912598,-1.495361328125,-3.35693359375,0.640869140625
5.0374999,0.2232593148946762,0.03531447425484657,9.634865760803223,1.40380859375,3.35693359375,-2.410888671875
5.0424999,0.16220717132091522,-0.05147533491253853,9.962273597717285,-1.03759765625,-2.349853515625,2.9296875
5.0474999,0.33997663855552673,-0.10773907601833344,9.460687637329102,0.48828125,1.190185546875,-3.875732421875
5.0524999,0.09636662155389786,0.06404489278793335,9.897629737854004,0.091552734375,-0.091552734375,3.90625
5.0574999,0.3687070608139038,-0.20949265360832214,9.48462963104248,-0.54931640625,-1.251220703125,-3.753662109375
5.062499900000001,0.06344634294509888,0.13347674906253815,9.823410034179688,1.129150390625,2.349853515625,2.349853515625
5.0674999000000005,0.322618693113327,-0.18136078119277954,9.712677955627441,-1.40380859375,-3.082275390625,-1.312255859375
5.0724999,0.11791443079710007,0.1173158809542656,9.764153480529785,1.64794921875,3.265380859375,-0.335693359375
5.0774999,0.23523031175136566,-0.09816227108240128,9.934141159057617,-1.64794921875,-3.143310546875,1.373291015625
5.0824999,0.2663549482822418,-0.005985504016280174,9.591172218322754,1.190185546875,2.655029296875,-2.86865234375
5.0874999,0.14484919607639313,0.0011971008498221636,9.962871551513672,-0.732421875,-1.708984375,3.47900390625
5.0924999,0.35015198588371277,-0.17836803197860718,9.436745643615723,0.1220703125,0.518798828125,-4.364013671875
5.0974999,0.06464344263076782,0.0975637212395668,9.868300437927246,0.396728515625,0.823974609375,3.204345703125
5.102499900000001,0.34596213698387146,-0.23702596127986908,9.543886184692383,-1.03759765625,-1.922607421875,-3.173828125
5.1074999000000005,0.06344634294509888,0.13527239859104156,9.817423820495605,1.495361328125,2.86865234375,1.678466796875
5.1124999,0.2944868206977844,-0.1801636815071106,9.81143856048584,-1.708984375,-3.41796875,-0.6103515625
5.1174999,0.1604115068912506,0.0520738884806633,9.738415718078613,1.678466796875,3.41796875,-1.556396484375
5.1224999,0.21128830313682556,-0.076015904545784,9.979631423950195,-1.312255859375,-3.021240234375,2.38037109375
5.1274999,0.30466216802597046,-0.08978256583213806,9.527127265930176,1.03759765625,2.044677734375,-3.387451171875
5.1324999,0.13407529890537262,0.06524199992418289,9.944316864013672,-0.274658203125,-1.129150390625,3.5400390625
5.1374999,0.3824737071990967,-0.2190694510936737,9.445724487304688,-0.274658203125,-0.3662109375,-3.997802734375
5.1424999,0.0802057534456253,0.15083470940589905,9.843161582946777,1.03759765625,1.556396484375,3.204345703125
5.147499900000001,0.3621230125427246,-0.24241292476654053,9.607333183288574,-1.3427734375,-2.532958984375,-2.288818359375
5.1524999000000005,0.0975637212395668,0.13587094843387604,9.773730278015137,1.739501953125,3.265380859375,0.518798828125
5.1574999,0.284311443567276,-0.15682020783424377,9.855731010437012,-1.708984375,-3.47900390625,0.48828125
5.1624999,0.22266076505184174,0.030526071786880493,9.658807754516602,1.556396484375,3.41796875,-2.25830078125
5.1674999,0.18136078119277954,-0.0071826050989329815,9.983820915222168,-1.15966796875,-2.50244140625,2.86865234375
5.1724999,0.18136078119277954,-0.0071826050989329815,9.983820915222168,-1.15966796875,-2.50244140625,2.86865234375
5.1774999,0.3429693877696991,-0.12689268589019775,9.4822359085083,0.54931640625,1.373291015625,-3.60107421875
5.1824999,0.10893617570400238,0.11671733111143112,9.914389610290527,0.1220703125,-0.396728515625,3.753662109375
5.187499900000001,0.38307225704193115,-0.2495955228805542,9.478644371032715,-0.67138671875,-1.0986328125,-3.692626953125
5.1924999000000005,0.07781155407428741,0.15921440720558167,9.823410034179688,1.312255859375,2.288818359375,2.44140625
5.1974999,0.34177228808403015,-0.22685061395168304,9.698312759399414,-1.5869140625,-3.021240234375,-1.40380859375
5.2024999,0.12449848651885986,0.10893617570400238,9.763554573059082,1.8310546875,3.60107421875,-0.244140625
5.2074999,0.2537853717803955,-0.11552023142576218,9.931148529052734,-1.64794921875,-3.265380859375,1.373291015625
5.2124999,0.26815059781074524,-0.03411737456917763,9.597756385803223,1.373291015625,2.8076171875,-2.9296875
5.2174999,0.16101007163524628,0.018555063754320145,9.965266227722168,-0.732421875,-2.044677734375,3.35693359375
5.2224999,0.35673606395721436,-0.1975216418504715,9.436147689819336,0.091552734375,0.732421875,-3.96728515625
5.227499900000001,0.0694318488240242,0.13706804811954498,9.877279281616211,0.396728515625,0.6103515625,3.387451171875
5.2324999000000005,0.35075053572654724,-0.2454056739807129,9.546878814697266,-1.0986328125,-1.953125,-3.11279296875
