# Time (seconds),Accel_X,Accel_Y,Accel_Z,Gyro_X,Gyro_Y,Gyro_Z
0.0024999,1.9716250896453857,-0.18914192914962769,9.88625717163086,17.15087890625,26.2451171875,-13.702392578125
0.0074999,1.9716250896453857,-0.18914192914962769,9.88625717163086,17.15087890625,26.2451171875,-13.702392578125
0.012499900000000001,-0.7332242727279663,0.08559270948171616,9.548674583435059,-5.0048828125,-5.157470703125,-35.308837890625
0.0174999,-1.7369933128356934,-0.14484919607639313,9.571419715881348,-17.4560546875,-15.899658203125,-18.829345703125
0.0224999,-2.1924901008605957,-0.5913678407669067,9.264962196350098,-22.369384765625,-24.0478515625,-8.056640625
0.0274999,-2.5737667083740234,-0.4770447015762329,9.601346969604492,-10.162353515625,-32.012939453125,20.111083984375
0.0324999,-2.2212207317352295,-0.618302583694458,9.516951560974121,-18.768310546875,-42.144775390625,32.135009765625
0.0374999,-1.2653355598449707,-0.751779317855835,9.708487510681152,-13.336181640625,-34.24072265625,15.533447265625
0.0424999,-0.17477671802043915,-1.0618284940719604,9.873088836669922,2.105712890625,-20.5078125,23.529052734375
0.0474999,0.8738836050033569,-1.4311341047286987,9.86889934539795,7.415771484375,-8.331298828125,33.294677734375
0.0524999,1.4185645580291748,-1.4646528959274292,9.898826599121094,17.486572265625,7.354736328125,45.95947265625
0.0574999,1.5771803855895996,-0.4728548228740692,9.893440246582031,7.476806640625,8.453369140625,28.411865234375
0.0624999,1.6861165761947632,-0.0011971008498221636,9.919178009033203,0.885009765625,3.662109375,4.608154296875
0.0674999,1.954267144203186,-0.07661445438861847,9.879075050354004,3.41796875,10.498046875,-16.90673828125
0.0724999,2.214038133621216,-0.19393034279346466,9.825204849243164,17.974853515625,30.487060546875,-16.4794921875
0.0774999,2.095525026321411,-0.18614917993545532,9.838972091674805,13.0615234375,34.942626953125,-14.129638671875
0.0824999,1.5759832859039307,-0.13706804811954498,9.909002304077148,1.5869140625,29.296875,-24.47509765625
0.0874999,0.7601590156555176,0.3621230125427246,9.819818496704102,-2.410888671875,20.294189453125,-33.538818359375
0.0924999,-0.166995570063591,0.19871874153614044,9.77791976928711,-4.241943359375,5.157470703125,-31.31103515625
0.0974999,-0.9672574996948242,0.4554968774318695,9.440337181091309,-4.302978515625,-4.486083984375,-23.62060546875
0.1024999,-1.7717092037200928,-0.24001872539520264,9.493608474731445,-22.491455078125,-16.937255859375,-10.8642578125
0.1074999,-1.9488801956176758,-0.27712884545326233,9.206902503967285,-16.29638671875,-17.486572265625,-6.7138671875
0.1124999,-2.1811177730560303,-0.6446388363838196,9.491812705993652,-9.521484375,-30.1513671875,28.228759765625
0.1174999,-0.6919242739677429,-1.3108254671096802,9.692327499389648,-5.157470703125,-23.712158203125,15.93017578125
0.1224999,0.24420857429504395,-1.5197194814682007,9.856928825378418,5.4931640625,-15.411376953125,25.634765625
0.1274999,1.035492181777954,-1.5568296909332275,9.928754806518555,12.176513671875,-5.340576171875,27.099609375
0.1324999,1.4616601467132568,-1.367687702178955,9.967061996459961,13.427734375,6.04248046875,25.665283203125
0.1374999,1.6412252187728882,-0.7870938181877136,9.989208221435547,11.1083984375,11.90185546875,21.270751953125
0.1424999,1.7046716213226318,-0.10893617570400238,9.996390342712402,5.401611328125,8.60595703125,4.08935546875
0.1474999,1.7836803197860718,0.13706804811954498,9.990405082702637,2.3193359375,10.101318359375,-15.655517578125
0.1524999,1.8399440050125122,-0.15562310814857483,9.928754806518555,12.5732421875,24.4140625,-12.542724609375
0.1574999,1.8465280532836914,-0.13527239859104156,9.87967300415039,20.32470703125,33.050537109375,-14.373779296875
0.1624999,1.5047557353973389,-0.19393034279346466,9.90241813659668,9.857177734375,32.135009765625,-20.93505859375
0.1674999,0.9792284965515137,0.10295066982507706,9.853935241699219,-0.48828125,26.30615234375,-29.84619140625
0.1724999,0.2693476974964142,0.5051765441894531,9.749788284301758,-4.7607421875,10.223388671875,-38.818359375
0.17749990000000002,-1.370081901550293,0.3944447338581085,9.610923767089844,-10.223388671875,-9.918212890625,-25.970458984375
0.1824999,-1.9369091987609863,-0.44532153010368347,9.43494987487793,-25.2685546875,-22.94921875,-15.777587890625
0.1874999,-2.3044190406799316,-0.2495955228805542,9.57441234588623,-11.138916015625,-23.74267578125,6.500244140625
0.1924999,-2.3116016387939453,-0.5847837924957275,9.575610160827637,-12.725830078125,-37.78076171875,36.7431640625
0.1974999,-1.4993687868118286,-0.8960300087928772,9.671976089477539,-15.228271484375,-36.773681640625,17.364501953125
0.2024999,-0.5464765429496765,-1.0408791303634644,9.79647445678711,-1.495361328125,-23.193359375,19.073486328125
0.20749990000000001,0.5488707423210144,-1.3760673999786377,9.877877235412598,6.561279296875,-11.749267578125,28.778076171875
0.2124999,1.2503718137741089,-1.427542805671692,9.922768592834473,14.678955078125,2.288818359375,37.261962890625
0.2174999,1.600523829460144,-1.260547161102295,9.917980194091797,14.190673828125,11.90185546875,37.384033203125
0.2224999,1.6376339197158813,-0.5542576909065247,9.931148529052734,8.331298828125,9.307861328125,27.557373046875
0.2274999,1.7148469686508179,0.026336219161748886,9.923966407775879,1.8310546875,4.45556640625,5.2490234375
0.2324999,1.913565754890442,0.005386953707784414,9.906607627868652,2.5634765625,8.72802734375,-16.143798828125
0.2374999,2.0374655723571777,-0.047884032130241394,9.828198432922363,13.97705078125,34.912109375,-14.34326171875
0.2424999,1.5658079385757446,-0.0736217051744461,9.913191795349121,1.495361328125,29.388427734375,-24.505615234375
0.2474999,0.801459014415741,0.4291606545448303,9.795876502990723,-3.448486328125,20.20263671875,-34.515380859375
0.2524999,-0.09457096457481384,0.30226796865463257,9.806051254272461,-5.4931640625,4.302978515625,-34.027099609375
0.2574999,-0.910993754863739,0.36810851097106934,9.333795547485352,-4.791259765625,-4.21142578125,-26.85546875
0.2624999,-1.7711106538772583,-0.1825578808784485,9.5007905960083,-21.942138671875,-17.333984375,-10.92529296875
0.2674999,-2.008735179901123,-0.37469255924224854,9.09497356414795,-19.317626953125,-19.866943359375,-7.87353515625
0.2724999,-2.2846670150756836,-0.5847837924957275,9.50617790222168,-11.1083984375,-32.04345703125,25.7568359375
0.2774999,-1.6490063667297363,-1.0450690984725952,9.5624418258667,-15.411376953125,-36.2548828125,25.787353515625
0.2824999,-0.7445967197418213,-1.2767080068588257,9.73781681060791,-5.7373046875,-24.71923828125,16.448974609375
0.28749990000000003,0.25258827209472656,-1.522712230682373,9.862914085388184,6.103515625,-15.68603515625,26.885986328125
0.2924999,1.0720038414001465,-1.6065093278884888,9.929352760314941,13.031005859375,-4.69970703125,31.79931640625
0.2974999,2.0183119773864746,-0.17477671802043915,9.9185791015625,13.824462890625,26.275634765625,-16.357421875
0.3024999,2.102707624435425,-0.12928688526153564,9.854534149169922,21.331787109375,37.567138671875,-15.13671875
0.3074999,1.7334020137786865,-0.20949265360832214,9.913790702819824,9.521484375,35.247802734375,-22.705078125
0.3124999,1.1162965297698975,0.16579847037792206,9.821015357971191,-1.068115234375,26.336669921875,-34.637451171875
0.3174999,0.24480712413787842,0.5518634915351868,9.756970405578613,-6.16455078125,8.72802734375,-43.975830078125
0.3224999,-0.639850378036499,0.17836803197860718,9.589975357055664,-6.40869140625,-3.96728515625,-42.3583984375
0.3274999,-1.600523829460144,0.36571431159973145,9.5624418258667,-13.214111328125,-12.054443359375,-25.177001953125
0.3324999,-2.1134815216064453,-0.5416881442070007,9.367314338684082,-24.200439453125,-22.705078125,-17.578125
0.3374999,-2.3265655040740967,-0.6769605278968811,9.537900924682617,-14.373779296875,-39.48974609375,36.407470703125
0.3424999,-1.4562731981277466,-0.9768342971801758,9.68694019317627,-13.48876953125,-35.247802734375,16.326904296875
0.34749990000000003,-0.4183867573738098,-1.1976994276046753,9.799467086791992,-0.335693359375,-21.05712890625,21.30126953125
0.35249990000000003,0.6326677799224854,-1.4658499956130981,9.95329475402832,9.70458984375,-10.589599609375,31.890869140625
0.3574999,1.3407529592514038,-1.5065513849258423,9.976638793945312,14.46533203125,2.86865234375,34.24072265625
0.3624999,1.6065093278884888,-1.1581950187683105,10.000580787658691,13.458251953125,11.688232421875,34.027099609375
0.3674999,1.6759412288665771,-0.44412440061569214,10.001178741455078,8.209228515625,9.490966796875,24.261474609375
0.3724999,1.764526605606079,0.11671733111143112,9.959280967712402,1.800537109375,5.18798828125,0.18310546875
0.3774999,1.9806033372879028,-0.0802057534456253,9.91738224029541,5.37109375,13.275146484375,-17.76123046875
0.3824999,2.1511902809143066,-0.09038111567497253,9.82879638671875,19.439697265625,32.16552734375,-14.58740234375
0.3874999,1.9829975366592407,-0.10474632680416107,9.84615421295166,13.397216796875,35.5224609375,-15.625
0.3924999,1.4185645580291748,-0.03890577703714371,9.911994934082031,0.6103515625,28.86962890625,-27.2216796875
0.3974999,-0.30466216802597046,0.2890998423099518,9.749189376831055,-5.767822265625,1.434326171875,-34.027099609375
0.4024999,-1.1635819673538208,0.5650315880775452,9.44991397857666,-5.462646484375,-6.28662109375,-23.406982421875
0.4074999,-1.9638439416885376,-0.16220717132091522,9.466673851013184,-24.871826171875,-21.087646484375,-8.819580078125
0.41249990000000003,-2.1727380752563477,-0.11791443079710007,9.265560150146484,-18.402099609375,-23.8037109375,-2.716064453125
0.41749990000000003,-2.31758713722229,-0.518943190574646,9.555258750915527,-13.092041015625,-36.346435546875,29.78515625
0.4224999,-2.31758713722229,-0.518943190574646,9.555258750915527,-13.092041015625,-36.346435546875,29.78515625
0.4274999,-1.512536883354187,-1.0181342363357544,9.59476375579834,-14.801025390625,-34.820556640625,23.13232421875
0.4324999,-0.5333084464073181,-1.324592113494873,9.758766174316406,-3.72314453125,-23.13232421875,18.707275390625
0.4374999,0.5057750940322876,-1.601720929145813,9.857526779174805,7.14111328125,-13.61083984375,28.350830078125
0.4424999,1.2449848651885986,-1.6561890840530396,9.892841339111328,13.702392578125,-1.0986328125,33.75244140625
0.4474999,1.5843629837036133,-1.3964180946350098,9.914987564086914,15.167236328125,11.077880859375,34.759521484375
0.4524999,1.6825252771377563,-0.7236474752426147,9.953893661499023,11.505126953125,13.153076171875,26.519775390625
0.4574999,1.7172411680221558,-0.19632454216480255,9.955090522766113,7.8125,36.285400390625,-25.482177734375
0.4624999,1.7172411680221558,-0.19632454216480255,9.955090522766113,7.8125,36.285400390625,-25.482177734375
0.4674999,1.0307037830352783,0.34416648745536804,9.800664901733398,-1.434326171875,26.2451171875,-39.24560546875
0.47249990000000003,0.14903905987739563,0.5099649429321289,9.751583099365234,-6.317138671875,7.4462890625,-47.210693359375
0.47749990000000003,-0.6787561774253845,0.2172738015651703,9.479243278503418,-5.37109375,-3.96728515625,-43.51806640625
0.4824999,-1.7244237661361694,-0.06464344263076782,9.50737476348877,-19.744873046875,-17.181396484375,-26.42822265625
0.4874999,-2.121861219406128,-0.6643909811973572,9.196727752685547,-20.3857421875,-21.942138671875,-19.317626953125
0.4924999,-2.718017578125,-0.5961562395095825,9.437943458557129,-8.1787109375,-26.885986328125,23.834228515625
0.4974999,-2.403179883956909,-0.7703344225883484,9.429563522338867,-16.17431640625,-43.27392578125,36.102294921875
0.5024999,-1.5520412921905518,-0.8643068075180054,9.600749015808105,-13.36669921875,-36.865234375,15.2587890625
0.5074999,0.7667431235313416,-1.3479355573654175,9.92097282409668,9.58251953125,-7.171630859375,28.13720703125
0.5124999,1.5310919284820557,-1.400607943534851,9.9772367477417,16.204833984375,4.791259765625,32.16552734375
0.5174999,1.8201918601989746,-1.0767922401428223,9.993996620178223,12.969970703125,12.14599609375,26.2451171875
0.5224999,1.8297686576843262,-0.3363853394985199,10.014347076416016,6.256103515625,7.843017578125,13.458251953125
0.5274999,1.8405425548553467,0.018555063754320145,10.013748168945312,0.54931640625,5.584716796875,-8.575439453125
0.5324999,1.956661343574524,-0.16579847037792206,9.938929557800293,10.650634765625,18.951416015625,-16.448974609375
0.5374999,2.011129379272461,-0.09636662155389786,9.88625717163086,20.599365234375,33.02001953125,-14.434814453125
0.5424999,1.7489643096923828,-0.12509703636169434,9.916184425354004,10.55908203125,33.660888671875,-18.798828125
0.5474999,1.192312479019165,0.1496376097202301,9.888052940368652,-0.8544921875,27.801513671875,-29.9072265625
0.5524999,0.39564183354377747,0.5530605912208557,9.776124000549316,-4.852294921875,14.190673828125,-35.70556640625
0.5574999,-0.5147533416748047,0.23942017555236816,9.650428771972656,-5.92041015625,-2.593994140625,-34.576416015625
0.5624999,-1.5053542852401733,0.4106055796146393,9.551069259643555,-11.1083984375,-11.5966796875,-20.904541015625
0.5674999000000001,-2.475006103515625,-0.1364694982767105,9.437344551086426,-14.984130859375,-29.876708984375,8.36181640625
0.5724999000000001,-2.362478494644165,-0.6111199855804443,9.476250648498535,-16.357421875,-41.900634765625,35.858154296875
0.5774999000000001,-1.3970166444778442,-0.945111095905304,9.576807022094727,-16.937255859375,-37.200927734375,19.622802734375
0.5824999,-0.33099839091300964,-1.2419921159744263,9.798869132995605,0.823974609375,-22.15576171875,21.759033203125
0.5874999,0.8277952671051025,-1.6292542219161987,9.813833236694336,7.32421875,-9.918212890625,29.9072265625
0.5924999,1.4814122915267944,-1.6370353698730469,9.88506031036377,16.357421875,5.462646484375,42.816162109375
0.5974999,1.7519570589065552,-1.3617022037506104,9.890447616577148,16.143798828125,14.95361328125,41.534423828125
0.6024999,1.7220295667648315,-0.5937620401382446,9.932345390319824,9.063720703125,10.68115234375,27.34375
0.6074999,1.7507599592208862,0.031124621629714966,9.962273597717285,1.64794921875,4.608154296875,1.922607421875
0.6124999,1.9387048482894897,-0.020949264988303185,9.942521095275879,2.838134765625,11.932373046875,-18.4326171875
0.6174999,2.163161277770996,-0.19452889263629913,9.877279281616211,19.22607421875,33.02001953125,-15.9912109375
0.6224999,2.0638017654418945,-0.16819266974925995,9.879075050354004,16.17431640625,37.567138671875,-16.2353515625
0.6274999,0.7769184708595276,0.40222588181495667,9.82999324798584,-2.349853515625,22.857666015625,-36.163330078125
0.6324999,-0.10354922711849213,0.3010708689689636,9.782109260559082,-5.279541015625,4.486083984375,-38.726806640625
0.6374999,-0.9786299467086792,0.5734112858772278,9.534309387207031,-5.06591796875,-4.45556640625,-30.120849609375
0.6424999,-1.7896658182144165,-0.1454477459192276,9.519944190979004,-25.20751953125,-19.71435546875,-17.852783203125
0.6474999,-2.1092917919158936,-0.1735796183347702,9.337985038757324,-15.869140625,-17.15087890625,-10.3759765625
0.6524999,-2.431910276412964,-0.5811924338340759,9.560646057128906,-11.566162109375,-33.26416015625,32.623291015625
0.6574999,-1.8088194131851196,-0.9750386476516724,9.555258750915527,-16.021728515625,-39.48974609375,26.30615234375
0.6624999,-0.8768763542175293,-1.2976573705673218,9.687539100646973,-5.7373046875,-26.7333984375,15.93017578125
0.6674999,0.24361002445220947,-1.5310919284820557,9.786299705505371,6.34765625,-13.3056640625,25.08544921875
0.6724999,1.183334231376648,-1.634641170501709,9.897629737854004,13.85498046875,-4.33349609375,28.228759765625
0.6774999,1.698686122894287,-1.413776159286499,9.915586471557617,15.07568359375,8.72802734375,24.871826171875
0.6824999,1.8136078119277954,-0.7595604658126831,9.982025146484375,11.04736328125,11.962890625,17.181396484375
0.6874999,1.789067268371582,-0.03651157766580582,10.020332336425781,4.058837890625,7.171630859375,-0.42724609375
0.6924999000000001,1.7334020137786865,0.18076223134994507,10.029909133911133,2.288818359375,11.962890625,-15.7470703125
0.6974999000000001,1.755548357963562,-0.11432313174009323,9.952696800231934,14.58740234375,25.45166015625,-12.908935546875
0.7024999000000001,1.721431016921997,-0.06464344263076782,9.895236015319824,20.1416015625,32.77587890625,-16.2353515625
0.7074999,1.3419500589370728,-0.14844051003456116,9.947908401489258,8.392333984375,31.982421875,-21.30126953125
0.7124999,0.8206126093864441,0.25019407272338867,9.828198432922363,-1.220703125,26.55029296875,-29.327392578125
0.7174999,0.07900865375995636,0.5291185975074768,9.771934509277344,-5.859375,9.063720703125,-37.567138671875
0.7224999,-0.702099621295929,0.16519992053508759,9.5624418258667,-6.134033203125,-5.523681640625,-35.980224609375
0.7274999,-1.6801310777664185,0.15083470940589905,9.568427085876465,-16.7236328125,-15.960693359375,-17.7001953125
0.7324999,-2.079364061355591,-0.49140989780426025,9.230246543884277,-23.49853515625,-24.4140625,-10.43701171875
0.7374999,-2.4863784313201904,-0.43035775423049927,9.519944190979004,-13.153076171875,-32.379150390625,16.754150390625
0.7424999,-2.126051187515259,-0.6823474764823914,9.44752025604248,-17.51708984375,-43.304443359375,33.905029296875
0.7474999,-0.09457096457481384,-1.2814964056015015,9.765948295593262,1.861572265625,-19.195556640625,23.193359375
0.7524999,0.9235633015632629,-1.5382746458053589,9.852738380432129,9.521484375,-8.544921875,32.40966796875
0.7574999,1.460463047027588,-1.5119383335113525,9.880271911621094,16.876220703125,6.805419921875,40.802001953125
0.7624999,1.601720929145813,-1.1438298225402832,9.917980194091797,13.946533203125,12.603759765625,37.41455078125
0.7674999,1.577778935432434,-0.3477577865123749,9.959280967712402,6.89697265625,7.781982421875,23.3154296875
0.7724999,1.657984733581543,0.1711854189634323,9.978434562683105,0.335693359375,3.5400390625,-2.044677734375
0.7774999,1.896806240081787,0.0035913025494664907,9.93354320526123,4.82177734375,14.09912109375,-19.134521484375
0.7824999,2.118269920349121,-0.11671733111143112,9.871294021606445,18.951416015625,32.5927734375,-15.5029296875
0.7874999,1.9482816457748413,-0.1562216579914093,9.901819229125977,12.786865234375,35.125732421875,-16.6015625
0.7924999,1.3724761009216309,-0.0999579206109047,9.948506355285645,1.46484375,29.693603515625,-26.55029296875
0.7974999,0.5536591410636902,0.42197805643081665,9.84495735168457,-3.692626953125,18.4326171875,-35.125732421875
0.8024999,-2.1039047241210938,-0.37648820877075195,9.333795547485352,-14.984130859375,-19.317626953125,-1.373291015625
0.8074999,-2.118269920349121,-0.7763199210166931,9.353547096252441,-12.847900390625,-35.82763671875,32.684326171875
0.8124999,-1.3126211166381836,-1.114500880241394,9.346963882446289,-14.007568359375,-34.3017578125,22.27783203125
0.8174999000000001,-0.3621230125427246,-1.3754688501358032,9.489418029785156,-1.678466796875,-20.904541015625,18.890380859375
0.8224999000000001,0.629675030708313,-1.6023194789886475,9.674968719482422,9.09423828125,-12.3291015625,26.947021484375
0.8274999000000001,1.3718775510787964,-1.6304513216018677,9.788095474243164,15.350341796875,-1.03759765625,27.7099609375
0.8324999000000001,1.7058687210083008,-1.3263877630233765,9.907206535339355,14.923095703125,10.92529296875,23.74267578125
0.8374999,1.7753005027770996,-0.6159083843231201,9.993996620178223,10.345458984375,12.115478515625,14.129638671875
0.8424999,1.768117904663086,0.04189852997660637,10.072406768798828,4.241943359375,8.7890625,-5.7373046875
0.8474999,1.7471686601638794,0.1562216579914093,10.093954086303711,4.364013671875,16.845703125,-16.7236328125
0.8524999,1.7741034030914307,-0.13706804811954498,10.003573417663574,17.669677734375,29.876708984375,-12.14599609375
0.8574999,1.2515689134597778,-0.1322796493768692,9.983820915222168,7.38525390625,32.958984375,-23.62060546875
0.8624999,0.702099621295929,0.35075053572654724,9.804255485534668,-1.953125,24.5361328125,-33.050537109375
0.8674999,-0.06224924325942993,0.5261258482933044,9.754576683044434,-6.683349609375,5.126953125,-43.304443359375
0.8724999,-0.790086567401886,0.24121582508087158,9.480440139770508,-6.195068359375,-7.080078125,-39.306640625
0.8774999,-1.732803463935852,-0.02992752194404602,9.552266120910645,-19.83642578125,-18.9208984375,-20.32470703125
0.8824999,-2.03507137298584,-0.6272808313369751,9.226056098937988,-20.5078125,-22.216796875,-14.678955078125
0.8874999,-2.498948097229004,-0.5871779918670654,9.543288230895996,-10.223388671875,-30.059814453125,23.25439453125
0.8924999,-2.100313425064087,-0.8092401623725891,9.455301284790039,-17.120361328125,-42.938232421875,32.3486328125
0.8974999,-1.2012907266616821,-1.0217255353927612,9.660005569458008,-10.894775390625,-33.111572265625,15.899658203125
0.9024999,-0.09696517139673233,-1.2198457717895508,9.754576683044434,2.899169921875,-17.547607421875,24.078369140625
0.9074999,0.9199720025062561,-1.4550760984420776,9.93593692779541,11.627197265625,-6.439208984375,32.04345703125
0.9124999,1.512536883354187,-1.4065934419631958,9.95329475402832,15.13671875,6.927490234375,33.63037109375
0.9174999,1.6561890840530396,-0.20709845423698425,10.021530151367188,5.645751953125,6.4697265625,15.80810546875
0.9224999,1.6956933736801147,0.20889410376548767,9.988609313964844,0.48828125,4.39453125,-7.26318359375
0.9274999,1.8668787479400635,-0.043095629662275314,9.925761222839355,7.99560546875,16.937255859375,-16.998291015625
0.9324999,1.9698294401168823,-0.02753331884741783,9.849745750427246,18.49365234375,31.18896484375,-13.763427734375
0.9374999,1.713649868965149,-0.11671733111143112,9.889249801635742,9.82666015625,31.585693359375,-17.669677734375
0.9424999000000001,1.136048674583435,0.02992752194404602,9.896432876586914,-0.91552734375,26.06201171875,-27.16064453125
0.9474999000000001,0.3387795388698578,0.4842272996902466,9.802460670471191,-4.21142578125,14.892578125,-32.806396484375
0.9524999000000001,-0.50876784324646,0.14784196019172668,9.70310115814209,-5.7373046875,-1.434326171875,-30.487060546875
0.9574999000000001,-1.3706804513931274,0.33997663855552673,9.622895240783691,-9.033203125,-9.552001953125,-16.54052734375
0.9624999,-1.942894697189331,-0.43694180250167847,9.411606788635254,-25.421142578125,-21.209716796875,-6.591796875
0.9674999,-2.0889410972595215,-0.28730419278144836,9.408614158630371,-16.265869140625,-24.078369140625,2.349853515625
0.9724999,-1.9829975366592407,-0.6997054219245911,9.437344551086426,-13.73291015625,-37.109375,31.67724609375
0.9774999,-0.13527239859104156,-1.3503297567367554,9.589376449584961,-0.213623046875,-21.148681640625,21.05712890625
0.9824999,0.8056488633155823,-1.5939397811889648,9.686341285705566,9.3994140625,-10.92529296875,28.961181640625
0.9874999,1.3808557987213135,-1.5945383310317993,9.816226959228516,15.2587890625,2.105712890625,33.172607421875
0.9924999,1.6083049774169922,-1.2575544118881226,9.886856079101562,14.434814453125,11.8408203125,31.73828125
0.9974999,1.6208745241165161,-0.5500678420066833,9.987412452697754,9.857177734375,11.65771484375,20.1416015625
1.0024999,1.7028759717941284,0.04908113554120064,10.026318550109863,3.2958984375,6.622314453125,-3.875732421875
1.0074999000000002,1.84233820438385,0.025737667456269264,10.040084838867188,4.21142578125,16.082763671875,-18.98193359375
1.0124999000000001,2.011728048324585,-0.23582886159420013,9.935338973999023,19.989013671875,33.966064453125,-13.092041015625
1.0174999000000002,1.9470845460891724,-0.15741875767707825,9.909002304077148,19.256591796875,38.0859375,-18.280029296875
1.0224999000000001,1.427542805671692,-0.181959331035614,9.945513725280762,6.103515625,33.172607421875,-26.092529296875
1.0274999,0.7356184720993042,0.3926490843296051,9.77672290802002,-2.593994140625,21.8505859375,-36.865234375
1.0324999000000001,-0.13706804811954498,0.4710591733455658,9.738415718078613,-6.744384765625,3.173828125,-44.219970703125
1.0374999,-2.0889410972595215,-0.4213795065879822,8.982446670532227,-17.364501953125,-19.775390625,-12.63427734375
1.0424999000000001,1.5233107805252075,-1.3449428081512451,10.002376556396484,13.458251953125,6.4697265625,27.9541015625
1.0474999,1.653794765472412,-0.8146271109580994,10.019135475158691,10.1318359375,9.674072265625,23.74267578125
1.0524999000000002,1.6717513799667358,-0.09935937076807022,10.004770278930664,4.730224609375,5.889892578125,9.124755859375
1.0574999,1.6717513799667358,-0.09935937076807022,10.004770278930664,4.730224609375,5.889892578125,9.124755859375
1.0624999000000002,1.7082629203796387,0.19213469326496124,9.972448348999023,0.91552734375,6.53076171875,-11.383056640625
1.0674999,1.514931082725525,-0.17417816817760468,9.882067680358887,9.033203125,30.029296875,-18.310546875
1.0724999000000002,1.514931082725525,-0.17417816817760468,9.882067680358887,9.033203125,30.029296875,-18.310546875
1.0774999,0.943913996219635,0.038307227194309235,9.876680374145508,-1.15966796875,24.566650390625,-25.360107421875
1.0824999000000002,0.17717093229293823,0.46507367491722107,9.785700798034668,-3.90625,12.6953125,-29.693603515625
1.0874999,-0.6027402877807617,0.11372458189725876,9.672574996948242,-5.37109375,-2.777099609375,-28.076171875
1.0924999000000002,-1.3958195447921753,0.30885201692581177,9.587580680847168,-8.544921875,-9.8876953125,-14.404296875
1.0974999,-1.8872294425964355,-0.4572925269603729,9.405621528625488,-24.23095703125,-20.8740234375,-4.852294921875
1.1024999000000002,-1.9925743341445923,-0.27653029561042786,9.443928718566895,-15.472412109375,-24.7802734375,3.692626953125
1.1074999,-1.8608932495117188,-0.6560112833976746,9.4822359085083,-13.519287109375,-35.858154296875,30.76171875
1.1124999000000002,-0.9792284965515137,-1.006163239479065,9.506776809692383,-13.0615234375,-29.754638671875,18.06640625
1.1174999,-0.08738835901021957,-1.2461819648742676,9.659406661987305,-0.946044921875,-20.93505859375,20.599365234375
1.1224999000000002,0.7948749661445618,-1.4957774877548218,9.738415718078613,7.87353515625,-10.986328125,28.1982421875
1.1274999,1.6597803831100464,0.020949264988303185,9.993996620178223,2.593994140625,5.7373046875,-2.50244140625
1.1324999000000002,1.8064252138137817,-0.012569558806717396,9.995193481445312,3.326416015625,13.97705078125,-18.646240234375
1.1374999000000001,1.9877859354019165,-0.2944868206977844,9.90361499786377,18.798828125,32.073974609375,-12.8173828125
1.1424999000000002,1.9410990476608276,-0.21009120345115662,9.892242431640625,18.37158203125,36.956787109375,-17.791748046875
1.1474999000000001,1.4329297542572021,-0.24899697303771973,9.963470458984375,5.615234375,32.989501953125,-24.627685546875
1.1524999000000002,0.7739257216453552,0.33339259028434753,9.79527759552002,-2.25830078125,22.857666015625,-34.393310546875
1.1574999000000001,-0.10115502029657364,0.4076128304004669,9.788095474243164,-5.92041015625,3.753662109375,-41.80908203125
1.1624999,-0.8846575021743774,0.6518214344978333,9.349956512451172,-5.7373046875,-6.4697265625,-34.759521484375
1.1674999000000001,-1.7280150651931763,-0.002394201699644327,9.460687637329102,-22.735595703125,-18.98193359375,-18.4326171875
1.1724999,0.05147533491253853,-1.4012064933776855,9.871891975402832,5.0048828125,-14.617919921875,24.90234375
1.1774999000000002,0.9780313968658447,-1.5005658864974976,9.981427192687988,12.6953125,-4.547119140625,27.374267578125
1.1824999,1.5328876972198486,-1.3024457693099976,9.9772367477417,13.61083984375,7.476806640625,23.406982421875
1.1874999000000002,1.7202339172363281,-0.7110779285430908,10.022128105163574,9.765625,9.918212890625,16.6015625
1.1924999,1.766920804977417,-0.03711012750864029,10.029909133911133,4.21142578125,6.866455078125,0.1220703125
1.1974999000000002,1.7573440074920654,0.09457096457481384,10.022727012634277,2.410888671875,11.260986328125,-14.923095703125
1.2024999,1.7806875705718994,-0.04967968538403511,9.861717224121094,18.951416015625,31.646728515625,-16.05224609375
1.2074999000000002,1.349731206893921,-0.1430535465478897,9.904812812805176,6.7138671875,30.242919921875,-21.148681640625
1.2124999,-1.656787633895874,0.2585737705230713,9.548674583435059,-14.5263671875,-14.251708984375,-13.73291015625
1.2174999000000002,-2.030282974243164,-0.5093663930892944,9.24940013885498,-22.94921875,-22.613525390625,-6.256103515625
1.2224999,-2.2870612144470215,-0.16579847037792206,9.52114200592041,-13.153076171875,-31.67724609375,16.021728515625
1.2274999000000002,-1.920149803161621,-0.585382342338562,9.43255615234375,-16.937255859375,-40.557861328125,31.341552734375
1.2324999,-0.9654618501663208,-0.9570821523666382,9.621698379516602,-10.345458984375,-29.754638671875,17.303466796875
1.2374999000000002,0.03292027488350868,-1.2856862545013428,9.731831550598145,2.9296875,-18.5546875,25.45166015625
1.2424999,0.9253589510917664,-1.5682021379470825,9.813833236694336,11.138916015625,-6.195068359375,33.26416015625
1.2474999000000002,1.3952209949493408,-1.5167267322540283,9.876680374145508,14.434814453125,6.8359375,37.384033203125
1.2524999,1.534683346748352,-1.048660397529602,9.91977596282959,11.871337890625,10.55908203125,34.210205078125
1.2574999000000002,1.5975310802459717,-0.2932897210121155,9.97364616394043,6.34765625,7.232666015625,18.5546875
1.2624999000000001,2.0482394695281982,-0.17836803197860718,9.925761222839355,9.490966796875,19.012451171875,-18.4326171875
1.2674999000000002,2.206855535507202,-0.10893617570400238,9.896432876586914,19.83642578125,34.7900390625,-14.5263671875
1.2724999000000001,1.9141643047332764,-0.18375498056411743,9.945513725280762,10.650634765625,34.72900390625,-18.4326171875
1.2774999000000002,1.2635399103164673,0.05985504388809204,9.9185791015625,-0.3662109375,27.4658203125,-29.35791015625
1.2824999000000001,0.3770867586135864,0.5231330990791321,9.824007987976074,-4.0283203125,13.824462890625,-36.773681640625
1.2874999,-0.5339069962501526,0.17298106849193573,9.679159164428711,-5.4931640625,-1.922607421875,-34.637451171875
1.2924999000000001,-1.3820528984069824,0.33758243918418884,9.580398559570312,-10.467529296875,-9.613037109375,-20.5078125
1.2974999,-1.9153614044189453,-0.5213374495506287,9.355941772460938,-24.10888671875,-19.6533203125,-11.65771484375
1.3024999000000002,-2.1296424865722656,-0.40521863102912903,9.402628898620605,-12.3291015625,-21.026611328125,5.2490234375
1.3074999,-2.0464439392089844,-0.8427590131759644,9.403825759887695,-12.603759765625,-35.308837890625,34.11865234375
1.3124999000000002,-1.2114660739898682,-1.2066776752471924,9.469067573547363,-12.451171875,-31.31103515625,19.22607421875
1.3174999,-0.2669534981250763,-1.4012064933776855,9.600749015808105,0.518798828125,-19.500732421875,20.477294921875
1.3224999000000002,1.40180504322052,-1.521515130996704,9.864709854125977,14.7705078125,3.2958984375,26.611328125
1.3274999,1.7052701711654663,-1.1300631761550903,9.947309494018555,12.939453125,11.3525390625,21.97265625
1.3324999000000002,1.7968484163284302,-0.3866635859012604,10.023324966430664,7.965087890625,10.07080078125,9.674072265625
1.3374999,1.8279730081558228,0.11851298063993454,10.052654266357422,3.387451171875,9.674072265625,-10.711669921875
1.3424999000000002,1.824381709098816,-0.058059390634298325,10.020332336425781,8.331298828125,20.81298828125,-15.167236328125
1.3474999,1.8848352432250977,-0.19572599232196808,9.944316864013672,21.575927734375,33.02001953125,-12.51220703125
1.3524999000000002,1.6340426206588745,-0.11911153793334961,9.920374870300293,16.11328125,35.247802734375,-20.56884765625
1.3574999,1.0959458351135254,-0.06464344263076782,9.920374870300293,2.410888671875,30.059814453125,-26.67236328125
1.3624999000000002,-1.1605892181396484,0.6027402877807617,9.303269386291504,-7.049560546875,-9.8876953125,-33.050537109375
1.3674999,-1.9614497423171997,-0.20350714027881622,9.352350234985352,-24.200439453125,-22.979736328125,-14.892578125
1.3724999000000002,-2.4791958332061768,-0.5817909836769104,9.518747329711914,-12.87841796875,-37.811279296875,33.63037109375
1.3774999,-1.7399860620498657,-1.01753568649292,9.609726905822754,-17.4560546875,-40.130615234375,23.284912109375
1.3824999000000002,-0.7577648162841797,-1.2443863153457642,9.803058624267578,-5.06591796875,-25.45166015625,18.37158203125
1.3874999000000001,0.353743314743042,-1.5161281824111938,9.90241813659668,7.01904296875,-13.00048828125,29.84619140625
1.3924999000000002,1.1851298809051514,-1.5879542827606201,9.961075782775879,13.763427734375,0.152587890625,35.186767578125
1.3974999000000001,1.5556325912475586,-1.323395013809204,9.953893661499023,13.275146484375,10.1318359375,36.0107421875
1.4024999000000002,1.6490063667297363,-0.6350619792938232,9.997588157653809,9.002685546875,8.544921875,27.64892578125
1.4074999000000001,1.7286136150360107,0.016759412363171577,9.981427192687988,3.204345703125,5.615234375,6.378173828125
1.4124999,1.9117701053619385,-0.0065840547904372215,9.951498985290527,2.197265625,8.941650390625,-14.70947265625
1.4174999000000001,2.165555477142334,-0.15322890877723694,9.847949981689453,17.425537109375,27.77099609375,-16.265869140625
1.4224999,2.0889410972595215,-0.03950432687997818,9.831191062927246,16.143798828125,35.491943359375,-15.68603515625
1.4274999000000002,1.5610195398330688,-0.1364694982767105,9.907206535339355,3.021240234375,30.1513671875,-23.284912109375
1.4324999,-0.1628057211637497,0.375291109085083,9.788095474243164,-5.43212890625,3.72314453125,-34.515380859375
1.4374999000000002,-0.9498994946479797,0.24361002445220947,9.509769439697266,-5.859375,-6.65283203125,-26.641845703125
1.4424999,-2.2212207317352295,-0.3705027103424072,9.596558570861816,-11.383056640625,-31.707763671875,23.681640625
1.4474999000000002,-1.6172832250595093,-0.7924807667732239,9.461286544799805,-15.869140625,-35.888671875,27.7099609375
1.4524999,-0.7164648771286011,-1.0863690376281738,9.633668899536133,-5.523681640625,-24.932861328125,19.317626953125
1.4574999000000002,0.29149407148361206,-1.4185645580291748,9.725846290588379,6.2255859375,-15.56396484375,26.519775390625
1.4624999,1.1025298833847046,-1.5783774852752686,9.824007987976074,13.85498046875,-2.01416015625,32.40966796875
1.4674999000000002,1.5275006294250488,-1.4245500564575195,9.88625717163086,15.44189453125,10.25390625,32.5927734375
1.4724999,1.6950948238372803,-0.8188169598579407,9.952696800231934,11.474609375,12.786865234375,23.49853515625
1.4774999000000002,1.7860745191574097,-0.13287819921970367,10.023324966430664,5.126953125,8.575439453125,2.5634765625
1.4824999,1.932719349861145,-0.041299980133771896,10.04068374633789,3.509521484375,13.18359375,-17.608642578125
1.4874999000000002,2.117671489715576,-0.2495955228805542,9.9586820602417,19.195556640625,31.951904296875,-14.129638671875
1.4924999,2.0901381969451904,-0.07661445438861847,9.927556991577148,21.331787109375,39.642333984375,-16.937255859375
1.4974999000000002,1.5885528326034546,-0.1346738487482071,9.97484302520752,7.14111328125,34.759521484375,-26.18408203125
1.5024999,0.8966285586357117,0.42616790533065796,9.79408073425293,-2.44140625,22.796630859375,-37.445068359375
1.5074999000000002,-0.04489128291606903,0.6332663297653198,9.762955665588379,-6.622314453125,4.0283203125,-46.20361328125
1.5124999000000001,-0.8888474106788635,0.17956513166427612,9.492411613464355,-7.293701171875,-7.62939453125,-41.259765625
1.5174999000000002,-1.8387469053268433,0.06823474913835526,9.515754699707031,-17.2119140625,-17.120361328125,-21.209716796875
1.5224999000000001,1.7651251554489136,-0.1646013706922531,10.029909133911133,5.279541015625,6.9580078125,9.70458984375
1.5274999000000002,1.8309657573699951,0.04249707981944084,10.037092208862305,1.617431640625,8.026123046875,-12.054443359375
1.5324999000000001,2.0225019454956055,-0.17896658182144165,9.91738224029541,14.404296875,23.712158203125,-15.167236328125
1.5374999000000003,2.0422539710998535,-0.0071826050989329815,9.875483512878418,19.6533203125,34.515380859375,-14.0380859375
1.5424999000000001,1.6190788745880127,-0.10773907601833344,9.911396026611328,7.50732421875,32.28759765625,-20.721435546875
1.5474999,0.9630676507949829,0.29149407148361206,9.815030097961426,-2.349853515625,23.529052734375,-29.998779296875
1.5524999000000002,0.03531447425484657,0.6051344871520996,9.778518676757812,-4.974365234375,7.99560546875,-33.477783203125
1.5574999,-0.8439561128616333,0.15263035893440247,9.615114212036133,-6.683349609375,-5.462646484375,-30.3955078125
1.5624999000000002,-1.688510775566101,0.39803603291511536,9.672574996948242,-10.498046875,-11.8408203125,-14.2822265625
1.5674999,-2.252943754196167,-0.13168109953403473,9.725846290588379,-15.625,-30.853271484375,9.613037109375
1.5724999000000002,-1.945288896560669,-0.6051344871520996,9.674968719482422,-15.13671875,-37.506103515625,30.364990234375
1.5774999,-0.9259575009346008,-1.0241197347640991,9.73542308807373,-11.77978515625,-28.50341796875,18.463134765625
1.5824999000000002,0.08259996026754379,-1.3102269172668457,9.807249069213867,1.0986328125,-18.707275390625,22.52197265625
1.5874999,0.9738415479660034,-1.5616180896759033,9.825803756713867,9.246826171875,-7.598876953125,29.144287109375
1.5924999000000002,1.4538789987564087,-1.488594889640808,9.871891975402832,13.24462890625,4.33349609375,32.257080078125
1.5974999,1.599326729774475,-1.0720038414001465,9.903017044067383,10.772705078125,9.552001953125,28.350830078125
1.6024999000000002,1.63344407081604,-0.3471592366695404,9.946112632751465,6.40869140625,7.62939453125,14.34326171875
1.6074999,1.7483657598495483,0.04189852997660637,9.944915771484375,1.068115234375,6.16455078125,-9.613037109375
1.6124999000000002,1.9195512533187866,-0.22505496442317963,9.919178009033203,8.026123046875,19.59228515625,-17.27294921875
1.6174999,2.0410568714141846,-0.28072014451026917,9.861717224121094,20.81298828125,34.60693359375,-12.8173828125
1.6224999000000002,1.7435773611068726,-0.29149407148361206,9.891045570373535,13.824462890625,34.881591796875,-18.646240234375
1.6274999,-1.215057373046875,0.3663128614425659,9.563039779663086,-6.28662109375,-7.476806640625,-22.796630859375
1.6324999000000002,-1.7968484163284302,-0.3315969407558441,9.45410442352295,-21.42333984375,-18.37158203125,-8.60595703125
1.6374999000000001,-1.8842366933822632,-0.4106055796146393,9.428366661071777,-12.939453125,-20.233154296875,2.105712890625
1.6424999000000002,-1.9524714946746826,-0.6859387755393982,9.487024307250977,-9.307861328125,-29.998779296875,31.463623046875
1.6474999000000001,-1.206079125404358,-1.0534487962722778,9.5624418258667,-12.664794921875,-30.82275390625,19.805908203125
1.6524999000000002,-0.3579331636428833,-1.184531331062317,9.677961349487305,-2.197265625,-19.83642578125,17.2119140625
1.6574999000000001,0.5464765429496765,-1.37906014919281,9.835979461669922,7.171630859375,-10.1318359375,22.613525390625
1.6624999000000003,1.2701239585876465,-1.3557167053222656,9.934141159057617,12.542724609375,0.335693359375,21.392822265625
1.6674999000000001,1.6442179679870605,-1.036689281463623,9.988011360168457,10.894775390625,8.209228515625,13.824462890625
1.6724999,1.7519570589065552,0.048482585698366165,10.031704902648926,2.960205078125,9.429931640625,-11.260986328125
1.6774999000000002,1.6502034664154053,-0.12210428714752197,9.97603988647461,7.476806640625,17.974853515625,-11.474609375
1.6824999,-0.8948329091072083,-0.07721300423145294,9.428964614868164,-5.340576171875,-6.622314453125,-25.634765625
1.6874999000000002,-1.7345991134643555,-0.1909375786781311,9.622895240783691,-16.998291015625,-17.7001953125,-6.927490234375
1.6924999,-1.8369512557983398,-0.36092591285705566,9.337985038757324,-18.37158203125,-24.4140625,-0.79345703125
1.6974999000000002,-2.1697452068328857,-0.10714052617549896,9.745597839355469,-10.009765625,-32.379150390625,24.84130859375
1.7024999,-1.5604209899902344,-0.33518823981285095,9.648633003234863,-18.829345703125,-36.31591796875,23.834228515625
1.7074999000000002,1.5640122890472412,-1.3323732614517212,9.936535835266113,12.237548828125,7.843017578125,29.96826171875
1.7124999,1.5640122890472412,-1.3323732614517212,9.936535835266113,12.237548828125,7.843017578125,29.96826171875
1.7174999000000002,1.6490063667297363,-0.839766263961792,9.954492568969727,7.62939453125,5.9814453125,17.2119140625
1.7224999,1.6095020771026611,-0.2795230448246002,9.924564361572266,2.410888671875,3.875732421875,2.13623046875
1.7274999000000002,1.6454150676727295,-0.06584054976701736,9.941324234008789,0.06103515625,7.4462890625,-12.969970703125
1.7324999,1.7591396570205688,-0.3363853394985199,9.86231517791748,11.5966796875,21.3623046875,-11.566162109375
1.7374999000000002,1.7417817115783691,-0.3214215636253357,9.844358444213867,17.120361328125,29.60205078125,-13.458251953125
1.7424999,1.3323732614517212,-0.3705027103424072,9.871294021606445,7.720947265625,28.076171875,-16.387939453125
1.7474999000000002,0.7912836670875549,-0.05506663769483566,9.84495735168457,-0.335693359375,20.843505859375,-21.91162109375
1.7524999,0.07841010391712189,0.2603694200515747,9.77791976928711,-2.25830078125,10.8642578125,-24.96337890625
1.7574999000000002,-0.6230909824371338,-0.015562310814857483,9.674968719482422,-3.021240234375,0.18310546875,-21.91162109375
1.7624999000000001,-1.6741455793380737,-0.4159925580024719,9.485228538513184,-20.294189453125,-17.608642578125,-1.861572265625
1.7674999000000002,-1.7310078144073486,-0.19871874153614044,9.654019355773926,-12.63427734375,-23.25439453125,6.195068359375
1.7724999000000001,-1.6286556720733643,-0.5781996846199036,9.608530044555664,-9.796142578125,-27.740478515625,27.64892578125
1.7774999000000002,-0.8415619134902954,-0.8912416100502014,9.642647743225098,-11.749267578125,-25.726318359375,15.380859375
1.7824999000000001,-0.07721300423145294,-1.0833762884140015,9.768342971801758,0.457763671875,-17.913818359375,17.730712890625
1.7874999000000003,0.7344213724136353,-1.3443442583084106,9.762357711791992,6.011962890625,-8.453369140625,18.096923828125
1.7924999000000001,1.2647370100021362,-1.2892776727676392,9.86231517791748,11.505126953125,0.396728515625,21.8505859375
1.7974999,1.6101006269454956,-1.004966139793396,9.905410766601562,10.162353515625,7.2021484375,13.031005859375
1.8024999000000002,1.6813281774520874,-0.3800795078277588,9.947309494018555,6.011962890625,7.904052734375,2.655029296875
1.8074999,1.7064672708511353,-0.048482585698366165,9.96945571899414,2.105712890625,9.3994140625,-12.0849609375
1.8124999000000002,1.599326729774475,-0.07182604819536209,9.954492568969727,6.40869140625,17.547607421875,-9.979248046875
1.8174999,1.622071623802185,-0.37648820877075195,9.886856079101562,18.157958984375,26.2451171875,-10.833740234375
1.8224999000000002,0.9169792532920837,-0.22026655077934265,9.900622367858887,4.21142578125,27.984619140625,-17.059326171875
1.8274999,0.9169792532920837,-0.22026655077934265,9.900622367858887,4.21142578125,27.984619140625,-17.059326171875
1.8324999000000002,0.43694180250167847,0.1999158412218094,9.733028411865234,-1.953125,17.15087890625,-26.67236328125
1.8374999,-0.314238965511322,0.2908954918384552,9.749189376831055,-4.058837890625,1.373291015625,-32.012939453125
1.8424999000000002,-0.8409633636474609,-0.02214636653661728,9.494805335998535,-4.638671875,-5.92041015625,-27.130126953125
1.8474999,-1.6196774244308472,-0.1538274586200714,9.66958236694336,-15.716552734375,-14.373779296875,-8.331298828125
1.8524999000000002,-1.775899052619934,-0.39803603291511536,9.358335494995117,-19.012451171875,-21.331787109375,-1.434326171875
1.8574999,-2.057217836380005,-0.24600422382354736,9.767744064331055,-9.429931640625,-30.6396484375,20.782470703125
1.8624999000000002,-1.623268723487854,-0.45908817648887634,9.589376449584961,-18.646240234375,-35.919189453125,24.078369140625
1.8674999,-0.7721300721168518,-0.5943605899810791,9.774927139282227,-10.955810546875,-28.1982421875,13.671875
1.8724999000000002,0.19572599232196808,-1.0019733905792236,9.849745750427246,3.265380859375,-15.19775390625,19.256591796875
1.8774999,1.0115501880645752,-1.282094955444336,9.858125686645508,7.293701171875,-4.7607421875,22.064208984375
1.8824999000000002,1.5981296300888062,-0.3794809579849243,9.834183692932129,15.045166015625,24.749755859375,-11.138916015625
1.8874999000000001,1.3437457084655762,-0.30466216802597046,9.84256362915039,11.199951171875,26.336669921875,-17.2119140625
1.8924999000000002,0.8110358119010925,-0.2645592987537384,9.86770248413086,2.044677734375,23.040771484375,-15.167236328125
1.8974999000000001,0.2454056739807129,0.1646013706922531,9.803058624267578,-2.74658203125,14.892578125,-22.552490234375
1.9024999000000002,-0.4291606545448303,0.09516951441764832,9.77672290802002,-4.302978515625,3.021240234375,-22.3388671875
1.9074999000000001,-0.9516952037811279,0.40521863102912903,9.532513618469238,-3.265380859375,-3.997802734375,-10.711669921875
1.9124999000000003,-1.4646528959274292,-0.1711854189634323,9.599552154541016,-18.585205078125,-14.6484375,0.06103515625
1.9174999000000001,-1.4167689085006714,-0.1586158573627472,9.398438453674316,-16.571044921875,-18.37158203125,-2.471923828125
1.9224999,-0.9253589510917664,-0.9684545993804932,9.637859344482422,-12.6953125,-26.824951171875,20.233154296875
1.9274999000000002,-0.25318682193756104,-1.225232720375061,9.764153480529785,-4.5166015625,-21.942138671875,16.6015625
1.9324999,0.4668693244457245,-1.4544775485992432,9.792284965515137,4.302978515625,-13.671875,22.491455078125
1.9374999000000002,1.0450690984725952,-1.4844050407409668,9.846753120422363,11.016845703125,-5.0048828125,23.284912109375
1.9424999,1.3796586990356445,-1.2832920551300049,9.869498252868652,11.627197265625,4.57763671875,19.22607421875
1.9474999000000002,1.4790180921554565,-0.7170634269714355,9.924564361572266,8.97216796875,9.033203125,12.603759765625
1.9524999,1.5047557353973389,-0.14425064623355865,9.96945571899414,4.180908203125,6.591796875,-1.556396484375
1.9574999000000002,1.4993687868118286,0.1346738487482071,9.996989250183105,2.25830078125,10.43701171875,-14.0380859375
1.9624999,1.4550760984420776,-0.02513911761343479,9.959280967712402,7.659912109375,19.866943359375,-9.857177734375
1.9674999000000002,1.4987702369689941,-0.36990416049957275,9.882067680358887,17.822265625,27.83203125,-14.892578125
1.9724999,1.2258312702178955,-0.30705636739730835,9.888052940368652,12.664794921875,30.09033203125,-20.5078125
1.9774999000000002,0.778714120388031,-0.24181437492370605,9.877877235412598,3.662109375,26.30615234375,-16.265869140625
1.9824999,-0.4626794755458832,0.20530278980731964,9.718064308166504,-6.500244140625,-1.708984375,-32.623291015625
1.9874999000000002,-1.148618221282959,0.5512649416923523,9.610325813293457,-6.683349609375,-6.805419921875,-18.73779296875
1.9924999,-1.6717513799667358,-0.10654197633266449,9.46487808227539,-21.17919921875,-17.15087890625,-4.730224609375
1.9974999000000002,-1.844732403755188,0.004788403399288654,9.462483406066895,-13.824462890625,-21.728515625,3.173828125
2.0024999,-1.898003339767456,-0.3214215636253357,9.479841232299805,-12.603759765625,-34.11865234375,28.99169921875
2.0074999,-1.1737574338912964,-0.7236474752426147,9.527725219726562,-14.58740234375,-32.470703125,18.707275390625
2.0124999000000003,-0.3190273642539978,-1.0055646896362305,9.637859344482422,-3.96728515625,-21.759033203125,18.61572265625
2.0174999000000002,0.5841852426528931,-1.3227964639663696,9.783307075500488,6.317138671875,-12.481689453125,25.604248046875
2.0224999,1.2431892156600952,-1.4155718088150024,9.855731010437012,12.26806640625,-0.48828125,26.4892578125
2.0274999,1.4862006902694702,-1.1941081285476685,9.920374870300293,10.833740234375,6.378173828125,23.74267578125
2.0324999000000004,1.513733983039856,-0.5722141861915588,9.979032516479492,7.6904296875,6.7138671875,15.2587890625
2.0374999000000003,1.4993687868118286,-0.048482585698366165,10.004171371459961,1.89208984375,4.21142578125,-1.678466796875
2.0424999,1.1953052282333374,-0.38546648621559143,9.892242431640625,8.209228515625,28.045654296875,-18.61572265625
2.0474999,0.6476315855979919,-0.0065840547904372215,9.841365814208984,-0.030517578125,21.66748046875,-20.93505859375
2.0524999,-0.11611878126859665,0.3429693877696991,9.819818496704102,-5.4931640625,7.8125,-29.052734375
2.0574999000000003,-0.7823054194450378,0.13108254969120026,9.660603523254395,-6.103515625,-4.94384765625,-22.613525390625
2.0624999,-1.5119383335113525,0.18136078119277954,9.6803560256958,-15.07568359375,-12.8173828125,-4.94384765625
2.0674999,-1.6430208683013916,-0.45010992884635925,9.340977668762207,-19.71435546875,-17.578125,-2.5634765625
2.0724999,-1.7782933712005615,-0.35015198588371277,9.543886184692383,-11.1083984375,-26.397705078125,14.007568359375
2.0774999000000003,-1.3611036539077759,-0.7110779285430908,9.41400146484375,-13.73291015625,-31.73828125,28.38134765625
2.0824999,1.6178817749023438,-0.07481880486011505,9.944316864013672,6.4697265625,18.157958984375,-14.495849609375
2.0874999,1.7160440683364868,-0.38726213574409485,9.908403396606445,18.035888671875,29.632568359375,-13.61083984375
2.0924999,1.48081374168396,-0.32620999217033386,9.871891975402832,14.862060546875,32.196044921875,-20.843505859375
2.0974999000000003,0.961870551109314,-0.25438392162323,9.924564361572266,3.692626953125,27.496337890625,-19.683837890625
2.1024999,0.33039984107017517,0.38067805767059326,9.77791976928711,-3.204345703125,15.68603515625,-30.2734375
2.1074999,-0.4836287498474121,0.3196259140968323,9.740809440612793,-7.232666015625,-2.50244140625,-32.928466796875
2.1124999,-1.237802267074585,0.5752069354057312,9.671976089477539,-8.148193359375,-8.575439453125,-19.744873046875
2.1174999000000003,-1.8046295642852783,-0.14185644686222076,9.505578994750977,-21.697998046875,-17.578125,-4.7607421875
2.1224999,-1.1504138708114624,-0.8912416100502014,9.55585765838623,-14.068603515625,-32.3486328125,20.965576171875
2.1274999,-0.2795230448246002,-1.1348515748977661,9.651026725769043,-3.41796875,-21.78955078125,19.134521484375
2.1324999,0.6099228858947754,-1.3838485479354858,9.752182006835938,6.9580078125,-12.786865234375,26.336669921875
2.1374999000000003,1.237802267074585,-1.4245500564575195,9.831191062927246,12.908935546875,-0.3662109375,28.86962890625
2.1424999000000002,1.4832079410552979,-1.1540051698684692,9.880271911621094,11.383056640625,7.2021484375,26.611328125
2.1474999,1.514931082725525,-0.5003881454467773,9.960477828979492,7.87353515625,7.537841796875,18.12744140625
2.1524999,1.5298948287963867,0.016160860657691956,10.00836181640625,1.77001953125,4.058837890625,-0.030517578125
2.1574999000000004,1.6310498714447021,0.2041056901216507,10.033500671386719,1.03759765625,9.368896484375,-16.143798828125
2.1624999000000003,1.7477672100067139,-0.22026655077934265,9.893440246582031,17.120361328125,31.005859375,-17.39501953125
2.1674999,1.2677297592163086,-0.3842693865299225,9.88745403289795,7.720947265625,28.74755859375,-18.5546875
2.1724999,-0.15741875767707825,0.3214215636253357,9.82879638671875,-6.317138671875,6.591796875,-31.43310546875
2.1774999000000004,-0.8756792545318604,0.5847837924957275,9.415796279907227,-6.40869140625,-5.9814453125,-23.5595703125
2.1824999000000003,-1.6172832250595093,0.10953472554683685,9.591172218322754,-20.538330078125,-15.80810546875,-7.354736328125
2.1874999,-1.721431016921997,-0.16639702022075653,9.137471199035645,-19.439697265625,-15.106201171875,-5.706787109375
2.1924999,-1.8626888990402222,-0.5943605899810791,9.541492462158203,-11.688232421875,-28.106689453125,18.402099609375
2.1974999,-1.3329718112945557,-1.0851719379425049,9.520543098449707,-14.617919921875,-33.966064453125,29.60205078125
2.2024999000000003,-1.3329718112945557,-1.0851719379425049,9.520543098449707,-14.617919921875,-33.966064453125,29.60205078125
2.2074999,-0.5464765429496765,-1.3952209949493408,9.655217170715332,-6.28662109375,-25.57373046875,21.514892578125
2.2124999,0.28969839215278625,-1.6382324695587158,9.728240013122559,4.852294921875,-17.578125,24.90234375
2.2174999,0.993593692779541,-1.6891093254089355,9.802460670471191,14.95361328125,-5.401611328125,31.585693359375
2.2224999000000003,1.371279001235962,-1.5161281824111938,9.84615421295166,16.387939453125,7.32421875,32.806396484375
2.2274999,1.8315643072128296,0.0011971008498221636,9.967659950256348,9.246826171875,23.25439453125,-17.76123046875
2.2324999,2.0027496814727783,-0.17657238245010376,9.947908401489258,21.453857421875,36.041259765625,-16.510009765625
2.2374999,1.7190368175506592,-0.2998737692832947,9.922768592834473,15.07568359375,36.834716796875,-22.918701171875
2.2424999000000003,-0.5045779943466187,0.30526071786880493,9.662399291992188,-8.148193359375,-3.173828125,-44.403076171875
2.2474999,-0.5045779943466187,0.30526071786880493,9.662399291992188,-8.148193359375,-3.173828125,-44.403076171875
2.2524999,-1.40180504322052,0.5829881429672241,9.61451530456543,-10.467529296875,-11.41357421875,-29.205322265625
2.2574999,-1.9752163887023926,-0.2783259451389313,9.394248962402344,-24.47509765625,-21.148681640625,-17.7001953125
2.2624999000000003,-2.2667105197906494,-0.20889410376548767,9.473258018493652,-11.383056640625,-18.85986328125,1.678466796875
2.2674999000000002,-2.1972784996032715,-0.6560112833976746,9.530718803405762,-13.641357421875,-37.322998046875,34.66796875
2.2724999,-0.41958385705947876,-1.238999366760254,9.679159164428711,-3.41796875,-22.796630859375,18.12744140625
2.2774999,0.5901707410812378,-1.4449007511138916,9.781511306762695,8.148193359375,-11.5966796875,27.4658203125
2.2824999000000004,1.3533225059509277,-1.4945803880691528,9.853935241699219,14.0380859375,-0.640869140625,28.50341796875
2.2874999000000003,1.6561890840530396,-1.2204443216323853,9.898826599121094,12.786865234375,9.552001953125,24.5361328125
2.2924999,1.7052701711654663,-0.5877765417098999,9.982025146484375,9.429931640625,9.613037109375,16.387939453125
2.2974999,1.680729627609253,-0.02992752194404602,10.019135475158691,4.150390625,7.659912109375,-1.617431640625
2.3024999000000004,1.6992846727371216,0.16879121959209442,10.013150215148926,3.72314453125,13.5498046875,-14.739990234375
2.3074999000000003,1.7447744607925415,-0.15023615956306458,9.967659950256348,13.61083984375,26.153564453125,-13.61083984375
2.3124999,1.7004817724227905,-0.1604115068912506,9.870695114135742,18.951416015625,33.233642578125,-17.88330078125
2.3174999,1.260547161102295,-0.181959331035614,9.964667320251465,7.843017578125,31.036376953125,-20.69091796875
2.3224999,-1.732803463935852,-0.47644615173339844,9.367314338684082,-22.247314453125,-15.7470703125,-13.458251953125
2.3274999000000003,-2.099714994430542,-0.40701428055763245,9.511565208435059,-13.5498046875,-22.369384765625,9.21630859375
2.3324999,-1.9375077486038208,-0.7942764163017273,9.446322441101074,-17.63916015625,-42.05322265625,31.982421875
2.3374999,-1.2348095178604126,-1.0732009410858154,9.481637001037598,-13.580322265625,-36.285400390625,19.378662109375
2.3424999,-0.2346317619085312,-1.349731206893921,9.57321548461914,-1.89208984375,-21.6064453125,18.951416015625
2.3474999000000003,0.7960720658302307,-1.5682021379470825,9.739013671875,9.735107421875,-10.955810546875,27.801513671875
2.3524999,1.5466543436050415,-1.6101006269454956,9.813833236694336,15.625,1.312255859375,29.11376953125
2.3574999,1.7854759693145752,-1.3287819623947144,9.911994934082031,15.2587890625,12.14599609375,25.32958984375
2.3624999,1.768117904663086,-0.7092822790145874,9.988011360168457,11.871337890625,12.542724609375,15.350341796875
2.3674999000000003,1.6645687818527222,-0.07841010391712189,10.040084838867188,5.9814453125,10.1318359375,-2.288818359375
2.3724999,1.6310498714447021,0.2232593148946762,10.043676376342773,4.69970703125,15.716552734375,-15.380859375
2.3774999,1.5263035297393799,-0.18555063009262085,9.895833969116211,19.04296875,32.745361328125,-16.90673828125
2.3824999,1.237802267074585,-0.166995570063591,9.922170639038086,12.02392578125,32.135009765625,-26.031494140625
2.3874999000000003,0.7326257228851318,0.0017956512747332454,9.848548889160156,0.91552734375,25.69580078125,-24.35302734375
2.3924999000000002,0.1586158573627472,0.345363587141037,9.726444244384766,-6.134033203125,13.397216796875,-35.858154296875
2.3974999,-0.5596446394920349,0.243011474609375,9.569025993347168,-6.34765625,-2.8076171875,-40.4052734375
2.4024999,-1.4460978507995605,0.4471171796321869,9.476250648498535,-13.36669921875,-14.16015625,-23.406982421875
2.4074999000000004,-1.896806240081787,-0.4291606545448303,9.229048728942871,-22.247314453125,-21.05712890625,-16.11328125
2.4124999000000003,-2.276287317276001,-0.3034650683403015,9.299677848815918,-9.918212890625,-21.636962890625,4.82177734375
2.4174999,-2.1787235736846924,-0.7152677774429321,9.368511199951172,-15.7470703125,-40.1611328125,32.745361328125
2.4224999,-1.4586673974990845,-0.8553285598754883,9.548674583435059,-15.93017578125,-39.154052734375,19.256591796875
2.4274999000000004,-0.47884035110473633,-1.0348936319351196,9.75637149810791,-7.537841796875,-26.2451171875,16.54052734375
2.4324999000000003,0.6003460884094238,-1.2521674633026123,9.8970308303833,3.47900390625,-13.824462890625,23.101806640625
2.4374999,1.6777368783950806,-0.849941611289978,9.96945571899414,9.82666015625,8.575439453125,20.294189453125
2.4424999,1.525106430053711,-0.22685061395168304,9.971850395202637,4.669189453125,6.011962890625,8.636474609375
2.4474999,1.4586673974990845,0.12988543510437012,9.947908401489258,0.54931640625,4.730224609375,-9.09423828125
2.4524999000000003,1.456871747970581,0.1256955862045288,9.923367500305176,4.21142578125,14.58740234375,-14.373779296875
2.4574999,1.4927847385406494,-0.23104046285152435,9.852140426635742,13.61083984375,24.84130859375,-11.90185546875
2.4624999,1.4077905416488647,-0.25917232036590576,9.873687744140625,12.786865234375,28.472900390625,-19.22607421875
2.4674999,0.9666589498519897,-0.25438392162323,9.932345390319824,4.669189453125,27.4658203125,-17.4560546875
2.4724999000000003,0.4531026780605316,0.053270988166332245,9.838972091674805,-1.28173828125,20.904541015625,-21.820068359375
2.4774999,-0.23762452602386475,0.011372458189725876,9.749788284301758,-3.875732421875,5.401611328125,-27.4658203125
2.4824999,-1.5424644947052002,-0.27054479718208313,9.537900924682617,-21.1181640625,-15.838623046875,-9.246826171875
2.4874999,-1.8052281141281128,-0.5392939448356628,9.540295600891113,-9.09423828125,-30.975341796875,28.900146484375
2.4924999000000003,-1.2372037172317505,-0.8044517636299133,9.540295600891113,-11.71875,-33.14208984375,22.125244140625
2.4974999,-0.46507367491722107,-0.8972271084785461,9.683947563171387,-8.209228515625,-24.566650390625,14.0380859375
2.5024999,0.4034229815006256,-1.125873327255249,9.817423820495605,0.885009765625,-15.07568359375,20.93505859375
2.5074999,1.1288660764694214,-1.3443442583084106,9.896432876586914,13.275146484375,-4.2724609375,25.93994140625
2.5124999000000003,1.5155296325683594,-1.4526818990707397,9.897629737854004,15.44189453125,8.36181640625,24.444580078125
2.5174999000000002,1.6053122282028198,-0.9977835416793823,9.946112632751465,12.39013671875,11.383056640625,18.524169921875
2.5224999,1.580173134803772,-0.31184476613998413,9.965266227722168,6.53076171875,9.307861328125,4.8828125
2.5274999,1.602918028831482,0.11611878126859665,9.996390342712402,2.01416015625,9.552001953125,-12.969970703125
2.5324999000000004,1.6525976657867432,-0.0520738884806633,9.97065258026123,9.94873046875,22.430419921875,-14.068603515625
2.5374999000000003,1.7549498081207275,-0.16579847037792206,9.905410766601562,21.30126953125,34.11865234375,-14.556884765625
2.5424999,1.5179238319396973,-0.17896658182144165,9.9586820602417,13.3056640625,34.759521484375,-20.904541015625
2.5474999,0.42018240690231323,0.34835633635520935,9.745597839355469,-4.058837890625,14.5263671875,-37.139892578125
2.5524999000000004,-0.3627215623855591,0.2124854028224945,9.636063575744629,-4.69970703125,-2.5634765625,-42.572021484375
2.5574999000000003,-1.2168530225753784,0.23942017555236816,9.536105155944824,-10.55908203125,-10.772705078125,-31.494140625
2.5624999,-1.8974047899246216,-0.424970805644989,9.394847869873047,-25.20751953125,-22.369384765625,-15.56396484375
2.5674999,-2.2649147510528564,-0.3130418658256531,9.511565208435059,-7.8125,-21.728515625,7.415771484375
2.5724999,-2.4145524501800537,-0.5991489887237549,9.64803409576416,-14.251708984375,-37.811279296875,36.529541015625
2.5774999000000003,-1.7184382677078247,-0.6428431272506714,9.709685325622559,-22.247314453125,-43.365478515625,19.134521484375
2.5824999,-0.6733692288398743,-0.8248024582862854,9.926360130310059,-6.4697265625,-26.79443359375,15.2587890625
2.5874999,0.5722141861915588,-1.22642982006073,9.88506031036377,5.4931640625,-9.09423828125,20.3857421875
2.5924999,1.5143325328826904,-1.5059528350830078,9.90241813659668,15.106201171875,4.058837890625,28.13720703125
2.5974999000000003,1.9967641830444336,-1.4371196031570435,9.838373184204102,15.0146484375,13.48876953125,24.47509765625
2.6024999,2.015319347381592,-0.8224082589149475,9.888651847839355,9.124755859375,10.8642578125,10.92529296875
2.6074999,1.8309657573699951,-0.1711854189634323,9.953893661499023,6.072998046875,18.24951171875,-15.289306640625
2.6124999,1.8854337930679321,-0.31184476613998413,9.935338973999023,21.148681640625,33.26416015625,-13.5498046875
2.6174999000000003,1.7070658206939697,-0.20290859043598175,9.929352760314941,18.829345703125,37.53662109375,-18.1884765625
2.6224999,1.2880805730819702,-0.18914192914962769,9.989208221435547,6.40869140625,34.1796875,-22.674560546875
2.6274999,0.7745242714881897,0.3082534670829773,9.79647445678711,-0.823974609375,24.383544921875,-34.66796875
2.6324999,-0.028131870552897453,0.3866635859012604,9.782109260559082,-4.608154296875,5.9814453125,-41.717529296875
2.6374999000000003,-0.6374561786651611,0.18794482946395874,9.481637001037598,-4.150390625,-4.39453125,-39.9169921875
2.6424999000000002,-2.5031378269195557,-0.38905778527259827,9.41759204864502,-5.523681640625,-24.4140625,28.472900390625
2.6474999,-2.229001760482788,-0.4076128304004669,9.349956512451172,-19.500732421875,-43.0908203125,32.04345703125
2.6524999,-0.2621650993824005,-0.8469488620758057,9.742605209350586,0.274658203125,-16.632080078125,15.93017578125
2.6574999000000004,0.9654618501663208,-1.2533645629882812,9.947309494018555,10.284423828125,-2.655029296875,19.775390625
2.6624999000000003,1.8543092012405396,-1.4012064933776855,9.99339771270752,14.95361328125,8.148193359375,19.195556640625
2.6674999,2.1930887699127197,-1.0534487962722778,10.047865867614746,10.162353515625,11.474609375,7.4462890625
2.6724999,2.1577742099761963,-0.45010992884635925,10.078392028808594,4.119873046875,9.552001953125,-7.01904296875
2.6774999000000004,1.9405004978179932,-0.243011474609375,10.07779312133789,4.69970703125,16.66259765625,-13.24462890625
2.6824999000000003,1.8387469053268433,-0.4273650050163269,10.004171371459961,17.425537109375,27.435302734375,-10.80322265625
2.6874999,1.6280571222305298,-0.2885012924671173,9.95748519897461,21.148681640625,34.36279296875,-16.78466796875
2.6924999,1.2204443216323853,-0.23403321206569672,9.977835655212402,9.765625,34.5458984375,-18.00537109375
2.6974999,0.8152256608009338,0.22924481332302094,9.874286651611328,0.396728515625,28.50341796875,-29.205322265625
2.7024999000000003,0.16639702022075653,0.5554547905921936,9.75936508178711,-3.326416015625,14.007568359375,-38.177490234375
2.7074999,-0.517746090888977,0.18974047899246216,9.544485092163086,-4.119873046875,-0.518798828125,-37.7197265625
2.7124999,-2.3768436908721924,-0.3280056416988373,9.282918930053711,-10.284423828125,-23.590087890625,7.6904296875
2.7174999,-2.448071241378784,-0.6302735805511475,9.383475303649902,-13.702392578125,-40.1611328125,42.266845703125
2.7224999000000003,1.5538369417190552,-1.404199242591858,10.046669006347656,14.5263671875,3.509521484375,24.71923828125
2.7274999,2.032677173614502,-1.246780514717102,9.995193481445312,13.427734375,11.505126953125,20.81298828125
2.7324999,2.056020736694336,-0.6332663297653198,10.008959770202637,6.65283203125,8.85009765625,7.75146484375
2.7374999,1.9051860570907593,-0.0694318488240242,10.00955867767334,1.373291015625,6.683349609375,-10.009765625
2.7424999000000003,1.7812861204147339,-0.166995570063591,9.95329475402832,7.01904296875,17.486572265625,-14.22119140625
2.7474999,1.7651251554489136,-0.24839842319488525,9.90361499786377,19.95849609375,29.84619140625,-14.46533203125
2.7524999,0.43754035234451294,0.48901569843292236,9.793481826782227,-2.716064453125,21.54541015625,-32.8369140625
2.7574999,-0.3064578175544739,0.3531447649002075,9.731232643127441,-5.43212890625,3.96728515625,-33.8134765625
2.7624999000000003,-1.0528502464294434,0.6212953329086304,9.329605102539062,-4.39453125,-5.67626953125,-23.25439453125
2.7674999000000002,-1.8237831592559814,-0.1586158573627472,9.30805778503418,-23.92578125,-21.728515625,-10.223388671875
2.7724999,-2.160168409347534,-0.30705636739730835,9.041702270507812,-18.829345703125,-24.932861328125,-3.2958984375
2.7774999,-2.452261209487915,-0.7248445749282837,9.345766067504883,-13.916015625,-39.703369140625,33.050537109375
2.7824999000000004,-1.8183962106704712,-1.0875661373138428,9.497797966003418,-18.37158203125,-45.440673828125,30.670166015625
2.7874999000000003,-0.8277952671051025,-1.2515689134597778,9.778518676757812,-9.674072265625,-30.33447265625,15.899658203125
2.7924999,0.3405751883983612,-1.3742717504501343,9.93593692779541,2.01416015625,-15.0146484375,23.895263671875
2.7974999,0.3405751883983612,-1.3742717504501343,9.93593692779541,2.01416015625,-15.0146484375,23.895263671875
2.8024999000000004,1.6340426206588745,-0.20350714027881622,9.989208221435547,4.08935546875,5.096435546875,9.21630859375
2.8074999000000003,1.6765397787094116,0.06165069341659546,10.005967140197754,-0.1220703125,5.37109375,-12.176513671875
2.8124999,1.9249382019042969,-0.2651578485965729,9.868300437927246,14.22119140625,24.23095703125,-18.798828125
2.8174999,2.0266916751861572,-0.1801636815071106,9.886856079101562,20.111083984375,37.04833984375,-16.387939453125
2.8224999,1.7184382677078247,-0.3124433159828186,9.922768592834473,10.43701171875,35.82763671875,-17.76123046875
2.8274999000000003,1.0959458351135254,0.12090718746185303,9.888052940368652,0.518798828125,29.1748046875,-30.242919921875
2.8324999,0.17058686912059784,0.5147533416748047,9.851541519165039,-4.638671875,13.85498046875,-37.628173828125
2.8374999,-0.6913257241249084,0.2172738015651703,9.619902610778809,-5.584716796875,-3.2958984375,-32.04345703125
2.8424999,-1.657984733581543,0.2495955228805542,9.510367393493652,-17.4560546875,-15.9912109375,-15.167236328125
2.8474999000000003,-2.081159830093384,-0.595557689666748,9.09497356414795,-23.406982421875,-21.91162109375,-9.033203125
2.8524999,-2.4361002445220947,-0.5261258482933044,9.194931983947754,-11.90185546875,-31.097412109375,18.157958984375
2.8574999,-1.194706678390503,-1.0319008827209473,9.40023422241211,-12.847900390625,-35.003662109375,21.54541015625
2.8624999,-0.08738835901021957,-1.1546037197113037,9.661202430725098,-0.274658203125,-19.34814453125,21.820068359375
2.8674999000000003,0.9750386476516724,-1.3724761009216309,9.86770248413086,10.55908203125,-7.38525390625,30.670166015625
2.8724999,1.5711948871612549,-1.4329297542572021,9.913790702819824,16.78466796875,8.30078125,35.369873046875
2.8774999,1.7322049140930176,-1.1121066808700562,9.970054626464844,15.045166015625,14.129638671875,31.3720703125
2.8824999,1.9189527034759521,-0.21966800093650818,9.981427192687988,10.650634765625,20.01953125,-19.10400390625
2.8874999000000003,1.9189527034759521,-0.21966800093650818,9.981427192687988,10.650634765625,20.01953125,-19.10400390625
2.8924999000000002,2.0649988651275635,-0.12629413604736328,9.925163269042969,21.78955078125,36.56005859375,-15.960693359375
2.8974999,1.834557056427002,-0.18136078119277954,9.967061996459961,12.176513671875,36.529541015625,-17.913818359375
2.9024999,1.247977614402771,0.11133038252592087,9.93354320526123,0.885009765625,30.21240234375,-29.4189453125
2.9074999000000004,0.4100070297718048,0.5105634927749634,9.79408073425293,-3.814697265625,16.937255859375,-37.7197265625
2.9124999000000003,-1.4826093912124634,0.4920084476470947,9.460687637329102,-11.23046875,-12.39013671875,-20.843505859375
2.9174999,-2.103306293487549,-0.3489548861980438,9.238625526428223,-25.054931640625,-23.712158203125,-13.12255859375
2.9224999,-2.45285964012146,-0.11252748221158981,9.275735855102539,-13.397216796875,-26.611328125,10.955810546875
2.9274999000000004,-2.296039342880249,-0.5500678420066833,9.373299598693848,-15.0146484375,-43.02978515625,37.04833984375
2.9324999000000003,-1.4203602075576782,-0.8750807046890259,9.525930404663086,-14.801025390625,-37.139892578125,20.172119140625
2.9374999,-0.33997663855552673,-1.1091139316558838,9.764153480529785,-4.180908203125,-23.101806640625,19.95849609375
2.9424999,0.7948749661445618,-1.3856441974639893,9.898826599121094,7.4462890625,-11.138916015625,28.900146484375
2.9474999,1.4790180921554565,-1.4975731372833252,9.95209789276123,14.617919921875,3.631591796875,32.3486328125
2.9524999000000003,1.6765397787094116,-1.2509703636169434,9.95090103149414,13.85498046875,10.8642578125,31.79931640625
2.9574999,1.600523829460144,-0.5692214369773865,9.987412452697754,7.720947265625,7.415771484375,20.93505859375
2.9624999,1.5550340414047241,0.01496376097202301,9.993996620178223,0.762939453125,2.0751953125,0.457763671875
2.9674999,1.679532527923584,-0.016759412363171577,9.97364616394043,1.52587890625,9.033203125,-16.754150390625
2.9724999000000003,1.8166005611419678,-0.1693897694349289,9.867103576660156,15.045166015625,33.233642578125,-14.801025390625
2.9774999,1.8166005611419678,-0.1693897694349289,9.867103576660156,15.045166015625,33.233642578125,-14.801025390625
2.9824999,1.346139907836914,-0.23163901269435883,9.904213905334473,3.60107421875,28.350830078125,-21.392822265625
2.9874999,0.618302583694458,0.29867666959762573,9.803058624267578,-2.288818359375,21.087646484375,-31.06689453125
2.9924999000000003,-0.24899697303771973,0.2082955539226532,9.793481826782227,-4.241943359375,6.103515625,-29.60205078125
2.9974999,-1.0127472877502441,0.4920084476470947,9.457695007324219,-3.5400390625,-4.730224609375,-17.913818359375
3.0024999,-1.7735048532485962,-0.14664486050605774,9.565434455871582,-20.904541015625,-18.06640625,-2.38037109375
3.0074999,-1.9039889574050903,-0.22266076505184174,9.299078941345215,-18.4326171875,-21.881103515625,-2.0751953125
3.0124999000000003,-2.0488381385803223,-0.5752069354057312,9.677363395690918,-11.1083984375,-33.843994140625,25.81787109375
3.0174999000000002,-1.3838485479354858,-1.0085574388504028,9.697115898132324,-12.969970703125,-33.538818359375,28.472900390625
3.0224999,-0.5063736438751221,-1.2431892156600952,9.875483512878418,-5.767822265625,-24.749755859375,17.822265625
3.0274999,0.4255693554878235,-1.4209587574005127,9.928754806518555,4.486083984375,-15.655517578125,24.59716796875
3.0324999000000004,1.4197616577148438,-1.3006501197814941,9.909601211547852,14.404296875,8.697509765625,32.562255859375
3.0374999000000003,1.4790180921554565,-0.7182605266571045,9.901819229125977,10.589599609375,10.162353515625,25.146484375
3.0424999,1.9243396520614624,-0.20111294090747833,9.892242431640625,13.61083984375,25.299072265625,-15.93017578125
3.0474999,2.0039467811584473,-0.16400282084941864,9.86889934539795,19.34814453125,35.308837890625,-14.34326171875
3.0524999000000004,1.6424223184585571,-0.2783259451389313,9.930550575256348,8.453369140625,32.470703125,-19.83642578125
3.0574999000000003,0.9768342971801758,0.10953472554683685,9.862914085388184,-0.579833984375,25.93994140625,-29.449462890625
3.0624999,0.12090718746185303,0.3794809579849243,9.815628051757812,-3.90625,11.71875,-33.843994140625
3.0674999,-0.6865373253822327,0.023343466222286224,9.638457298278809,-4.08935546875,-2.349853515625,-29.449462890625
3.0724999000000004,-1.5532383918762207,0.1346738487482071,9.688735961914062,-13.7939453125,-11.962890625,-12.63427734375
3.0774999000000003,-1.9105730056762695,-0.6117185354232788,9.390059471130371,-21.270751953125,-18.85986328125,-7.38525390625
3.0824999,-1.900996208190918,-0.7212532758712769,9.570222854614258,-13.580322265625,-38.6962890625,34.72900390625
3.0874999,-1.016338586807251,-0.9792284965515137,9.642048835754395,-10.833740234375,-29.6630859375,17.39501953125
3.0924999,-0.017956512048840523,-1.1504138708114624,9.802460670471191,0.335693359375,-18.585205078125,20.6298828125
3.0974999000000003,0.9528923034667969,-1.3515268564224243,9.835380554199219,9.09423828125,-8.11767578125,27.557373046875
3.1024999,1.4927847385406494,-1.3593080043792725,9.90361499786377,14.434814453125,5.31005859375,28.961181640625
3.1074999,1.6531962156295776,-1.0013748407363892,9.899425506591797,12.20703125,11.077880859375,24.932861328125
3.1124999,1.6286556720733643,-0.322618693113327,9.959280967712402,5.615234375,6.4697265625,10.589599609375
3.1174999000000003,1.6585832834243774,0.07302315533161163,9.943717956542969,0.18310546875,4.425048828125,-11.23046875
3.1224999,1.765723705291748,-0.17238251864910126,9.950302124023438,8.148193359375,18.9208984375,-15.960693359375
3.1274999,1.8896236419677734,-0.24480712413787842,9.88386344909668,20.050048828125,33.111572265625,-12.847900390625
3.1324999,1.6663644313812256,-0.243011474609375,9.941922187805176,13.18359375,34.027099609375,-18.463134765625
3.1374999000000003,1.116895079612732,-0.10295066982507706,9.971850395202637,1.46484375,29.022216796875,-25.390625
3.1424999000000002,-0.43754035234451294,0.18974047899246216,9.722254753112793,-4.638671875,0.244140625,-32.958984375
3.1474999,-1.3000515699386597,0.35494041442871094,9.636063575744629,-6.40869140625,-7.4462890625,-19.500732421875
3.1524999,-1.8782511949539185,-0.45489832758903503,9.427767753601074,-22.8271484375,-19.317626953125,-7.75146484375
3.1574999000000004,-2.1098902225494385,-0.42856210470199585,9.497797966003418,-13.61083984375,-22.857666015625,4.08935546875
3.1624999000000003,-2.117671489715576,-0.6901286244392395,9.552266120910645,-11.29150390625,-36.0107421875,35.247802734375
3.1674999,-1.2850877046585083,-0.9564836025238037,9.592369079589844,-13.7939453125,-34.027099609375,20.44677734375
3.1724999,-0.3471592366695404,-1.0319008827209473,9.749189376831055,-4.2724609375,-21.6064453125,16.41845703125
3.1774999000000004,0.6607996821403503,-1.2294225692749023,9.851541519165039,5.18798828125,-11.962890625,24.5361328125
3.1824999000000003,1.3407529592514038,-1.280897855758667,9.895236015319824,12.63427734375,0.1220703125,26.2451171875
3.1874999,1.6059107780456543,-1.0875661373138428,9.907805442810059,11.749267578125,8.056640625,23.162841796875
3.1924999,1.6035165786743164,-0.4920084476470947,9.934141159057617,6.256103515625,6.561279296875,13.763427734375
3.1974999000000004,1.5987281799316406,-0.0077811554074287415,9.956886291503906,0.457763671875,2.86865234375,-5.096435546875
3.2024999000000003,1.734000563621521,-0.31184476613998413,9.857526779174805,16.17431640625,26.67236328125,-11.749267578125
3.2074999,1.632246971130371,-0.2190694510936737,9.864709854125977,15.594482421875,30.792236328125,-15.655517578125
3.2124999,1.1534066200256348,-0.292691171169281,9.905410766601562,4.21142578125,27.313232421875,-19.95849609375
3.2174999,0.5530605912208557,0.2082955539226532,9.803058624267578,-1.739501953125,20.1416015625,-27.099609375
3.2224999000000003,-0.21308395266532898,0.16879121959209442,9.801262855529785,-3.5400390625,6.622314453125,-26.42822265625
3.2274999,-0.9157821536064148,0.2346317619085312,9.388861656188965,-2.74658203125,-3.41796875,-17.02880859375
3.2324999,-1.623268723487854,-0.1472434103488922,9.586981773376465,-17.242431640625,-15.2587890625,-1.77001953125
3.2374999,-1.7459715604782104,-0.3519476354122162,9.251194953918457,-18.463134765625,-20.99609375,-1.64794921875
3.2424999000000003,-1.9399019479751587,-0.4507084786891937,9.68274974822998,-10.80322265625,-30.517578125,23.86474609375
3.2474999,-1.3479355573654175,-0.7942764163017273,9.708487510681152,-12.5732421875,-31.67724609375,27.252197265625
3.2524999,-0.5488707423210144,-1.0109516382217407,9.854534149169922,-6.683349609375,-24.169921875,15.07568359375
3.2574999,0.345363587141037,-1.246780514717102,9.910199165344238,3.204345703125,-15.045166015625,22.064208984375
3.2624999000000003,1.4329297542572021,-1.3072341680526733,9.909002304077148,13.763427734375,7.415771484375,26.275634765625
3.2674999000000002,1.5454572439193726,-0.8038532137870789,9.907805442810059,9.857177734375,9.09423828125,18.646240234375
3.2724999,1.6059107780456543,-0.17717093229293823,9.93593692779541,3.2958984375,4.180908203125,0.518798828125
3.2774999,1.713649868965149,-0.016160860657691956,9.955689430236816,1.3427734375,9.796142578125,-15.80810546875
3.2824999000000004,1.86508309841156,-0.2950853705406189,9.882665634155273,14.6484375,27.008056640625,-12.481689453125
3.2874999000000003,1.9075802564620972,-0.2017114907503128,9.884461402893066,19.71435546875,34.149169921875,-15.0146484375
3.2924999,1.482010841369629,-0.3016694188117981,9.911396026611328,9.063720703125,32.196044921875,-20.477294921875
3.2974999,0.8756792545318604,0.10534487664699554,9.84615421295166,-0.335693359375,25.5126953125,-27.28271484375
3.3024999000000004,0.0975637212395668,0.3429693877696991,9.773730278015137,-3.570556640625,9.82666015625,-33.38623046875
3.3074999000000003,-0.690727174282074,0.028730420395731926,9.622296333312988,-3.692626953125,-2.410888671875,-31.005859375
3.3124999,-1.4724340438842773,0.24121582508087158,9.615114212036133,-12.603759765625,-10.772705078125,-15.899658203125
3.3174999,-1.824381709098816,-0.4207809567451477,9.395445823669434,-19.927978515625,-18.24951171875,-10.31494140625
3.3224999000000004,-1.8944120407104492,-0.36810851097106934,9.55466079711914,-13.0615234375,-36.895751953125,33.5693359375
3.3274999000000003,-1.1061211824417114,-0.6721721291542053,9.655217170715332,-12.14599609375,-30.76171875,14.129638671875
3.3324999,-0.14185644686222076,-0.9103952050209045,9.781511306762695,-1.52587890625,-17.852783203125,19.287109375
3.3374999,0.8475474119186401,-1.2270283699035645,9.886856079101562,7.62939453125,-8.4228515625,23.4375
3.3424999,1.4766238927841187,-1.3192051649093628,9.903017044067383,13.427734375,4.5166015625,21.66748046875
3.3474999000000003,1.7106571197509766,-1.0456676483154297,9.925163269042969,10.650634765625,9.613037109375,17.547607421875
3.3524999,1.7256208658218384,-0.40282443165779114,9.965266227722168,4.669189453125,6.439208984375,5.157470703125
3.3574999,1.7058687210083008,-0.002992752008140087,9.973047256469727,1.068115234375,7.110595703125,-12.75634765625
3.3624999,1.6813281774520874,-0.20889410376548767,9.95209789276123,7.965087890625,19.287109375,-13.519287109375
3.3674999000000003,1.713649868965149,-0.28969839215278625,9.8970308303833,18.890380859375,29.9072265625,-12.63427734375
3.3724999,1.427542805671692,-0.24839842319488525,9.9185791015625,13.00048828125,31.524658203125,-17.9443359375
3.3774999,0.9139865040779114,-0.15143325924873352,9.932944297790527,1.495361328125,27.64892578125,-22.064208984375
3.3824999,0.3124433159828186,0.3357867896556854,9.771934509277344,-2.62451171875,17.181396484375,-30.21240234375
3.3874999000000003,-0.4489128291606903,0.13168109953403473,9.706692695617676,-3.662109375,0.640869140625,-29.937744140625
3.3924999000000002,-1.1959037780761719,0.38127660751342773,9.607333183288574,-5.096435546875,-6.744384765625,-17.578125
3.3974999,-1.7256208658218384,-0.30705636739730835,9.4636812210083,-21.240234375,-18.6767578125,-7.843017578125
3.4024999,-1.9686323404312134,-0.14006079733371735,9.53969669342041,-12.786865234375,-21.575927734375,4.241943359375
3.4074999000000004,-2.008136749267578,-0.3968389332294464,9.59596061706543,-11.383056640625,-33.843994140625,32.8369140625
3.4124999000000003,-1.2779051065444946,-0.6919242739677429,9.656414031982422,-14.007568359375,-33.782958984375,17.974853515625
3.4174999,-0.4405331015586853,-0.8355764150619507,9.785101890563965,-6.103515625,-23.590087890625,16.9677734375
3.4224999,0.5566518902778625,-1.1097124814987183,9.8784761428833,3.5400390625,-13.36669921875,23.25439453125
3.4274999000000004,1.2886791229248047,-1.2431892156600952,9.926360130310059,11.23046875,-0.762939453125,22.15576171875
3.4324999000000003,1.6382324695587158,-1.1528080701828003,9.924564361572266,11.383056640625,7.9345703125,20.01953125
3.4374999,1.692102074623108,-0.645237386226654,9.940725326538086,7.01904296875,7.781982421875,12.847900390625
3.4424999,-0.7026981711387634,-0.02274491637945175,9.601945877075195,-2.5634765625,-2.01416015625,-23.5595703125
3.4474999000000004,-1.4359225034713745,0.019153613597154617,9.554061889648438,-12.786865234375,-10.92529296875,-9.8876953125
3.4524999000000003,-1.6992846727371216,-0.5722141861915588,9.290101051330566,-18.280029296875,-17.181396484375,-6.8359375
3.4574999,-2.0470423698425293,-0.32381579279899597,9.460687637329102,-9.735107421875,-26.123046875,18.402099609375
3.4624999,-1.7268179655075073,-0.5758054852485657,9.433155059814453,-13.3056640625,-36.041259765625,28.717041015625
3.4674999,0.862511157989502,-1.1450269222259521,9.880271911621094,6.591796875,-9.033203125,22.0947265625
3.4724999000000003,1.459265947341919,-1.215057373046875,9.909601211547852,11.993408203125,3.143310546875,18.49365234375
3.4774999,1.6603789329528809,-0.982221245765686,9.928754806518555,10.009765625,8.30078125,16.204833984375
3.4824999,1.659181833267212,-0.41539400815963745,9.963470458984375,4.913330078125,6.011962890625,6.65283203125
3.4874999,1.6184803247451782,-0.053270988166332245,9.984419822692871,1.007080078125,5.4931640625,-10.986328125
3.4924999000000003,1.535880446434021,-0.10235211998224258,9.967659950256348,4.730224609375,15.716552734375,-13.0615234375
3.4974999,1.5610195398330688,-0.4207809567451477,9.883264541625977,15.960693359375,25.726318359375,-10.498046875
3.5024999,1.3934253454208374,-0.30705636739730835,9.88506031036377,15.167236328125,29.11376953125,-16.7236328125
3.5074999,0.9199720025062561,-0.32022446393966675,9.9000244140625,4.669189453125,27.16064453125,-15.777587890625
3.5124999000000003,0.41359832882881165,0.16220717132091522,9.786299705505371,-1.40380859375,19.10400390625,-23.5595703125
3.5174999000000002,-0.2651578485965729,0.10773907601833344,9.747992515563965,-2.960205078125,5.126953125,-25.69580078125
3.5224999,-1.809417963027954,-0.44412440061569214,9.618705749511719,-8.941650390625,-27.130126953125,24.444580078125
3.5274999,-1.294066071510315,-0.7224503755569458,9.745597839355469,-12.5732421875,-31.646728515625,20.751953125
3.5324999000000004,-0.6099228858947754,-0.8469488620758057,9.855731010437012,-9.521484375,-24.96337890625,12.908935546875
3.5374999000000003,0.2106897532939911,-0.9965864419937134,9.970054626464844,-0.885009765625,-15.7470703125,20.233154296875
3.5424999,0.9762357473373413,-1.14742112159729,9.97364616394043,6.927490234375,-7.080078125,17.974853515625
3.5474999,1.4179660081863403,-1.138442873954773,9.955689430236816,10.406494140625,2.227783203125,14.404296875
3.5524999000000004,1.5628151893615723,-0.8349778652191162,9.926360130310059,7.568359375,6.500244140625,11.71875
3.5574999000000003,1.5550340414047241,-0.30945056676864624,9.941324234008789,3.662109375,4.852294921875,2.01416015625
3.5624999,1.5364789962768555,-0.03232172131538391,9.944915771484375,1.739501953125,6.866455078125,-12.63427734375
3.5674999,1.4419080018997192,-0.12330138683319092,9.93354320526123,5.645751953125,17.425537109375,-10.711669921875
3.5724999000000004,0.3878606855869293,0.09876082092523575,9.801861763000488,-1.068115234375,19.04296875,-23.193359375
3.5774999000000003,-0.26396074891090393,0.09217676520347595,9.758167266845703,-3.173828125,4.69970703125,-27.7099609375
3.5824999,-0.8762778043746948,0.5309142470359802,9.418789863586426,-1.983642578125,-2.288818359375,-16.632080078125
3.5874999,-1.469441294670105,-0.043095629662275314,9.490615844726562,-16.78466796875,-13.7939453125,-3.631591796875
3.5924999,-1.613093376159668,0.026336219161748886,9.300276756286621,-14.0380859375,-19.04296875,-1.220703125
3.5974999000000003,-1.8872294425964355,-0.24660277366638184,9.576807022094727,-9.429931640625,-28.74755859375,26.641845703125
3.6024999,-1.3611036539077759,-0.6111199855804443,9.715071678161621,-13.031005859375,-32.928466796875,20.111083984375
3.6074999,-0.667982280254364,-0.7841010689735413,9.84495735168457,-9.09423828125,-25.421142578125,13.885498046875
3.6124999,0.20290859043598175,-1.0438719987869263,9.952696800231934,-0.42724609375,-15.5029296875,20.233154296875
3.6174999000000003,0.9798270463943481,-1.212663173675537,9.989208221435547,7.965087890625,-6.072998046875,18.829345703125
3.6224999,1.557428240776062,-0.8475474119186401,9.946112632751465,7.659912109375,7.2021484375,14.404296875
3.6274999,1.580173134803772,-0.2645592987537384,9.946112632751465,2.899169921875,4.180908203125,1.556396484375
3.6324999,1.580173134803772,0.02454056777060032,9.92097282409668,1.251220703125,7.568359375,-13.702392578125
3.6374999000000003,1.568800687789917,-0.2801215946674347,9.877279281616211,8.72802734375,19.744873046875,-10.7421875
3.6424999000000002,1.6202759742736816,-0.3471592366695404,9.84615421295166,17.974853515625,28.167724609375,-12.39013671875
3.6474999,1.3024457693099976,-0.3447650372982025,9.868300437927246,11.505126953125,29.571533203125,-16.4794921875
3.6524999,0.829590916633606,-0.21128830313682556,9.88745403289795,0.9765625,24.932861328125,-19.378662109375
3.6574999000000004,0.25438392162323,0.21667525172233582,9.753378868103027,-1.89208984375,14.58740234375,-27.069091796875
3.6624999000000003,-0.45250412821769714,0.0065840547904372215,9.707290649414062,-2.685546875,1.3427734375,-24.96337890625
3.6674999,-1.1456254720687866,0.26994624733924866,9.624691009521484,-4.33349609375,-4.21142578125,-12.14599609375
3.6724999,-1.6047136783599854,-0.38965633511543274,9.457695007324219,-19.4091796875,-16.754150390625,-3.7841796875
3.6774999000000004,-1.8261773586273193,-0.15143325924873352,9.53969669342041,-11.566162109375,-22.003173828125,6.2255859375
3.6824999000000003,-0.3256114423274994,-0.8020575642585754,9.742006301879883,-5.92041015625,-20.93505859375,16.357421875
3.6874999,0.5758054852485657,-1.0402805805206299,9.876082420349121,2.01416015625,-12.39013671875,19.71435546875
3.6924999,1.2449848651885986,-1.1504138708114624,9.959878921508789,11.29150390625,-0.701904296875,18.61572265625
3.6974999000000004,1.5508441925048828,-1.0893617868423462,9.956886291503906,10.986328125,7.6904296875,16.937255859375
3.7024999000000003,1.6268600225448608,-0.5805938839912415,9.973047256469727,5.7373046875,6.89697265625,9.46044921875
3.7074999,1.6286556720733643,-0.1215057373046875,9.975440979003906,1.40380859375,4.547119140625,-7.99560546875
3.7124999,1.580173134803772,-0.14245499670505524,9.956886291503906,3.814697265625,13.336181640625,-13.7939453125
3.7174999,1.634641170501709,-0.4076128304004669,9.874286651611328,16.143798828125,25.7568359375,-9.796142578125
3.7224999000000003,1.5233107805252075,-0.2663549482822418,9.872490882873535,16.571044921875,30.364990234375,-15.44189453125
3.7274999,1.0971429347991943,-0.31124621629714966,9.909002304077148,5.126953125,28.900146484375,-17.608642578125
3.7324999,0.6057330369949341,0.16879121959209442,9.799467086791992,-1.15966796875,21.240234375,-26.67236328125
3.7374999,-1.7058687210083008,-0.44771572947502136,9.616909980773926,-13.3056640625,-36.62109375,28.13720703125
3.7424999000000003,-0.9355342984199524,-0.6015431880950928,9.731831550598145,-9.82666015625,-28.167724609375,14.6484375
3.7474999,0.0293289702385664,-0.8224082589149475,9.864110946655273,-1.861572265625,-16.66259765625,19.6533203125
3.7524999,0.9445125460624695,-1.0522516965866089,9.956886291503906,8.270263671875,-5.9814453125,21.759033203125
3.7574999,1.4766238927841187,-1.1941081285476685,9.945513725280762,13.885498046875,7.537841796875,22.369384765625
3.7624999000000003,1.6663644313812256,-0.9032126069068909,9.94970417022705,9.33837890625,8.941650390625,18.280029296875
3.7674999000000002,1.7076643705368042,-0.3256114423274994,9.962273597717285,3.204345703125,4.974365234375,2.99072265625
3.7724999,0.20889410376548767,0.3172317147254944,9.752182006835938,-2.44140625,12.359619140625,-31.768798828125
3.7774999,-0.619499683380127,0.028730420395731926,9.620500564575195,-3.265380859375,-1.373291015625,-28.25927734375
3.7824999000000004,-1.4227544069290161,0.3250128924846649,9.528324127197266,-9.765625,-9.368896484375,-15.2587890625
3.7874999000000003,-1.8920178413391113,-0.48303020000457764,9.337985038757324,-21.05712890625,-20.233154296875,-6.16455078125
3.7924999,-2.1990742683410645,-0.0975637212395668,9.470264434814453,-10.467529296875,-25.665283203125,14.16015625
3.7974999,-2.0171148777008057,-0.4692635238170624,9.50737476348877,-11.871337890625,-36.19384765625,34.60693359375
3.8024999000000004,-1.1953052282333374,-0.639850378036499,9.660005569458008,-13.18359375,-32.928466796875,15.594482421875
3.8074999000000003,-0.25438392162323,-0.8212111592292786,9.82759952545166,-4.852294921875,-20.355224609375,17.974853515625
3.8124999,1.467047095298767,-1.3162124156951904,9.956287384033203,14.373779296875,5.4931640625,23.101806640625
3.8174999,1.7369933128356934,-1.1456254720687866,9.955090522766113,11.41357421875,10.7421875,21.240234375
3.8224999000000004,1.7848774194717407,-0.5207388401031494,9.964667320251465,4.94384765625,6.317138671875,8.270263671875
3.8274999000000003,1.756745457649231,-0.07900865375995636,9.980229377746582,0.885009765625,5.828857421875,-11.71875
3.8324999,1.7627309560775757,-0.3130418658256531,9.936535835266113,8.941650390625,19.34814453125,-13.885498046875
3.8374999,1.8309657573699951,-0.25019407272338867,9.909002304077148,19.775390625,30.94482421875,-11.993408203125
3.8424999,1.5364789962768555,-0.2603694200515747,9.922170639038086,12.908935546875,32.806396484375,-16.998291015625
3.8474999000000003,1.0247182846069336,-0.07721300423145294,9.93593692779541,0.701904296875,27.618408203125,-24.505615234375
3.8524999,0.3693056106567383,0.3824737071990967,9.761159896850586,-2.227783203125,16.326904296875,-31.43310546875
3.8574999,-0.45190557837486267,0.16519992053508759,9.708487510681152,-3.631591796875,0.48828125,-29.78515625
3.8624999,-1.2102689743041992,0.3196259140968323,9.503185272216797,-5.18798828125,-6.072998046875,-18.218994140625
3.8674999000000003,-1.8201918601989746,-0.3495534360408783,9.391256332397461,-21.881103515625,-19.47021484375,-6.34765625
3.8724999,1.7058687210083008,-1.1426327228546143,9.967659950256348,12.20703125,10.528564453125,20.843505859375
3.8774999,1.7944542169570923,-0.5596446394920349,9.989208221435547,6.744384765625,8.056640625,11.383056640625
3.8824999,1.7842788696289062,-0.07541735470294952,10.005967140197754,1.617431640625,5.92041015625,-8.575439453125
3.8874999000000003,1.756745457649231,-0.2064998894929886,9.956886291503906,5.67626953125,16.4794921875,-15.533447265625
3.8924999000000002,1.809417963027954,-0.32441434264183044,9.916184425354004,19.04296875,29.754638671875,-11.3525390625
3.8974999,1.6035165786743164,-0.20470423996448517,9.885659217834473,16.204833984375,33.233642578125,-16.41845703125
3.9024999,1.0773907899856567,-0.1711854189634323,9.945513725280762,2.655029296875,29.1748046875,-22.369384765625
3.9074999000000004,-0.32022446393966675,0.33099839091300964,9.73781681060791,-4.638671875,2.25830078125,-32.77587890625
3.9124999000000003,-1.0229226350784302,0.39145198464393616,9.265560150146484,-4.45556640625,-5.584716796875,-23.712158203125
3.9174999,-1.8034324645996094,-0.1843535304069519,9.32661247253418,-19.287109375,-17.63916015625,-5.0048828125
3.9224999,-2.270900249481201,-0.5764040350914001,9.349956512451172,-11.53564453125,-35.186767578125,29.96826171875
3.9274999000000004,-1.613093376159668,-0.9205705523490906,9.520543098449707,-15.380859375,-38.14697265625,26.519775390625
3.9324999000000003,-0.7032967209815979,-1.0492589473724365,9.748590469360352,-7.8125,-26.3671875,16.845703125
3.9374999,0.32860419154167175,-1.2461819648742676,9.925163269042969,2.166748046875,-14.95361328125,23.529052734375
3.9424999,1.1725603342056274,-1.3431471586227417,10.019734382629395,10.3759765625,-1.46484375,26.580810546875
3.9474999000000004,1.5735890865325928,-1.236605167388916,10.004770278930664,12.87841796875,8.880615234375,26.763916015625
3.9524999000000003,1.6675615310668945,-0.7206547260284424,9.995792388916016,8.36181640625,7.99560546875,20.32470703125
3.9574999,1.7064672708511353,-0.12988543510437012,9.999382972717285,2.197265625,3.90625,1.068115234375
3.9624999,1.902193307876587,-0.4100070297718048,9.889249801635742,14.862060546875,25.81787109375,-13.153076171875
3.9674999000000004,1.8860323429107666,-0.21009120345115662,9.853337287902832,19.500732421875,33.782958984375,-14.34326171875
3.9724999000000003,1.4089876413345337,-0.3411737382411957,9.922768592834473,6.77490234375,31.097412109375,-19.59228515625
3.9774999,0.7996633648872375,0.2537853717803955,9.814431190490723,-1.922607421875,23.25439453125,-30.120849609375
3.9824999,-0.06823474913835526,0.45250412821769714,9.807249069213867,-4.302978515625,7.50732421875,-31.92138671875
3.9874999,-0.801459014415741,0.0867898091673851,9.568427085876465,-4.364013671875,-4.2724609375,-24.35302734375
3.9924999000000003,-0.801459014415741,0.0867898091673851,9.568427085876465,-4.364013671875,-4.2724609375,-24.35302734375
3.9974999,-1.6962919235229492,0.08738835901021957,9.658209800720215,-15.80810546875,-14.373779296875,-6.134033203125
4.0024999,-1.7573440074920654,-0.5943605899810791,9.535507202148438,-14.95361328125,-37.78076171875,30.426025390625
4.0074999,-1.7573440074920654,-0.5943605899810791,9.535507202148438,-14.95361328125,-37.78076171875,30.426025390625
4.0124999,-0.8864531517028809,-0.7846996188163757,9.666589736938477,-8.48388671875,-27.4658203125,18.463134765625
4.0174999,1.6328455209732056,-0.7817068696022034,9.939528465270996,9.521484375,8.697509765625,22.857666015625
4.022499900000001,1.6819267272949219,-0.17657238245010376,9.99100399017334,3.23486328125,4.45556640625,4.669189453125
4.0274999000000005,1.7705121040344238,-0.10235211998224258,10.000580787658691,0.79345703125,7.6904296875,-15.533447265625
4.0324999,1.933916449546814,-0.4225766062736511,9.922170639038086,13.885498046875,25.054931640625,-14.892578125
4.0374999,1.9835960865020752,-0.19452889263629913,9.883264541625977,20.81298828125,35.0341796875,-14.22119140625
4.0424999,1.5263035297393799,-0.3292027413845062,9.944316864013672,7.965087890625,32.806396484375,-20.416259765625
4.0474999,0.9062053561210632,0.24420857429504395,9.815030097961426,-1.739501953125,25.146484375,-31.280517578125
4.0524999,0.02513911761343479,0.47884035110473633,9.779715538024902,-4.547119140625,8.758544921875,-34.66796875
4.0574999,-0.7799112200737,0.0867898091673851,9.560646057128906,-4.57763671875,-4.7607421875,-27.618408203125
4.062499900000001,-1.7178397178649902,0.03950432687997818,9.549273490905762,-14.923095703125,-14.34326171875,-8.72802734375
4.0674999000000005,0.0999579206109047,-1.0965443849563599,9.791088104248047,2.3193359375,-16.845703125,22.918701171875
4.0724999,0.0999579206109047,-1.0965443849563599,9.791088104248047,2.3193359375,-16.845703125,22.918701171875
4.0774999,1.0079588890075684,-1.3210008144378662,9.900622367858887,11.1083984375,-3.60107421875,28.411865234375
4.0824999,1.469441294670105,-1.294066071510315,9.935338973999023,14.373779296875,9.368896484375,32.3486328125
4.0874999,1.6226701736450195,-0.8062474131584167,9.97484302520752,9.735107421875,9.124755859375,25.32958984375
4.0924999,1.6831238269805908,-0.16101007163524628,10.003573417663574,2.86865234375,3.875732421875,4.7607421875
4.0974999,1.8124107122421265,-0.1149216815829277,9.99339771270752,1.129150390625,7.781982421875,-15.045166015625
4.1024999,2.0422539710998535,-0.2537853717803955,9.919178009033203,16.41845703125,26.519775390625,-14.312744140625
4.1074999000000005,2.0434510707855225,-0.08200141042470932,9.873088836669922,18.707275390625,35.308837890625,-14.129638671875
4.1124999,1.5682021379470825,-0.2232593148946762,9.958083152770996,4.82177734375,31.18896484375,-22.918701171875
4.1174999,-0.7601590156555176,-0.013766659423708916,9.549273490905762,-4.119873046875,-3.90625,-27.130126953125
4.1224999,-1.6789339780807495,-0.17896658182144165,9.552266120910645,-16.693115234375,-15.167236328125,-10.040283203125
4.1274999,-1.9506758451461792,-0.6560112833976746,9.255385398864746,-19.744873046875,-21.087646484375,-5.37109375
4.1324999,-2.345120668411255,-0.497395396232605,9.46487808227539,-11.138916015625,-31.463623046875,25.299072265625
4.1374999,-1.844732403755188,-0.7691373229026794,9.43494987487793,-14.373779296875,-36.285400390625,28.900146484375
4.1424999,-0.9546879529953003,-0.9433154463768005,9.573814392089844,-8.026123046875,-26.79443359375,18.5546875
4.147499900000001,0.10594342648983002,-1.1857284307479858,9.750386238098145,3.11279296875,-16.082763671875,23.98681640625
4.1524999000000005,1.0103530883789062,-1.3443442583084106,9.869498252868652,11.505126953125,-2.5634765625,28.289794921875
4.1574999,1.4814122915267944,-1.247977614402771,9.922768592834473,13.824462890625,9.58251953125,30.2734375
4.1624999,1.6627731323242188,-0.7086837291717529,9.979032516479492,9.124755859375,8.758544921875,21.91162109375
4.1674999,0.839766263961792,0.3405751883983612,9.805453300476074,-1.617431640625,24.0478515625,-33.355712890625
4.1724999,-0.01496376097202301,0.3597288131713867,9.807249069213867,-4.45556640625,6.378173828125,-37.353515625
4.1774999,-0.8343793153762817,0.3082534670829773,9.387664794921875,-4.486083984375,-4.45556640625,-29.998779296875
4.1824999,-1.7076643705368042,-0.10115502029657364,9.502586364746094,-19.134521484375,-16.754150390625,-11.90185546875
4.187499900000001,-2.0236990451812744,-0.3944447338581085,9.160215377807617,-18.402099609375,-20.416259765625,-5.828857421875
4.1924999000000005,-2.388814687728882,-0.4902127981185913,9.543288230895996,-10.772705078125,-32.562255859375,28.62548828125
4.1974999,-1.8249802589416504,-0.8655039072036743,9.585784912109375,-14.862060546875,-37.353515625,28.900146484375
4.2024999,-0.9038111567497253,-1.0755951404571533,9.752182006835938,-7.049560546875,-27.191162109375,19.134521484375
4.2074999,1.780089020729065,-0.013168109580874443,10.029311180114746,1.983642578125,4.302978515625,-2.838134765625
4.2124999,1.845929503440857,-0.11552023142576218,9.988011360168457,3.570556640625,12.481689453125,-16.998291015625
4.2174999,2.0027496814727783,-0.19393034279346466,9.935338973999023,18.9208984375,29.35791015625,-12.542724609375
4.2224999,1.8908207416534424,-0.11252748221158981,9.88386344909668,17.486572265625,34.72900390625,-17.08984375
4.2274999,1.3611036539077759,-0.16340427100658417,9.982624053955078,3.265380859375,30.914306640625,-25.054931640625
4.2324999000000005,0.7152677774429321,0.42616790533065796,9.77253246307373,-1.983642578125,22.491455078125,-34.72900390625
4.2374999,-0.1454477459192276,0.30526071786880493,9.782109260559082,-4.913330078125,3.662109375,-37.9638671875
4.2424999,-0.99479079246521,0.5363011956214905,9.35654067993164,-4.7607421875,-6.40869140625,-27.679443359375
4.2474999,-1.8477251529693604,-0.1280897855758667,9.384672164916992,-21.240234375,-19.256591796875,-9.6435546875
4.2524999,1.2054805755615234,-1.4987702369689941,10.001178741455078,13.702392578125,2.44140625,33.14208984375
4.2574999,1.577778935432434,-1.2431892156600952,9.983222961425781,13.946533203125,11.23046875,34.332275390625
4.2624999,1.6741455793380737,-0.547075092792511,9.984419822692871,7.781982421875,7.781982421875,21.759033203125
4.2674999,1.766920804977417,0.035913024097681046,9.979631423950195,0.885009765625,3.204345703125,-2.838134765625
4.272499900000001,1.9434932470321655,-0.20350714027881622,9.937732696533203,5.279541015625,14.068603515625,-17.7001953125
4.2774999000000005,2.185307502746582,-0.13587094843387604,9.908403396606445,20.050048828125,32.65380859375,-13.580322265625
4.2824999,2.0021512508392334,-0.19572599232196808,9.913790702819824,14.801025390625,36.07177734375,-17.608642578125
4.2874999,1.4083890914916992,-0.11133038252592087,9.987412452697754,1.556396484375,29.937744140625,-28.472900390625
4.2924999,-1.9710265398025513,-0.31543606519699097,9.379284858703613,-24.10888671875,-21.514892578125,-9.002685546875
4.2974999,-2.2685060501098633,-0.23702596127986908,9.396044731140137,-15.106201171875,-24.383544921875,3.204345703125
4.3024999,-2.299032211303711,-0.5913678407669067,9.465476036071777,-12.847900390625,-37.628173828125,34.66796875
4.3074999,-1.4245500564575195,-0.9433154463768005,9.478644371032715,-13.0615234375,-33.660888671875,24.505615234375
4.312499900000001,-0.3926490843296051,-1.1887211799621582,9.651625633239746,-1.678466796875,-21.8505859375,21.392822265625
4.3174999000000005,0.6811503767967224,-1.4443022012710571,9.7791166305542,8.30078125,-10.07080078125,27.28271484375
4.3224999,1.3886369466781616,-1.4622586965560913,9.86231517791748,15.2587890625,5.645751953125,31.890869140625
4.3274999,1.6813281774520874,-1.1198878288269043,9.924564361572266,13.275146484375,12.054443359375,28.564453125
4.3324999,1.7615338563919067,-0.37648820877075195,9.995193481445312,6.622314453125,7.62939453125,12.054443359375
4.3374999,1.7956513166427612,0.019153613597154617,10.038887977600098,0.946044921875,6.195068359375,-11.810302734375
4.3424999,1.1366472244262695,0.1107318252325058,9.932345390319824,-0.030517578125,28.778076171875,-30.6396484375
4.3474999,0.3280056416988373,0.6458359360694885,9.778518676757812,-4.302978515625,14.34326171875,-40.191650390625
4.352499900000001,-0.5692214369773865,0.2645592987537384,9.63067626953125,-6.28662109375,-3.509521484375,-40.1611328125
4.3574999000000005,-1.5245078802108765,0.4405331015586853,9.46607494354248,-10.7421875,-11.444091796875,-22.308349609375
4.3624999,-2.123656988143921,-0.48961424827575684,9.167398452758789,-24.505615234375,-23.223876953125,-10.284423828125
4.3674999,-2.499546527862549,-0.3878606855869293,9.30686092376709,-13.7939453125,-29.6630859375,11.71875
4.3724999,-2.3582887649536133,-0.7972691655158997,9.324816703796387,-15.716552734375,-43.365478515625,37.445068359375
4.3774999,-1.3988122940063477,-1.1432312726974487,9.497797966003418,-13.61083984375,-35.064697265625,21.820068359375
4.3824999,-0.25737667083740234,-1.3162124156951904,9.689932823181152,-0.30517578125,-20.751953125,22.3388671875
4.3874999,0.8493430614471436,-1.521515130996704,9.834781646728516,9.58251953125,-7.38525390625,31.036376953125
4.3924999,1.6927006244659424,-1.0468647480010986,9.960477828979492,12.3291015625,10.55908203125,33.3251953125
4.397499900000001,1.7268179655075073,-0.2603694200515747,10.026318550109863,4.8828125,5.340576171875,15.716552734375
4.4024999000000005,2.169146776199341,0.0071826050989329815,9.894637107849121,19.59228515625,34.210205078125,-13.97705078125
4.4074999,1.768117904663086,-0.19033902883529663,9.964069366455078,7.965087890625,32.2265625,-19.53125
4.4124999,1.0791864395141602,0.1604115068912506,9.856329917907715,-0.885009765625,25.177001953125,-30.853271484375
4.4174999,0.13706804811954498,0.4465186297893524,9.824606895446777,-3.2958984375,12.237548828125,-34.3017578125
4.4224999,-0.7864952683448792,-0.02513911761343479,9.640851974487305,-4.7607421875,-3.2958984375,-25.726318359375
4.4274999,-1.702277421951294,0.23163901269435883,9.61331844329834,-13.7939453125,-13.824462890625,-6.89697265625
4.4324999,-2.011728048324585,-0.5069721937179565,9.363123893737793,-22.3388671875,-22.552490234375,-1.983642578125
4.437499900000001,-2.1978771686553955,-0.17058686912059784,9.609128952026367,-13.00048828125,-30.364990234375,14.95361328125
4.4424999000000005,1.0241197347640991,-1.5209165811538696,9.78989028930664,11.871337890625,-4.302978515625,31.55517578125
4.4474999,1.4287399053573608,-1.4071919918060303,9.859322547912598,14.678955078125,8.270263671875,33.38623046875
4.4524999,1.600523829460144,-0.849941611289978,9.910199165344238,10.711669921875,10.009765625,24.261474609375
4.4574999,1.7058687210083008,-0.16519992053508759,10.010157585144043,4.180908203125,6.04248046875,2.0751953125
4.4624999,1.8632874488830566,-0.06584054976701736,10.026318550109863,1.40380859375,10.8642578125,-17.120361328125
4.4674999,2.1164743900299072,-0.32381579279899597,9.936535835266113,17.364501953125,29.998779296875,-14.6484375
4.4724999,2.144007682800293,-0.166995570063591,9.906607627868652,21.759033203125,38.726806640625,-17.578125
4.477499900000001,1.6478092670440674,-0.27892449498176575,9.973047256469727,8.11767578125,35.552978515625,-24.4140625
4.4824999000000005,-1.8148049116134644,0.04908113554120064,9.357138633728027,-21.087646484375,-18.5546875,-17.63916015625
4.4874999,-2.1733365058898926,-0.36332011222839355,8.96389102935791,-17.608642578125,-20.294189453125,-9.1552734375
4.4924999,-2.604292869567871,-0.6787561774253845,9.299078941345215,-10.19287109375,-32.65380859375,30.120849609375
4.4974999,-2.0602104663848877,-1.1007342338562012,9.443329811096191,-16.998291015625,-42.29736328125,32.257080078125
4.5024999,-1.0845733880996704,-1.2850877046585083,9.679757118225098,-7.62939453125,-28.99169921875,18.585205078125
4.5074999,0.07721300423145294,-1.4293384552001953,9.850942611694336,4.486083984375,-14.404296875,25.787353515625
4.5124999,1.0749965906143188,-1.468244194984436,10.00836181640625,13.092041015625,-2.105712890625,31.8603515625
4.5174999,1.5957354307174683,-1.204882025718689,9.987412452697754,13.214111328125,9.185791015625,29.47998046875
4.522499900000001,1.7232266664505005,-0.46567222476005554,10.04188060760498,8.056640625,7.87353515625,21.697998046875
4.5274999000000005,1.7537527084350586,0.06464344263076782,10.039485931396484,0.6103515625,2.685546875,0
4.5324999,1.7537527084350586,0.06464344263076782,10.039485931396484,0.6103515625,2.685546875,0
4.5374999,1.4538789987564087,-0.292691171169281,9.99100399017334,3.7841796875,30.914306640625,-23.162841796875
4.5424999,1.4538789987564087,-0.292691171169281,9.99100399017334,3.7841796875,30.914306640625,-23.162841796875
4.5474999,0.7116764783859253,0.45908817648887634,9.825803756713867,-3.021240234375,22.491455078125,-32.440185546875
4.5524999,-0.30047231912612915,0.524330198764801,9.82879638671875,-5.859375,4.364013671875,-33.99658203125
4.5574999,-1.2407950162887573,0.9385270476341248,9.52473258972168,-6.53076171875,-8.758544921875,-20.904541015625
4.562499900000001,-2.191891670227051,-0.32680854201316833,9.249998092651367,-22.15576171875,-26.2451171875,-1.5869140625
4.5674999000000005,-2.191891670227051,-0.32680854201316833,9.249998092651367,-22.15576171875,-26.2451171875,-1.5869140625
4.5724999,-2.144007682800293,-1.2210428714752197,9.544485092163086,-8.575439453125,-33.3251953125,23.651123046875
4.5774999,-1.2557587623596191,-1.7884687185287476,9.50737476348877,-9.185791015625,-29.632568359375,31.8603515625
4.5824999,-0.22206220030784607,-1.832162857055664,9.715071678161621,-2.3193359375,-22.247314453125,24.0478515625
4.5874999,0.6667851805686951,-1.7405846118927002,9.848548889160156,5.615234375,-13.519287109375,26.031494140625
4.5924999,1.6268600225448608,0.1604115068912506,10.029909133911133,0.6103515625,3.509521484375,-2.471923828125
4.5974999,1.8632874488830566,-0.14903905987739563,9.97484302520752,3.60107421875,13.031005859375,-18.402099609375
4.602499900000001,2.166752576828003,-0.3800795078277588,9.93593692779541,22.216796875,34.1796875,-13.671875
4.6074999000000005,2.0428526401519775,-0.3669114112854004,9.894038200378418,18.646240234375,38.360595703125,-17.303466796875
4.6124999,1.4395138025283813,-0.2388216257095337,10.00836181640625,2.74658203125,30.82275390625,-25.848388671875
4.6174999,0.6117185354232788,0.5297171473503113,9.813234329223633,-3.448486328125,20.965576171875,-36.0107421875
4.6224999,-0.40282443165779114,0.48602294921875,9.78869342803955,-6.103515625,2.0751953125,-36.468505859375
4.6274999,-1.3784615993499756,0.922366201877594,9.651625633239746,-7.62939453125,-8.72802734375,-21.270751953125
4.6324999,-2.079962730407715,-0.24001872539520264,9.498396873474121,-27.740478515625,-22.064208984375,-6.9580078125
4.6374999,-2.2242133617401123,-0.3519476354122162,9.37509536743164,-18.402099609375,-23.193359375,-2.166748046875
4.6424999,-0.20949265360832214,-1.8142063617706299,9.558850288391113,-2.197265625,-20.782470703125,22.430419921875
4.647499900000001,-0.20949265360832214,-1.8142063617706299,9.558850288391113,-2.197265625,-20.782470703125,22.430419921875
4.6524999000000005,0.7003039717674255,-1.7118542194366455,9.795876502990723,6.317138671875,-12.603759765625,25.421142578125
4.6574999,1.314416766166687,-1.4024035930633545,9.924564361572266,12.481689453125,-0.640869140625,27.740478515625
4.6624999,1.5257049798965454,-0.8984242081642151,10.022128105163574,12.054443359375,8.697509765625,26.153564453125
4.6674999,1.5933412313461304,-0.18614917993545532,10.06462574005127,6.256103515625,6.4697265625,15.0146484375
4.6724999,1.677138328552246,0.19572599232196808,10.075998306274414,-0.1220703125,4.058837890625,-9.063720703125
4.6774999,1.8148049116134644,-0.14185644686222076,10.011953353881836,6.04248046875,17.120361328125,-17.120361328125
4.6824999,2.0464439392089844,-0.3800795078277588,9.962273597717285,23.0712890625,34.149169921875,-12.237548828125
4.687499900000001,1.8728642463684082,-0.3794809579849243,9.923966407775879,17.88330078125,37.109375,-19.4091796875
4.6924999000000005,1.2970588207244873,-0.22086510062217712,10.01075553894043,3.11279296875,31.158447265625,-25.2685546875
4.6974999,0.5650315880775452,0.5327098965644836,9.800664901733398,-3.0517578125,20.294189453125,-36.041259765625
4.7024999,-2.204461097717285,-0.4189853072166443,9.412803649902344,-14.190673828125,-23.040771484375,1.8310546875
4.7074999,-2.182913303375244,-1.1312602758407593,9.519944190979004,-6.77490234375,-33.660888671875,33.416748046875
4.7124999,-1.3605051040649414,-1.5280991792678833,9.526528358459473,-11.23046875,-32.745361328125,27.374267578125
4.7174999,-0.3776853084564209,-1.5382746458053589,9.72165584564209,-4.33349609375,-23.193359375,21.484375
4.7224999,0.5758054852485657,-1.4826093912124634,9.90241813659668,6.4697265625,-12.664794921875,26.580810546875
4.727499900000001,1.2880805730819702,-1.338358759880066,9.974244117736816,12.420654296875,2.166748046875,27.557373046875
4.7324999000000005,1.6154875755310059,-0.9433154463768005,10.022128105163574,11.53564453125,9.185791015625,24.59716796875
4.7374999,1.7693150043487549,-0.22505496442317963,10.051457405090332,6.744384765625,7.720947265625,11.65771484375
4.7424999,1.8285715579986572,0.14604631066322327,10.022727012634277,1.068115234375,6.8359375,-10.528564453125
4.7474999,1.9500772953033447,-0.20709845423698425,9.996390342712402,7.232666015625,19.500732421875,-16.693115234375
4.7524999,1.8495208024978638,-0.3818751573562622,9.934141159057617,16.90673828125,38.2080078125,-19.378662109375
4.7574999,1.8495208024978638,-0.3818751573562622,9.934141159057617,16.90673828125,38.2080078125,-19.378662109375
4.7624999,1.303044319152832,-0.17417816817760468,9.982025146484375,2.471923828125,32.3486328125,-27.862548828125
4.7674999,0.5722141861915588,0.5434837937355042,9.78869342803955,-3.84521484375,18.463134765625,-40.71044921875
4.772499900000001,-0.345363587141037,0.3687070608139038,9.697713851928711,-6.439208984375,-0.67138671875,-43.365478515625
4.7774999000000005,-1.2755109071731567,0.4776432514190674,9.547477722167969,-7.2021484375,-8.575439453125,-30.120849609375
4.7824999,-1.9632453918457031,-0.35913026332855225,9.330204010009766,-23.98681640625,-22.64404296875,-15.777587890625
4.7874999,-2.346317768096924,-0.46088382601737976,9.318831443786621,-12.0849609375,-21.66748046875,2.01416015625
4.7924999,-2.454056739807129,-0.7475894689559937,9.35773754119873,-11.627197265625,-37.353515625,39.0625
4.7974999,-1.6938977241516113,-0.99479079246521,9.437943458557129,-15.472412109375,-39.61181640625,25.45166015625
4.8024999,-0.6440402865409851,-1.0755951404571533,9.64923095703125,-5.2490234375,-24.23095703125,17.333984375
4.8074999,0.5267243981361389,-1.2611457109451294,9.84256362915039,5.615234375,-11.04736328125,23.86474609375
4.812499900000001,1.4484920501708984,-1.324592113494873,9.965864181518555,13.73291015625,2.9296875,25.970458984375
4.8174999000000005,1.8770540952682495,-1.1049240827560425,9.998785018920898,12.63427734375,11.077880859375,20.81298828125
4.8224999,2.0027496814727783,-0.4776432514190674,10.049062728881836,6.622314453125,8.23974609375,6.77490234375
4.8274999,1.9422961473464966,-0.07122749835252762,10.047865867614746,1.953125,8.72802734375,-12.14599609375
4.8324999,1.9249382019042969,-0.2753331959247589,10.029311180114746,9.735107421875,21.636962890625,-14.129638671875
4.8374999,1.9261353015899658,-0.25258827209472656,9.9586820602417,21.6064453125,33.26416015625,-13.671875
4.8424999,1.5568296909332275,-0.2495955228805542,9.979032516479492,13.946533203125,34.393310546875,-19.10400390625
4.8474999,1.0229226350784302,-0.05506663769483566,9.977835655212402,1.922607421875,29.754638671875,-26.641845703125
4.852499900000001,0.3387795388698578,0.5518634915351868,9.794678688049316,-2.44140625,18.280029296875,-36.865234375
4.8574999000000005,-0.45669397711753845,0.2861070930957794,9.68574333190918,-5.37109375,-0.3662109375,-38.299560546875
4.8624999,-1.301847219467163,0.45429977774620056,9.510966300964355,-6.195068359375,-7.843017578125,-25.482177734375
4.8674999,-1.9734207391738892,-0.33997663855552673,9.312846183776855,-24.139404296875,-23.37646484375,-11.8408203125
4.8724999,-2.3265655040740967,-0.36990416049957275,9.337387084960938,-13.5498046875,-25.665283203125,3.387451171875
4.8774999,-0.5632359385490417,-0.9888052940368652,9.773730278015137,-5.706787109375,-24.749755859375,17.059326171875
4.8824999,1.799242615699768,-1.192312479019165,9.951498985290527,12.725830078125,10.162353515625,26.42822265625
4.8874999,1.8543092012405396,-0.5386953949928284,9.983820915222168,6.439208984375,7.232666015625,13.85498046875
4.8924999,1.8148049116134644,-0.028131870552897453,9.978434562683105,0.640869140625,4.241943359375,-6.744384765625
4.897499900000001,1.8818424940109253,-0.21009120345115662,9.956287384033203,6.591796875,15.289306640625,-15.7470703125
4.9024999000000005,1.9752163887023926,-0.15921440720558167,9.899425506591797,19.744873046875,30.731201171875,-12.8173828125
4.9074999,1.702277421951294,-0.19871874153614044,9.920374870300293,13.397216796875,33.5693359375,-16.693115234375
4.9124999,1.1803414821624756,-0.0933738648891449,9.959280967712402,1.5869140625,28.289794921875,-25.421142578125
4.9174999,0.44771572947502136,0.46627077460289,9.804854393005371,-1.5869140625,19.47021484375,-33.0810546875
4.9224999,-1.8692729473114014,-0.1909375786781311,9.393052101135254,-22.796630859375,-20.477294921875,-5.767822265625
4.9274999,-2.0476410388946533,-0.13108254969120026,9.265560150146484,-16.143798828125,-24.383544921875,1.739501953125
4.9324999,-2.184709072113037,-0.5279214978218079,9.48882007598877,-11.8408203125,-35.2783203125,32.196044921875
4.937499900000001,-1.4143747091293335,-0.9367313981056213,9.561842918395996,-13.7939453125,-34.271240234375,25.5126953125
4.9424999000000005,-0.47644615173339844,-1.1593921184539795,9.786897659301758,-4.8828125,-24.5361328125,18.6767578125
4.9474999,0.5626373887062073,-1.3922282457351685,9.871891975402832,5.0048828125,-11.871337890625,24.871826171875
4.9524999,1.2988544702529907,-1.436521053314209,9.97364616394043,12.87841796875,2.197265625,29.754638671875
4.9574999,1.6615760326385498,-1.2132617235183716,9.953893661499023,12.664794921875,10.25390625,26.214599609375
4.9624999,1.7513585090637207,-0.5590460896492004,10.002974510192871,7.415771484375,8.453369140625,14.251708984375
4.9674999,1.7830817699432373,-0.07003039866685867,10.016741752624512,1.220703125,4.974365234375,-7.38525390625
4.9724999,1.8363527059555054,-0.19033902883529663,9.955689430236816,5.43212890625,15.7470703125,-16.387939453125
4.977499900000001,1.7651251554489136,-0.28730419278144836,9.894637107849121,17.608642578125,35.7666015625,-17.181396484375
4.9824999000000005,1.2647370100021362,-0.25498247146606445,9.989806175231934,4.974365234375,31.005859375,-22.979736328125
4.9874999,0.5961562395095825,0.4118026793003082,9.799467086791992,-1.46484375,21.728515625,-34.210205078125
4.9924999,-0.2495955228805542,0.32860419154167175,9.758766174316406,-5.035400390625,2.960205078125,-35.7666015625
4.9974999,-0.9882067441940308,0.5931634902954102,9.321824073791504,-4.608154296875,-5.889892578125,-26.763916015625
5.0024999,-1.7986440658569336,-0.13587094843387604,9.359533309936523,-20.050048828125,-17.974853515625,-10.07080078125
5.0074999,-2.009333848953247,-0.24181437492370605,9.142857551574707,-14.373779296875,-20.93505859375,-1.28173828125
5.0124999,-2.318784236907959,-0.5841852426528931,9.44871711730957,-9.70458984375,-32.684326171875,31.951904296875
5.0174999,-1.6968904733657837,-0.9235633015632629,9.626486778259277,-14.434814453125,-37.04833984375,26.18408203125
5.022499900000001,-0.7984662652015686,-1.047463297843933,9.835979461669922,-7.6904296875,-26.336669921875,15.9912109375
5.0274999000000005,0.25019407272338867,-1.2120646238327026,9.982624053955078,2.9296875,-13.946533203125,22.369384765625
5.0324999,1.1408370733261108,-1.2922704219818115,10.04068374633789,11.23046875,-1.15966796875,24.993896484375
5.0374999,1.635838270187378,-0.17657238245010376,9.847949981689453,16.082763671875,29.388427734375,-15.228271484375
5.0424999,1.182137131690979,-0.2693476974964142,9.882665634155273,5.157470703125,27.252197265625,-18.218994140625
5.0474999,0.6314706802368164,0.22385786473751068,9.784503936767578,-1.068115234375,21.30126953125,-27.740478515625
5.0524999,-0.13168109953403473,0.30466216802597046,9.786897659301758,-3.23486328125,8.026123046875,-28.533935546875
5.0574999,-0.7829039692878723,-0.08080431073904037,9.576807022094727,-4.241943359375,-4.180908203125,-21.697998046875
5.062499900000001,-1.6089035272598267,-0.03770867735147476,9.569025993347168,-14.09912109375,-13.73291015625,-4.913330078125
5.0674999000000005,-1.813009262084961,-0.6967126727104187,9.261370658874512,-19.683837890625,-21.97265625,-1.5869140625
5.0724999,-2.054823637008667,-0.4836287498474121,9.46607494354248,-10.650634765625,-30.059814453125,18.49365234375
5.0774999,-0.739209771156311,-0.9259575009346008,9.626486778259277,-8.72802734375,-27.435302734375,17.27294921875
5.0824999,0.1759738177061081,-1.0558429956436157,9.78869342803955,0.732421875,-17.08984375,21.331787109375
5.0874999,0.9481038451194763,-1.2066776752471924,9.906009674072266,8.6669921875,-4.791259765625,27.77099609375
5.0924999,1.3634978532791138,-1.1510124206542969,9.944915771484375,11.65771484375,6.256103515625,29.022216796875
5.0974999,1.5053542852401733,-0.7643488645553589,9.950302124023438,9.124755859375,8.514404296875,24.017333984375
5.102499900000001,1.569997787475586,-0.22026655077934265,9.980828285217285,3.326416015625,4.119873046875,7.38525390625
5.1074999000000005,1.679532527923584,-0.04189852997660637,10.006566047668457,-0.244140625,5.584716796875,-13.36669921875
5.1124999,1.8471266031265259,-0.444722980260849,9.904213905334473,9.70458984375,21.484375,-14.22119140625
5.1174999,1.9494787454605103,-0.3866635859012604,9.90361499786377,19.8974609375,31.768798828125,-13.458251953125
5.1224999,1.567603588104248,-0.47884035110473633,9.907206535339355,11.505126953125,31.73828125,-17.08984375
5.1274999,1.0259153842926025,-0.07182604819536209,9.88625717163086,0.8544921875,25.848388671875,-25.726318359375
5.1324999,0.22625206410884857,0.42377370595932007,9.804255485534668,-3.082275390625,14.434814453125,-31.951904296875
5.1374999,-1.3682862520217896,0.4668693244457245,9.571419715881348,-10.43701171875,-9.796142578125,-13.641357421875
5.1424999,-1.7579425573349,-0.40521863102912903,9.31045150756836,-19.622802734375,-17.63916015625,-6.561279296875
5.147499900000001,-1.7579425573349,-0.40521863102912903,9.31045150756836,-19.622802734375,-17.63916015625,-6.561279296875
5.1524999000000005,-1.9638439416885376,-0.1586158573627472,9.46487808227539,-8.6669921875,-21.54541015625,11.016845703125
5.1574999,-1.7866730690002441,-0.6129156351089478,9.43255615234375,-10.894775390625,-31.73828125,32.89794921875
5.1624999,-1.0109516382217407,-0.9032126069068909,9.593565940856934,-10.345458984375,-29.1748046875,18.1884765625
5.1674999,-0.17178396880626678,-1.0696096420288086,9.73781681060791,-1.46484375,-19.95849609375,20.233154296875
5.1724999,0.7110779285430908,-1.2090718746185303,9.864110946655273,7.659912109375,-8.941650390625,24.23095703125
