# Time (seconds),Accel_X,Accel_Y,Accel_Z,Gyro_X,Gyro_Y,Gyro_Z
0.0024999,0.17298106849193573,0.0802057534456253,9.733028411865234,-0.335693359375,1.068115234375,-0.06103515625
0.0074999,0.18315643072128296,0.08738835901021957,9.739612579345703,-0.67138671875,1.068115234375,-0.030517578125
0.012499900000000001,0.18914192914962769,0.0975637212395668,9.744400978088379,-0.579833984375,1.068115234375,-0.091552734375
0.0174999,0.19931729137897491,0.10235211998224258,9.751583099365234,-0.579833984375,1.0986328125,-0.091552734375
0.0224999,0.20769700407981873,0.10295066982507706,9.749189376831055,-0.518798828125,1.220703125,0
0.0274999,0.21547815203666687,0.10055647045373917,9.748590469360352,-0.67138671875,1.434326171875,0.1220703125
0.0324999,0.21607670187950134,0.09816227108240128,9.744400978088379,-0.762939453125,1.617431640625,0
0.0374999,0.2082955539226532,0.09277531504631042,9.741408348083496,-0.579833984375,1.556396484375,-0.06103515625
0.0424999,0.19273324310779572,0.08439560979604721,9.741408348083496,-0.732421875,1.40380859375,-0.1220703125
0.0474999,0.1693897694349289,0.07541735470294952,9.739013671875,-0.6103515625,0.946044921875,-0.152587890625
0.0524999,0.15322890877723694,0.06703764945268631,9.736021041870117,-0.091552734375,0.579833984375,-0.1220703125
0.0574999,0.15502455830574036,0.06404489278793335,9.73542308807373,-0.030517578125,0.457763671875,-0.1220703125
0.0624999,0.17657238245010376,0.07062894850969315,9.73661994934082,-0.1220703125,0.701904296875,-0.18310546875
0.0674999,0.2172738015651703,0.090979665517807,9.740809440612793,-0.48828125,1.3427734375,-0.091552734375
0.0724999,0.25977087020874023,0.11611878126859665,9.754576683044434,-0.9765625,2.3193359375,-0.18310546875
0.0774999,0.29149407148361206,0.13168109953403473,9.765350341796875,-1.52587890625,2.899169921875,-0.06103515625
0.0824999,0.29149407148361206,0.13168109953403473,9.765350341796875,-1.52587890625,2.899169921875,-0.06103515625
0.0874999,0.2902969419956207,0.13287819921970367,9.771934509277344,-1.556396484375,3.2958984375,0.091552734375
0.0924999,0.26336219906806946,0.11791443079710007,9.774927139282227,-1.40380859375,3.204345703125,0.06103515625
0.0974999,0.21667525172233582,0.09457096457481384,9.764751434326172,-1.15966796875,2.716064453125,-0.1220703125
0.1024999,0.17058686912059784,0.07481880486011505,9.750985145568848,-1.15966796875,2.288818359375,-0.152587890625
0.1074999,0.1364694982767105,0.06224924325942993,9.739612579345703,-0.885009765625,2.105712890625,-0.030517578125
0.1124999,0.11671733111143112,0.055665191262960434,9.725846290588379,-0.701904296875,1.922607421875,0
0.1174999,0.10893617570400238,0.048482585698366165,9.719860076904297,-0.579833984375,1.40380859375,0
0.1224999,0.1041477769613266,0.04908113554120064,9.716269493103027,-0.48828125,1.068115234375,-0.06103515625
0.1274999,0.1041477769613266,0.05267243832349777,9.719860076904297,-0.274658203125,0.762939453125,0
0.1324999,0.10594342648983002,0.05746084079146385,9.71926212310791,-0.274658203125,0.42724609375,0.06103515625
0.1374999,0.11372458189725876,0.061052143573760986,9.724050521850586,-0.274658203125,0.152587890625,-0.18310546875
0.1424999,0.11791443079710007,0.06584054976701736,9.719860076904297,-0.244140625,-0.1220703125,-0.091552734375
0.1474999,0.12629413604736328,0.0736217051744461,9.72165584564209,0.152587890625,-0.48828125,0.1220703125
0.1524999,0.1388636976480484,0.08379705995321274,9.722254753112793,0.030517578125,-0.6103515625,-0.030517578125
0.1574999,0.15322890877723694,0.09816227108240128,9.731831550598145,-0.274658203125,-0.274658203125,0
0.1624999,0.16879121959209442,0.09636662155389786,9.740211486816406,-0.6103515625,0.06103515625,0.06103515625
0.1674999,0.1711854189634323,0.08439560979604721,9.744400978088379,-0.335693359375,0.18310546875,0
0.1724999,0.15562310814857483,0.06584054976701736,9.744400978088379,0.030517578125,-0.274658203125,-0.06103515625
0.17749990000000002,0.13946224749088287,0.04908113554120064,9.740211486816406,0.244140625,-0.9765625,-0.152587890625
0.1824999,0.12449848651885986,0.04668693244457245,9.73781681060791,0.18310546875,-1.251220703125,-0.152587890625
0.1874999,0.13287819921970367,0.05267243832349777,9.740211486816406,0.42724609375,-1.28173828125,-0.030517578125
0.1924999,0.16579847037792206,0.06643909960985184,9.749788284301758,0.335693359375,-0.885009765625,-0.030517578125
0.1974999,0.21847090125083923,0.08619125932455063,9.762357711791992,-0.244140625,0.18310546875,-0.06103515625
0.2024999,0.28311434388160706,0.10594342648983002,9.778518676757812,-0.701904296875,1.64794921875,-0.091552734375
0.20749990000000001,0.33518823981285095,0.12449848651885986,9.787496566772461,-1.03759765625,2.9296875,-0.06103515625
0.2124999,0.3621230125427246,0.13407529890537262,9.795876502990723,-1.52587890625,4.119873046875,0.06103515625
0.2174999,0.353743314743042,0.1346738487482071,9.799467086791992,-1.922607421875,4.791259765625,0.1220703125
0.2224999,0.3148375153541565,0.12090718746185303,9.787496566772461,-1.922607421875,5.06591796875,-0.06103515625
0.2274999,0.2495955228805542,0.10115502029657364,9.777320861816406,-1.922607421875,5.218505859375,-0.06103515625
0.2324999,0.1759738177061081,0.07122749835252762,9.749189376831055,-1.64794921875,4.7607421875,-0.06103515625
0.2374999,0.0975637212395668,0.0454898327589035,9.729436874389648,-1.312255859375,3.96728515625,-0.152587890625
0.2424999,0.03711012750864029,0.0293289702385664,9.710283279418945,-0.885009765625,3.082275390625,-0.091552734375
0.2474999,0.005386953707784414,0.02693476900458336,9.706093788146973,-0.67138671875,2.227783203125,0.06103515625
0.2524999,0.004788403399288654,0.03172317147254944,9.709086418151855,-0.579833984375,1.64794921875,0.030517578125
0.2574999,0.021547814831137657,0.0454898327589035,9.714473724365234,-0.518798828125,1.52587890625,-0.06103515625
0.2624999,0.046088382601737976,0.05746084079146385,9.727641105651855,-0.42724609375,1.28173828125,0.091552734375
0.2674999,0.07062894850969315,0.06703764945268631,9.73661994934082,-0.640869140625,0.67138671875,-0.030517578125
0.2724999,0.09157821536064148,0.07122749835252762,9.747393608093262,-0.640869140625,0.518798828125,-0.1220703125
0.2774999,0.10534487664699554,0.07122749835252762,9.751583099365234,-0.48828125,0.3662109375,0.06103515625
0.2824999,0.11013327538967133,0.060453593730926514,9.750386238098145,-0.396728515625,0.152587890625,0.1220703125
0.28749990000000003,0.10295066982507706,0.04489128291606903,9.742006301879883,-0.244140625,-0.396728515625,-0.030517578125
0.2924999,0.09277531504631042,0.03292027488350868,9.733627319335938,0.091552734375,-0.732421875,-0.1220703125
0.2974999,0.090979665517807,0.02693476900458336,9.726444244384766,0.213623046875,-0.946044921875,-0.18310546875
0.3024999,0.0999579206109047,0.030526071786880493,9.727043151855469,0.030517578125,-1.03759765625,-0.06103515625
0.3074999,0.1149216815829277,0.040701430290937424,9.727641105651855,-0.030517578125,-0.823974609375,-0.152587890625
0.3124999,0.14903905987739563,0.05147533491253853,9.732429504394531,0.213623046875,-0.762939453125,-0.030517578125
0.3174999,0.2041056901216507,0.06524199992418289,9.744999885559082,-0.1220703125,-0.274658203125,-0.274658203125
0.3224999,0.2753331959247589,0.08200141042470932,9.761758804321289,-0.579833984375,1.5869140625,-0.06103515625
0.3274999,0.33099839091300964,0.09876082092523575,9.77791976928711,-1.007080078125,3.60107421875,0.152587890625
0.3324999,0.3477577865123749,0.10235211998224258,9.787496566772461,-1.251220703125,4.39453125,0.030517578125
0.3374999,0.31124621629714966,0.0975637212395668,9.785101890563965,-1.15966796875,3.96728515625,-0.030517578125
0.3424999,0.243011474609375,0.08619125932455063,9.77253246307373,-1.220703125,3.570556640625,-0.091552734375
0.34749990000000003,0.17417816817760468,0.06823474913835526,9.761758804321289,-1.220703125,3.72314453125,-0.1220703125
0.35249990000000003,0.12030863761901855,0.055665191262960434,9.75278091430664,-1.03759765625,3.814697265625,-0.1220703125
0.3574999,0.07841010391712189,0.04489128291606903,9.744400978088379,-0.732421875,3.662109375,-0.06103515625
0.3624999,0.04967968538403511,0.03411737456917763,9.737217903137207,-0.640869140625,3.021240234375,-0.152587890625
0.3674999,0.0293289702385664,0.0293289702385664,9.729436874389648,-0.67138671875,2.349853515625,-0.244140625
0.3724999,0.020350715145468712,0.028730420395731926,9.726444244384766,-0.579833984375,1.861572265625,-0.18310546875
0.3774999,0.02214636653661728,0.0293289702385664,9.725247383117676,-0.396728515625,1.52587890625,-0.030517578125
0.3824999,0.031124621629714966,0.04429273307323456,9.73661994934082,-0.274658203125,1.220703125,-0.3662109375
0.3874999,0.05027823522686958,0.0586579404771328,9.744400978088379,-0.42724609375,1.312255859375,-1.068115234375
0.3924999,0.05746084079146385,0.04908113554120064,9.744999885559082,-0.701904296875,1.3427734375,-0.67138671875
0.3974999,0.05686229094862938,0.0454898327589035,9.73781681060791,-0.3662109375,0.579833984375,0.244140625
0.4024999,0.05147533491253853,0.03411737456917763,9.728838920593262,0.30517578125,-0.335693359375,0
0.4074999,0.06224924325942993,0.02693476900458336,9.723451614379883,0.030517578125,-0.54931640625,-0.213623046875
0.41249990000000003,0.08738835901021957,0.04189852997660637,9.73661994934082,-0.42724609375,0.335693359375,-0.152587890625
0.41749990000000003,0.10833762586116791,0.05147533491253853,9.744400978088379,-0.335693359375,0.946044921875,0.18310546875
0.4224999,0.11312603205442429,0.04908113554120064,9.750985145568848,-0.213623046875,0.518798828125,-0.1220703125
0.4274999,0.09876082092523575,0.043095629662275314,9.750386238098145,-0.091552734375,-0.457763671875,-0.06103515625
0.4324999,0.08439560979604721,0.03950432687997818,9.747393608093262,0.06103515625,-0.67138671875,-0.06103515625
0.4374999,0.090979665517807,0.03651157766580582,9.749788284301758,0.06103515625,-0.030517578125,-0.1220703125
0.4424999,0.10773907601833344,0.03711012750864029,9.749189376831055,-0.091552734375,0.42724609375,-0.244140625
0.4474999,0.10773907601833344,0.03711012750864029,9.749189376831055,-0.091552734375,0.42724609375,-0.244140625
0.4524999,0.12030863761901855,0.03890577703714371,9.746794700622559,-0.091552734375,0.30517578125,-0.18310546875
0.4574999,0.11851298063993454,0.04369417950510979,9.743802070617676,-0.030517578125,0.18310546875,0
0.4624999,0.10893617570400238,0.04668693244457245,9.738415718078613,0,0.030517578125,-0.030517578125
0.4674999,0.0933738648891449,0.0520738884806633,9.734225273132324,0.06103515625,-0.091552734375,-0.152587890625
0.47249990000000003,0.07661445438861847,0.05686229094862938,9.731232643127441,0,-0.213623046875,-0.274658203125
0.47749990000000003,0.06344634294509888,0.05446808785200119,9.727043151855469,0.274658203125,-0.701904296875,-0.244140625
0.4824999,0.05626374110579491,0.05267243832349777,9.725846290588379,0.274658203125,-0.91552734375,-0.213623046875
0.4874999,0.0586579404771328,0.04908113554120064,9.728240013122559,0.30517578125,-1.068115234375,-0.091552734375
0.4924999,0.07003039866685867,0.04429273307323456,9.733627319335938,0.396728515625,-1.129150390625,-0.244140625
0.4974999,0.08738835901021957,0.04369417950510979,9.740211486816406,0.457763671875,-1.068115234375,-0.06103515625
0.5024999,0.11552023142576218,0.048482585698366165,9.749788284301758,0.396728515625,-0.9765625,-0.18310546875
0.5074999,0.14604631066322327,0.05686229094862938,9.763554573059082,0.335693359375,-0.640869140625,-0.213623046875
0.5124999,0.17477671802043915,0.06703764945268631,9.77253246307373,0,0.06103515625,-0.1220703125
0.5174999,0.18555063009262085,0.07122749835252762,9.77791976928711,-0.152587890625,0.6103515625,-0.18310546875
0.5224999,0.18076223134994507,0.07062894850969315,9.774328231811523,-0.091552734375,0.396728515625,-0.18310546875
0.5274999,0.1586158573627472,0.06464344263076782,9.765948295593262,-0.091552734375,0.244140625,-0.06103515625
0.5324999,0.13587094843387604,0.061052143573760986,9.7605619430542,-0.152587890625,0.457763671875,-0.152587890625
0.5374999,0.11611878126859665,0.058059390634298325,9.755773544311523,-0.091552734375,0.457763671875,-0.1220703125
0.5424999,0.10354922711849213,0.05686229094862938,9.75517463684082,-0.030517578125,0.396728515625,-0.030517578125
0.5474999,0.0933738648891449,0.05506663769483566,9.749788284301758,0.06103515625,0.213623046875,0
0.5524999,0.09038111567497253,0.055665191262960434,9.746196746826172,-0.152587890625,0.213623046875,-0.152587890625
0.5574999,0.09277531504631042,0.053270988166332245,9.744400978088379,-0.030517578125,0.18310546875,-0.06103515625
0.5624999,0.09516951441764832,0.053270988166332245,9.743802070617676,-0.18310546875,0.396728515625,-0.1220703125
0.5674999000000001,0.09876082092523575,0.0520738884806633,9.744400978088379,-0.030517578125,0.274658203125,-0.06103515625
0.5724999000000001,0.09816227108240128,0.04967968538403511,9.743802070617676,0.030517578125,0.1220703125,-0.091552734375
0.5774999000000001,0.09636662155389786,0.050876785069704056,9.740809440612793,0.030517578125,0.06103515625,-0.152587890625
0.5824999,0.09516951441764832,0.05027823522686958,9.742605209350586,0.213623046875,-0.1220703125,0
0.5874999,0.09217676520347595,0.050876785069704056,9.740809440612793,0.152587890625,-0.152587890625,-0.06103515625
0.5924999,0.09157821536064148,0.050876785069704056,9.743204116821289,0.091552734375,-0.274658203125,-0.18310546875
0.5974999,0.08978256583213806,0.05027823522686958,9.742605209350586,0.1220703125,-0.42724609375,-0.06103515625
0.6024999,0.08798690885305405,0.04967968538403511,9.739612579345703,0.30517578125,-0.701904296875,-0.06103515625
0.6074999,0.0867898091673851,0.04369417950510979,9.73781681060791,0.274658203125,-0.91552734375,-0.18310546875
0.6124999,0.08738835901021957,0.040701430290937424,9.734824180603027,0.18310546875,-0.823974609375,-0.213623046875
0.6174999,0.09038111567497253,0.035913024097681046,9.734225273132324,0.091552734375,-0.762939453125,-0.274658203125
0.6224999,0.09457096457481384,0.0347159244120121,9.73542308807373,0.18310546875,-0.79345703125,-0.152587890625
0.6274999,0.0999579206109047,0.03770867735147476,9.73661994934082,0.3662109375,-0.8544921875,-0.06103515625
0.6324999,0.11252748221158981,0.04189852997660637,9.740809440612793,0.244140625,-0.8544921875,-0.152587890625
0.6374999,0.13048399984836578,0.047884032130241394,9.745597839355469,0.244140625,-0.79345703125,-0.18310546875
0.6424999,0.15263035893440247,0.05386953800916672,9.755773544311523,0.06103515625,-0.152587890625,-0.213623046875
0.6474999,0.16998831927776337,0.0586579404771328,9.764153480529785,-0.091552734375,0.457763671875,-0.091552734375
0.6524999,0.1735796183347702,0.06165069341659546,9.768941879272461,-0.091552734375,0.6103515625,-0.06103515625
0.6574999,0.16101007163524628,0.060453593730926514,9.767744064331055,-0.091552734375,0.518798828125,-0.091552734375
0.6624999,0.1388636976480484,0.05746084079146385,9.7605619430542,0,0.30517578125,0.030517578125
0.6674999,0.11432313174009323,0.05506663769483566,9.75278091430664,-0.152587890625,0.42724609375,-0.091552734375
0.6724999,0.0933738648891449,0.0520738884806633,9.741408348083496,-0.06103515625,0.518798828125,-0.152587890625
0.6774999,0.07841010391712189,0.05027823522686958,9.739013671875,-0.091552734375,0.30517578125,-0.213623046875
0.6824999,0.07122749835252762,0.05027823522686958,9.734824180603027,0,0.1220703125,-0.213623046875
0.6874999,0.07242459803819656,0.050876785069704056,9.73542308807373,0.18310546875,-0.06103515625,-0.335693359375
0.6924999000000001,0.07900865375995636,0.05506663769483566,9.740211486816406,0.18310546875,-0.06103515625,-0.18310546875
0.6974999000000001,0.08978256583213806,0.0586579404771328,9.741408348083496,0.06103515625,-0.030517578125,-0.213623046875
0.7024999000000001,0.09576806426048279,0.061052143573760986,9.742006301879883,0.06103515625,0.030517578125,-0.244140625
0.7074999,0.09935937076807022,0.060453593730926514,9.738415718078613,0.1220703125,-0.274658203125,-0.06103515625
0.7124999,0.09816227108240128,0.058059390634298325,9.73661994934082,0.091552734375,-0.30517578125,-0.152587890625
0.7174999,0.0975637212395668,0.05626374110579491,9.734225273132324,0.213623046875,-0.213623046875,-0.18310546875
0.7224999,0.10055647045373917,0.053270988166332245,9.734225273132324,0.030517578125,-0.30517578125,-0.091552734375
0.7274999,0.10175357013940811,0.055665191262960434,9.73661994934082,-0.030517578125,-0.244140625,-0.1220703125
0.7324999,0.10295066982507706,0.055665191262960434,9.733627319335938,0.030517578125,-0.3662109375,-0.1220703125
0.7374999,0.10115502029657364,0.05446808785200119,9.731232643127441,0.06103515625,-0.579833984375,-0.152587890625
0.7424999,0.10055647045373917,0.05446808785200119,9.727641105651855,0.152587890625,-0.701904296875,-0.06103515625
0.7474999,0.0999579206109047,0.05446808785200119,9.727641105651855,0.335693359375,-0.8544921875,-0.152587890625
0.7524999,0.10175357013940811,0.053270988166332245,9.731232643127441,0.274658203125,-0.823974609375,-0.244140625
0.7574999,0.11013327538967133,0.05267243832349777,9.738415718078613,0.091552734375,-0.6103515625,-0.18310546875
0.7624999,0.1215057373046875,0.04967968538403511,9.745597839355469,0.030517578125,-0.457763671875,-0.1220703125
0.7674999,0.13706804811954498,0.050876785069704056,9.753378868103027,-0.030517578125,-0.213623046875,0
0.7724999,0.15263035893440247,0.0520738884806633,9.761159896850586,-0.030517578125,0.18310546875,-0.091552734375
0.7774999,0.1604115068912506,0.055665191262960434,9.765948295593262,-0.213623046875,0.701904296875,-0.18310546875
0.7824999,0.1604115068912506,0.05985504388809204,9.77013874053955,-0.18310546875,0.762939453125,0
0.7874999,0.15502455830574036,0.06165069341659546,9.767744064331055,-0.213623046875,0.732421875,0.030517578125
0.7924999,0.1454477459192276,0.061052143573760986,9.764153480529785,-0.42724609375,0.885009765625,-0.06103515625
0.7974999,0.13347674906253815,0.061052143573760986,9.759963035583496,-0.335693359375,1.190185546875,-0.06103515625
0.8024999,0.1215057373046875,0.05386953800916672,9.758167266845703,-0.244140625,1.251220703125,0
0.8074999,0.10953472554683685,0.05027823522686958,9.755773544311523,-0.274658203125,0.9765625,-0.1220703125
0.8124999,0.10953472554683685,0.05027823522686958,9.755773544311523,-0.274658203125,0.9765625,-0.1220703125
0.8174999000000001,0.09576806426048279,0.0454898327589035,9.75397777557373,-0.30517578125,0.946044921875,-0.152587890625
0.8224999000000001,0.08080431073904037,0.04429273307323456,9.749189376831055,-0.30517578125,0.640869140625,0.091552734375
0.8274999000000001,0.06643909960985184,0.04728548228740692,9.744400978088379,-0.244140625,0.3662109375,-0.213623046875
0.8324999000000001,0.05686229094862938,0.048482585698366165,9.739013671875,0.030517578125,0.091552734375,-0.213623046875
0.8374999,0.05506663769483566,0.05027823522686958,9.73781681060791,0,0.030517578125,0
0.8424999,0.07422025501728058,0.05626374110579491,9.742006301879883,-0.152587890625,0.1220703125,0.091552734375
0.8474999,0.09696517139673233,0.06404489278793335,9.749189376831055,-0.396728515625,0.457763671875,-0.152587890625
0.8524999,0.1256955862045288,0.07062894850969315,9.758766174316406,-0.518798828125,0.762939453125,-0.06103515625
0.8574999,0.14065934717655182,0.07422025501728058,9.762357711791992,-0.518798828125,0.946044921875,0.1220703125
0.8624999,0.14365209639072418,0.07122749835252762,9.765350341796875,-0.457763671875,1.068115234375,-0.1220703125
0.8674999,0.13826514780521393,0.06344634294509888,9.7605619430542,-0.48828125,0.91552734375,0.030517578125
0.8724999,0.12749123573303223,0.05626374110579491,9.7605619430542,-0.335693359375,0.91552734375,0.06103515625
0.8774999,0.12389993667602539,0.05027823522686958,9.758167266845703,-0.42724609375,1.190185546875,-0.1220703125
0.8824999,0.11552023142576218,0.046088382601737976,9.754576683044434,-0.640869140625,1.434326171875,0
0.8874999,0.11133038252592087,0.04189852997660637,9.75517463684082,-0.518798828125,1.0986328125,0.030517578125
0.8924999,0.10714052617549896,0.04010287672281265,9.750985145568848,-0.518798828125,1.0986328125,-0.06103515625
0.8974999,0.10175357013940811,0.03651157766580582,9.749788284301758,-0.457763671875,1.28173828125,-0.030517578125
0.9024999,0.09876082092523575,0.035913024097681046,9.746794700622559,-0.6103515625,1.434326171875,-0.030517578125
0.9074999,0.08858546614646912,0.033518824726343155,9.743802070617676,-0.54931640625,1.373291015625,-0.06103515625
0.9124999,0.07721300423145294,0.03651157766580582,9.737217903137207,-0.48828125,1.220703125,-0.091552734375
0.9174999,0.06584054976701736,0.0347159244120121,9.736021041870117,-0.42724609375,0.91552734375,-0.030517578125
0.9224999,0.061052143573760986,0.035913024097681046,9.734225273132324,-0.18310546875,0.732421875,0.06103515625
0.9274999,0.058059390634298325,0.035913024097681046,9.734225273132324,-0.1220703125,0.640869140625,-0.1220703125
0.9324999,0.0586579404771328,0.0347159244120121,9.73542308807373,-0.152587890625,0.640869140625,-0.274658203125
0.9374999,0.05746084079146385,0.0347159244120121,9.73661994934082,-0.091552734375,0.30517578125,-0.1220703125
0.9424999000000001,0.05746084079146385,0.03411737456917763,9.743204116821289,-0.152587890625,0.091552734375,-0.18310546875
0.9474999000000001,0.060453593730926514,0.0347159244120121,9.743802070617676,-0.030517578125,0.152587890625,-0.244140625
0.9524999000000001,0.0628477931022644,0.04010287672281265,9.752182006835938,0.06103515625,-0.1220703125,-0.18310546875
0.9574999000000001,0.07422025501728058,0.04728548228740692,9.751583099365234,0.030517578125,-0.213623046875,-0.152587890625
0.9624999,0.09217676520347595,0.05506663769483566,9.754576683044434,-0.06103515625,-0.152587890625,-0.091552734375
0.9674999,0.1149216815829277,0.06823474913835526,9.756970405578613,-0.213623046875,0.18310546875,-0.030517578125
0.9724999,0.13347674906253815,0.07302315533161163,9.75637149810791,-0.457763671875,0.79345703125,-0.06103515625
0.9774999,0.1346738487482071,0.07242459803819656,9.754576683044434,-0.54931640625,1.03759765625,-0.030517578125
0.9824999,0.11133038252592087,0.06703764945268631,9.744999885559082,-0.48828125,0.457763671875,0.06103515625
0.9874999,0.07960720360279083,0.05626374110579491,9.736021041870117,-0.42724609375,-0.1220703125,0.06103515625
0.9924999,0.05267243832349777,0.04489128291606903,9.727641105651855,-0.30517578125,-0.457763671875,0.06103515625
0.9974999,0.04249707981944084,0.03890577703714371,9.725846290588379,-0.244140625,-0.42724609375,0.030517578125
1.0024999,0.050876785069704056,0.03411737456917763,9.725247383117676,-0.396728515625,-0.3662109375,0
1.0074999000000002,0.07900865375995636,0.03711012750864029,9.729436874389648,-0.274658203125,-0.244140625,0.1220703125
1.0124999000000001,0.11851298063993454,0.040701430290937424,9.743204116821289,-0.518798828125,0.152587890625,0.06103515625
1.0174999000000002,0.15502455830574036,0.04189852997660637,9.75517463684082,-0.79345703125,1.007080078125,0.06103515625
1.0224999000000001,0.17417816817760468,0.040701430290937424,9.765948295593262,-0.67138671875,1.556396484375,0
1.0274999,0.1646013706922531,0.03711012750864029,9.77253246307373,-0.54931640625,1.434326171875,-0.030517578125
1.0324999000000001,0.152031809091568,0.01975216343998909,9.768941879272461,-0.457763671875,1.068115234375,-0.213623046875
1.0374999,0.1388636976480484,0.0011971008498221636,9.765948295593262,-0.152587890625,1.52587890625,-0.274658203125
1.0424999000000001,0.1280897855758667,0.02274491637945175,9.75936508178711,0.030517578125,2.227783203125,-0.244140625
1.0474999,0.11611878126859665,0.046088382601737976,9.77013874053955,-0.42724609375,2.105712890625,0.1220703125
1.0524999000000002,0.1215057373046875,0.046088382601737976,9.7605619430542,-1.068115234375,1.8310546875,-0.42724609375
1.0574999,0.08619125932455063,0.07422025501728058,9.763554573059082,-0.640869140625,2.25830078125,-0.1220703125
1.0624999000000002,0.07422025501728058,0.06584054976701736,9.754576683044434,-0.274658203125,2.0751953125,0.335693359375
1.0674999,0.06165069341659546,0.033518824726343155,9.739013671875,-0.6103515625,1.64794921875,-0.3662109375
1.0724999000000002,0.046088382601737976,0.03651157766580582,9.732429504394531,-0.54931640625,1.220703125,-0.152587890625
1.0774999,0.041299980133771896,0.03711012750864029,9.730035781860352,-0.152587890625,1.434326171875,-0.1220703125
1.0824999000000002,0.047884032130241394,0.02513911761343479,9.728838920593262,-0.518798828125,1.5869140625,-0.42724609375
1.0874999,0.04668693244457245,0.02693476900458336,9.733627319335938,-0.579833984375,1.3427734375,-0.518798828125
1.0924999000000002,0.038307227194309235,0.0347159244120121,9.728838920593262,-0.1220703125,1.129150390625,-0.30517578125
1.0974999,0.023942016065120697,0.023942016065120697,9.72165584564209,0,0.67138671875,-0.1220703125
1.1024999000000002,0.010773907415568829,0.014365210197865963,9.710283279418945,-0.18310546875,-0.152587890625,-0.1220703125
1.1074999,0.0005985504249110818,0.01735796220600605,9.707290649414062,0.091552734375,-0.579833984375,-0.335693359375
1.1124999000000002,0.0017956512747332454,0.019153613597154617,9.712677955627441,0.518798828125,-0.79345703125,-0.152587890625
1.1174999,0.015562310814857483,0.01975216343998909,9.727043151855469,0.3662109375,-1.03759765625,-0.18310546875
1.1224999000000002,0.047884032130241394,0.03411737456917763,9.73781681060791,0.3662109375,-0.946044921875,-0.1220703125
1.1274999,0.12090718746185303,0.058059390634298325,9.759963035583496,0.1220703125,-0.518798828125,-0.213623046875
1.1324999000000002,0.20709845423698425,0.08200141042470932,9.770736694335938,-0.732421875,1.953125,0.06103515625
1.1374999000000001,0.284311443567276,0.09516951441764832,9.780313491821289,-1.77001953125,4.57763671875,0.18310546875
1.1424999000000002,0.314238965511322,0.09816227108240128,9.77791976928711,-1.89208984375,5.4931640625,0.030517578125
1.1474999000000001,0.2717418968677521,0.05386953800916672,9.795876502990723,-1.678466796875,5.37109375,0.091552734375
1.1524999000000002,0.13587094843387604,-0.3585317134857178,9.871891975402832,1.251220703125,2.5634765625,-2.197265625
1.1574999000000001,0.07900865375995636,0.1693897694349289,9.118317604064941,8.331298828125,15.380859375,-11.688232421875
1.1624999,-0.48602294921875,0.36152446269989014,8.79809284210205,-2.716064453125,3.84521484375,14.190673828125
1.1674999000000001,0.005386953707784414,0.6308721303939819,8.29590892791748,-1.312255859375,-11.23046875,-14.068603515625
1.1724999,-0.27234044671058655,0.9750386476516724,8.107964515686035,-3.631591796875,4.852294921875,1.556396484375
1.1774999000000002,-0.27234044671058655,0.9750386476516724,8.107964515686035,-3.631591796875,4.852294921875,1.556396484375
1.1824999,0.2346317619085312,0.5901707410812378,8.83819580078125,0.1220703125,10.986328125,1.77001953125
1.1874999000000002,0.3076549172401428,0.2214636504650116,9.202713012695312,-2.105712890625,7.171630859375,-0.946044921875
1.1924999,0.2513911724090576,0.05267243832349777,9.738415718078613,-1.64794921875,4.364013671875,-0.244140625
1.1974999000000002,0.028730420395731926,-0.08200141042470932,9.912593841552734,-0.54931640625,2.86865234375,-0.274658203125
1.2024999,-0.017956512048840523,-0.15143325924873352,9.951498985290527,-0.823974609375,2.44140625,-0.1220703125
1.2074999000000002,-0.16819266974925995,-0.152031809091568,9.944915771484375,-0.579833984375,2.593994140625,-0.18310546875
1.2124999,-0.16579847037792206,-0.11312603205442429,9.836577415466309,-0.1220703125,1.678466796875,-0.152587890625
1.2174999000000002,-0.2388216257095337,-0.07062894850969315,9.75936508178711,0.244140625,-0.79345703125,-0.244140625
1.2224999,-0.22924481332302094,-0.030526071786880493,9.672574996948242,0.335693359375,-2.44140625,-0.18310546875
1.2274999000000002,-0.2406172752380371,-0.005386953707784414,9.630077362060547,0.3662109375,-3.021240234375,-0.152587890625
1.2324999,-0.17178396880626678,0.016759412363171577,9.635464668273926,0.54931640625,-3.692626953125,-0.213623046875
1.2374999000000002,-0.10893617570400238,0.03232172131538391,9.665990829467773,0.701904296875,-4.0283203125,-0.030517578125
1.2424999,-0.02214636653661728,0.0454898327589035,9.718663215637207,0.3662109375,-3.387451171875,0.091552734375
1.2474999000000002,0.0065840547904372215,0.07122749835252762,9.753378868103027,0.274658203125,-3.11279296875,0.274658203125
1.2524999,0.017956512048840523,0.0694318488240242,9.77133560180664,0.42724609375,-3.936767578125,0.396728515625
1.2574999000000002,-0.03651157766580582,0.053270988166332245,9.753378868103027,0.91552734375,-5.401611328125,0.091552734375
1.2624999000000001,-0.10175357013940811,0.019153613597154617,9.716269493103027,1.0986328125,-6.89697265625,0.1220703125
1.2674999000000002,-0.17298106849193573,-0.0005985504249110818,9.683947563171387,1.556396484375,-8.30078125,0.06103515625
1.2724999000000001,-0.18974047899246216,-0.0520738884806633,9.654618263244629,2.105712890625,-9.613037109375,0
1.2774999000000002,-0.1951274424791336,-0.06763619929552078,9.643245697021484,2.685546875,-10.498046875,0.030517578125
1.2824999000000001,-0.15442600846290588,-0.09397241473197937,9.643844604492188,3.11279296875,-11.53564453125,0.457763671875
1.2874999,-0.0520738884806633,-0.09935937076807022,9.670180320739746,3.662109375,-12.20703125,-0.06103515625
1.2924999000000001,0.10474632680416107,-0.07541735470294952,9.734225273132324,3.90625,-11.016845703125,-0.18310546875
1.2974999,0.30885201692581177,-0.03890577703714371,9.815628051757812,3.47900390625,-7.537841796875,-0.6103515625
1.3024999000000002,0.47644615173339844,0.04489128291606903,9.905410766601562,2.62451171875,-3.326416015625,-0.823974609375
1.3074999,0.569819986820221,0.08319851011037827,9.955090522766113,2.166748046875,-1.678466796875,-0.885009765625
1.3124999000000002,0.5524620413780212,0.13347674906253815,9.962273597717285,1.922607421875,-1.068115234375,-0.701904296875
1.3174999,0.47644615173339844,0.16759411990642548,9.9371337890625,1.953125,-0.6103515625,-0.579833984375
1.3224999000000002,0.3998316824436188,0.1562216579914093,9.896432876586914,1.3427734375,0.9765625,-0.6103515625
1.3274999,0.32860419154167175,0.17896658182144165,9.867103576660156,0.48828125,2.74658203125,-0.18310546875
1.3324999000000002,0.26096799969673157,0.16400282084941864,9.830592155456543,0.18310546875,4.058837890625,-0.1220703125
1.3374999,0.1562216579914093,0.16879121959209442,9.791088104248047,-0.091552734375,3.72314453125,-0.030517578125
1.3424999000000002,0.025737667456269264,0.1562216579914093,9.724050521850586,-0.48828125,2.166748046875,-0.030517578125
1.3474999,-0.0999579206109047,0.14664486050605774,9.680954933166504,-0.335693359375,-0.274658203125,0.18310546875
1.3524999000000002,-0.17058686912059784,0.12449848651885986,9.654019355773926,-0.30517578125,-1.953125,0.06103515625
1.3574999,-0.17537526786327362,0.09696517139673233,9.642647743225098,-0.3662109375,-2.685546875,0.274658203125
1.3624999000000002,-0.1215057373046875,0.08319851011037827,9.693524360656738,-0.244140625,-2.716064453125,0.152587890625
1.3674999,-0.05147533491253853,0.07422025501728058,9.701904296875,-0.732421875,-2.593994140625,0.244140625
1.3724999000000002,0.04489128291606903,0.0999579206109047,9.743802070617676,-0.6103515625,-3.021240234375,0.457763671875
1.3774999,0.10474632680416107,0.12749123573303223,9.77133560180664,-0.335693359375,-3.692626953125,1.77001953125
1.3824999000000002,0.1693897694349289,0.13826514780521393,9.79408073425293,-1.312255859375,-3.662109375,3.692626953125
1.3874999000000001,0.19393034279346466,0.10594342648983002,9.797672271728516,-2.044677734375,-2.685546875,2.227783203125
1.3924999000000002,0.1430535465478897,0.047884032130241394,9.785101890563965,-1.007080078125,-3.204345703125,2.5634765625
1.3974999000000001,0.07242459803819656,-0.033518824726343155,9.749189376831055,0.244140625,-4.638671875,1.46484375
1.4024999000000002,-0.02454056777060032,-0.076015904545784,9.70429801940918,0.6103515625,-6.53076171875,0.701904296875
1.4074999000000001,-0.07422025501728058,-0.12449848651885986,9.694721221923828,1.28173828125,-7.9345703125,0.701904296875
1.4124999,-0.06883329898118973,-0.12689268589019775,9.676764488220215,1.983642578125,-7.4462890625,0.274658203125
1.4174999000000001,-0.028131870552897453,-0.19213469326496124,9.665990829467773,3.143310546875,-7.415771484375,0.244140625
1.4224999,0.02753331884741783,-0.16579847037792206,9.668983459472656,4.94384765625,-8.331298828125,0.18310546875
1.4274999000000002,0.08619125932455063,-0.21787235140800476,9.62828254699707,6.134033203125,-9.674072265625,1.373291015625
1.4324999,0.09217676520347595,-0.11013327538967133,9.657610893249512,6.805419921875,-10.498046875,2.8076171875
1.4374999000000002,0.09516951441764832,-0.07062894850969315,9.659406661987305,6.53076171875,-10.162353515625,0.762939453125
1.4424999,0.07003039866685867,0.05985504388809204,9.733028411865234,6.34765625,-10.894775390625,-0.67138671875
1.4474999000000002,0.10354922711849213,0.14365209639072418,9.799467086791992,5.523681640625,-11.077880859375,-0.152587890625
1.4524999,0.19213469326496124,0.22505496442317963,9.837775230407715,4.058837890625,-8.636474609375,0.54931640625
1.4574999000000002,0.35913026332855225,0.2621650993824005,9.860519409179688,2.685546875,-5.401611328125,-0.18310546875
1.4624999,0.5363011956214905,0.28730419278144836,9.821015357971191,2.0751953125,-1.800537109375,-0.152587890625
1.4674999000000002,0.6829460263252258,0.32022446393966675,9.80904483795166,0.335693359375,1.617431640625,-0.701904296875
1.4724999,0.6380547285079956,0.27653029561042786,9.757569313049316,-1.03759765625,4.45556640625,-0.6103515625
1.4774999000000002,0.4920084476470947,0.2472013235092163,9.747393608093262,-1.03759765625,2.25830078125,-0.48828125
1.4824999,0.25258827209472656,0.1346738487482071,9.715670585632324,0.244140625,-2.0751953125,0.18310546875
1.4874999000000002,0.090979665517807,0.050876785069704056,9.706093788146973,1.220703125,-3.814697265625,0.030517578125
1.4924999,0.06344634294509888,0.033518824726343155,9.707889556884766,1.312255859375,-1.251220703125,0.244140625
1.4974999000000002,0.13587094843387604,0.020350715145468712,9.723451614379883,-0.06103515625,1.983642578125,-0.518798828125
1.5024999,0.17238251864910126,0.09217676520347595,9.744400978088379,-0.457763671875,2.13623046875,-0.579833984375
1.5074999000000002,0.1777694821357727,0.10833762586116791,9.761758804321289,-0.30517578125,-1.03759765625,-0.18310546875
1.5124999000000001,0.1388636976480484,0.12030863761901855,9.762357711791992,0.213623046875,-2.74658203125,0.335693359375
1.5174999000000002,0.17537526786327362,0.08499415963888168,9.75397777557373,0.42724609375,-1.708984375,0.30517578125
1.5224999000000001,0.24361002445220947,0.10534487664699554,9.742605209350586,0.8544921875,0.91552734375,0
1.5274999000000002,0.28790274262428284,0.09038111567497253,9.734824180603027,-0.06103515625,2.471923828125,-0.79345703125
1.5324999000000001,0.23104046285152435,0.11192893236875534,9.725247383117676,-0.18310546875,0.823974609375,-0.518798828125
1.5374999000000003,0.16160862147808075,0.12210428714752197,9.761159896850586,-0.213623046875,-2.5634765625,-0.274658203125
1.5424999000000001,0.11611878126859665,0.07661445438861847,9.738415718078613,0.213623046875,-3.204345703125,0.579833984375
1.5474999,0.11611878126859665,0.07661445438861847,9.738415718078613,0.213623046875,-3.204345703125,0.579833984375
1.5524999000000002,0.1885433793067932,0.060453593730926514,9.761159896850586,0.67138671875,-0.579833984375,0.091552734375
1.5574999,0.27653029561042786,0.061052143573760986,9.732429504394531,0.732421875,2.655029296875,-0.3662109375
1.5624999000000002,0.2890998423099518,0.08379705995321274,9.748590469360352,-0.54931640625,2.99072265625,-0.9765625
1.5674999,0.22685061395168304,0.10354922711849213,9.725846290588379,-0.732421875,-0.67138671875,-0.335693359375
1.5724999000000002,0.13407529890537262,0.09277531504631042,9.750386238098145,-0.213623046875,-3.72314453125,0.457763671875
1.5774999,0.15682020783424377,0.03172317147254944,9.734824180603027,0.885009765625,-2.62451171875,0.54931640625
1.5824999000000002,0.23762452602386475,0.05626374110579491,9.713275909423828,1.46484375,1.312255859375,-0.213623046875
1.5874999,0.284311443567276,0.047884032130241394,9.741408348083496,-0.640869140625,3.7841796875,-1.068115234375
1.5924999000000002,0.24899697303771973,0.11791443079710007,9.713275909423828,-1.15966796875,0.762939453125,-0.42724609375
1.5974999,0.16579847037792206,0.10714052617549896,9.743802070617676,-0.579833984375,-3.60107421875,0.518798828125
1.6024999000000002,0.18495208024978638,0.05985504388809204,9.715670585632324,1.251220703125,-3.173828125,0.732421875
1.6074999,0.24480712413787842,0.12270283699035645,9.725247383117676,1.89208984375,1.220703125,-0.457763671875
1.6124999000000002,0.2819172441959381,0.07481880486011505,9.732429504394531,-0.67138671875,4.058837890625,-1.190185546875
1.6174999,0.23762452602386475,0.17178396880626678,9.75637149810791,-1.800537109375,0.640869140625,-0.3662109375
1.6224999000000002,0.15322890877723694,0.08439560979604721,9.75936508178711,-0.457763671875,-3.814697265625,0.762939453125
1.6274999,0.14604631066322327,0.04489128291606903,9.764751434326172,2.044677734375,-3.0517578125,0.42724609375
1.6324999000000002,0.22864626348018646,0.09397241473197937,9.749189376831055,1.708984375,2.01416015625,-0.91552734375
1.6374999000000001,0.2388216257095337,0.11552023142576218,9.756970405578613,-1.64794921875,4.08935546875,-1.03759765625
1.6424999000000002,0.20889410376548767,0.19033902883529663,9.766547203063965,-1.953125,-0.48828125,0.030517578125
1.6474999000000001,0.1586158573627472,0.10175357013940811,9.750985145568848,0.335693359375,-4.21142578125,1.007080078125
1.6524999000000002,0.18136078119277954,0.07481880486011505,9.740211486816406,3.23486328125,-1.64794921875,-0.091552734375
1.6574999000000001,0.2148796021938324,0.028730420395731926,9.739013671875,0.3662109375,3.60107421875,-1.28173828125
1.6624999000000003,0.23343466222286224,0.12629413604736328,9.756970405578613,-2.471923828125,2.044677734375,-0.579833984375
1.6674999000000001,0.2041056901216507,0.06883329898118973,9.721057891845703,-1.64794921875,-3.082275390625,1.03759765625
1.6724999,0.19871874153614044,0.13168109953403473,9.72285270690918,2.50244140625,-3.35693359375,0.885009765625
1.6774999000000002,0.22505496442317963,0.05626374110579491,9.692327499389648,2.349853515625,2.105712890625,-1.3427734375
1.6824999,0.21847090125083923,0.16879121959209442,9.708487510681152,-1.556396484375,3.753662109375,-1.312255859375
1.6874999000000002,0.1885433793067932,0.12868833541870117,9.739013671875,-2.777099609375,-1.312255859375,0.823974609375
1.6924999,0.1646013706922531,0.08978256583213806,9.732429504394531,0.823974609375,-4.486083984375,2.01416015625
1.6974999000000002,0.2082955539226532,0.04189852997660637,9.754576683044434,3.662109375,0.335693359375,-1.068115234375
1.7024999,0.22505496442317963,0.03172317147254944,9.731831550598145,-0.67138671875,4.302978515625,-1.953125
1.7074999000000002,0.23523031175136566,0.09397241473197937,9.752182006835938,-2.86865234375,0.396728515625,0.67138671875
1.7124999,0.22445641458034515,0.06224924325942993,9.750386238098145,0.1220703125,-4.2724609375,1.922607421875
1.7174999000000002,0.22385786473751068,0.14245499670505524,9.763554573059082,2.74658203125,-0.79345703125,-0.946044921875
1.7224999,0.2172738015651703,0.07302315533161163,9.754576683044434,-0.18310546875,4.0283203125,-1.861572265625
1.7274999000000002,0.21667525172233582,0.08619125932455063,9.75397777557373,-3.082275390625,0.79345703125,0.640869140625
1.7324999,0.19632454216480255,0.12749123573303223,9.75517463684082,1.434326171875,-3.7841796875,1.3427734375
1.7374999000000002,0.18914192914962769,0.08738835901021957,9.754576683044434,2.105712890625,-0.91552734375,-1.3427734375
1.7424999,0.17537526786327362,0.12389993667602539,9.758167266845703,-0.8544921875,3.41796875,-1.52587890625
1.7474999000000002,0.19153612852096558,0.17717093229293823,9.762955665588379,-1.5869140625,0.06103515625,1.007080078125
1.7524999,0.2388216257095337,0.12090718746185303,9.716269493103027,-0.244140625,-3.662109375,1.556396484375
1.7574999000000002,0.20709845423698425,0.17896658182144165,9.761758804321289,2.25830078125,0.823974609375,-1.678466796875
1.7624999000000001,0.22445641458034515,0.10594342648983002,9.733627319335938,-0.152587890625,3.448486328125,-1.8310546875
1.7674999000000002,0.20889410376548767,0.020949264988303185,9.741408348083496,-2.105712890625,-1.495361328125,1.8310546875
1.7724999000000001,0.23343466222286224,0.08140286058187485,9.756970405578613,1.46484375,-3.814697265625,0.885009765625
1.7774999000000002,0.19931729137897491,0.06643909960985184,9.753378868103027,1.556396484375,1.861572265625,-2.01416015625
1.7824999000000001,0.21009120345115662,0.04908113554120064,9.741408348083496,-2.166748046875,2.86865234375,-0.8544921875
1.7874999000000003,0.23343466222286224,0.12689268589019775,9.742006301879883,-0.54931640625,-2.5634765625,2.0751953125
1.7924999000000001,0.23702596127986908,0.07900865375995636,9.741408348083496,1.77001953125,-2.288818359375,-0.48828125
1.7974999,0.1933317929506302,0.1693897694349289,9.742006301879883,0.91552734375,3.082275390625,-2.105712890625
1.8024999000000002,0.21428105235099792,0.15921440720558167,9.724648475646973,-1.64794921875,0.885009765625,0.823974609375
1.8074999,0.24480712413787842,0.08798690885305405,9.720458984375,-1.40380859375,-3.662109375,2.50244140625
1.8124999000000002,0.19153612852096558,0.07781155407428741,9.762955665588379,2.25830078125,0.640869140625,-1.373291015625
1.8174999,0.1843535304069519,0.1041477769613266,9.758167266845703,1.129150390625,3.387451171875,-3.082275390625
1.8224999000000002,0.22924481332302094,0.023343466222286224,9.742006301879883,-2.86865234375,-1.678466796875,2.410888671875
1.8274999,0.21368250250816345,0.12270283699035645,9.746794700622559,0.274658203125,-2.899169921875,3.143310546875
1.8324999000000002,0.21308395266532898,0.15263035893440247,9.747393608093262,2.197265625,2.74658203125,-3.509521484375
1.8374999,0.1999158412218094,0.1149216815829277,9.72285270690918,-1.556396484375,1.46484375,-1.03759765625
1.8424999000000002,0.24480712413787842,0.01975216343998909,9.717466354370117,-1.0986328125,-3.265380859375,3.96728515625
1.8474999,0.18974047899246216,0.12030863761901855,9.79527759552002,2.288818359375,0.274658203125,-0.8544921875
1.8524999000000002,0.17836803197860718,0.09576806426048279,9.751583099365234,0.213623046875,2.50244140625,-3.60107421875
1.8574999,0.24121582508087158,0.053270988166332245,9.718064308166504,-2.25830078125,-1.89208984375,3.35693359375
1.8624999000000002,0.22206220030784607,0.09457096457481384,9.730035781860352,1.28173828125,-1.617431640625,2.197265625
1.8674999,0.19931729137897491,0.14425064623355865,9.68694019317627,1.5869140625,2.716064453125,-4.547119140625
1.8724999000000002,0.22864626348018646,0.058059390634298325,9.667786598205566,-2.105712890625,0.152587890625,0.640869140625
1.8774999,0.23343466222286224,0.033518824726343155,9.678560256958008,-0.152587890625,-2.9296875,4.57763671875
1.8824999000000002,0.19393034279346466,0.12509703636169434,9.766547203063965,2.105712890625,1.77001953125,-3.11279296875
1.8874999000000001,0.1975216418504715,0.08200141042470932,9.750386238098145,-1.190185546875,1.800537109375,-2.50244140625
1.8924999000000002,0.24420857429504395,0.021547814831137657,9.756970405578613,-1.0986328125,-2.838134765625,4.974365234375
1.8974999000000001,0.20051439106464386,0.13108254969120026,9.832986831665039,2.01416015625,0.18310546875,-0.701904296875
1.9024999000000002,0.19572599232196808,0.1041477769613266,9.785700798034668,-0.396728515625,2.288818359375,-4.302978515625
1.9074999000000001,0.2645592987537384,0.04249707981944084,9.725846290588379,-1.739501953125,-2.13623046875,4.150390625
1.9124999000000003,0.2645592987537384,0.04249707981944084,9.725846290588379,-1.739501953125,-2.13623046875,4.150390625
1.9174999000000001,0.2059013396501541,0.10295066982507706,9.776124000549316,1.5869140625,-0.9765625,1.922607421875
1.9224999,0.20290859043598175,0.1562216579914093,9.713874816894531,0.518798828125,2.593994140625,-5.31005859375
1.9274999000000002,0.2388216257095337,0.08080431073904037,9.655815124511719,-1.861572265625,-0.9765625,2.716064453125
1.9324999,0.21547815203666687,0.12509703636169434,9.709685325622559,1.251220703125,-2.044677734375,3.997802734375
1.9374999000000002,0.1885433793067932,0.1825578808784485,9.73542308807373,0.9765625,2.410888671875,-5.4931640625
1.9424999,0.22744916379451752,0.08439560979604721,9.68574333190918,-1.89208984375,0.030517578125,0.640869140625
1.9474999000000002,0.20051439106464386,0.07841010391712189,9.746794700622559,1.007080078125,-2.655029296875,5.31005859375
1.9524999,0.15502455830574036,0.13706804811954498,9.785101890563965,1.129150390625,1.739501953125,-4.852294921875
1.9574999000000002,0.20051439106464386,0.060453593730926514,9.718064308166504,-1.953125,0.67138671875,-0.8544921875
1.9624999,0.18495208024978638,0.05626374110579491,9.753378868103027,0.67138671875,-2.716064453125,6.28662109375
1.9674999000000002,0.1693897694349289,0.14185644686222076,9.808445930480957,1.28173828125,1.556396484375,-4.180908203125
1.9724999,0.228047713637352,0.08439560979604721,9.727641105651855,-1.983642578125,1.220703125,-2.716064453125
1.9774999000000002,0.22744916379451752,0.06584054976701736,9.75517463684082,0.885009765625,-2.74658203125,7.14111328125
1.9824999,0.2017114907503128,0.1562216579914093,9.818621635437012,1.495361328125,1.28173828125,-3.5400390625
1.9874999000000002,0.24361002445220947,0.076015904545784,9.727641105651855,-2.288818359375,1.495361328125,-3.90625
1.9924999,0.22505496442317963,0.05925649031996727,9.751583099365234,1.03759765625,-2.9296875,7.50732421875
1.9974999000000002,0.18375498056411743,0.15442600846290588,9.80904483795166,1.495361328125,1.0986328125,-2.86865234375
2.0024999,0.23523031175136566,0.061052143573760986,9.704896926879883,-2.410888671875,1.8310546875,-4.852294921875
2.0074999,0.20889410376548767,0.0694318488240242,9.73542308807373,1.190185546875,-2.899169921875,7.843017578125
2.0124999000000003,0.1801636815071106,0.14844051003456116,9.791088104248047,1.46484375,0.885009765625,-2.960205078125
2.0174999000000002,0.24600422382354736,0.06165069341659546,9.691728591918945,-2.685546875,1.800537109375,-5.584716796875
2.0224999,0.21128830313682556,0.08439560979604721,9.734225273132324,1.678466796875,-2.86865234375,8.514404296875
2.0274999,0.17956513166427612,0.1562216579914093,9.806650161743164,1.251220703125,1.03759765625,-3.143310546875
2.0324999000000004,0.27413609623908997,0.0628477931022644,9.691129684448242,-2.99072265625,1.678466796875,-5.706787109375
2.0374999000000003,0.20290859043598175,0.10175357013940811,9.75936508178711,2.197265625,-2.960205078125,9.124755859375
2.0424999,0.19572599232196808,0.15322890877723694,9.79647445678711,0.885009765625,1.190185546875,-4.119873046875
2.0474999,0.292691171169281,0.04489128291606903,9.662399291992188,-2.99072265625,1.52587890625,-5.279541015625
2.0524999,0.17537526786327362,0.10654197633266449,9.756970405578613,2.777099609375,-2.9296875,9.70458984375
2.0574999000000003,0.20231004059314728,0.14903905987739563,9.766547203063965,0.1220703125,1.5869140625,-5.889892578125
2.0624999,0.2801215946674347,0.01735796220600605,9.64923095703125,-2.777099609375,1.15966796875,-3.7841796875
2.0674999,0.14006079733371735,0.1346738487482071,9.794678688049316,3.173828125,-2.593994140625,9.735107421875
2.0724999,0.2082955539226532,0.12928688526153564,9.759963035583496,-1.03759765625,1.739501953125,-7.843017578125
2.0774999000000003,0.2783259451389313,0.0011971008498221636,9.674370765686035,-1.953125,0.030517578125,-1.190185546875
2.0824999,0.16340427100658417,0.1759738177061081,9.822212219238281,3.5400390625,-1.89208984375,8.9111328125
2.0874999,0.2669534981250763,0.08559270948171616,9.737217903137207,-2.166748046875,2.197265625,-9.6435546875
2.0924999,0.29209262132644653,0.0011971008498221636,9.691129684448242,-0.732421875,-1.15966796875,2.532958984375
2.0974999000000003,0.12988543510437012,0.16759411990642548,9.86231517791748,3.11279296875,-0.9765625,6.28662109375
2.1024999,0.25737667083740234,0.014365210197865963,9.70429801940918,-3.204345703125,2.410888671875,-10.31494140625
2.1074999,0.1867477297782898,0.04249707981944084,9.758766174316406,0.91552734375,-2.3193359375,6.34765625
2.1124999,0.11791443079710007,0.1885433793067932,9.841365814208984,2.0751953125,0.213623046875,1.617431640625
2.1174999000000003,0.28131869435310364,0.03651157766580582,9.6618013381958,-3.41796875,2.3193359375,-8.9111328125
2.1224999,0.12928688526153564,0.14425064623355865,9.789292335510254,2.593994140625,-2.62451171875,9.307861328125
2.1274999,0.17298106849193573,0.20470423996448517,9.783905029296875,0.18310546875,1.28173828125,-3.7841796875
2.1324999,0.28311434388160706,0.03411737456917763,9.633668899536133,-2.716064453125,0.823974609375,-4.791259765625
2.1374999000000003,0.1388636976480484,0.23104046285152435,9.818621635437012,3.41796875,-2.3193359375,9.796142578125
2.1424999000000002,0.2687491476535797,0.14784196019172668,9.70310115814209,-1.922607421875,1.953125,-8.453369140625
2.1474999,0.292691171169281,0.046088382601737976,9.680954933166504,-0.762939453125,-0.701904296875,1.129150390625
2.1524999,0.13108254969120026,0.20769700407981873,9.86889934539795,3.0517578125,-1.007080078125,6.317138671875
2.1574999000000004,0.30526071786880493,-0.0011971008498221636,9.673172950744629,-3.35693359375,2.105712890625,-9.8876953125
2.1624999000000003,0.1735796183347702,0.03292027488350868,9.78869342803955,1.861572265625,-2.44140625,7.049560546875
2.1674999,0.14425064623355865,0.15562310814857483,9.816226959228516,1.068115234375,0.457763671875,-0.48828125
2.1724999,0.29628247022628784,-0.02274491637945175,9.618106842041016,-3.082275390625,1.3427734375,-6.7138671875
2.1774999000000004,0.11971008777618408,0.2106897532939911,9.82640266418457,3.35693359375,-2.349853515625,9.58251953125
2.1824999000000003,0.2472013235092163,0.17058686912059784,9.701305389404297,-1.5869140625,1.678466796875,-7.4462890625
2.1874999,0.28371289372444153,0.06165069341659546,9.691728591918945,-0.823974609375,-0.48828125,0.213623046875
2.1924999,0.12749123573303223,0.24779987335205078,9.909601211547852,2.9296875,-0.946044921875,6.16455078125
2.1974999,0.333991140127182,0.026336219161748886,9.689932823181152,-3.509521484375,2.044677734375,-9.613037109375
2.2024999000000003,0.152031809091568,0.09636662155389786,9.86351203918457,2.197265625,-2.44140625,7.32421875
2.2074999,0.1801636815071106,0.1933317929506302,9.854534149169922,0.3662109375,0.8544921875,-1.953125
2.2124999,0.2950853705406189,-0.0071826050989329815,9.64564037322998,-2.593994140625,1.007080078125,-4.94384765625
2.2174999,0.10773907601833344,0.23702596127986908,9.883264541625977,3.448486328125,-1.953125,8.880615234375
2.2224999000000003,0.304063618183136,0.09457096457481384,9.6618013381958,-2.685546875,1.89208984375,-8.544921875
2.2274999,0.2256535142660141,0.07302315533161163,9.721057891845703,0.67138671875,-1.190185546875,3.5400390625
2.2324999,0.13407529890537262,0.23104046285152435,9.853935241699219,1.617431640625,-0.1220703125,2.62451171875
2.2374999,0.32860419154167175,-0.02214636653661728,9.59596061706543,-3.2958984375,1.64794921875,-7.6904296875
2.2424999000000003,0.12449848651885986,0.20290859043598175,9.838972091674805,3.47900390625,-2.166748046875,8.85009765625
2.2474999,0.25737667083740234,0.13287819921970367,9.686341285705566,-1.8310546875,1.40380859375,-6.591796875
2.2524999,0.26396074891090393,0.03292027488350868,9.673771858215332,-0.213623046875,-0.54931640625,0.54931640625
2.2574999,0.12689268589019775,0.2298433631658554,9.901819229125977,2.655029296875,-0.8544921875,5.126953125
2.2624999000000003,0.33698388934135437,-0.040701430290937424,9.606734275817871,-3.5400390625,1.708984375,-8.36181640625
2.2674999000000002,0.14365209639072418,0.12090718746185303,9.870096206665039,3.11279296875,-1.983642578125,8.1787109375
2.2724999,0.22924481332302094,0.12090718746185303,9.731232643127441,-1.3427734375,1.15966796875,-4.82177734375
2.2774999,0.22924481332302094,0.12090718746185303,9.731232643127441,-1.3427734375,1.15966796875,-4.82177734375
2.2824999000000004,0.26396074891090393,-0.04908113554120064,9.656414031982422,-0.8544921875,0.030517578125,-0.91552734375
2.2874999000000003,0.0999579206109047,0.19812019169330597,9.916783332824707,2.86865234375,-0.8544921875,5.67626953125
2.2924999,0.3363853394985199,-0.04249707981944084,9.581595420837402,-3.60107421875,1.77001953125,-8.544921875
2.2974999,0.1364694982767105,0.12449848651885986,9.860519409179688,3.204345703125,-1.983642578125,7.6904296875
2.3024999000000004,0.23044191300868988,0.16579847037792206,9.739612579345703,-1.251220703125,1.190185546875,-4.33349609375
2.3074999000000003,0.2645592987537384,-0.005386953707784414,9.651026725769043,-0.640869140625,0.030517578125,-0.946044921875
2.3124999,0.10474632680416107,0.2519897222518921,9.93474006652832,3.021240234375,-0.946044921875,5.645751953125
2.3174999,0.3429693877696991,-0.021547814831137657,9.576208114624023,-3.662109375,1.708984375,-8.209228515625
2.3224999,0.13407529890537262,0.16519992053508759,9.856329917907715,3.448486328125,-2.01416015625,7.6904296875
2.3274999000000003,0.25258827209472656,0.14185644686222076,9.709086418151855,-1.922607421875,1.03759765625,-4.8828125
2.3324999,0.2585737705230713,-0.0017956512747332454,9.62947940826416,-0.457763671875,-0.213623046875,-0.213623046875
2.3374999,0.11552023142576218,0.24420857429504395,9.906009674072266,2.38037109375,-0.701904296875,4.33349609375
2.3424999,0.3579331636428833,-0.04489128291606903,9.550470352172852,-3.692626953125,1.678466796875,-7.720947265625
2.3474999000000003,0.10833762586116791,0.21308395266532898,9.873687744140625,3.814697265625,-1.8310546875,8.087158203125
2.3524999,0.2849099934101105,0.1041477769613266,9.689932823181152,-2.74658203125,1.52587890625,-6.072998046875
2.3574999,0.19033902883529663,0.0454898327589035,9.683348655700684,0.91552734375,-0.640869140625,1.800537109375
2.3624999,0.1149216815829277,0.22445641458034515,9.907206535339355,1.46484375,-0.457763671875,2.38037109375
2.3674999000000003,0.3166331648826599,-0.07541735470294952,9.560646057128906,-3.0517578125,1.190185546875,-6.103515625
2.3724999,0.07003039866685867,0.20530278980731964,9.929352760314941,3.814697265625,-1.708984375,7.8125
2.3774999,0.3519476354122162,0.01735796220600605,9.642048835754395,-3.662109375,1.46484375,-7.232666015625
2.3824999,0.14664486050605774,0.06823474913835526,9.764751434326172,2.532958984375,-1.251220703125,4.669189453125
2.3874999000000003,0.20949265360832214,0.16819266974925995,9.876680374145508,-0.335693359375,0.42724609375,-0.946044921875
2.3924999000000002,0.2902969419956207,-0.07841010391712189,9.583989143371582,-1.556396484375,0.640869140625,-3.082275390625
2.3974999,0.10115502029657364,0.22625206410884857,9.964069366455078,3.143310546875,-1.28173828125,6.195068359375
2.4024999,0.3860650360584259,-0.05027823522686958,9.542689323425293,-4.180908203125,1.5869140625,-7.568359375
2.4074999000000004,0.11971008777618408,0.20051439106464386,9.816825866699219,3.936767578125,-1.5869140625,6.8359375
2.4124999000000003,0.28550854325294495,0.14425064623355865,9.704896926879883,-2.74658203125,1.068115234375,-4.638671875
2.4174999,0.1909375786781311,0.07481880486011505,9.619902610778809,0.885009765625,-0.18310546875,1.220703125
2.4224999,0.1149216815829277,0.27712884545326233,9.912593841552734,1.190185546875,-0.335693359375,2.3193359375
2.4274999000000004,0.3130418658256531,-0.047884032130241394,9.527127265930176,-2.8076171875,1.068115234375,-5.126953125
2.4324999000000003,0.07182604819536209,0.24181437492370605,9.963470458984375,4.0283203125,-1.64794921875,7.2021484375
2.4374999,0.38067805767059326,-0.016759412363171577,9.621698379516602,-4.180908203125,1.28173828125,-7.110595703125
2.4424999,0.15083470940589905,0.11133038252592087,9.810839653015137,3.662109375,-1.312255859375,5.279541015625
2.4474999,0.26755204796791077,0.11611878126859665,9.830592155456543,-1.983642578125,0.8544921875,-3.021240234375
2.4524999000000003,0.25019407272338867,-0.02693476900458336,9.618705749511719,0.396728515625,0.030517578125,-0.335693359375
2.4574999,0.11971008777618408,0.23822307586669922,9.943120002746582,1.800537109375,-0.79345703125,3.47900390625
2.4624999,0.35434186458587646,-0.08140286058187485,9.532513618469238,-3.41796875,1.007080078125,-5.55419921875
2.4674999,0.08080431073904037,0.2406172752380371,9.916184425354004,4.2724609375,-1.434326171875,6.591796875
2.4724999000000003,0.38127660751342773,-0.002394201699644327,9.627084732055664,-4.39453125,1.312255859375,-6.683349609375
2.4774999,0.12509703636169434,0.12928688526153564,9.756970405578613,3.692626953125,-1.220703125,4.8828125
2.4824999,0.25079262256622314,0.12629413604736328,9.821015357971191,-2.25830078125,0.640869140625,-2.8076171875
2.4874999,0.20350714027881622,-0.0077811554074287415,9.601945877075195,0.48828125,-0.091552734375,-0.30517578125
2.4924999000000003,0.0999579206109047,0.25498247146606445,9.939528465270996,1.434326171875,-0.79345703125,2.777099609375
2.4974999,0.3214215636253357,-0.07302315533161163,9.526528358459473,-3.082275390625,1.129150390625,-5.37109375
2.5024999,0.06524199992418289,0.25677812099456787,9.929951667785645,4.364013671875,-1.251220703125,6.16455078125
2.5074999,0.3926490843296051,-0.04010287672281265,9.610325813293457,-4.486083984375,1.251220703125,-6.53076171875
2.5124999000000003,0.1041477769613266,0.1777694821357727,9.782708168029785,4.33349609375,-1.312255859375,5.401611328125
2.5174999000000002,0.3034650683403015,0.10055647045373917,9.803657531738281,-3.387451171875,0.9765625,-3.96728515625
2.5224999,0.15921440720558167,0.07242459803819656,9.641449928283691,1.8310546875,-0.213623046875,1.373291015625
2.5274999,0.15981295704841614,0.24241292476654053,9.939528465270996,0.06103515625,0.030517578125,0.885009765625
2.5324999000000004,0.28311434388160706,-0.07242459803819656,9.572616577148438,-1.800537109375,0.701904296875,-3.41796875
2.5374999000000003,0.08319851011037827,0.26994624733924866,9.945513725280762,3.23486328125,-1.068115234375,4.852294921875
2.5424999,0.39564183354377747,-0.09457096457481384,9.546280860900879,-4.33349609375,1.251220703125,-6.256103515625
2.5474999,0.06404489278793335,0.2106897532939911,9.806051254272461,4.547119140625,-1.28173828125,6.103515625
2.5524999000000004,0.3770867586135864,-0.010175357572734356,9.643844604492188,-4.425048828125,1.007080078125,-5.43212890625
2.5574999000000003,0.10714052617549896,0.1173158809542656,9.660603523254395,3.72314453125,-0.762939453125,3.936767578125
2.5624999,0.25677812099456787,0.11611878126859665,9.813833236694336,-2.593994140625,0.518798828125,-2.410888671875
2.5674999,0.1975216418504715,0,9.586981773376465,0.823974609375,-0.06103515625,-0.274658203125
2.5724999,0.1364694982767105,0.22864626348018646,9.932345390319824,0.823974609375,-0.54931640625,1.953125
2.5774999000000003,0.3100491166114807,-0.10175357013940811,9.566033363342285,-2.227783203125,0.640869140625,-3.997802734375
2.5824999,0.07900865375995636,0.27413609623908997,9.931148529052734,3.631591796875,-0.885009765625,5.096435546875
2.5874999,0.395043283700943,-0.08738835901021957,9.588179588317871,-4.39453125,0.9765625,-5.859375
2.5924999,0.0454898327589035,0.243011474609375,9.82759952545166,4.94384765625,-1.129150390625,5.79833984375
2.5974999000000003,0.3705027103424072,-0.013168109580874443,9.698312759399414,-4.669189453125,0.946044921875,-5.279541015625
2.6024999,0.08200141042470932,0.13706804811954498,9.700108528137207,4.180908203125,-0.885009765625,3.96728515625
2.6074999,0.26815059781074524,0.08319851011037827,9.82759952545166,-2.777099609375,0.54931640625,-2.655029296875
2.6124999,0.1586158573627472,-0.002992752008140087,9.610923767089844,1.739501953125,-0.18310546875,0.54931640625
2.6174999000000003,0.15741875767707825,0.19692309200763702,9.90361499786377,0.030517578125,-0.30517578125,0.732421875
2.6224999,0.2645592987537384,-0.09816227108240128,9.57201862335205,-1.5869140625,0.54931640625,-2.99072265625
2.6274999,0.09935937076807022,0.28131869435310364,9.915586471557617,2.960205078125,-0.885009765625,4.058837890625
2.6324999,0.395043283700943,-0.08259996026754379,9.569623947143555,-3.72314453125,0.9765625,-5.096435546875
2.6374999000000003,0.08379705995321274,0.2968810200691223,9.86650562286377,4.608154296875,-0.91552734375,5.340576171875
2.6424999000000002,0.4255693554878235,-0.0293289702385664,9.642647743225098,-5.0048828125,1.15966796875,-5.889892578125
2.6474999,0.4255693554878235,-0.0293289702385664,9.642647743225098,-5.0048828125,1.15966796875,-5.889892578125
2.6524999,0.06165069341659546,0.22385786473751068,9.763554573059082,4.94384765625,-1.129150390625,5.096435546875
2.6574999000000004,0.35913026332855225,0.025737667456269264,9.755773544311523,-4.302978515625,0.701904296875,-4.2724609375
2.6624999000000003,0.09397241473197937,0.1173158809542656,9.654019355773926,3.509521484375,-0.67138671875,2.9296875
2.6674999,0.25019407272338867,0.12509703636169434,9.844358444213867,-2.471923828125,0.30517578125,-1.861572265625
2.6724999,0.16998831927776337,0.002992752008140087,9.623494148254395,1.220703125,0,0.1220703125
2.6774999000000004,0.152031809091568,0.22505496442317963,9.913191795349121,0.274658203125,-0.335693359375,1.129150390625
2.6824999000000003,0.26755204796791077,-0.08559270948171616,9.611522674560547,-1.434326171875,0.42724609375,-2.655029296875
2.6874999,0.09935937076807022,0.2890998423099518,9.914987564086914,2.593994140625,-0.732421875,3.47900390625
2.6924999,0.38127660751342773,-0.10055647045373917,9.57979965209961,-3.84521484375,0.885009765625,-4.8828125
2.6974999,0.08619125932455063,0.3148375153541565,9.854534149169922,4.486083984375,-1.0986328125,4.913330078125
2.7024999000000003,0.4273650050163269,-0.058059390634298325,9.61571216583252,-4.82177734375,0.885009765625,-5.18798828125
2.7074999,0.060453593730926514,0.26156654953956604,9.81024169921875,4.974365234375,-0.885009765625,4.974365234375
2.7124999,0.38905778527259827,-0.014365210197865963,9.733028411865234,-5.096435546875,0.9765625,-4.974365234375
2.7174999,0.05267243832349777,0.18914192914962769,9.728240013122559,4.33349609375,-0.762939453125,3.814697265625
2.7224999000000003,0.3190273642539978,0.06165069341659546,9.82879638671875,-3.814697265625,0.48828125,-3.265380859375
2.7274999,0.12449848651885986,0.10235211998224258,9.654618263244629,2.9296875,-0.396728515625,1.8310546875
2.7324999,0.2406172752380371,0.16340427100658417,9.865307807922363,-1.800537109375,0.06103515625,-1.068115234375
2.7374999,0.20350714027881622,-0.01735796220600605,9.640253067016602,0.762939453125,0.274658203125,-0.42724609375
2.7424999000000003,0.16579847037792206,0.22744916379451752,9.895833969116211,0.42724609375,-0.30517578125,1.15966796875
2.7474999,0.28371289372444153,-0.09397241473197937,9.618106842041016,-1.434326171875,0.42724609375,-2.44140625
2.7524999,0.11671733111143112,0.2861070930957794,9.894637107849121,2.685546875,-0.8544921875,3.11279296875
2.7574999,0.3687070608139038,-0.10654197633266449,9.59476375579834,-3.448486328125,0.762939453125,-4.180908203125
2.7624999000000003,0.07721300423145294,0.33758243918418884,9.841365814208984,3.96728515625,-0.9765625,4.45556640625
2.7674999000000002,0.4183867573738098,-0.07541735470294952,9.610923767089844,-4.669189453125,1.007080078125,-4.913330078125
2.7724999,0.05506663769483566,0.3082534670829773,9.816825866699219,5.035400390625,-1.03759765625,4.8828125
2.7774999,0.42616790533065796,-0.0586579404771328,9.679757118225098,-5.2490234375,0.946044921875,-5.18798828125
2.7824999000000004,0.038307227194309235,0.19931729137897491,9.788095474243164,5.096435546875,-0.91552734375,4.45556640625
2.7874999000000003,0.3818751573562622,-0.053270988166332245,9.755773544311523,-4.82177734375,0.762939453125,-4.21142578125
2.7924999,0.04908113554120064,0.1388636976480484,9.694721221923828,4.45556640625,-0.640869140625,3.41796875
2.7974999,0.33339259028434753,0.028730420395731926,9.79647445678711,-3.72314453125,0.579833984375,-3.23486328125
2.8024999000000004,0.11851298063993454,0.10953472554683685,9.631275177001953,3.2958984375,-0.335693359375,2.0751953125
2.8074999000000003,0.2795230448246002,0.14006079733371735,9.817423820495605,-2.25830078125,0.091552734375,-1.5869140625
2.8124999,0.19153612852096558,0.010773907415568829,9.647436141967773,1.64794921875,0.152587890625,0.213623046875
2.8174999,0.21368250250816345,0.19452889263629913,9.858125686645508,-0.48828125,0,0.06103515625
2.8224999,0.2454056739807129,-0.10654197633266449,9.649829864501953,-0.213623046875,0.30517578125,-1.068115234375
2.8274999000000003,0.16101007163524628,0.24600422382354736,9.904812812805176,1.373291015625,-0.701904296875,1.800537109375
2.8324999,0.3124433159828186,-0.17417816817760468,9.628880500793457,-2.3193359375,0.79345703125,-2.86865234375
2.8374999,0.11013327538967133,0.3274070918560028,9.895236015319824,3.021240234375,-0.823974609375,3.265380859375
2.8424999,0.36810851097106934,-0.12689268589019775,9.610923767089844,-3.143310546875,0.762939453125,-3.90625
2.8474999000000003,0.0736217051744461,0.30705636739730835,9.838972091674805,3.23486328125,-0.8544921875,4.058837890625
2.8524999,0.39384618401527405,-0.020350715145468712,9.601346969604492,-3.2958984375,0.54931640625,-4.547119140625
2.8574999,0.05147533491253853,0.272938996553421,9.804255485534668,3.997802734375,-0.579833984375,4.302978515625
2.8624999,0.41359832882881165,0.023343466222286224,9.633070945739746,-4.638671875,0.823974609375,-5.035400390625
2.8674999000000003,0.02992752194404602,0.23702596127986908,9.812037467956543,5.06591796875,-1.068115234375,4.94384765625
2.8724999,0.4129997789859772,-0.012569558806717396,9.691129684448242,-4.974365234375,0.79345703125,-4.913330078125
2.8774999,0.02214636653661728,0.1364694982767105,9.81143856048584,4.94384765625,-0.518798828125,4.0283203125
2.8824999,0.39624038338661194,0.0017956512747332454,9.750386238098145,-4.791259765625,0.701904296875,-4.45556640625
2.8874999000000003,0.04369417950510979,0.08439560979604721,9.75397777557373,4.486083984375,-0.732421875,3.96728515625
2.8924999000000002,0.37828385829925537,0.09277531504631042,9.788095474243164,-4.058837890625,0.67138671875,-3.47900390625
2.8974999,0.06883329898118973,0.1041477769613266,9.673172950744629,4.058837890625,-0.3662109375,2.532958984375
2.9024999,0.34356793761253357,0.17298106849193573,9.798270225524902,-3.936767578125,0.518798828125,-3.5400390625
2.9074999000000004,0.10055647045373917,0.09636662155389786,9.640851974487305,3.35693359375,-0.732421875,2.74658203125
2.9124999000000003,0.28969839215278625,0.2406172752380371,9.794678688049316,-2.593994140625,-0.06103515625,-1.556396484375
2.9174999,0.1322796493768692,-0.002394201699644327,9.653421401977539,2.13623046875,0.1220703125,0.457763671875
2.9224999,0.23104046285152435,0.26096799969673157,9.803657531738281,-1.495361328125,0.18310546875,-1.15966796875
2.9274999000000004,0.15502455830574036,-0.061052143573760986,9.688735961914062,1.03759765625,0,0.54931640625
2.9324999000000003,0.1933317929506302,0.2759317457675934,9.844358444213867,-0.3662109375,-0.396728515625,0
2.9374999,0.20709845423698425,-0.07721300423145294,9.707290649414062,-0.244140625,0.457763671875,-0.885009765625
2.9424999,0.1885433793067932,0.2579752206802368,9.864709854125977,0.48828125,-0.42724609375,0.79345703125
2.9474999,0.26396074891090393,-0.08918401598930359,9.676166534423828,-1.007080078125,0.457763671875,-1.434326171875
2.9524999000000003,0.17537526786327362,0.22685061395168304,9.86231517791748,1.251220703125,-0.518798828125,1.495361328125
2.9574999,0.30466216802597046,-0.09157821536064148,9.647436141967773,-2.01416015625,0.8544921875,-2.532958984375
2.9624999,0.14245499670505524,0.25318682193756104,9.865307807922363,2.50244140625,-0.79345703125,2.410888671875
2.9674999,0.3298012912273407,-0.09876082092523575,9.642647743225098,-2.960205078125,0.79345703125,-2.74658203125
2.9724999000000003,0.1041477769613266,0.3058592677116394,9.849146842956543,3.509521484375,-0.885009765625,2.9296875
2.9774999,0.33997663855552673,-0.10594342648983002,9.627084732055664,-3.90625,1.220703125,-3.692626953125
2.9824999,0.07960720360279083,0.3034650683403015,9.818621635437012,4.241943359375,-0.946044921875,3.173828125
2.9874999,0.3645172119140625,-0.09516951441764832,9.61212158203125,-4.21142578125,0.823974609375,-3.47900390625
2.9924999000000003,0.0736217051744461,0.28790274262428284,9.804854393005371,4.638671875,-1.15966796875,3.41796875
2.9974999,0.3968389332294464,-0.0347159244120121,9.625288963317871,-4.8828125,1.129150390625,-4.241943359375
3.0024999,0.06643909960985184,0.3010708689689636,9.814431190490723,5.035400390625,-1.129150390625,3.90625
3.0074999,0.4159925580024719,-0.0071826050989329815,9.637260437011719,-5.279541015625,1.068115234375,-3.96728515625
3.0124999000000003,0.4159925580024719,-0.0071826050989329815,9.637260437011719,-5.279541015625,1.068115234375,-3.96728515625
3.0174999000000002,0.05985504388809204,0.25977087020874023,9.830592155456543,5.4931640625,-1.007080078125,4.0283203125
3.0224999,0.42197805643081665,-0.03950432687997818,9.65222454071045,-5.401611328125,1.190185546875,-4.486083984375
3.0274999,0.0454898327589035,0.2172738015651703,9.850942611694336,5.79833984375,-1.15966796875,3.96728515625
3.0324999000000004,0.4141969084739685,-0.023343466222286224,9.671976089477539,-5.828857421875,1.15966796875,-4.39453125
3.0374999000000003,0.023343466222286224,0.20051439106464386,9.864110946655273,6.011962890625,-1.28173828125,4.150390625
3.0424999,0.4034229815006256,0.0035913025494664907,9.676166534423828,-6.072998046875,1.0986328125,-4.547119140625
3.0474999,0.013766659423708916,0.15263035893440247,9.855731010437012,5.889892578125,-1.190185546875,3.7841796875
3.0524999000000004,0.4010287821292877,-0.010175357572734356,9.66539192199707,-5.950927734375,1.007080078125,-4.302978515625
3.0574999000000003,0.016759412363171577,0.10534487664699554,9.838373184204102,6.072998046875,-1.0986328125,4.08935546875
3.0624999,0.406415730714798,-0.005386953707784414,9.66299819946289,-5.950927734375,1.251220703125,-4.364013671875
3.0674999,0.020350715145468712,0.11013327538967133,9.82999324798584,6.04248046875,-1.0986328125,3.997802734375
3.0724999000000004,0.4159925580024719,0.03890577703714371,9.676764488220215,-5.7373046875,1.03759765625,-4.119873046875
3.0774999000000003,0.026336219161748886,0.15502455830574036,9.832986831665039,5.889892578125,-0.91552734375,3.96728515625
3.0824999,0.4225766062736511,0.08259996026754379,9.68694019317627,-6.134033203125,1.129150390625,-4.21142578125
3.0874999,0.0293289702385664,0.17238251864910126,9.838373184204102,6.011962890625,-1.03759765625,3.814697265625
3.0924999,0.4165911078453064,0.08499415963888168,9.692327499389648,-5.859375,0.91552734375,-4.058837890625
3.0974999000000003,0.016759412363171577,0.12928688526153564,9.831789016723633,5.859375,-0.946044921875,3.60107421875
3.1024999,0.39863458275794983,0.06883329898118973,9.693524360656738,-5.79833984375,1.03759765625,-3.90625
3.1074999,0.004788403399288654,0.10235211998224258,9.813833236694336,5.828857421875,-1.068115234375,3.47900390625
3.1124999,0.39564183354377747,0.06584054976701736,9.68813705444336,-5.92041015625,0.946044921875,-3.90625
3.1174999000000003,0.017956512048840523,0.09696517139673233,9.798869132995605,5.828857421875,-0.885009765625,3.692626953125
3.1224999,0.4129997789859772,0.04967968538403511,9.683947563171387,-5.7373046875,0.885009765625,-3.84521484375
3.1274999,0.03531447425484657,0.08559270948171616,9.792284965515137,5.706787109375,-0.732421875,3.265380859375
3.1324999,0.41958385705947876,0.03531447425484657,9.68813705444336,-5.79833984375,0.885009765625,-3.753662109375
3.1374999000000003,0.03711012750864029,0.09217676520347595,9.79408073425293,5.950927734375,-1.068115234375,3.72314453125
3.1424999000000002,0.41539400815963745,0.04429273307323456,9.689932823181152,-5.950927734375,0.823974609375,-3.72314453125
3.1474999,0.0347159244120121,0.09516951441764832,9.798869132995605,5.92041015625,-0.640869140625,3.326416015625
3.1524999,0.41539400815963745,0.05267243832349777,9.679757118225098,-5.7373046875,0.8544921875,-3.631591796875
3.1574999000000004,0.03172317147254944,0.08200141042470932,9.798869132995605,6.04248046875,-0.8544921875,3.60107421875
3.1624999000000003,0.406415730714798,0.050876785069704056,9.665990829467773,-5.767822265625,1.03759765625,-3.662109375
3.1674999,0.018555063754320145,0.07422025501728058,9.797672271728516,5.767822265625,-0.91552734375,3.0517578125
3.1724999,0.4010287821292877,0.05027823522686958,9.667786598205566,-5.950927734375,0.762939453125,-3.814697265625
3.1774999000000004,0.021547814831137657,0.0802057534456253,9.805453300476074,6.04248046875,-0.91552734375,3.5400390625
3.1824999000000003,0.41359832882881165,0.0520738884806633,9.673172950744629,-6.103515625,0.762939453125,-3.72314453125
3.1874999,0.03232172131538391,0.09576806426048279,9.81263542175293,6.072998046875,-0.79345703125,3.2958984375
3.1924999,0.4207809567451477,0.05267243832349777,9.662399291992188,-6.16455078125,0.9765625,-3.84521484375
3.1974999000000004,0.028131870552897453,0.12210428714752197,9.81263542175293,6.256103515625,-0.91552734375,3.570556640625
3.2024999000000003,0.41718965768814087,0.053270988166332245,9.654019355773926,-6.256103515625,1.03759765625,-4.0283203125
3.2074999,0.023343466222286224,0.15083470940589905,9.815628051757812,6.500244140625,-0.946044921875,3.570556640625
3.2124999,0.414795458316803,0.04908113554120064,9.64683723449707,-6.40869140625,0.9765625,-3.814697265625
3.2174999,0.019153613597154617,0.1711854189634323,9.82759952545166,6.53076171875,-0.9765625,3.509521484375
3.2224999000000003,0.41359832882881165,0.04728548228740692,9.636063575744629,-6.53076171875,1.190185546875,-3.7841796875
3.2274999,0.016160860657691956,0.18076223134994507,9.845556259155273,6.7138671875,-1.068115234375,3.60107421875
3.2324999,0.4165911078453064,0.03890577703714371,9.633668899536133,-6.744384765625,1.129150390625,-4.0283203125
3.2374999,0.02454056777060032,0.16759411990642548,9.86770248413086,6.89697265625,-1.15966796875,3.662109375
3.2424999000000003,0.424970805644989,0.02753331884741783,9.636063575744629,-6.805419921875,1.15966796875,-3.814697265625
3.2474999,0.0293289702385664,0.15322890877723694,9.877279281616211,6.89697265625,-1.068115234375,3.662109375
3.2524999,0.4207809567451477,0.04010287672281265,9.635464668273926,-6.744384765625,1.46484375,-3.997802734375
3.2574999,0.0293289702385664,0.181959331035614,9.870096206665039,6.988525390625,-1.190185546875,3.47900390625
3.2624999000000003,0.4129997789859772,0.04429273307323456,9.627683639526367,-6.805419921875,1.190185546875,-3.814697265625
3.2674999000000002,0.033518824726343155,0.24001872539520264,9.857526779174805,7.01904296875,-1.220703125,3.41796875
3.2724999,0.414795458316803,0.011971008032560349,9.618106842041016,-6.927490234375,1.28173828125,-4.0283203125
3.2774999,0.04369417950510979,0.26336219906806946,9.843161582946777,6.988525390625,-1.312255859375,3.509521484375
3.2824999000000004,0.41958385705947876,-0.03651157766580582,9.61451530456543,-6.65283203125,1.28173828125,-3.662109375
3.2874999000000003,0.050876785069704056,0.25498247146606445,9.836577415466309,6.77490234375,-1.46484375,3.23486328125
3.2924999,0.4040215313434601,-0.053270988166332245,9.636063575744629,-6.744384765625,1.312255859375,-3.5400390625
3.2974999,0.04189852997660637,0.2555810213088989,9.844358444213867,6.53076171875,-1.46484375,3.23486328125
3.3024999000000004,0.3669114112854004,-0.0454898327589035,9.66299819946289,-6.28662109375,1.46484375,-3.35693359375
3.3074999000000003,0.03651157766580582,0.25318682193756104,9.851541519165039,6.04248046875,-1.312255859375,2.716064453125
3.3124999,0.34177228808403015,-0.058059390634298325,9.668983459472656,-5.828857421875,1.495361328125,-3.173828125
3.3174999,0.058059390634298325,0.2364274114370346,9.84495735168457,5.767822265625,-1.40380859375,2.471923828125
3.3224999000000004,0.3321954905986786,-0.07062894850969315,9.682151794433594,-5.37109375,1.5869140625,-2.838134765625
3.3274999000000003,0.09397241473197937,0.22026655077934265,9.844358444213867,5.157470703125,-1.28173828125,2.288818359375
3.3324999,0.314238965511322,-0.07781155407428741,9.72165584564209,-4.547119140625,1.3427734375,-2.13623046875
3.3374999,0.12210428714752197,0.2172738015651703,9.8599214553833,4.45556640625,-1.28173828125,1.8310546875
3.3424999,0.2867056429386139,-0.08439560979604721,9.749788284301758,-3.753662109375,1.129150390625,-2.0751953125
3.3474999000000003,0.1364694982767105,0.22086510062217712,9.839570045471191,3.72314453125,-1.15966796875,1.3427734375
3.3524999,0.25737667083740234,-0.06224924325942993,9.728838920593262,-2.99072265625,1.068115234375,-1.373291015625
3.3574999,0.15801730751991272,0.23942017555236816,9.766547203063965,2.5634765625,-1.0986328125,0.640869140625
3.3624999,0.23343466222286224,-0.031124621629714966,9.706093788146973,-2.044677734375,0.946044921875,-1.007080078125
3.3674999000000003,0.19931729137897491,0.2759317457675934,9.720458984375,1.495361328125,-0.946044921875,0.244140625
3.3724999,0.2172738015651703,-0.009576806798577309,9.731831550598145,-0.885009765625,0.8544921875,-0.213623046875
3.3774999,0.2172738015651703,-0.009576806798577309,9.731831550598145,-0.885009765625,0.8544921875,-0.213623046875
3.3824999,0.23523031175136566,0.2819172441959381,9.700706481933594,0.42724609375,-0.762939453125,-0.244140625
3.3874999000000003,0.17956513166427612,0.014365210197865963,9.758766174316406,0.30517578125,0.640869140625,0.48828125
3.3924999000000002,0.2621650993824005,0.2651578485965729,9.666589736938477,-0.79345703125,-0.6103515625,-0.79345703125
3.3974999,0.13108254969120026,0.04728548228740692,9.746794700622559,1.678466796875,0.48828125,0.823974609375
3.4024999,0.29568392038345337,0.23403321206569672,9.642048835754395,-2.0751953125,-0.335693359375,-1.64794921875
3.4074999000000004,0.10594342648983002,0.07302315533161163,9.75397777557373,2.960205078125,0.091552734375,1.5869140625
3.4124999000000003,0.35075053572654724,0.166995570063591,9.645041465759277,-3.570556640625,-0.06103515625,-2.288818359375
3.4174999,0.090979665517807,0.07062894850969315,9.787496566772461,4.119873046875,-0.091552734375,2.01416015625
3.4224999,0.3974374830722809,0.08259996026754379,9.67077922821045,-4.82177734375,0.335693359375,-2.716064453125
3.4274999000000004,0.07242459803819656,0.06584054976701736,9.837775230407715,5.37109375,-0.244140625,2.50244140625
3.4324999000000003,0.4118026793003082,0.02753331884741783,9.677363395690918,-5.859375,0.6103515625,-3.265380859375
3.4374999,0.04189852997660637,0.0867898091673851,9.889848709106445,6.317138671875,-0.518798828125,3.082275390625
3.4424999,0.4124012291431427,0.01496376097202301,9.660603523254395,-6.866455078125,0.732421875,-3.2958984375
3.4474999000000004,0.015562310814857483,0.12928688526153564,9.899425506591797,7.14111328125,-0.946044921875,3.173828125
3.4524999000000003,0.4183867573738098,0.008978256024420261,9.626486778259277,-7.415771484375,1.068115234375,-3.631591796875
3.4574999,0.011372458189725876,0.17058686912059784,9.893440246582031,7.720947265625,-1.007080078125,3.47900390625
3.4624999,0.42437225580215454,0.028730420395731926,9.585186958312988,-7.781982421875,1.28173828125,-3.753662109375
3.4674999,0.023343466222286224,0.23343466222286224,9.885659217834473,8.026123046875,-1.3427734375,3.35693359375
3.4724999000000003,0.4159925580024719,0.047884032130241394,9.560646057128906,-7.781982421875,1.220703125,-3.60107421875
3.4774999,0.03711012750864029,0.28730419278144836,9.852140426635742,7.904052734375,-1.52587890625,3.0517578125
3.4824999,0.39145198464393616,0.025737667456269264,9.59177017211914,-7.6904296875,1.40380859375,-3.35693359375
3.4874999,0.048482585698366165,0.2819172441959381,9.843161582946777,7.232666015625,-1.64794921875,2.838134765625
3.4924999000000003,0.35494041442871094,-0.03651157766580582,9.658807754516602,-6.7138671875,1.46484375,-2.8076171875
3.4974999,0.07422025501728058,0.2298433631658554,9.861717224121094,6.28662109375,-1.434326171875,2.13623046875
3.5024999,0.3034650683403015,-0.09935937076807022,9.729436874389648,-5.767822265625,1.617431640625,-2.38037109375
3.5074999,0.11192893236875534,0.1825578808784485,9.871294021606445,4.94384765625,-1.40380859375,1.64794921875
3.5124999000000003,0.25917232036590576,-0.09277531504631042,9.7791166305542,-4.241943359375,1.28173828125,-1.52587890625
3.5174999000000002,0.1646013706922531,0.1909375786781311,9.819219589233398,3.326416015625,-1.0986328125,0.885009765625
3.5224999,0.23702596127986908,-0.03950432687997818,9.77791976928711,-2.410888671875,1.190185546875,-0.701904296875
3.5274999,0.21966800093650818,0.22744916379451752,9.722254753112793,1.52587890625,-0.946044921875,0.030517578125
3.5324999000000004,0.1975216418504715,0.02214636653661728,9.771934509277344,-0.48828125,0.885009765625,0.244140625
3.5374999000000003,0.2819172441959381,0.2693476974964142,9.639056205749512,-0.335693359375,-0.762939453125,-0.79345703125
3.5424999,0.15921440720558167,0.07182604819536209,9.75637149810791,1.373291015625,0.48828125,1.03759765625
3.5474999,0.3579331636428833,0.24899697303771973,9.575610160827637,-2.38037109375,-0.335693359375,-1.89208984375
3.5524999000000004,0.12330138683319092,0.08319851011037827,9.761758804321289,3.41796875,0.1220703125,1.8310546875
3.5574999000000003,0.4106055796146393,0.1472434103488922,9.582193374633789,-4.39453125,-0.06103515625,-2.44140625
3.5624999,0.08379705995321274,0.06524199992418289,9.849745750427246,5.401611328125,-0.274658203125,2.532958984375
3.5674999,0.4315548539161682,0.04728548228740692,9.621099472045898,-6.103515625,0.48828125,-3.204345703125
3.5724999000000004,0.04489128291606903,0.05985504388809204,9.946710586547852,6.927490234375,-0.518798828125,2.74658203125
3.5774999000000003,0.4207809567451477,-0.0035913025494664907,9.618106842041016,-7.415771484375,0.8544921875,-3.448486328125
3.5824999,0.002992752008140087,0.1149216815829277,9.9371337890625,8.1787109375,-0.946044921875,3.143310546875
3.5874999,0.4058171808719635,0.02214636653661728,9.57201862335205,-8.392333984375,0.8544921875,-3.631591796875
3.5924999,0.011971008032560349,0.23283611238002777,9.895236015319824,8.544921875,-1.373291015625,3.35693359375
3.5974999000000003,0.41539400815963745,0.055665191262960434,9.540295600891113,-8.453369140625,1.373291015625,-3.204345703125
3.6024999,0.050876785069704056,0.3166331648826599,9.860519409179688,8.48388671875,-1.434326171875,2.8076171875
3.6074999,0.3908534348011017,0.009576806798577309,9.575610160827637,-8.087158203125,1.52587890625,-3.143310546875
3.6124999,0.061052143573760986,0.2932897210121155,9.84615421295166,7.6904296875,-1.52587890625,2.532958984375
3.6174999000000003,0.31783026456832886,-0.07781155407428741,9.687539100646973,-7.01904296875,1.5869140625,-2.197265625
3.6224999,0.08918401598930359,0.2172738015651703,9.897629737854004,6.317138671875,-1.52587890625,1.5869140625
3.6274999,0.2585737705230713,-0.1280897855758667,9.79288387298584,-5.340576171875,1.434326171875,-1.739501953125
3.6324999,0.15801730751991272,0.17896658182144165,9.854534149169922,4.241943359375,-1.52587890625,0.67138671875
3.6374999000000003,0.21847090125083923,-0.09576806426048279,9.816825866699219,-3.0517578125,1.0986328125,-0.518798828125
3.6424999000000002,0.22445641458034515,0.20769700407981873,9.709685325622559,1.739501953125,-1.068115234375,-0.335693359375
3.6474999,0.1562216579914093,0.0011971008498221636,9.789292335510254,-0.579833984375,0.91552734375,0.457763671875
3.6524999,0.2932897210121155,0.262763649225235,9.585186958312988,-0.8544921875,-0.8544921875,-1.28173828125
3.6574999000000004,0.10654197633266449,0.10115502029657364,9.777320861816406,2.105712890625,0.396728515625,1.495361328125
3.6624999000000003,0.38546648621559143,0.23582886159420013,9.522936820983887,-3.662109375,-0.335693359375,-2.349853515625
3.6674999,0.09217676520347595,0.11552023142576218,9.819219589233398,4.852294921875,0.18310546875,2.197265625
3.6724999,0.4507084786891937,0.10773907601833344,9.533711433410645,-6.04248046875,0.152587890625,-2.960205078125
3.6774999000000004,0.07062894850969315,0.06643909960985184,9.932345390319824,6.988525390625,-0.42724609375,2.99072265625
3.6824999000000003,0.45250412821769714,0.005386953707784414,9.55825138092041,-7.9345703125,0.640869140625,-3.47900390625
3.6874999,0.02214636653661728,0.08798690885305405,9.968857765197754,8.697509765625,-0.946044921875,3.0517578125
3.6924999,0.41958385705947876,0.013766659423708916,9.5408935546875,-9.033203125,1.190185546875,-3.692626953125
3.6974999000000004,0.010175357572734356,0.2106897532939911,9.928155899047852,9.21630859375,-1.312255859375,3.021240234375
3.7024999000000003,0.3908534348011017,0.06224924325942993,9.547477722167969,-9.21630859375,1.373291015625,-3.265380859375
3.7074999,0.04189852997660637,0.30286651849746704,9.906009674072266,8.85009765625,-1.5869140625,2.716064453125
3.7124999,0.3519476354122162,0.010773907415568829,9.623494148254395,-8.392333984375,1.64794921875,-2.716064453125
3.7174999,0.08080431073904037,0.2495955228805542,9.90241813659668,7.75146484375,-1.617431640625,1.861572265625
3.7224999000000003,0.284311443567276,-0.11851298063993454,9.744400978088379,-6.77490234375,1.40380859375,-1.800537109375
3.7274999,0.13108254969120026,0.15143325924873352,9.890447616577148,5.79833984375,-1.800537109375,0.885009765625
3.7324999,0.21128830313682556,-0.1472434103488922,9.840168952941895,-4.39453125,1.46484375,-0.8544921875
3.7374999,0.19452889263629913,0.16160862147808075,9.774927139282227,2.899169921875,-1.3427734375,-0.18310546875
3.7424999000000003,0.14425064623355865,-0.017956512048840523,9.834781646728516,-1.434326171875,1.190185546875,0.518798828125
3.7474999,0.14425064623355865,-0.017956512048840523,9.834781646728516,-1.434326171875,1.190185546875,0.518798828125
3.7524999,0.2944868206977844,0.25438392162323,9.595361709594727,-0.30517578125,-0.91552734375,-1.373291015625
3.7574999,0.10714052617549896,0.12509703636169434,9.798869132995605,1.922607421875,0.762939453125,1.46484375
3.7624999000000003,0.40880993008613586,0.2454056739807129,9.493009567260742,-3.509521484375,-0.457763671875,-2.25830078125
3.7674999000000002,0.09277531504631042,0.14365209639072418,9.836577415466309,5.096435546875,0.1220703125,2.471923828125
3.7724999,0.46986207365989685,0.09636662155389786,9.50498104095459,-6.40869140625,0.030517578125,-2.99072265625
3.7774999,0.06823474913835526,0.09038111567497253,9.961674690246582,7.75146484375,-0.42724609375,2.99072265625
3.7824999000000004,0.46986207365989685,-0.025737667456269264,9.537900924682617,-8.6669921875,0.823974609375,-3.72314453125
3.7874999000000003,0.02693476900458336,0.13587094843387604,9.99459457397461,9.674072265625,-1.220703125,3.326416015625
3.7924999,0.43275195360183716,-0.019153613597154617,9.501389503479004,-9.796142578125,1.129150390625,-3.265380859375
3.7974999,0.025737667456269264,0.2645592987537384,9.926360130310059,10.040283203125,-1.28173828125,2.838134765625
3.8024999000000004,0.3728969097137451,0.013766659423708916,9.514557838439941,-9.796142578125,1.52587890625,-3.0517578125
3.8074999000000003,0.04668693244457245,0.30526071786880493,9.908403396606445,9.58251953125,-1.77001953125,2.166748046875
3.8124999,0.28790274262428284,-0.05446808785200119,9.678560256958008,-8.6669921875,1.922607421875,-2.288818359375
3.8174999,0.076015904545784,0.22266076505184174,9.946112632751465,7.568359375,-1.708984375,1.190185546875
3.8224999000000004,0.2017114907503128,-0.11671733111143112,9.854534149169922,-6.16455078125,1.678466796875,-1.007080078125
3.8274999000000003,0.16759411990642548,0.17956513166427612,9.903017044067383,4.669189453125,-1.46484375,-0.091552734375
3.8324999,0.14903905987739563,-0.03411737456917763,9.904213905334473,-2.9296875,1.373291015625,0.213623046875
3.8374999,0.29209262132644653,0.24660277366638184,9.667786598205566,0.9765625,-1.220703125,-1.312255859375
3.8424999,0.12988543510437012,0.09816227108240128,9.834781646728516,0.91552734375,1.068115234375,1.46484375
3.8474999000000003,0.4255693554878235,0.23163901269435883,9.44871711730957,-2.74658203125,-0.640869140625,-2.349853515625
3.8524999,0.11013327538967133,0.13527239859104156,9.801861763000488,4.69970703125,0.274658203125,2.349853515625
3.8574999,0.48961424827575684,0.0867898091673851,9.402029991149902,-6.500244140625,0.091552734375,-3.173828125
3.8624999,0.07541735470294952,0.10354922711849213,9.927556991577148,7.87353515625,-0.518798828125,3.204345703125
3.8674999000000003,0.4818331003189087,-0.02693476900458336,9.455899238586426,-9.09423828125,0.8544921875,-3.41796875
3.8724999,0.04189852997660637,0.15502455830574036,9.99220085144043,10.1318359375,-1.0986328125,3.204345703125
3.8774999,0.4489128291606903,-0.013766659423708916,9.445125579833984,-10.498046875,1.3427734375,-3.35693359375
3.8824999,0.04908113554120064,0.27473464608192444,9.924564361572266,10.68115234375,-1.617431640625,2.777099609375
3.8874999000000003,0.37828385829925537,-0.010175357572734356,9.477447509765625,-10.467529296875,1.678466796875,-2.86865234375
3.8924999000000002,0.07302315533161163,0.25498247146606445,9.926360130310059,9.70458984375,-1.8310546875,1.922607421875
3.8974999,0.2669534981250763,-0.13826514780521393,9.679159164428711,-8.72802734375,1.861572265625,-1.922607421875
3.9024999,0.10474632680416107,0.13108254969120026,9.941922187805176,7.26318359375,-1.983642578125,0.823974609375
3.9074999000000004,0.16220717132091522,-0.18076223134994507,9.858125686645508,-5.7373046875,1.739501953125,-0.396728515625
3.9124999000000003,0.19572599232196808,0.13766659796237946,9.823410034179688,3.662109375,-1.556396484375,-0.701904296875
3.9174999,0.10235211998224258,-0.038307227194309235,9.880870819091797,-1.800537109375,1.46484375,0.91552734375
3.9224999,0.31783026456832886,0.2298433631658554,9.564237594604492,-0.457763671875,-1.190185546875,-1.983642578125
3.9274999000000004,0.06224924325942993,0.08918401598930359,9.821015357971191,2.593994140625,0.701904296875,2.01416015625
3.9324999000000003,0.42437225580215454,0.16101007163524628,9.403226852416992,-4.669189453125,-0.42724609375,-2.960205078125
3.9374999,0.041299980133771896,0.10594342648983002,9.906607627868652,6.591796875,0,2.777099609375
3.9424999,0.45429977774620056,0.016759412363171577,9.41639518737793,-8.11767578125,0.3662109375,-3.570556640625
3.9474999000000004,0.008978256024420261,0.15682020783424377,9.998785018920898,9.46044921875,-0.823974609375,3.143310546875
3.9524999000000003,0.4231751561164856,0.01496376097202301,9.418789863586426,-10.467529296875,0.8544921875,-3.5400390625
3.9574999,0.0077811554074287415,0.29568392038345337,9.979631423950195,11.04736328125,-1.5869140625,2.899169921875
3.9624999,0.3645172119140625,0.05147533491253853,9.45410442352295,-10.8642578125,1.64794921875,-3.0517578125
3.9674999000000004,0.048482585698366165,0.3321954905986786,9.96825885772705,10.7421875,-1.800537109375,2.105712890625
3.9724999000000003,0.27473464608192444,-0.05267243832349777,9.637859344482422,-9.70458984375,1.800537109375,-1.8310546875
3.9774999,0.09816227108240128,0.19213469326496124,9.99100399017334,8.48388671875,-2.01416015625,1.007080078125
3.9824999,0.17417816817760468,-0.152031809091568,9.847949981689453,-6.805419921875,2.0751953125,-0.244140625
3.9874999,0.18794482946395874,0.12868833541870117,9.907206535339355,4.82177734375,-1.922607421875,-0.518798828125
3.9924999000000003,0.10175357013940811,-0.048482585698366165,9.9000244140625,-2.74658203125,1.8310546875,1.007080078125
3.9974999,0.3196259140968323,0.21547815203666687,9.604340553283691,0.396728515625,-1.52587890625,-1.739501953125
4.0024999,0.06165069341659546,0.10594342648983002,9.840168952941895,2.0751953125,1.129150390625,2.227783203125
4.0074999,0.43275195360183716,0.181959331035614,9.391256332397461,-4.302978515625,-0.885009765625,-3.11279296875
4.0124999,0.0347159244120121,0.14065934717655182,9.922170639038086,6.53076171875,0.48828125,3.021240234375
4.0174999,0.45669397711753845,0.031124621629714966,9.387664794921875,-8.23974609375,-0.06103515625,-3.570556640625
4.022499900000001,0,0.17298106849193573,10.013150215148926,10.07080078125,-0.54931640625,3.204345703125
4.0274999000000005,0.4225766062736511,0.0077811554074287415,9.371503829956055,-10.894775390625,0.8544921875,-3.47900390625
4.0324999,0.010773907415568829,0.2974795699119568,9.988609313964844,11.383056640625,-1.312255859375,2.86865234375
4.0374999,0.3579331636428833,0.047884032130241394,9.423578262329102,-11.29150390625,1.556396484375,-2.899169921875
4.0424999,0.05925649031996727,0.3034650683403015,9.99339771270752,10.986328125,-1.800537109375,1.861572265625
4.0474999,0.2513911724090576,-0.06883329898118973,9.658209800720215,-9.94873046875,1.89208984375,-1.495361328125
4.0524999,0.11552023142576218,0.1430535465478897,10.011953353881836,8.209228515625,-1.983642578125,0.42724609375
4.0574999,0.14844051003456116,-0.15143325924873352,9.873687744140625,-6.317138671875,1.953125,-0.244140625
4.062499900000001,0.23403321206569672,0.1215057373046875,9.847949981689453,3.997802734375,-1.8310546875,-0.885009765625
4.0674999000000005,0.09277531504631042,-0.01496376097202301,9.900622367858887,-1.861572265625,1.678466796875,1.434326171875
4.0724999,0.38127660751342773,0.1999158412218094,9.527127265930176,-0.762939453125,-1.251220703125,-2.50244140625
4.0774999,0.06464344263076782,0.10773907601833344,9.84376049041748,3.387451171875,0.91552734375,2.5634765625
4.0824999,0.4818331003189087,0.11791443079710007,9.343372344970703,-5.828857421875,-0.6103515625,-3.35693359375
4.0874999,0.07661445438861847,0.10833762586116791,9.954492568969727,7.87353515625,0.1220703125,3.387451171875
4.0924999,0.5195417404174805,0.010773907415568829,9.349357604980469,-9.490966796875,0.152587890625,-3.60107421875
4.0974999,0.08319851011037827,0.19153612852096558,10.027515411376953,10.92529296875,-0.67138671875,3.204345703125
4.1024999,0.4686649739742279,0.06344634294509888,9.365518569946289,-11.5966796875,1.007080078125,-3.082275390625
4.1074999000000005,0.08439560979604721,0.3298012912273407,9.970054626464844,12.02392578125,-1.46484375,2.593994140625
4.1124999,0.08439560979604721,0.3298012912273407,9.970054626464844,12.02392578125,-1.46484375,2.593994140625
4.1174999,0.3489548861980438,0.05985504388809204,9.4822359085083,-11.29150390625,1.861572265625,-2.13623046875
4.1224999,0.10833762586116791,0.25677812099456787,10.014347076416016,10.162353515625,-1.922607421875,1.0986328125
4.1274999,0.2059013396501541,-0.08619125932455063,9.77791976928711,-8.575439453125,2.044677734375,-0.762939453125
4.1324999,0.166995570063591,0.12270283699035645,9.988011360168457,6.591796875,-1.922607421875,-0.30517578125
4.1374999,0.0933738648891449,-0.076015904545784,9.935338973999023,-4.2724609375,1.922607421875,0.946044921875
4.1424999,0.2974795699119568,0.166995570063591,9.695320129394531,1.52587890625,-1.5869140625,-2.01416015625
4.147499900000001,0.0586579404771328,0.076015904545784,9.883264541625977,1.220703125,1.312255859375,2.13623046875
4.1524999000000005,0.436343252658844,0.15741875767707825,9.408614158630371,-3.90625,-1.068115234375,-2.99072265625
4.1574999,0.050876785069704056,0.12689268589019775,9.913191795349121,6.28662109375,0.457763671875,3.11279296875
4.1624999,0.48602294921875,0.025737667456269264,9.339181900024414,-8.4228515625,-0.152587890625,-3.753662109375
4.1674999,0.028730420395731926,0.17417816817760468,9.984419822692871,10.1318359375,-0.42724609375,3.11279296875
4.1724999,0.4489128291606903,0.019153613597154617,9.317035675048828,-11.29150390625,0.732421875,-3.570556640625
4.1774999,0.04728548228740692,0.304063618183136,9.973047256469727,11.71875,-1.0986328125,2.838134765625
4.1824999,0.37409400939941406,0.048482585698366165,9.4014310836792,-11.566162109375,1.434326171875,-2.44140625
4.187499900000001,0.0975637212395668,0.2825157940387726,10.011953353881836,11.138916015625,-1.708984375,1.708984375
4.1924999000000005,0.2406172752380371,-0.06703764945268631,9.682151794433594,-9.58251953125,1.983642578125,-1.190185546875
4.1974999,0.14844051003456116,0.13587094843387604,10.029909133911133,7.8125,-1.800537109375,-0.1220703125
4.2024999,0.10953472554683685,-0.09457096457481384,9.914987564086914,-5.615234375,1.922607421875,0.3662109375
4.2074999,0.2717418968677521,0.15143325924873352,9.789292335510254,2.99072265625,-1.922607421875,-1.556396484375
4.2124999,0.05925649031996727,0.06643909960985184,9.920374870300293,-0.152587890625,1.434326171875,1.953125
4.2174999,0.43035775423049927,0.17058686912059784,9.470863342285156,-2.838134765625,-1.15966796875,-3.0517578125
4.2224999,0.04908113554120064,0.15801730751991272,9.917980194091797,5.31005859375,0.762939453125,2.777099609375
4.2274999,0.49559974670410156,0.04668693244457245,9.336189270019531,-7.8125,-0.396728515625,-3.692626953125
4.2324999000000005,0.03531447425484657,0.19213469326496124,9.998186111450195,9.70458984375,0.091552734375,3.204345703125
4.2374999,0.4668693244457245,0.0035913025494664907,9.294290542602539,-11.199951171875,0.579833984375,-3.570556640625
4.2424999,0.0520738884806633,0.3106476664543152,10.00955867767334,12.359619140625,-0.79345703125,2.99072265625
4.2474999,0.3818751573562622,0.033518824726343155,9.350554466247559,-12.3291015625,1.312255859375,-2.716064453125
4.2524999,0.08439560979604721,0.31842881441116333,10.020931243896484,12.054443359375,-1.861572265625,1.800537109375
4.2574999,0.2406172752380371,-0.08379705995321274,9.603741645812988,-10.955810546875,1.89208984375,-1.220703125
4.2624999,0.13766659796237946,0.1562216579914093,10.053851127624512,9.033203125,-1.983642578125,0.244140625
4.2674999,0.1173158809542656,-0.1562216579914093,9.877877235412598,-6.805419921875,2.13623046875,0.42724609375
4.272499900000001,0.27892449498176575,0.1430535465478897,9.847949981689453,4.364013671875,-2.044677734375,-1.77001953125
4.2774999000000005,0.0694318488240242,0.002394201699644327,9.926360130310059,-1.15966796875,1.89208984375,2.044677734375
4.2824999,0.43933600187301636,0.18974047899246216,9.505578994750977,-1.739501953125,-1.495361328125,-2.899169921875
4.2874999,0.053270988166332245,0.12988543510437012,9.920374870300293,4.486083984375,1.0986328125,3.204345703125
4.2924999,0.4908113479614258,0.07900865375995636,9.327810287475586,-7.14111328125,-0.6103515625,-3.631591796875
4.2974999,0.030526071786880493,0.17896658182144165,9.981427192687988,9.368896484375,0.030517578125,3.41796875
4.3024999,0.4602852761745453,0.028131870552897453,9.279925346374512,-10.68115234375,0.396728515625,-3.35693359375
4.3074999,0.05626374110579491,0.29568392038345337,9.983820915222168,11.8408203125,-0.9765625,2.8076171875
4.312499900000001,0.38127660751342773,0.060453593730926514,9.346364974975586,-11.871337890625,1.52587890625,-2.838134765625
4.3174999000000005,0.10175357013940811,0.29628247022628784,9.99339771270752,11.627197265625,-1.89208984375,1.64794921875
4.3224999,0.2406172752380371,-0.047884032130241394,9.618106842041016,-10.19287109375,2.105712890625,-1.129150390625
4.3274999,0.15143325924873352,0.14365209639072418,10.031704902648926,8.331298828125,-2.3193359375,-0.213623046875
4.3324999,0.10654197633266449,-0.09636662155389786,9.891045570373535,-6.072998046875,2.166748046875,0.48828125
4.3374999,0.27892449498176575,0.13826514780521393,9.81024169921875,3.387451171875,-2.410888671875,-1.678466796875
4.3424999,0.05027823522686958,0.050876785069704056,9.922170639038086,-0.42724609375,2.044677734375,2.288818359375
4.3474999,0.44173020124435425,0.1472434103488922,9.469067573547363,-2.44140625,-1.77001953125,-2.960205078125
4.352499900000001,0.04967968538403511,0.1388636976480484,9.934141159057617,5.2490234375,1.129150390625,3.326416015625
4.3574999000000005,0.49978959560394287,0.01496376097202301,9.318233489990234,-7.9345703125,-0.48828125,-3.84521484375
4.3624999,0.04249707981944084,0.1951274424791336,9.992799758911133,10.040283203125,-0.06103515625,3.2958984375
4.3674999,0.46507367491722107,0.008978256024420261,9.257779121398926,-11.29150390625,0.244140625,-3.35693359375
4.3724999,0.07182604819536209,0.3321954905986786,9.99220085144043,12.39013671875,-1.0986328125,2.899169921875
4.3774999,0.37409400939941406,0.058059390634298325,9.337985038757324,-12.359619140625,1.5869140625,-2.349853515625
4.3824999,0.11372458189725876,0.31364041566848755,10.032901763916016,11.65771484375,-1.922607421875,1.46484375
4.3874999,0.21667525172233582,-0.06524199992418289,9.64923095703125,-10.1318359375,2.349853515625,-0.79345703125
4.3924999,0.16759411990642548,0.15981295704841614,10.047865867614746,8.331298828125,-2.5634765625,-0.30517578125
4.397499900000001,0.08259996026754379,-0.09696517139673233,9.90361499786377,-5.4931640625,2.593994140625,1.007080078125
4.4024999000000005,0.3058592677116394,0.1562216579914093,9.769539833068848,2.838134765625,-2.471923828125,-2.166748046875
4.4074999,0.041299980133771896,0.03890577703714371,9.908403396606445,0.30517578125,2.01416015625,2.50244140625
4.4124999,0.45848962664604187,0.1173158809542656,9.419986724853516,-3.47900390625,-1.556396484375,-3.448486328125
4.4174999,0.058059390634298325,0.10115502029657364,9.932345390319824,6.195068359375,1.220703125,3.47900390625
4.4224999,0.5081692934036255,0.0077811554074287415,9.30386734008789,-8.48388671875,-0.640869140625,-3.936767578125
4.4274999,0.05925649031996727,0.2059013396501541,9.973047256469727,10.406494140625,-0.091552734375,3.143310546875
4.4324999,0.44412440061569214,0.060453593730926514,9.29189682006836,-11.505126953125,0.54931640625,-3.204345703125
4.437499900000001,0.07661445438861847,0.3603273630142212,9.975440979003906,11.749267578125,-1.312255859375,2.532958984375
4.4424999000000005,0.31842881441116333,0.05925649031996727,9.461885452270508,-11.474609375,1.5869140625,-2.13623046875
4.4474999,0.11911153793334961,0.27054479718208313,10.055048942565918,10.467529296875,-2.0751953125,0.762939453125
4.4524999,0.15921440720558167,-0.07960720360279083,9.782708168029785,-8.6669921875,2.532958984375,-0.1220703125
4.4574999,0.20290859043598175,0.1322796493768692,9.979631423950195,6.28662109375,-2.471923828125,-1.068115234375
4.4624999,0.053270988166332245,-0.046088382601737976,9.929352760314941,-3.631591796875,2.471923828125,1.373291015625
4.4674999,0.3693056106567383,0.14664486050605774,9.650428771972656,0.457763671875,-2.25830078125,-2.655029296875
4.4724999,0.04010287672281265,0.08738835901021957,9.907206535339355,2.5634765625,1.617431640625,2.899169921875
4.477499900000001,0.04010287672281265,0.08738835901021957,9.907206535339355,2.5634765625,1.617431640625,2.899169921875
4.4824999000000005,0.4908113479614258,0.07302315533161163,9.355342864990234,-5.462646484375,-1.28173828125,-3.5400390625
4.4874999,0.06823474913835526,0.152031809091568,9.982025146484375,7.9345703125,0.762939453125,3.5400390625
4.4924999,0.5153518915176392,0.015562310814857483,9.26795482635498,-10.07080078125,-0.213623046875,-3.72314453125
4.4974999,0.08738835901021957,0.3064578175544739,10.023324966430664,11.53564453125,-0.48828125,3.082275390625
4.5024999,0.4255693554878235,0.0694318488240242,9.288305282592773,-12.115478515625,0.9765625,-3.0517578125
4.5074999,0.10055647045373917,0.3693056106567383,10.005369186401367,11.962890625,-1.556396484375,1.861572265625
4.5124999,0.2561795711517334,-0.023942016065120697,9.519346237182617,-11.04736328125,2.105712890625,-1.46484375
4.5174999,0.1472434103488922,0.19632454216480255,10.059837341308594,9.46044921875,-2.349853515625,-0.030517578125
4.522499900000001,0.11013327538967133,-0.11971008777618408,9.844358444213867,-7.2021484375,2.593994140625,0.274658203125
4.5274999000000005,0.2711433470249176,0.14185644686222076,9.873088836669922,4.57763671875,-2.50244140625,-1.739501953125
4.5324999,0.03651157766580582,0.005985504016280174,9.932944297790527,-1.312255859375,2.288818359375,2.471923828125
4.5374999,0.43335050344467163,0.15322890877723694,9.528923034667969,-2.0751953125,-2.044677734375,-3.265380859375
4.5424999,0.03651157766580582,0.11911153793334961,9.949105262756348,4.82177734375,1.617431640625,3.082275390625
4.5474999,0.49799394607543945,0.040701430290937424,9.345766067504883,-7.537841796875,-0.946044921875,-3.753662109375
4.5524999,0.04429273307323456,0.18734627962112427,9.979032516479492,9.765625,0.18310546875,3.509521484375
4.5574999,0.46148237586021423,0.041299980133771896,9.277531623840332,-11.23046875,0.213623046875,-3.448486328125
4.562499900000001,0.08439560979604721,0.33099839091300964,9.967061996459961,11.688232421875,-0.885009765625,2.532958984375
4.5674999000000005,0.35434186458587646,0.06464344263076782,9.39784049987793,-11.65771484375,1.495361328125,-2.3193359375
4.5724999,0.12449848651885986,0.28550854325294495,10.02571964263916,10.68115234375,-1.739501953125,1.03759765625
4.5774999,0.17238251864910126,-0.06344634294509888,9.730035781860352,-9.124755859375,2.166748046875,-0.54931640625
4.5824999,0.18495208024978638,0.13168109953403473,10.004171371459961,6.7138671875,-2.50244140625,-0.79345703125
4.5874999,0.043095629662275314,-0.055665191262960434,9.93593692779541,-4.058837890625,2.471923828125,1.617431640625
4.5924999,0.345363587141037,0.1322796493768692,9.684545516967773,0.946044921875,-2.349853515625,-2.532958984375
4.5974999,0.02753331884741783,0.08319851011037827,9.917980194091797,2.25830078125,2.01416015625,2.86865234375
4.602499900000001,0.48063600063323975,0.0586579404771328,9.358335494995117,-5.157470703125,-1.556396484375,-3.60107421875
4.6074999000000005,0.0586579404771328,0.15682020783424377,9.96945571899414,7.965087890625,1.007080078125,3.570556640625
4.6124999,0.5111620426177979,-0.01735796220600605,9.261969566345215,-10.07080078125,-0.3662109375,-3.84521484375
4.6174999,0.08319851011037827,0.30705636739730835,10.006566047668457,11.566162109375,-0.274658203125,3.143310546875
4.6224999,0.4213795065879822,0.04668693244457245,9.282918930053711,-12.115478515625,0.79345703125,-2.655029296875
4.6274999,0.09935937076807022,0.3693056106567383,9.996390342712402,12.0849609375,-1.5869140625,1.861572265625
4.6324999,0.24899697303771973,-0.02753331884741783,9.541492462158203,-10.986328125,1.922607421875,-1.373291015625
4.6374999,0.152031809091568,0.20530278980731964,10.058639526367188,9.307861328125,-2.38037109375,0.091552734375
4.6424999,0.09038111567497253,-0.10594342648983002,9.874884605407715,-6.805419921875,2.197265625,0.8544921875
4.647499900000001,0.2759317457675934,0.15322890877723694,9.849745750427246,3.90625,-2.349853515625,-1.922607421875
4.6524999000000005,0.014365210197865963,0.014365210197865963,9.93593692779541,-0.701904296875,2.13623046875,2.38037109375
4.6574999,0.4321534037590027,0.13287819921970367,9.48343276977539,-2.288818359375,-1.922607421875,-3.23486328125
4.6624999,0.03411737456917763,0.09157821536064148,9.953893661499023,5.523681640625,1.46484375,3.2958984375
4.6674999,0.5051765441894531,0.018555063754320145,9.317035675048828,-8.11767578125,-0.79345703125,-3.875732421875
4.6724999,0.05506663769483566,0.18495208024978638,9.981427192687988,10.009765625,0.518798828125,3.387451171875
4.6774999,0.4429273009300232,0.05985504388809204,9.272743225097656,-11.1083984375,0.274658203125,-3.387451171875
4.6824999,0.07900865375995636,0.3405751883983612,9.967659950256348,11.932373046875,-1.007080078125,2.50244140625
4.687499900000001,0.30047231912612915,0.06763619929552078,9.452906608581543,-11.1083984375,1.190185546875,-1.922607421875
4.6924999000000005,0.12509703636169434,0.25677812099456787,10.038887977600098,9.82666015625,-1.922607421875,0.640869140625
4.6974999,0.13347674906253815,-0.061052143573760986,9.806051254272461,-7.8125,2.13623046875,-0.030517578125
4.7024999,0.22445641458034515,0.11971008777618408,9.9371337890625,5.18798828125,-2.044677734375,-1.28173828125
4.7074999,0.031124621629714966,-0.01496376097202301,9.948506355285645,-2.13623046875,1.89208984375,1.89208984375
4.7124999,0.3992331326007843,0.11372458189725876,9.592369079589844,-1.007080078125,-1.983642578125,-2.960205078125
4.7174999,0.035913024097681046,0.11432313174009323,9.931747436523438,4.180908203125,1.556396484375,2.8076171875
4.7224999,0.5039794445037842,0.025737667456269264,9.336189270019531,-7.110595703125,-0.9765625,-3.5400390625
4.727499900000001,0.0586579404771328,0.19572599232196808,9.971850395202637,9.552001953125,0.640869140625,3.509521484375
4.7324999000000005,0.4842272996902466,0.016160860657691956,9.260771751403809,-11.199951171875,0.396728515625,-3.662109375
4.7374999,0.08080431073904037,0.3387795388698578,9.985616683959961,12.237548828125,-0.579833984375,2.655029296875
4.7424999,0.35673606395721436,0.05985504388809204,9.358335494995117,-12.3291015625,1.40380859375,-2.50244140625
4.7474999,0.09576806426048279,0.31783026456832886,10.012551307678223,11.383056640625,-1.77001953125,1.312255859375
4.7524999,0.1586158573627472,-0.07122749835252762,9.671976089477539,-9.796142578125,1.8310546875,-0.701904296875
4.7574999,0.16579847037792206,0.15682020783424377,10.005369186401367,7.62939453125,-2.471923828125,-0.67138671875
4.7624999,0.047884032130241394,-0.09516951441764832,9.914987564086914,-4.730224609375,2.227783203125,1.3427734375
4.7674999,0.35254621505737305,0.1412578970193863,9.700706481933594,1.617431640625,-2.105712890625,-2.50244140625
4.772499900000001,0.04189852997660637,0.038307227194309235,9.91977596282959,1.64794921875,2.0751953125,2.99072265625
4.7774999000000005,0.4926069974899292,0.08439560979604721,9.38167953491211,-4.730224609375,-1.40380859375,-3.631591796875
4.7824999,0.06224924325942993,0.13168109953403473,9.99100399017334,7.659912109375,1.220703125,3.570556640625
4.7874999,0.5039794445037842,0.028730420395731926,9.317035675048828,-9.796142578125,-0.3662109375,-3.753662109375
4.7924999,0.07481880486011505,0.30885201692581177,10.032901763916016,11.1083984375,-0.396728515625,3.021240234375
4.7974999,0.3992331326007843,0.09576806426048279,9.340977668762207,-11.566162109375,0.54931640625,-2.777099609375
4.8024999,0.09935937076807022,0.35434186458587646,9.983820915222168,11.444091796875,-1.708984375,1.64794921875
4.8074999,0.24001872539520264,-0.014365210197865963,9.575610160827637,-10.406494140625,1.922607421875,-1.03759765625
4.812499900000001,0.18375498056411743,0.15921440720558167,10.007762908935547,8.392333984375,-1.922607421875,-0.396728515625
4.8174999000000005,0.1041477769613266,-0.11133038252592087,9.88625717163086,-5.9814453125,2.74658203125,0.885009765625
4.8224999,0.31184476613998413,0.10953472554683685,9.776124000549316,2.9296875,-2.166748046875,-2.349853515625
4.8274999,0.016160860657691956,0.011971008032560349,9.93593692779541,0.3662109375,2.197265625,2.685546875
4.8324999,0.43275195360183716,0.09157821536064148,9.428366661071777,-3.41796875,-1.89208984375,-3.509521484375
4.8374999,0.03232172131538391,0.11192893236875534,9.967659950256348,6.4697265625,1.068115234375,3.47900390625
4.8424999,0.03232172131538391,0.11192893236875534,9.967659950256348,6.4697265625,1.068115234375,3.47900390625
4.8474999,0.5027823448181152,0.009576806798577309,9.300276756286621,-9.124755859375,-0.9765625,-3.753662109375
4.852499900000001,0.08918401598930359,0.2555810213088989,9.991601943969727,10.92529296875,0.091552734375,3.173828125
4.8574999000000005,0.456095427274704,0.07122749835252762,9.263166427612305,-11.8408203125,0.732421875,-3.0517578125
4.8624999,0.12449848651885986,0.36750996112823486,9.96945571899414,11.8408203125,-0.885009765625,1.8310546875
4.8674999,0.28371289372444153,0.026336219161748886,9.478046417236328,-11.04736328125,1.922607421875,-1.556396484375
4.8724999,0.14784196019172668,0.21966800093650818,10.040084838867188,9.3994140625,-2.01416015625,0.244140625
4.8774999,0.0867898091673851,-0.08918401598930359,9.84376049041748,-6.89697265625,2.197265625,0.48828125
4.8824999,0.2406172752380371,0.1107318252325058,9.858125686645508,3.814697265625,-2.44140625,-1.617431640625
4.8874999,0.0077811554074287415,0.0011971008498221636,9.937732696533203,-0.640869140625,2.166748046875,2.25830078125
4.8924999,0.4297592043876648,0.08619125932455063,9.5007905960083,-2.5634765625,-1.953125,-3.204345703125
4.897499900000001,0.0628477931022644,0.10833762586116791,9.955689430236816,5.828857421875,1.46484375,3.2958984375
4.9024999000000005,0.535702645778656,0.0035913025494664907,9.333196640014648,-8.30078125,-0.640869140625,-3.753662109375
4.9074999,0.09157821536064148,0.2298433631658554,9.97364616394043,10.25390625,0.396728515625,3.2958984375
4.9124999,0.45848962664604187,0.05746084079146385,9.26795482635498,-11.383056640625,0.48828125,-3.265380859375
4.9174999,0.08918401598930359,0.3734954595565796,9.95209789276123,11.932373046875,-1.220703125,2.288818359375
4.9224999,0.2890998423099518,0.031124621629714966,9.424176216125488,-11.3525390625,1.46484375,-1.678466796875
4.9274999,0.12629413604736328,0.24899697303771973,10.034099578857422,10.1318359375,-2.532958984375,0.579833984375
4.9324999,0.12928688526153564,-0.1173158809542656,9.785101890563965,-8.11767578125,2.288818359375,0.244140625
4.937499900000001,0.25318682193756104,0.11312603205442429,9.928155899047852,5.279541015625,-2.288818359375,-1.46484375
4.9424999000000005,0.041299980133771896,-0.040701430290937424,9.95090103149414,-2.25830078125,2.899169921875,2.01416015625
4.9474999,0.4231751561164856,0.11911153793334961,9.582193374633789,-1.03759765625,-2.0751953125,-3.204345703125
4.9524999,0.011372458189725876,0.10534487664699554,9.959878921508789,4.33349609375,1.800537109375,3.41796875
4.9574999,0.47405192255973816,0.03232172131538391,9.333196640014648,-7.293701171875,-1.373291015625,-3.7841796875
4.9624999,0.017956512048840523,0.20530278980731964,9.975440979003906,9.552001953125,0.244140625,3.448486328125
4.9674999,0.44592007994651794,0.03890577703714371,9.241618156433105,-11.199951171875,-0.1220703125,-3.35693359375
4.9724999,0.10474632680416107,0.35434186458587646,9.970054626464844,12.14599609375,-0.79345703125,2.410888671875
4.977499900000001,0.36810851097106934,0.050876785069704056,9.367314338684082,-11.810302734375,1.556396484375,-2.01416015625
4.9824999000000005,0.1759738177061081,0.2819172441959381,10.02811336517334,10.894775390625,-1.617431640625,0.701904296875
4.9874999,0.17537526786327362,-0.08918401598930359,9.712677955627441,-8.758544921875,2.44140625,0.091552734375
4.9924999,0.22924481332302094,0.13048399984836578,9.967659950256348,6.072998046875,-2.62451171875,-1.190185546875
4.9974999,0.013766659423708916,-0.05626374110579491,9.929951667785645,-3.11279296875,2.349853515625,1.922607421875
5.0024999,0.36810851097106934,0.12629413604736328,9.637260437011719,-0.30517578125,-2.38037109375,-2.716064453125
5.0074999,0.0005985504249110818,0.08738835901021957,9.952696800231934,3.60107421875,1.708984375,3.0517578125
5.0124999,0.4836287498474121,0.040701430290937424,9.350554466247559,-6.622314453125,-1.373291015625,-3.631591796875
5.0174999,0.04908113554120064,0.17717093229293823,9.966463088989258,9.1552734375,0.823974609375,3.570556640625
5.022499900000001,0.48482584953308105,0.04010287672281265,9.251194953918457,-10.711669921875,0.091552734375,-3.60107421875
5.0274999000000005,0.11013327538967133,0.3315969407558441,9.956886291503906,11.627197265625,-0.701904296875,2.716064453125
5.0324999,0.37409400939941406,0.08259996026754379,9.361927032470703,-11.566162109375,1.251220703125,-2.197265625
5.0374999,0.14784196019172668,0.2867056429386139,9.999981880187988,10.650634765625,-1.739501953125,0.91552734375
5.0424999,0.17417816817760468,-0.050876785069704056,9.702502250671387,-8.697509765625,2.197265625,-0.274658203125
5.0474999,0.21188685297966003,0.12689268589019775,9.964069366455078,6.28662109375,-2.532958984375,-1.15966796875
5.0524999,0.031124621629714966,-0.038307227194309235,9.93474006652832,-3.35693359375,2.5634765625,1.64794921875
5.0574999,0.36571431159973145,0.10773907601833344,9.660603523254395,-0.06103515625,-2.3193359375,-2.777099609375
5.062499900000001,-0.0005985504249110818,0.0933738648891449,9.956287384033203,3.2958984375,2.044677734375,3.326416015625
5.0674999000000005,0.46627077460289,0.009576806798577309,9.361329078674316,-6.53076171875,-1.373291015625,-3.84521484375
5.0724999,0.026336219161748886,0.16879121959209442,9.985616683959961,8.97216796875,0.8544921875,3.60107421875
5.0774999,0.47165772318840027,-0.014365210197865963,9.237428665161133,-10.8642578125,-0.335693359375,-3.60107421875
5.0824999,0.09935937076807022,0.33518823981285095,9.978434562683105,12.054443359375,-0.396728515625,2.532958984375
5.0874999,0.39205053448677063,0.053270988166332245,9.317035675048828,-11.993408203125,1.068115234375,-2.38037109375
5.0924999,0.14844051003456116,0.33279404044151306,10.002376556396484,11.444091796875,-1.800537109375,1.129150390625
5.0974999,0.18914192914962769,-0.05147533491253853,9.65222454071045,-9.70458984375,2.25830078125,-0.457763671875
5.102499900000001,0.20231004059314728,0.16819266974925995,9.992799758911133,7.354736328125,-2.50244140625,-0.946044921875
5.1074999000000005,0.025737667456269264,-0.07062894850969315,9.915586471557617,-4.21142578125,2.5634765625,1.708984375
5.1124999,0.3513490855693817,0.13407529890537262,9.690531730651855,0.885009765625,-2.44140625,-2.8076171875
5.1174999,0.002394201699644327,0.04668693244457245,9.937732696533203,2.38037109375,2.105712890625,3.082275390625
5.1224999,0.4794389009475708,0.04908113554120064,9.360730171203613,-5.828857421875,-1.708984375,-3.72314453125
5.1274999,0.047884032130241394,0.13287819921970367,9.980828285217285,8.36181640625,0.9765625,3.47900390625
5.1324999,0.497395396232605,0.017956512048840523,9.242815971374512,-10.345458984375,-0.457763671875,-3.5400390625
5.1374999,0.1041477769613266,0.2950853705406189,9.99100399017334,11.65771484375,-0.30517578125,2.838134765625
5.1424999,0.3902548849582672,0.08379705995321274,9.320028305053711,-11.71875,0.91552734375,-2.410888671875
5.147499900000001,0.12868833541870117,0.29568392038345337,9.996390342712402,11.077880859375,-1.617431640625,1.312255859375
5.1524999000000005,0.181959331035614,-0.02454056777060032,9.651625633239746,-9.33837890625,1.89208984375,-0.30517578125
5.1574999,0.1909375786781311,0.13287819921970367,9.989806175231934,7.049560546875,-2.532958984375,-0.79345703125
5.1624999,0.03411737456917763,-0.050876785069704056,9.925163269042969,-3.875732421875,2.532958984375,1.617431640625
5.1674999,0.35434186458587646,0.0999579206109047,9.699509620666504,0.54931640625,-2.3193359375,-2.5634765625
5.1724999,0.009576806798577309,0.08200141042470932,9.938929557800293,2.74658203125,2.0751953125,3.143310546875
5.1774999,0.4770447015762329,0.0347159244120121,9.37389850616455,-5.92041015625,-1.46484375,-3.692626953125
5.1824999,0.04668693244457245,0.17537526786327362,9.974244117736816,8.636474609375,1.03759765625,3.448486328125
5.187499900000001,0.4908113479614258,0.002992752008140087,9.272144317626953,-10.528564453125,-0.30517578125,-3.60107421875
5.1924999000000005,0.10175357013940811,0.3274070918560028,10.002974510192871,11.627197265625,-0.3662109375,2.838134765625
5.1974999,0.39145198464393616,0.05686229094862938,9.354744911193848,-12.0849609375,1.0986328125,-2.593994140625
5.2024999,0.39145198464393616,0.05686229094862938,9.354744911193848,-12.0849609375,1.0986328125,-2.593994140625
5.2074999,0.13407529890537262,0.3232172429561615,10.017938613891602,11.383056640625,-1.739501953125,1.220703125
5.2124999,0.1825578808784485,-0.04967968538403511,9.663596153259277,-9.735107421875,2.105712890625,-0.54931640625
5.2174999,0.18734627962112427,0.15801730751991272,10.014347076416016,7.38525390625,-2.3193359375,-0.8544921875
5.2224999,0.031124621629714966,-0.07422025501728058,9.931148529052734,-4.45556640625,2.5634765625,1.3427734375
5.227499900000001,0.3495534360408783,0.1215057373046875,9.720458984375,1.434326171875,-2.716064453125,-2.86865234375
5.2324999000000005,0.009576806798577309,0.058059390634298325,9.947908401489258,1.89208984375,2.25830078125,3.23486328125
5.2374999,0.4818331003189087,0.04189852997660637,9.378087997436523,-5.584716796875,-1.89208984375,-3.814697265625
5.2424999,0.04967968538403511,0.1604115068912506,9.982624053955078,8.11767578125,1.28173828125,3.570556640625
