# Time (seconds),Accel_X,Accel_Y,Accel_Z,Gyro_X,Gyro_Y,Gyro_Z
0.0024999,0.21847090125083923,-0.0293289702385664,9.752182006835938,-0.335693359375,0.244140625,-0.06103515625
0.0074999,0.21847090125083923,-0.030526071786880493,9.750985145568848,-0.091552734375,0.30517578125,-0.030517578125
0.012499900000000001,0.2172738015651703,-0.031124621629714966,9.753378868103027,-0.213623046875,0.244140625,0.091552734375
0.0174999,0.2106897532939911,-0.035913024097681046,9.754576683044434,-0.152587890625,0.244140625,-0.030517578125
0.0224999,0.20709845423698425,-0.04489128291606903,9.754576683044434,-0.18310546875,0.274658203125,0.030517578125
0.0274999,0.20350714027881622,-0.05386953800916672,9.750386238098145,-0.030517578125,0.30517578125,-0.1220703125
0.0324999,0.20231004059314728,-0.06165069341659546,9.747393608093262,-0.06103515625,0.48828125,-0.213623046875
0.0374999,0.20231004059314728,-0.06165069341659546,9.747393608093262,-0.06103515625,0.48828125,-0.213623046875
0.0424999,0.19871874153614044,-0.06404489278793335,9.739612579345703,0,0.457763671875,-0.091552734375
0.0474999,0.2017114907503128,-0.05985504388809204,9.736021041870117,-0.030517578125,0.396728515625,-0.457763671875
0.0524999,0.2041056901216507,-0.05686229094862938,9.733627319335938,0.030517578125,0.457763671875,-0.3662109375
0.0574999,0.2124854028224945,-0.0520738884806633,9.733627319335938,0.152587890625,0.579833984375,-0.3662109375
0.0624999,0.22086510062217712,-0.04967968538403511,9.73781681060791,0.091552734375,0.67138671875,-0.67138671875
0.0674999,0.228047713637352,-0.04728548228740692,9.747393608093262,0.244140625,0.79345703125,-0.640869140625
0.0724999,0.23283611238002777,-0.04369417950510979,9.75517463684082,0.1220703125,0.762939453125,-0.701904296875
0.0774999,0.23104046285152435,-0.03651157766580582,9.767146110534668,0.30517578125,0.762939453125,-0.6103515625
0.0824999,0.2172738015651703,-0.038307227194309235,9.766547203063965,0.396728515625,0.732421875,-0.79345703125
0.0874999,0.2041056901216507,-0.02992752194404602,9.764153480529785,0.18310546875,0.79345703125,-0.640869140625
0.0924999,0.1843535304069519,-0.03292027488350868,9.754576683044434,0.1220703125,0.3662109375,-0.335693359375
0.0974999,0.17178396880626678,-0.02753331884741783,9.744999885559082,0.06103515625,0.457763671875,-0.274658203125
0.1024999,0.1628057211637497,-0.020350715145468712,9.740211486816406,0.06103515625,0.42724609375,-0.06103515625
0.1074999,0.1628057211637497,-0.01496376097202301,9.737217903137207,-0.06103515625,0.30517578125,-0.06103515625
0.1124999,0.1628057211637497,-0.011372458189725876,9.73781681060791,-0.213623046875,0,-0.091552734375
0.1174999,0.16519992053508759,-0.010175357572734356,9.73781681060791,-0.274658203125,0.06103515625,0.1220703125
0.1224999,0.16879121959209442,-0.016160860657691956,9.739013671875,-0.3662109375,-0.06103515625,0.274658203125
0.1274999,0.1711854189634323,-0.02274491637945175,9.734824180603027,-0.335693359375,-0.244140625,0.152587890625
0.1324999,0.17537526786327362,-0.026336219161748886,9.733028411865234,-0.3662109375,-0.42724609375,0.396728515625
0.1374999,0.18136078119277954,-0.03531447425484657,9.731831550598145,-0.335693359375,-0.42724609375,0.42724609375
0.1424999,0.1885433793067932,-0.03651157766580582,9.733028411865234,-0.18310546875,-0.3662109375,0.42724609375
0.1474999,0.19273324310779572,-0.04189852997660637,9.739013671875,-0.244140625,-0.42724609375,0.396728515625
0.1524999,0.19572599232196808,-0.04489128291606903,9.745597839355469,-0.30517578125,-0.244140625,0.457763671875
0.1574999,0.19812019169330597,-0.04908113554120064,9.751583099365234,-0.274658203125,-0.396728515625,0.42724609375
0.1624999,0.1999158412218094,-0.05147533491253853,9.75397777557373,-0.335693359375,-0.30517578125,0.3662109375
0.1674999,0.20470423996448517,-0.05626374110579491,9.752182006835938,-0.274658203125,-0.030517578125,0.213623046875
0.1724999,0.20709845423698425,-0.05626374110579491,9.746196746826172,-0.30517578125,-0.030517578125,0.18310546875
0.17749990000000002,0.20949265360832214,-0.0586579404771328,9.741408348083496,-0.274658203125,-0.213623046875,0.244140625
0.1824999,0.21428105235099792,-0.058059390634298325,9.73781681060791,-0.244140625,0.030517578125,0.152587890625
0.1874999,0.21667525172233582,-0.05686229094862938,9.740211486816406,-0.091552734375,0.030517578125,0.152587890625
0.1924999,0.228047713637352,-0.053270988166332245,9.741408348083496,-0.1220703125,0.1220703125,0.030517578125
0.1974999,0.20290859043598175,-0.04249707981944084,9.737217903137207,-0.18310546875,0.732421875,0.457763671875
0.2024999,0.23163901269435883,-0.04967968538403511,9.749788284301758,-0.06103515625,0.518798828125,0.732421875
0.20749990000000001,0.19572599232196808,-0.046088382601737976,9.744400978088379,-0.030517578125,0.518798828125,0.244140625
0.2124999,0.22266076505184174,-0.058059390634298325,9.761758804321289,-0.091552734375,0.335693359375,-0.335693359375
0.2174999,0.2148796021938324,-0.06763619929552078,9.763554573059082,-0.091552734375,0.42724609375,-0.274658203125
0.2224999,0.2172738015651703,-0.06524199992418289,9.765948295593262,0,0.335693359375,-0.213623046875
0.2274999,0.2124854028224945,-0.06584054976701736,9.765350341796875,0.06103515625,0.335693359375,-0.18310546875
0.2324999,0.20290859043598175,-0.05746084079146385,9.761758804321289,-0.06103515625,0.396728515625,-0.3662109375
0.2374999,0.19452889263629913,-0.05027823522686958,9.758766174316406,-0.030517578125,0.396728515625,-0.396728515625
0.2424999,0.18315643072128296,-0.04369417950510979,9.75517463684082,0,0.244140625,-0.30517578125
0.2474999,0.18076223134994507,-0.03770867735147476,9.751583099365234,-0.06103515625,0.152587890625,-0.335693359375
0.2524999,0.17717093229293823,-0.03411737456917763,9.750386238098145,-0.030517578125,0.274658203125,-0.091552734375
0.2574999,0.17477671802043915,-0.030526071786880493,9.746794700622559,-0.030517578125,-0.091552734375,-0.06103515625
0.2624999,0.17178396880626678,-0.0293289702385664,9.742605209350586,-0.030517578125,0.030517578125,-0.030517578125
0.2674999,0.16759411990642548,-0.031124621629714966,9.740809440612793,-0.244140625,-0.1220703125,-0.030517578125
0.2724999,0.16400282084941864,-0.033518824726343155,9.73781681060791,-0.213623046875,-0.18310546875,0.091552734375
0.2774999,0.1646013706922531,-0.04010287672281265,9.737217903137207,-0.274658203125,-0.18310546875,0.274658203125
0.2824999,0.17058686912059784,-0.04668693244457245,9.739013671875,-0.274658203125,-0.457763671875,0.18310546875
0.28749990000000003,0.17836803197860718,-0.053270988166332245,9.742605209350586,-0.244140625,-0.3662109375,0.091552734375
0.2924999,0.17896658182144165,-0.060453593730926514,9.743802070617676,-0.06103515625,-0.152587890625,0.244140625
0.2974999,0.19692309200763702,-0.06165069341659546,9.749788284301758,-0.152587890625,-0.091552734375,0.42724609375
0.3024999,0.19393034279346466,-0.06763619929552078,9.750386238098145,-0.152587890625,-0.457763671875,0.091552734375
0.3074999,0.2124854028224945,-0.06404489278793335,9.75517463684082,-0.091552734375,-0.335693359375,-0.030517578125
0.3124999,0.22206220030784607,-0.06703764945268631,9.75517463684082,-0.091552734375,-0.091552734375,0.030517578125
0.3174999,0.22744916379451752,-0.0628477931022644,9.752182006835938,-0.091552734375,0.213623046875,-0.06103515625
0.3224999,0.23343466222286224,-0.06344634294509888,9.750985145568848,0,0.244140625,-0.213623046875
0.3274999,0.22505496442317963,-0.0586579404771328,9.743802070617676,-0.06103515625,0.396728515625,-0.335693359375
0.3324999,0.2172738015651703,-0.05925649031996727,9.740211486816406,0.1220703125,0.3662109375,-0.3662109375
0.3374999,0.20350714027881622,-0.05446808785200119,9.740211486816406,0.152587890625,0.457763671875,-0.335693359375
0.3424999,0.19452889263629913,-0.05147533491253853,9.743204116821289,0.152587890625,0.457763671875,-0.30517578125
0.34749990000000003,0.19033902883529663,-0.04489128291606903,9.748590469360352,-0.030517578125,0.457763671875,-0.213623046875
0.35249990000000003,0.18614917993545532,-0.04189852997660637,9.75278091430664,0,0.67138671875,-0.335693359375
0.3574999,0.1885433793067932,-0.038307227194309235,9.753378868103027,-0.030517578125,0.42724609375,-0.335693359375
0.3624999,0.181959331035614,-0.03770867735147476,9.750386238098145,-0.06103515625,0.244140625,-0.244140625
0.3674999,0.17956513166427612,-0.03711012750864029,9.745597839355469,-0.1220703125,0.30517578125,-0.18310546875
0.3724999,0.1693897694349289,-0.040701430290937424,9.744999885559082,-0.06103515625,0.152587890625,-0.152587890625
0.3774999,0.16400282084941864,-0.041299980133771896,9.746794700622559,-0.1220703125,0.030517578125,-0.091552734375
0.3824999,0.1628057211637497,-0.04429273307323456,9.750985145568848,-0.06103515625,0.030517578125,-0.18310546875
0.3874999,0.16519992053508759,-0.048482585698366165,9.75397777557373,-0.1220703125,0.06103515625,0.030517578125
0.3924999,0.17417816817760468,-0.048482585698366165,9.756970405578613,-0.030517578125,-0.1220703125,0.213623046875
0.3974999,0.18375498056411743,-0.04967968538403511,9.754576683044434,-0.06103515625,-0.244140625,-0.030517578125
0.4024999,0.18375498056411743,-0.04967968538403511,9.754576683044434,-0.06103515625,-0.244140625,-0.030517578125
0.4074999,0.19213469326496124,-0.05446808785200119,9.75397777557373,-0.06103515625,0.06103515625,-0.091552734375
0.41249990000000003,0.19871874153614044,-0.05386953800916672,9.754576683044434,0.06103515625,0,-0.06103515625
0.41749990000000003,0.19632454216480255,-0.05686229094862938,9.75278091430664,0,0,-0.030517578125
0.4224999,0.19572599232196808,-0.05626374110579491,9.753378868103027,-0.152587890625,-0.06103515625,0
0.4274999,0.1909375786781311,-0.053270988166332245,9.748590469360352,-0.091552734375,-0.18310546875,0.18310546875
0.4324999,0.19213469326496124,-0.05027823522686958,9.744400978088379,-0.152587890625,-0.091552734375,-0.030517578125
0.4374999,0.1646013706922531,-0.07661445438861847,9.734225273132324,-0.18310546875,0.18310546875,-0.1220703125
0.4424999,0.20111294090747833,-0.035913024097681046,9.743802070617676,-0.18310546875,0.1220703125,-0.30517578125
0.4474999,0.18614917993545532,-0.08319851011037827,9.739612579345703,-0.244140625,0.152587890625,-0.213623046875
0.4524999,0.21607670187950134,-0.025737667456269264,9.748590469360352,-0.244140625,0.3662109375,-0.152587890625
0.4574999,0.2322375625371933,-0.058059390634298325,9.750985145568848,-0.091552734375,0.1220703125,0.030517578125
0.4624999,0.22685061395168304,-0.038307227194309235,9.755773544311523,-0.1220703125,0.457763671875,-0.06103515625
0.4674999,0.23762452602386475,-0.061052143573760986,9.767146110534668,-0.06103515625,0.213623046875,-0.335693359375
0.47249990000000003,0.24361002445220947,-0.07661445438861847,9.785101890563965,0.152587890625,0.42724609375,-0.79345703125
0.47749990000000003,0.3082534670829773,-0.20290859043598175,9.855133056640625,0.67138671875,0.6103515625,-1.678466796875
0.4824999,0.7140706777572632,-0.42437225580215454,9.847352027893066,5.218505859375,-0.54931640625,-8.636474609375
0.4874999,1.004966139793396,-0.06823474913835526,10.032901763916016,-2.166748046875,32.989501953125,-11.8408203125
0.4924999,0.8702923059463501,0.22685061395168304,9.806650161743164,-4.608154296875,39.73388671875,18.00537109375
0.4974999,0.6500257849693298,0.5027823448181152,9.601346969604492,0.518798828125,22.216796875,-8.636474609375
0.5024999,-0.3555389642715454,0.7475894689559937,9.162610054016113,-0.701904296875,1.0986328125,0.18310546875
0.5074999,-0.812831461429596,0.5165489912033081,8.918401718139648,0.335693359375,-11.505126953125,0.18310546875
0.5124999,-0.9570821523666382,0.14245499670505524,8.90762710571289,0.030517578125,-11.322021484375,-2.8076171875
0.5174999,-0.6506243348121643,-0.03172317147254944,9.255385398864746,0.42724609375,-2.74658203125,-2.410888671875
0.5224999,-0.22625206410884857,-0.13946224749088287,9.543288230895996,-0.335693359375,4.119873046875,2.8076171875
0.5274999,-0.026336219161748886,-0.21547815203666687,9.722254753112793,-0.335693359375,0.396728515625,1.77001953125
0.5324999,-0.14365209639072418,-0.21188685297966003,9.657012939453125,-0.30517578125,-9.307861328125,0.30517578125
0.5374999,-0.4225766062736511,-0.11133038252592087,9.424176216125488,-0.3662109375,-20.751953125,1.190185546875
0.5424999,-0.414795458316803,-0.11611878126859665,9.676166534423828,-0.42724609375,-29.754638671875,0.213623046875
0.5474999,0.04249707981944084,-0.053270988166332245,9.657012939453125,0.030517578125,-12.26806640625,1.40380859375
0.5524999,0.3172317147254944,-0.06883329898118973,10.002974510192871,0.06103515625,5.06591796875,1.495361328125
0.5574999,0.9409212470054626,-0.0347159244120121,10.087968826293945,-0.06103515625,-0.30517578125,1.40380859375
0.5624999,0.9097966551780701,-0.05746084079146385,9.980229377746582,-0.091552734375,-1.617431640625,-0.640869140625
0.5674999000000001,0.7487865686416626,-0.0586579404771328,9.86111831665039,0.18310546875,0.732421875,-0.3662109375
0.5724999000000001,0.5793967843055725,-0.06224924325942993,9.758167266845703,0.3662109375,-0.823974609375,-0.244140625
0.5774999000000001,0.32680854201316833,-0.04967968538403511,9.686341285705566,0.244140625,-0.42724609375,-0.335693359375
0.5824999,0.20530278980731964,-0.05686229094862938,9.666589736938477,0.030517578125,-0.396728515625,-0.18310546875
0.5874999,0.12030863761901855,-0.03531447425484657,9.68813705444336,0.091552734375,-0.885009765625,0.030517578125
0.5924999,0.09876082092523575,-0.038307227194309235,9.710283279418945,0.091552734375,-0.335693359375,-0.091552734375
0.5974999,0.11372458189725876,-0.02992752194404602,9.738415718078613,0.152587890625,-0.274658203125,0.06103515625
0.6024999,0.15562310814857483,-0.0293289702385664,9.752182006835938,0.091552734375,-0.91552734375,0.030517578125
0.6074999,0.16519992053508759,-0.018555063754320145,9.763554573059082,0.335693359375,-0.579833984375,-0.091552734375
0.6124999,0.19812019169330597,-0.02693476900458336,9.77013874053955,0.274658203125,-0.396728515625,-0.152587890625
0.6174999,0.2148796021938324,-0.023942016065120697,9.77791976928711,0.213623046875,-0.30517578125,0.091552734375
0.6224999,0.2232593148946762,-0.010773907415568829,9.773131370544434,0.30517578125,-0.274658203125,0.396728515625
0.6274999,0.22864626348018646,-0.03531447425484657,9.775525093078613,0.18310546875,-0.3662109375,0.518798828125
0.6324999,0.22505496442317963,-0.018555063754320145,9.764153480529785,0.030517578125,-0.518798828125,0.3662109375
0.6374999,0.20530278980731964,-0.03172317147254944,9.761159896850586,0.244140625,-0.54931640625,2.0751953125
0.6424999,0.18914192914962769,-0.06165069341659546,9.740809440612793,0.244140625,-0.701904296875,0.67138671875
0.6474999,0.18076223134994507,-0.05626374110579491,9.733627319335938,0.274658203125,-0.640869140625,0.244140625
0.6524999,0.17178396880626678,-0.07781155407428741,9.716269493103027,0.091552734375,-0.518798828125,0.3662109375
0.6574999,0.17896658182144165,-0.08978256583213806,9.715071678161621,0.091552734375,-0.457763671875,0.244140625
0.6624999,0.1801636815071106,-0.0867898091673851,9.722254753112793,0,-0.8544921875,0.396728515625
0.6674999,0.181959331035614,-0.09038111567497253,9.723451614379883,0.030517578125,-0.6103515625,0.274658203125
0.6724999,0.19033902883529663,-0.08619125932455063,9.743204116821289,0.152587890625,-0.640869140625,-0.091552734375
0.6774999,0.1951274424791336,-0.1041477769613266,9.744400978088379,0.1220703125,-0.579833984375,-0.518798828125
0.6824999,0.21009120345115662,-0.09157821536064148,9.754576683044434,0.244140625,-0.518798828125,-0.42724609375
0.6874999,0.2148796021938324,-0.10235211998224258,9.757569313049316,0.3662109375,-0.396728515625,-0.579833984375
0.6924999000000001,0.2214636504650116,-0.08379705995321274,9.757569313049316,0.3662109375,-0.3662109375,-0.67138671875
0.6974999000000001,0.22685061395168304,-0.03531447425484657,9.743204116821289,0.274658203125,-0.396728515625,-0.762939453125
0.7024999000000001,0.24181437492370605,-0.05027823522686958,9.761159896850586,0.274658203125,-0.8544921875,-1.8310546875
0.7074999,0.2190694510936737,-0.017956512048840523,9.730035781860352,0.457763671875,-0.152587890625,-0.946044921875
0.7124999,0.2232593148946762,-0.041299980133771896,9.746196746826172,0.30517578125,-0.30517578125,-0.48828125
0.7174999,0.19213469326496124,-0.053270988166332245,9.736021041870117,0.42724609375,-0.6103515625,-0.79345703125
0.7224999,0.1472434103488922,-0.04668693244457245,9.725846290588379,0.335693359375,-0.42724609375,-0.8544921875
0.7274999,0.14604631066322327,-0.031124621629714966,9.742006301879883,0.091552734375,-0.732421875,-0.518798828125
0.7324999,0.13108254969120026,-0.053270988166332245,9.73661994934082,0.18310546875,-0.946044921875,-0.457763671875
0.7374999,0.14844051003456116,-0.03770867735147476,9.750386238098145,0.1220703125,-0.762939453125,-0.091552734375
0.7424999,0.18076223134994507,-0.0628477931022644,9.761758804321289,0.1220703125,-0.79345703125,-0.18310546875
0.7474999,0.1999158412218094,-0.058059390634298325,9.764153480529785,0,-0.3662109375,-0.274658203125
0.7524999,0.21428105235099792,-0.05027823522686958,9.77791976928711,0.1220703125,-0.54931640625,-0.213623046875
0.7574999,0.20470423996448517,-0.020350715145468712,9.765350341796875,0.06103515625,-0.54931640625,-0.48828125
0.7624999,0.19871874153614044,-0.023942016065120697,9.763554573059082,0.030517578125,-1.03759765625,-0.42724609375
0.7674999,0.19273324310779572,-0.002394201699644327,9.755773544311523,-0.091552734375,-1.251220703125,-0.18310546875
0.7724999,0.19273324310779572,-0.002394201699644327,9.755773544311523,-0.091552734375,-1.251220703125,-0.18310546875
0.7774999,0.18375498056411743,-0.013766659423708916,9.743802070617676,-0.1220703125,-1.068115234375,-0.213623046875
0.7824999,0.22086510062217712,-0.03651157766580582,9.748590469360352,-0.274658203125,-1.251220703125,0.1220703125
0.7874999,0.23762452602386475,-0.058059390634298325,9.747393608093262,0,-0.335693359375,0
0.7924999,0.25677812099456787,-0.060453593730926514,9.740809440612793,0.30517578125,0.457763671875,-0.1220703125
0.7974999,0.24121582508087158,-0.06883329898118973,9.736021041870117,0.091552734375,-0.18310546875,-0.518798828125
0.8024999,0.2172738015651703,-0.03651157766580582,9.734225273132324,-0.1220703125,-1.129150390625,-0.732421875
0.8074999,0.1867477297782898,-0.04728548228740692,9.724050521850586,-0.274658203125,-0.9765625,-0.396728515625
0.8124999,0.19632454216480255,-0.0293289702385664,9.731232643127441,-0.152587890625,-0.54931640625,0.06103515625
0.8174999000000001,0.23582886159420013,-0.06404489278793335,9.725846290588379,0.06103515625,-0.030517578125,-0.030517578125
0.8224999000000001,0.2472013235092163,-0.07302315533161163,9.734225273132324,0.48828125,1.15966796875,-0.06103515625
0.8274999000000001,0.24361002445220947,-0.04728548228740692,9.728838920593262,0.274658203125,0.701904296875,-0.48828125
0.8324999000000001,0.2082955539226532,-0.043095629662275314,9.745597839355469,-0.18310546875,-0.732421875,-0.42724609375
0.8374999,0.166995570063591,-0.019153613597154617,9.750386238098145,-0.30517578125,-1.28173828125,-0.1220703125
0.8424999,0.16879121959209442,-0.013766659423708916,9.753378868103027,-0.30517578125,-0.67138671875,0.152587890625
0.8474999,0.2232593148946762,-0.03651157766580582,9.783307075500488,0.030517578125,0.1220703125,-0.030517578125
0.8524999,0.2406172752380371,-0.04429273307323456,9.743802070617676,0.67138671875,1.495361328125,-0.091552734375
0.8574999,0.23104046285152435,-0.028730420395731926,9.771934509277344,0.18310546875,0.946044921875,-0.54931640625
0.8624999,0.21547815203666687,0.0035913025494664907,9.746196746826172,-0.335693359375,-1.190185546875,-0.3662109375
0.8674999,0.17417816817760468,-0.011372458189725876,9.742006301879883,-0.640869140625,-1.495361328125,-0.030517578125
0.8724999,0.21428105235099792,-0.015562310814857483,9.730634689331055,-0.274658203125,-0.518798828125,0.152587890625
0.8774999,0.2579752206802368,-0.046088382601737976,9.713874816894531,0.579833984375,1.251220703125,-0.06103515625
0.8824999,0.24420857429504395,-0.07541735470294952,9.713275909423828,0.6103515625,1.617431640625,-0.701904296875
0.8874999,0.22744916379451752,-0.02992752194404602,9.733028411865234,-0.213623046875,-0.579833984375,-0.42724609375
0.8924999,0.17537526786327362,-0.03411737456917763,9.754576683044434,-0.640869140625,-1.861572265625,-0.274658203125
0.8974999,0.19632454216480255,-0.043095629662275314,9.77672290802002,-0.213623046875,-0.91552734375,0.335693359375
0.9024999,0.23702596127986908,-0.02454056777060032,9.741408348083496,0.640869140625,1.068115234375,0.1220703125
0.9074999,0.2256535142660141,-0.0694318488240242,9.763554573059082,0.6103515625,2.227783203125,-0.946044921875
0.9124999,0.21428105235099792,-0.002394201699644327,9.742605209350586,-0.06103515625,-0.732421875,-0.30517578125
0.9174999,0.16579847037792206,-0.020949264988303185,9.768342971801758,-0.732421875,-2.62451171875,-0.1220703125
0.9224999,0.17896658182144165,-0.04429273307323456,9.767744064331055,-0.48828125,-0.762939453125,0.3662109375
0.9274999,0.2495955228805542,-0.050876785069704056,9.771934509277344,0.91552734375,2.044677734375,0.18310546875
0.9324999,0.2172738015651703,-0.08978256583213806,9.73781681060791,0.823974609375,2.593994140625,-1.129150390625
0.9374999,0.22744916379451752,-0.02992752194404602,9.787496566772461,-0.457763671875,-1.434326171875,-0.42724609375
0.9424999000000001,0.17657238245010376,-0.02513911761343479,9.768342971801758,-1.03759765625,-2.960205078125,0.030517578125
0.9474999000000001,0.25498247146606445,-0.06883329898118973,9.805453300476074,-0.152587890625,-0.091552734375,0.3662109375
0.9524999000000001,0.25917232036590576,0.008379706181585789,9.768342971801758,1.52587890625,3.509521484375,-0.213623046875
0.9574999000000001,0.22445641458034515,-0.05147533491253853,9.79527759552002,0.457763671875,1.77001953125,-1.220703125
0.9624999,0.1759738177061081,0.05147533491253853,9.75936508178711,-1.312255859375,-3.509521484375,-0.335693359375
0.9674999,0.15502455830574036,-0.046088382601737976,9.778518676757812,-1.068115234375,-3.173828125,0.42724609375
0.9724999,0.21368250250816345,-0.033518824726343155,9.758766174316406,0.885009765625,2.25830078125,0.030517578125
0.9774999,0.2106897532939911,-0.09516951441764832,9.724050521850586,1.89208984375,4.638671875,-0.8544921875
0.9824999,0.20231004059314728,-0.03411737456917763,9.749788284301758,-0.54931640625,-1.46484375,-0.54931640625
0.9874999,0.16639702022075653,0.0011971008498221636,9.720458984375,-1.8310546875,-5.2490234375,0.579833984375
0.9924999,0.2322375625371933,-0.015562310814857483,9.750386238098145,-0.1220703125,-0.18310546875,0.48828125
0.9974999,0.25019407272338867,-0.028730420395731926,9.752182006835938,2.13623046875,5.79833984375,-0.732421875
1.0024999,0.22625206410884857,-0.02454056777060032,9.763554573059082,0.48828125,1.3427734375,-1.007080078125
1.0074999000000002,0.18614917993545532,-0.02454056777060032,9.77253246307373,-2.044677734375,-5.706787109375,0.18310546875
1.0124999000000001,0.22924481332302094,-0.018555063754320145,9.727641105651855,-1.0986328125,-2.899169921875,0.396728515625
1.0174999000000002,0.23762452602386475,-0.01735796220600605,9.784503936767578,2.197265625,5.859375,-0.579833984375
1.0224999000000001,0.24001872539520264,-0.013168109580874443,9.700706481933594,1.46484375,3.72314453125,-1.251220703125
1.0274999,0.18375498056411743,-0.012569558806717396,9.775525093078613,-2.105712890625,-5.767822265625,0.3662109375
1.0324999000000001,0.2214636504650116,-0.061052143573760986,9.697115898132324,-1.64794921875,-4.852294921875,0.6103515625
1.0374999,0.21308395266532898,-0.05746084079146385,9.75517463684082,2.13623046875,5.7373046875,-0.762939453125
1.0424999000000001,0.23163901269435883,-0.07541735470294952,9.715071678161621,2.044677734375,4.8828125,-1.46484375
1.0474999,0.20290859043598175,-0.0454898327589035,9.777320861816406,-1.983642578125,-5.462646484375,0.457763671875
1.0524999000000002,0.22744916379451752,-0.05686229094862938,9.749189376831055,-1.922607421875,-5.18798828125,0.885009765625
1.0574999,0.17896658182144165,-0.03770867735147476,9.788095474243164,2.01416015625,5.645751953125,-0.79345703125
1.0624999000000002,0.2124854028224945,-0.05626374110579491,9.762955665588379,1.800537109375,4.547119140625,-1.40380859375
1.0674999,0.22206220030784607,-0.0454898327589035,9.751583099365234,-2.01416015625,-5.79833984375,0.79345703125
1.0724999000000002,0.2364274114370346,-0.03411737456917763,9.761159896850586,-1.373291015625,-4.364013671875,0.579833984375
1.0774999,0.15981295704841614,-0.004788403399288654,9.754576683044434,2.105712890625,6.34765625,-1.40380859375
1.0824999000000002,0.20231004059314728,-0.011372458189725876,9.778518676757812,1.03759765625,2.38037109375,-1.190185546875
1.0874999,0.22505496442317963,-0.05147533491253853,9.780912399291992,-1.953125,-6.40869140625,1.617431640625
1.0924999000000002,0.21428105235099792,-0.01496376097202301,9.783307075500488,-0.213623046875,-1.251220703125,-0.244140625
1.0974999,0.15562310814857483,-0.033518824726343155,9.738415718078613,2.13623046875,6.65283203125,-1.77001953125
1.1024999000000002,0.20769700407981873,-0.05147533491253853,9.720458984375,-0.30517578125,-1.373291015625,-0.244140625
1.1074999,0.26994624733924866,-0.10235211998224258,9.673172950744629,-1.983642578125,-6.011962890625,1.800537109375
1.1124999000000002,0.1843535304069519,-0.053270988166332245,9.727641105651855,1.129150390625,3.082275390625,-1.251220703125
1.1174999,0.19871874153614044,-0.0802057534456253,9.741408348083496,1.617431640625,4.82177734375,-1.708984375
1.1224999000000002,0.25438392162323,-0.09457096457481384,9.75397777557373,-1.64794921875,-5.18798828125,1.3427734375
1.1274999,0.28311434388160706,-0.043095629662275314,9.762955665588379,-0.91552734375,-3.204345703125,0.48828125
1.1324999000000002,0.13706804811954498,-0.0035913025494664907,9.746794700622559,2.166748046875,6.866455078125,-1.77001953125
1.1374999000000001,0.13706804811954498,-0.0035913025494664907,9.746794700622559,2.166748046875,6.866455078125,-1.77001953125
1.1424999000000002,0.21188685297966003,0.014365210197865963,9.743802070617676,-0.152587890625,-0.1220703125,-0.91552734375
1.1474999000000001,0.27473464608192444,-0.0293289702385664,9.710283279418945,-2.105712890625,-6.89697265625,2.288818359375
1.1524999000000002,0.1825578808784485,0.010773907415568829,9.75517463684082,1.190185546875,2.593994140625,-1.251220703125
1.1574999000000001,0.1646013706922531,-0.035913024097681046,9.771934509277344,1.739501953125,5.55419921875,-1.800537109375
1.1624999,0.2579752206802368,-0.09516951441764832,9.768342971801758,-1.922607421875,-5.43212890625,1.46484375
1.1674999000000001,0.26096799969673157,-0.05027823522686958,9.785101890563965,-0.6103515625,-2.899169921875,0.6103515625
1.1724999,0.11791443079710007,-0.02454056777060032,9.744999885559082,2.288818359375,6.9580078125,-1.953125
1.1774999000000002,0.21308395266532898,-0.03531447425484657,9.726444244384766,-0.42724609375,-0.946044921875,-0.244140625
1.1824999,0.2998737692832947,-0.05506663769483566,9.701305389404297,-1.739501953125,-6.072998046875,1.922607421875
1.1874999000000002,0.14425064623355865,0,9.747992515563965,1.708984375,4.364013671875,-1.77001953125
1.1924999,0.16879121959209442,-0.030526071786880493,9.747393608093262,0.91552734375,3.265380859375,-1.251220703125
1.1974999000000002,0.2902969419956207,-0.10295066982507706,9.734824180603027,-1.983642578125,-6.256103515625,2.166748046875
1.2024999,0.18375498056411743,-0.02753331884741783,9.77133560180664,0.457763671875,0.518798828125,-0.885009765625
1.2074999000000002,0.11791443079710007,-0.043095629662275314,9.767744064331055,1.617431640625,5.615234375,-1.64794921875
1.2124999,0.25677812099456787,-0.10055647045373917,9.764153480529785,-1.5869140625,-4.5166015625,1.8310546875
1.2174999000000002,0.26994624733924866,-0.01496376097202301,9.780313491821289,-0.48828125,-2.38037109375,-0.1220703125
1.2224999,0.1041477769613266,-0.033518824726343155,9.77133560180664,1.983642578125,6.40869140625,-2.25830078125
1.2274999000000002,0.24660277366638184,-0.06524199992418289,9.727043151855469,-0.9765625,-2.166748046875,1.0986328125
1.2324999,0.2944868206977844,-0.05686229094862938,9.728240013122559,-1.28173828125,-4.57763671875,0.91552734375
1.2374999000000002,0.08918401598930359,-0.019153613597154617,9.724648475646973,1.89208984375,5.79833984375,-2.3193359375
1.2424999,0.21188685297966003,-0.04249707981944084,9.70549488067627,-0.30517578125,0.1220703125,0.701904296875
1.2474999000000002,0.31603461503982544,-0.06165069341659546,9.708487510681152,-1.556396484375,-5.615234375,1.46484375
1.2524999,0.11133038252592087,0.011372458189725876,9.731831550598145,1.89208984375,4.608154296875,-2.5634765625
1.2574999000000002,0.1951274424791336,-0.016160860657691956,9.730634689331055,0.396728515625,1.5869140625,0.3662109375
1.2624999000000001,0.3256114423274994,-0.06883329898118973,9.744400978088379,-1.708984375,-5.92041015625,2.105712890625
1.2674999000000002,0.11611878126859665,0.043095629662275314,9.773730278015137,1.617431640625,3.387451171875,-2.685546875
1.2724999000000001,0.16639702022075653,-0.02214636653661728,9.766547203063965,0.518798828125,2.62451171875,0.091552734375
1.2774999000000002,0.3076549172401428,-0.10953472554683685,9.75637149810791,-1.8310546875,-5.7373046875,2.44140625
1.2824999000000001,0.12389993667602539,0.017956512048840523,9.768941879272461,1.312255859375,2.74658203125,-2.777099609375
1.2874999,0.15023615956306458,-0.06883329898118973,9.749788284301758,0.640869140625,3.0517578125,0.244140625
1.2924999000000001,0.3196259140968323,-0.12749123573303223,9.739013671875,-1.739501953125,-5.645751953125,2.44140625
1.2974999,0.13946224749088287,0.03232172131538391,9.765350341796875,1.373291015625,2.38037109375,-3.021240234375
1.3024999000000002,0.16639702022075653,-0.06524199992418289,9.747393608093262,0.640869140625,3.021240234375,0.244140625
1.3074999,0.3429693877696991,-0.09397241473197937,9.755773544311523,-1.922607421875,-5.43212890625,2.50244140625
1.3124999000000002,0.1496376097202301,0.05267243832349777,9.765350341796875,1.312255859375,2.5634765625,-3.021240234375
1.3174999,0.19213469326496124,-0.05985504388809204,9.745597839355469,0.518798828125,2.593994140625,0.457763671875
1.3224999000000002,0.3531447649002075,-0.07661445438861847,9.728240013122559,-1.64794921875,-5.279541015625,2.13623046875
1.3274999,0.14844051003456116,0.0586579404771328,9.741408348083496,1.617431640625,3.11279296875,-3.173828125
1.3324999000000002,0.20709845423698425,-0.07661445438861847,9.727043151855469,0.030517578125,1.708984375,1.007080078125
1.3374999,0.353743314743042,-0.055665191262960434,9.737217903137207,-1.617431640625,-5.18798828125,1.678466796875
1.3424999000000002,0.10714052617549896,0.038307227194309235,9.773131370544434,1.77001953125,3.7841796875,-3.387451171875
1.3474999,0.21847090125083923,-0.09935937076807022,9.752182006835938,-0.396728515625,0.54931640625,1.800537109375
1.3524999000000002,0.3208230137825012,-0.046088382601737976,9.773730278015137,-1.40380859375,-4.39453125,0.823974609375
1.3574999,0.0867898091673851,0.012569558806717396,9.822811126708984,2.01416015625,4.791259765625,-3.448486328125
1.3624999000000002,0.26336219906806946,-0.10295066982507706,9.766547203063965,-0.823974609375,-0.885009765625,2.593994140625
1.3674999,0.29628247022628784,-0.03172317147254944,9.814431190490723,-0.91552734375,-3.41796875,-0.3662109375
1.3724999000000002,0.08319851011037827,0.009576806798577309,9.788095474243164,1.800537109375,4.8828125,-2.838134765625
1.3774999,0.28790274262428284,-0.1280897855758667,9.712677955627441,-1.312255859375,-2.777099609375,3.265380859375
1.3824999000000002,0.24361002445220947,0.02454056777060032,9.775525093078613,0.06103515625,-1.678466796875,-1.8310546875
1.3874999000000001,0.09696517139673233,-0.012569558806717396,9.719860076904297,1.52587890625,4.425048828125,-1.89208984375
1.3924999000000002,0.33758243918418884,-0.10654197633266449,9.719860076904297,-1.861572265625,-3.875732421875,3.662109375
1.3974999000000001,0.1825578808784485,0.07242459803819656,9.745597839355469,0.946044921875,0.579833984375,-2.99072265625
1.4024999000000002,0.14185644686222076,-0.04728548228740692,9.6989107131958,0.762939453125,2.8076171875,-0.244140625
1.4074999000000001,0.35015198588371277,-0.08379705995321274,9.715071678161621,-1.953125,-4.425048828125,3.387451171875
1.4124999,0.1215057373046875,0.05386953800916672,9.747393608093262,1.8310546875,2.9296875,-3.60107421875
1.4174999000000001,0.2472013235092163,-0.15921440720558167,9.740809440612793,-0.335693359375,0.48828125,1.28173828125
1.4224999,0.3274070918560028,-0.08200141042470932,9.7791166305542,-1.28173828125,-3.570556640625,2.25830078125
1.4274999000000002,0.11372458189725876,-0.010773907415568829,9.800664901733398,2.105712890625,4.33349609375,-4.302978515625
1.4324999,0.31543606519699097,-0.14844051003456116,9.724050521850586,-1.3427734375,-2.44140625,3.23486328125
1.4374999000000002,0.24899697303771973,0.028730420395731926,9.790489196777344,-0.030517578125,-0.8544921875,0.396728515625
1.4424999,0.1173158809542656,0.0077811554074287415,9.70549488067627,1.40380859375,3.387451171875,-3.387451171875
1.4474999000000002,0.3381809890270233,-0.10534487664699554,9.712677955627441,-1.800537109375,-3.84521484375,4.608154296875
1.4524999,0.13168109953403473,0.06703764945268631,9.750985145568848,1.28173828125,2.0751953125,-2.471923828125
1.4574999000000002,0.20470423996448517,-0.09516951441764832,9.692925453186035,-0.030517578125,0.6103515625,-0.885009765625
1.4624999,0.31184476613998413,-0.08319851011037827,9.746794700622559,-1.129150390625,-2.716064453125,4.150390625
1.4674999000000002,0.12509703636169434,0.023343466222286224,9.753378868103027,1.708984375,3.5400390625,-4.669189453125
1.4724999,0.30526071786880493,-0.13587094843387604,9.695918083190918,-1.15966796875,-2.288818359375,2.655029296875
1.4774999000000002,0.2256535142660141,0.004189853090792894,9.761758804321289,0.152587890625,0.213623046875,1.251220703125
1.4824999,0.1346738487482071,-0.01735796220600605,9.694721221923828,0.885009765625,2.0751953125,-4.638671875
1.4874999000000002,0.3106476664543152,-0.12629413604736328,9.715670585632324,-1.46484375,-3.35693359375,5.126953125
1.4924999,0.11252748221158981,0.013168109580874443,9.761159896850586,1.3427734375,2.777099609375,-2.74658203125
1.4974999000000002,0.23283611238002777,-0.14185644686222076,9.706692695617676,-0.3662109375,-1.007080078125,-1.007080078125
1.5024999,0.23283611238002777,-0.14185644686222076,9.706692695617676,-0.3662109375,-1.007080078125,-1.007080078125
1.5074999000000002,0.22086510062217712,-0.10534487664699554,9.788095474243164,-0.67138671875,-1.312255859375,4.45556640625
1.5124999000000001,0.11372458189725876,-0.031124621629714966,9.744999885559082,1.28173828125,2.8076171875,-5.67626953125
1.5174999000000002,0.27234044671058655,-0.16759411990642548,9.716269493103027,-1.495361328125,-3.021240234375,3.936767578125
1.5224999000000001,0.166995570063591,0.0077811554074287415,9.768941879272461,0.762939453125,1.708984375,-0.091552734375
1.5274999000000002,0.23044191300868988,-0.07062894850969315,9.690531730651855,0.30517578125,0.274658203125,-4.0283203125
1.5324999000000001,0.32202014327049255,-0.05147533491253853,9.783307075500488,-0.9765625,-2.349853515625,6.072998046875
1.5374999000000003,0.1646013706922531,0.04908113554120064,9.782708168029785,1.46484375,3.143310546875,-5.18798828125
1.5424999000000001,0.3280056416988373,-0.08738835901021957,9.740211486816406,-1.068115234375,-2.62451171875,2.01416015625
1.5474999,0.19632454216480255,0.035913024097681046,9.803657531738281,0.518798828125,1.220703125,2.166748046875
1.5524999000000002,0.19213469326496124,-0.02753331884741783,9.708487510681152,0.48828125,1.0986328125,-5.79833984375
1.5574999,0.28730419278144836,-0.07182604819536209,9.779715538024902,-1.15966796875,-2.532958984375,6.77490234375
1.5624999000000002,0.12210428714752197,0.028131870552897453,9.786299705505371,1.28173828125,2.9296875,-4.669189453125
1.5674999,0.28969839215278625,-0.11013327538967133,9.72285270690918,-0.91552734375,-2.50244140625,0.518798828125
1.5724999000000002,0.17537526786327362,0.015562310814857483,9.799467086791992,0.335693359375,0.8544921875,3.96728515625
1.5774999,0.1867477297782898,-0.0293289702385664,9.70310115814209,0.518798828125,0.946044921875,-6.89697265625
1.5824999000000002,0.2711433470249176,-0.06224924325942993,9.786897659301758,-1.190185546875,-2.471923828125,7.01904296875
1.5874999,0.12629413604736328,0.04010287672281265,9.798869132995605,1.28173828125,2.99072265625,-4.486083984375
1.5924999000000002,0.29388827085494995,-0.0975637212395668,9.732429504394531,-1.03759765625,-2.593994140625,-0.152587890625
1.5974999,0.16400282084941864,0.03890577703714371,9.813234329223633,0.54931640625,1.03759765625,4.608154296875
1.6024999000000002,0.20470423996448517,-0.038307227194309235,9.687539100646973,0.30517578125,0.518798828125,-7.38525390625
1.6074999,0.25917232036590576,-0.047884032130241394,9.79408073425293,-0.9765625,-2.166748046875,7.049560546875
1.6124999000000002,0.13168109953403473,0.020949264988303185,9.767146110534668,1.28173828125,2.9296875,-5.06591796875
1.6174999,0.30226796865463257,-0.13946224749088287,9.712677955627441,-1.15966796875,-2.99072265625,0.396728515625
1.6224999000000002,0.1364694982767105,0.005985504016280174,9.790489196777344,0.8544921875,2.13623046875,3.448486328125
1.6274999,0.2388216257095337,-0.11432313174009323,9.663596153259277,-0.06103515625,-0.274658203125,-6.9580078125
1.6324999000000002,0.2172738015651703,-0.07841010391712189,9.781511306762695,-0.79345703125,-1.40380859375,7.50732421875
1.6374999000000001,0.1562216579914093,-0.012569558806717396,9.744999885559082,1.129150390625,2.716064453125,-6.591796875
1.6424999000000002,0.2998737692832947,-0.1454477459192276,9.73661994934082,-1.220703125,-3.173828125,2.50244140625
1.6474999000000001,0.1412578970193863,0.02274491637945175,9.822811126708984,1.28173828125,2.655029296875,1.434326171875
1.6524999000000002,0.29628247022628784,-0.12449848651885986,9.685144424438477,-0.6103515625,-1.46484375,-5.828857421875
1.6574999000000001,0.2124854028224945,-0.005985504016280174,9.840767860412598,-0.091552734375,0.06103515625,7.354736328125
1.6624999000000003,0.20051439106464386,-0.0035913025494664907,9.689932823181152,0.732421875,1.5869140625,-7.965087890625
1.6674999000000001,0.2885012924671173,-0.061052143573760986,9.783905029296875,-1.190185546875,-2.86865234375,5.157470703125
1.6724999,0.12749123573303223,0.07062894850969315,9.774328231811523,1.28173828125,3.11279296875,-1.953125
1.6774999000000002,0.31124621629714966,-0.10714052617549896,9.706093788146973,-1.068115234375,-2.716064453125,-2.471923828125
1.6824999,0.1412578970193863,0.0454898327589035,9.817423820495605,0.762939453125,1.922607421875,5.615234375
1.6874999000000002,0.25318682193756104,-0.07900865375995636,9.657012939453125,-0.18310546875,-0.579833984375,-7.965087890625
1.6924999,0.20290859043598175,-0.040701430290937424,9.771934509277344,-0.6103515625,-1.15966796875,7.50732421875
1.6974999000000002,0.152031809091568,-0.004788403399288654,9.694122314453125,1.220703125,2.197265625,-6.011962890625
1.7024999,0.27413609623908997,-0.13706804811954498,9.718663215637207,-1.220703125,-3.326416015625,2.288818359375
1.7074999000000002,0.12509703636169434,0.03411737456917763,9.808445930480957,1.434326171875,3.23486328125,1.251220703125
1.7124999,0.30526071786880493,-0.14065934717655182,9.673771858215332,-1.007080078125,-2.777099609375,-5.0048828125
1.7174999000000002,0.17657238245010376,0.043095629662275314,9.834183692932129,0.701904296875,1.556396484375,7.049560546875
1.7224999,0.26396074891090393,-0.05686229094862938,9.657610893249512,0.213623046875,-0.18310546875,-8.026123046875
1.7274999000000002,0.24121582508087158,0.0035913025494664907,9.791686058044434,-0.762939453125,-1.52587890625,6.805419921875
1.7324999,0.16220717132091522,0.04668693244457245,9.716269493103027,1.190185546875,2.655029296875,-4.547119140625
1.7374999000000002,0.29209262132644653,-0.11552023142576218,9.732429504394531,-1.40380859375,-3.509521484375,1.068115234375
1.7424999,0.12629413604736328,0.04249707981944084,9.846753120422363,1.52587890625,3.60107421875,2.25830078125
1.7474999000000002,0.3190273642539978,-0.1711854189634323,9.666589736938477,-1.15966796875,-2.86865234375,-5.4931640625
1.7524999,0.16400282084941864,0.01496376097202301,9.84615421295166,0.6103515625,1.739501953125,7.080078125
1.7574999000000002,0.27653029561042786,-0.0975637212395668,9.655217170715332,-0.030517578125,-0.3662109375,-7.99560546875
1.7624999000000001,0.22086510062217712,-0.014365210197865963,9.813234329223633,-0.6103515625,-0.885009765625,6.77490234375
1.7674999000000002,0.1735796183347702,0.017956512048840523,9.70549488067627,1.190185546875,2.471923828125,-4.974365234375
1.7724999000000001,0.2783259451389313,-0.10773907601833344,9.781511306762695,-1.46484375,-3.5400390625,1.861572265625
1.7774999000000002,0.11851298063993454,0.06763619929552078,9.833584785461426,1.800537109375,3.814697265625,1.28173828125
1.7824999000000001,0.32860419154167175,-0.13287819921970367,9.68933391571045,-1.28173828125,-3.41796875,-4.547119140625
1.7874999000000003,0.12090718746185303,0.07003039866685867,9.85034465789795,1.15966796875,2.8076171875,6.378173828125
1.7924999000000001,0.31783026456832886,-0.09935937076807022,9.628880500793457,-0.48828125,-1.800537109375,-7.904052734375
1.7974999,0.21188685297966003,0.013168109580874443,9.824007987976074,0,0.18310546875,7.293701171875
1.8024999000000002,0.228047713637352,-0.05267243832349777,9.63187313079834,0.6103515625,1.007080078125,-6.4697265625
1.8074999,0.2861070930957794,-0.11013327538967133,9.819219589233398,-1.0986328125,-2.5634765625,3.936767578125
1.8124999000000002,0.13706804811954498,-0.01496376097202301,9.749788284301758,1.617431640625,3.509521484375,-1.983642578125
1.8174999,0.2908954918384552,-0.18495208024978638,9.713874816894531,-1.678466796875,-4.0283203125,-1.3427734375
1.8224999000000002,0.09038111567497253,0.025737667456269264,9.859322547912598,1.64794921875,3.84521484375,3.5400390625
1.8274999,0.2998737692832947,-0.14664486050605774,9.61571216583252,-1.251220703125,-3.204345703125,-6.011962890625
1.8324999000000002,0.08319851011037827,0.07781155407428741,9.818621635437012,0.79345703125,2.25830078125,6.988525390625
1.8374999,0.25977087020874023,-0.06643909960985184,9.607333183288574,-0.18310546875,-1.40380859375,-7.781982421875
1.8424999000000002,0.17058686912059784,0.040701430290937424,9.825803756713867,-0.274658203125,-0.244140625,6.805419921875
1.8474999,0.1951274424791336,0.008379706181585789,9.653421401977539,0.8544921875,1.46484375,-5.9814453125
1.8524999000000002,0.26336219906806946,-0.06165069341659546,9.860519409179688,-1.190185546875,-2.685546875,3.72314453125
1.8574999,0.13706804811954498,0.050876785069704056,9.776124000549316,1.708984375,3.5400390625,-1.5869140625
1.8624999000000002,0.2950853705406189,-0.14844051003456116,9.727641105651855,-1.678466796875,-4.150390625,-1.15966796875
1.8674999,0.2950853705406189,-0.14844051003456116,9.727641105651855,-1.678466796875,-4.150390625,-1.15966796875
1.8724999000000002,0.10833762586116791,0.03711012750864029,9.84615421295166,1.617431640625,4.241943359375,3.35693359375
1.8774999,0.34835633635520935,-0.19033902883529663,9.588179588317871,-1.46484375,-3.814697265625,-5.523681640625
1.8824999000000002,0.10773907601833344,0.01735796220600605,9.804255485534668,1.15966796875,3.0517578125,6.591796875
1.8874999000000001,0.3447650372982025,-0.1562216579914093,9.566631317138672,-0.732421875,-2.01416015625,-7.568359375
1.8924999000000002,0.1759738177061081,0.01975216343998909,9.821015357971191,0.244140625,0.701904296875,7.293701171875
1.8974999000000001,0.27054479718208313,-0.06224924325942993,9.618106842041016,0.396728515625,0.42724609375,-6.744384765625
1.9024999000000002,0.21966800093650818,-0.017956512048840523,9.898228645324707,-0.885009765625,-1.64794921875,5.2490234375
1.9074999000000001,0.1562216579914093,0.023343466222286224,9.7605619430542,1.40380859375,2.62451171875,-3.662109375
1.9124999000000003,0.23582886159420013,-0.10714052617549896,9.870695114135742,-1.64794921875,-3.662109375,1.5869140625
1.9174999000000001,0.09038111567497253,0.047884032130241394,9.870096206665039,1.800537109375,4.08935546875,0.3662109375
1.9224999,0.3148375153541565,-0.1586158573627472,9.691129684448242,-1.800537109375,-4.21142578125,-2.655029296875
1.9274999000000002,0.09935937076807022,0.047884032130241394,9.834781646728516,1.678466796875,4.0283203125,4.180908203125
1.9324999,0.36750996112823486,-0.1646013706922531,9.543288230895996,-1.40380859375,-3.72314453125,-5.645751953125
1.9374999000000002,0.10714052617549896,0.05386953800916672,9.773730278015137,1.068115234375,2.99072265625,6.805419921875
1.9424999,0.345363587141037,-0.13527239859104156,9.535507202148438,-0.6103515625,-1.953125,-7.14111328125
1.9474999000000002,0.13587094843387604,0.06404489278793335,9.816226959228516,0.30517578125,1.03759765625,6.988525390625
1.9524999,0.26336219906806946,-0.05686229094862938,9.609128952026367,0.274658203125,0.1220703125,-6.866455078125
1.9574999000000002,0.1999158412218094,0.014365210197865963,9.931148529052734,-0.518798828125,-1.28173828125,5.340576171875
1.9624999,0.18495208024978638,0.002992752008140087,9.707889556884766,1.0986328125,2.044677734375,-4.638671875
1.9674999000000002,0.24600422382354736,-0.08798690885305405,9.932345390319824,-1.40380859375,-2.86865234375,2.716064453125
1.9724999,0.1322796493768692,0.02214636653661728,9.799467086791992,1.64794921875,3.5400390625,-1.739501953125
1.9774999000000002,0.2902969419956207,-0.1538274586200714,9.785700798034668,-1.77001953125,-4.180908203125,-0.18310546875
1.9824999,0.1041477769613266,0.05506663769483566,9.82640266418457,1.77001953125,4.33349609375,1.556396484375
1.9874999000000002,0.34835633635520935,-0.16340427100658417,9.616311073303223,-1.708984375,-4.21142578125,-3.265380859375
1.9924999,0.0975637212395668,0.07541735470294952,9.79527759552002,1.800537109375,3.997802734375,4.241943359375
1.9974999000000002,0.37409400939941406,-0.15682020783424377,9.527127265930176,-1.434326171875,-3.5400390625,-5.584716796875
2.0024999,0.10474632680416107,0.0586579404771328,9.802460670471191,1.190185546875,2.899169921875,5.889892578125
2.0074999,0.3531447649002075,-0.15741875767707825,9.545681953430176,-0.946044921875,-2.25830078125,-6.77490234375
2.0124999000000003,0.10235211998224258,0.04429273307323456,9.840168952941895,0.48828125,1.40380859375,6.4697265625
2.0174999000000002,0.2885012924671173,-0.1173158809542656,9.589975357055664,-0.274658203125,-0.48828125,-6.744384765625
2.0224999,0.16639702022075653,0.02693476900458336,9.895236015319824,-0.152587890625,-0.152587890625,6.072998046875
2.0274999,0.243011474609375,-0.0520738884806633,9.642647743225098,0.67138671875,1.068115234375,-5.706787109375
2.0324999000000004,0.24001872539520264,-0.03950432687997818,9.95748519897461,-0.91552734375,-1.8310546875,4.638671875
2.0374999000000003,0.1933317929506302,-0.018555063754320145,9.709685325622559,1.373291015625,2.410888671875,-3.84521484375
2.0424999,0.23582886159420013,-0.11432313174009323,9.92097282409668,-1.373291015625,-3.143310546875,2.471923828125
2.0474999,0.12330138683319092,0.0017956512747332454,9.770736694335938,1.77001953125,3.60107421875,-1.800537109375
2.0524999,0.2651578485965729,-0.15562310814857483,9.787496566772461,-1.64794921875,-3.90625,0.18310546875
2.0574999000000003,0.10175357013940811,0.028131870552897453,9.79527759552002,1.89208984375,4.119873046875,0.640869140625
2.0624999,0.32022446393966675,-0.17657238245010376,9.650428771972656,-1.983642578125,-4.33349609375,-1.89208984375
2.0674999,0.09816227108240128,0.03770867735147476,9.780313491821289,1.739501953125,4.180908203125,2.349853515625
2.0724999,0.3687070608139038,-0.1825578808784485,9.554061889648438,-1.678466796875,-3.997802734375,-3.997802734375
2.0774999000000003,0.10055647045373917,0.04967968538403511,9.778518676757812,1.64794921875,3.72314453125,3.997802734375
2.0824999,0.38905778527259827,-0.1759738177061081,9.52473258972168,-1.40380859375,-3.204345703125,-5.279541015625
2.0874999,0.11552023142576218,0.076015904545784,9.819818496704102,1.220703125,3.173828125,5.279541015625
2.0924999,0.36750996112823486,-0.14903905987739563,9.55585765838623,-1.068115234375,-2.38037109375,-6.011962890625
2.0974999000000003,0.10654197633266449,0.0867898091673851,9.864110946655273,0.946044921875,2.01416015625,5.828857421875
2.1024999,0.32441434264183044,-0.12270283699035645,9.59177017211914,-0.396728515625,-1.52587890625,-6.500244140625
2.1074999,0.08858546614646912,0.07781155407428741,9.884461402893066,0.213623046875,0.79345703125,5.859375
2.1124999,0.28131869435310364,-0.08379705995321274,9.594164848327637,-0.274658203125,-0.335693359375,-6.28662109375
2.1174999000000003,0.1628057211637497,0.06404489278793335,9.910199165344238,-0.1220703125,-0.18310546875,5.584716796875
2.1224999,0.27054479718208313,-0.04429273307323456,9.61451530456543,0.6103515625,0.8544921875,-5.43212890625
2.1274999,0.25438392162323,0.017956512048840523,9.95209789276123,-0.6103515625,-1.312255859375,4.94384765625
2.1324999,0.2555810213088989,-0.04369417950510979,9.663596153259277,0.823974609375,1.739501953125,-4.7607421875
2.1374999000000003,0.25498247146606445,-0.07062894850969315,9.979032516479492,-0.885009765625,-2.166748046875,3.90625
2.1424999000000002,0.19033902883529663,-0.03531447425484657,9.698312759399414,1.129150390625,2.532958984375,-3.7841796875
2.1474999,0.2172738015651703,-0.11372458189725876,9.93593692779541,-1.434326171875,-2.74658203125,2.593994140625
2.1524999,0.11671733111143112,0.01496376097202301,9.707290649414062,1.40380859375,3.143310546875,-2.471923828125
2.1574999000000004,0.2124854028224945,-0.11013327538967133,9.834781646728516,-1.556396484375,-3.47900390625,1.495361328125
2.1624999000000003,0.10295066982507706,0.048482585698366165,9.71926212310791,1.617431640625,3.5400390625,-1.220703125
2.1674999,0.27653029561042786,-0.13048399984836578,9.749788284301758,-1.708984375,-3.814697265625,0.30517578125
2.1724999,0.13407529890537262,0.058059390634298325,9.743204116821289,1.800537109375,3.997802734375,-0.244140625
2.1774999000000004,0.3423708379268646,-0.15083470940589905,9.678560256958008,-1.678466796875,-3.875732421875,-0.91552734375
2.1824999000000003,0.14185644686222076,0.06703764945268631,9.75278091430664,1.861572265625,3.84521484375,1.0986328125
2.1874999,0.3579331636428833,-0.16340427100658417,9.624691009521484,-1.800537109375,-4.119873046875,-1.708984375
2.1924999,0.11611878126859665,0.07182604819536209,9.773131370544434,1.800537109375,3.936767578125,1.953125
2.1974999,0.3513490855693817,-0.15682020783424377,9.611522674560547,-1.617431640625,-4.058837890625,-2.74658203125
2.2024999000000003,0.08200141042470932,0.07900865375995636,9.801861763000488,1.708984375,3.84521484375,2.685546875
2.2074999,0.3579331636428833,-0.16400282084941864,9.582193374633789,-1.64794921875,-3.753662109375,-3.47900390625
2.2124999,0.06524199992418289,0.06584054976701736,9.814431190490723,1.617431640625,3.875732421875,3.265380859375
2.2174999,0.36571431159973145,-0.16220717132091522,9.586383819580078,-1.495361328125,-3.47900390625,-4.058837890625
2.2224999000000003,0.06404489278793335,0.09038111567497253,9.859322547912598,1.46484375,3.47900390625,3.90625
2.2274999,0.3603273630142212,-0.11851298063993454,9.631275177001953,-1.434326171875,-3.35693359375,-4.486083984375
2.2324999,0.3603273630142212,-0.11851298063993454,9.631275177001953,-1.434326171875,-3.35693359375,-4.486083984375
2.2374999,0.07541735470294952,0.12090718746185303,9.900622367858887,1.3427734375,2.74658203125,4.425048828125
2.2424999000000003,0.36092591285705566,-0.13706804811954498,9.621698379516602,-1.15966796875,-2.838134765625,-4.913330078125
2.2474999,0.10235211998224258,0.07302315533161163,9.896432876586914,1.251220703125,2.86865234375,4.608154296875
2.2524999,0.36332011222839355,-0.19033902883529663,9.589376449584961,-1.03759765625,-2.593994140625,-5.279541015625
2.2574999,0.11252748221158981,0.04908113554120064,9.895833969116211,1.068115234375,2.3193359375,4.791259765625
2.2624999000000003,0.3489548861980438,-0.17178396880626678,9.585784912109375,-0.91552734375,-2.227783203125,-5.279541015625
2.2674999000000002,0.10055647045373917,0.0736217051744461,9.904812812805176,0.8544921875,2.13623046875,5.126953125
2.2724999,0.3321954905986786,-0.12988543510437012,9.592967987060547,-0.823974609375,-2.044677734375,-5.55419921875
2.2774999,0.08978256583213806,0.06703764945268631,9.92097282409668,0.732421875,1.800537109375,5.035400390625
2.2824999000000004,0.33099839091300964,-0.13766659796237946,9.602544784545898,-0.6103515625,-1.678466796875,-5.523681640625
2.2874999000000003,0.08798690885305405,0.03292027488350868,9.919178009033203,0.640869140625,1.708984375,5.0048828125
2.2924999,0.33099839091300964,-0.1604115068912506,9.592369079589844,-0.67138671875,-1.373291015625,-5.55419921875
2.2974999,0.08918401598930359,0.013168109580874443,9.899425506591797,0.6103515625,1.28173828125,5.18798828125
2.3024999000000004,0.33099839091300964,-0.14903905987739563,9.585186958312988,-0.30517578125,-1.190185546875,-5.615234375
2.3074999000000003,0.090979665517807,0.02274491637945175,9.900622367858887,0.48828125,1.220703125,5.18798828125
2.3124999,0.33279404044151306,-0.11312603205442429,9.593565940856934,-0.457763671875,-1.129150390625,-5.584716796875
2.3174999,0.09636662155389786,0.04369417950510979,9.916184425354004,0.244140625,1.007080078125,5.218505859375
2.3224999,0.3357867896556854,-0.0802057534456253,9.597756385803223,-0.244140625,-0.885009765625,-5.401611328125
2.3274999000000003,0.10594342648983002,0.04668693244457245,9.929951667785645,0.244140625,0.885009765625,4.852294921875
2.3324999,0.3405751883983612,-0.0628477931022644,9.610923767089844,-0.335693359375,-0.8544921875,-5.462646484375
2.3374999,0.10833762586116791,0.04369417950510979,9.938929557800293,0.244140625,0.79345703125,5.126953125
2.3424999,0.34177228808403015,-0.04728548228740692,9.617507934570312,-0.1220703125,-0.823974609375,-5.4931640625
2.3474999000000003,0.10594342648983002,0.04429273307323456,9.931747436523438,0.274658203125,0.79345703125,4.852294921875
2.3524999,0.34177228808403015,-0.04189852997660637,9.612719535827637,-0.18310546875,-0.885009765625,-5.2490234375
2.3574999,0.10594342648983002,0.041299980133771896,9.92097282409668,0.30517578125,0.701904296875,4.852294921875
2.3624999,0.34596213698387146,-0.0586579404771328,9.606734275817871,-0.42724609375,-0.79345703125,-5.340576171875
2.3674999000000003,0.10773907601833344,0.02992752194404602,9.912593841552734,0.274658203125,0.8544921875,4.913330078125
2.3724999,0.35254621505737305,-0.07960720360279083,9.601945877075195,-0.30517578125,-0.79345703125,-5.18798828125
2.3774999,0.10175357013940811,0.020949264988303185,9.904812812805176,0.3662109375,1.190185546875,4.852294921875
2.3824999,0.3513490855693817,-0.09696517139673233,9.596558570861816,-0.3662109375,-1.007080078125,-5.340576171875
2.3874999000000003,0.09217676520347595,0.02454056777060032,9.900622367858887,0.457763671875,1.03759765625,4.852294921875
2.3924999000000002,0.35015198588371277,-0.10115502029657364,9.589376449584961,-0.518798828125,-1.15966796875,-5.340576171875
2.3974999,0.0933738648891449,0.02214636653661728,9.90361499786377,0.48828125,1.251220703125,4.69970703125
2.4024999,0.35913026332855225,-0.10295066982507706,9.586383819580078,-0.54931640625,-1.373291015625,-5.18798828125
2.4074999000000004,0.10354922711849213,0.013168109580874443,9.910798072814941,0.518798828125,1.373291015625,4.730224609375
2.4124999000000003,0.3669114112854004,-0.10714052617549896,9.581595420837402,-0.518798828125,-1.52587890625,-5.035400390625
2.4174999,0.10235211998224258,0.008379706181585789,9.909002304077148,0.6103515625,1.617431640625,4.57763671875
2.4224999,0.3579331636428833,-0.10714052617549896,9.576208114624023,-0.79345703125,-1.800537109375,-4.82177734375
2.4274999000000004,0.09457096457481384,0.01735796220600605,9.900622367858887,0.67138671875,1.800537109375,4.5166015625
2.4324999000000003,0.3489548861980438,-0.10295066982507706,9.577404975891113,-0.762939453125,-1.861572265625,-4.730224609375
2.4374999,0.09696517139673233,0.03411737456917763,9.90241813659668,0.79345703125,2.044677734375,4.2724609375
2.4424999,0.3579331636428833,-0.10534487664699554,9.591172218322754,-0.823974609375,-2.38037109375,-4.547119140625
2.4474999,0.10055647045373917,0.03232172131538391,9.909601211547852,0.9765625,2.3193359375,4.241943359375
2.4524999000000003,0.3711012601852417,-0.10773907601833344,9.610325813293457,-0.91552734375,-2.471923828125,-4.39453125
2.4574999,0.09217676520347595,0.02214636653661728,9.893440246582031,1.0986328125,2.50244140625,3.936767578125
2.4624999,0.365115761756897,-0.08918401598930359,9.606734275817871,-1.007080078125,-2.8076171875,-4.08935546875
2.4674999,0.07302315533161163,0.028131870552897453,9.86351203918457,1.068115234375,2.838134765625,3.692626953125
2.4724999000000003,0.353743314743042,-0.0694318488240242,9.589376449584961,-1.15966796875,-2.838134765625,-3.662109375
2.4774999,0.05686229094862938,0.02992752194404602,9.846753120422363,1.15966796875,3.143310546875,3.11279296875
2.4824999,0.3585317134857178,-0.06464344263076782,9.587580680847168,-1.15966796875,-3.0517578125,-3.387451171875
2.4874999,0.055665191262960434,0.009576806798577309,9.84615421295166,1.373291015625,3.2958984375,2.777099609375
2.4924999000000003,0.363918662071228,-0.05386953800916672,9.63067626953125,-1.3427734375,-3.448486328125,-2.777099609375
2.4974999,0.06703764945268631,0.0035913025494664907,9.855731010437012,1.3427734375,3.35693359375,2.38037109375
2.5024999,0.3519476354122162,-0.04728548228740692,9.682151794433594,-1.40380859375,-3.41796875,-2.3193359375
2.5074999,0.08200141042470932,-0.0035913025494664907,9.852738380432129,1.40380859375,3.47900390625,1.434326171875
2.5124999000000003,0.34596213698387146,-0.06224924325942993,9.701904296875,-1.373291015625,-3.5400390625,-1.678466796875
2.5174999000000002,0.10714052617549896,-0.02992752194404602,9.823410034179688,1.40380859375,3.509521484375,0.91552734375
2.5224999,0.33518823981285095,-0.06464344263076782,9.736021041870117,-1.46484375,-3.47900390625,-0.79345703125
2.5274999,0.12988543510437012,-0.04189852997660637,9.806051254272461,1.312255859375,3.41796875,0.1220703125
2.5324999000000004,0.30705636739730835,-0.05506663769483566,9.794678688049316,-1.373291015625,-3.41796875,-0.18310546875
2.5374999000000003,0.13706804811954498,-0.041299980133771896,9.77253246307373,1.251220703125,3.23486328125,-0.6103515625
2.5424999,0.2885012924671173,-0.040701430290937424,9.828198432922363,-1.28173828125,-3.23486328125,0.701904296875
2.5474999,0.14784196019172668,-0.050876785069704056,9.677961349487305,1.28173828125,2.99072265625,-1.3427734375
2.5524999000000004,0.27712884545326233,-0.02214636653661728,9.847949981689453,-1.190185546875,-2.99072265625,1.373291015625
2.5574999000000003,0.1711854189634323,-0.050876785069704056,9.61212158203125,1.068115234375,2.86865234375,-2.01416015625
2.5624999,0.26755204796791077,-0.0005985504249110818,9.882665634155273,-0.9765625,-2.410888671875,2.227783203125
2.5674999,0.20949265360832214,-0.060453593730926514,9.57979965209961,0.9765625,2.25830078125,-2.838134765625
2.5724999,0.24899697303771973,0.028730420395731926,9.886856079101562,-0.762939453125,-1.861572265625,2.99072265625
2.5774999000000003,0.2555810213088989,-0.07481880486011505,9.527127265930176,0.54931640625,1.922607421875,-3.662109375
2.5824999,0.22744916379451752,0.0520738884806633,9.864709854125977,-0.396728515625,-1.28173828125,3.570556640625
2.5874999,0.27653029561042786,-0.0933738648891449,9.481637001037598,0.42724609375,0.946044921875,-4.058837890625
2.5924999,0.1759738177061081,0.04369417950510979,9.874884605407715,-0.152587890625,-0.8544921875,3.96728515625
2.5974999000000003,0.26815059781074524,-0.14065934717655182,9.482834815979004,0.06103515625,0.457763671875,-4.5166015625
2.6024999,0.26815059781074524,-0.14065934717655182,9.482834815979004,0.06103515625,0.457763671875,-4.5166015625
2.6074999,0.10175357013940811,0.01496376097202301,9.906607627868652,0.18310546875,0.091552734375,4.364013671875
2.6124999,0.27712884545326233,-0.17896658182144165,9.52473258972168,-0.335693359375,-0.3662109375,-4.57763671875
2.6174999000000003,0.06404489278793335,0.013168109580874443,9.931747436523438,0.457763671875,0.67138671875,4.486083984375
2.6224999,0.31184476613998413,-0.18076223134994507,9.566631317138672,-0.54931640625,-1.068115234375,-4.730224609375
2.6274999,0.08319851011037827,0.04429273307323456,9.956287384033203,0.8544921875,1.40380859375,4.058837890625
2.6324999,0.35434186458587646,-0.1538274586200714,9.605537414550781,-0.885009765625,-1.77001953125,-4.45556640625
2.6374999000000003,0.10893617570400238,0.07302315533161163,9.947908401489258,1.129150390625,2.105712890625,3.692626953125
2.6424999000000002,0.37229835987091064,-0.10953472554683685,9.626486778259277,-1.15966796875,-2.471923828125,-3.936767578125
2.6474999,0.07960720360279083,0.07841010391712189,9.903017044067383,1.28173828125,2.716064453125,3.35693359375
2.6524999,0.3627215623855591,-0.07122749835252762,9.622895240783691,-1.15966796875,-3.021240234375,-3.11279296875
2.6574999000000004,0.04967968538403511,0.048482585698366165,9.853337287902832,1.495361328125,3.204345703125,2.38037109375
2.6624999000000003,0.33758243918418884,-0.07242459803819656,9.64803409576416,-1.46484375,-3.204345703125,-2.38037109375
2.6674999,0.05746084079146385,-0.010175357572734356,9.82640266418457,1.46484375,3.47900390625,1.373291015625
2.6724999,0.31124621629714966,-0.08379705995321274,9.723451614379883,-1.3427734375,-3.5400390625,-1.068115234375
2.6774999000000004,0.10354922711849213,-0.05147533491253853,9.818022727966309,1.495361328125,3.265380859375,0.396728515625
2.6824999000000003,0.30945056676864624,-0.08619125932455063,9.815628051757812,-1.556396484375,-3.5400390625,0.06103515625
2.6874999,0.1586158573627472,-0.07721300423145294,9.749189376831055,1.312255859375,3.143310546875,-0.762939453125
2.6924999,0.3034650683403015,-0.05626374110579491,9.892242431640625,-1.129150390625,-3.021240234375,1.15966796875
2.6974999,0.19871874153614044,-0.0736217051744461,9.652822494506836,1.0986328125,2.8076171875,-2.197265625
2.7024999000000003,0.27712884545326233,0.016160860657691956,9.92097282409668,-0.885009765625,-2.532958984375,2.3193359375
2.7074999,0.2537853717803955,-0.060453593730926514,9.560646057128906,0.640869140625,1.922607421875,-3.0517578125
2.7124999,0.243011474609375,0.0628477931022644,9.880870819091797,-0.54931640625,-1.434326171875,2.99072265625
2.7174999,0.292691171169281,-0.09876082092523575,9.455301284790039,0.518798828125,1.251220703125,-3.96728515625
2.7224999000000003,0.1628057211637497,0.046088382601737976,9.852738380432129,0.030517578125,-0.732421875,3.84521484375
2.7274999,0.27653029561042786,-0.16160862147808075,9.440936088562012,-0.1220703125,0.152587890625,-4.302978515625
2.7324999,0.06584054976701736,0.026336219161748886,9.885659217834473,0.396728515625,0.335693359375,4.119873046875
2.7374999,0.284311443567276,-0.1951274424791336,9.50498104095459,-0.518798828125,-0.732421875,-4.486083984375
2.7424999000000003,0.07302315533161163,0.04967968538403511,9.931148529052734,0.823974609375,1.3427734375,4.0283203125
2.7474999,0.35254621505737305,-0.17836803197860718,9.57979965209961,-1.007080078125,-1.983642578125,-4.0283203125
2.7524999,0.10773907601833344,0.08978256583213806,9.9401273727417,1.251220703125,2.166748046875,3.631591796875
2.7574999,0.3884592354297638,-0.12629413604736328,9.628880500793457,-1.220703125,-2.5634765625,-3.570556640625
2.7624999000000003,0.08080431073904037,0.09038111567497253,9.898228645324707,1.434326171875,3.082275390625,2.62451171875
2.7674999000000002,0.3555389642715454,-0.07541735470294952,9.667786598205566,-1.495361328125,-3.173828125,-2.62451171875
2.7724999,0.05446808785200119,0.048482585698366165,9.8599214553833,1.678466796875,3.326416015625,1.52587890625
2.7774999,0.30526071786880493,-0.05626374110579491,9.742006301879883,-1.495361328125,-3.5400390625,-1.220703125
2.7824999000000004,0.07721300423145294,-0.004189853090792894,9.82640266418457,1.5869140625,3.662109375,0.30517578125
2.7874999000000003,0.284311443567276,-0.05626374110579491,9.828198432922363,-1.434326171875,-3.265380859375,0.030517578125
2.7924999,0.1472434103488922,-0.061052143573760986,9.721057891845703,1.312255859375,3.23486328125,-1.15966796875
2.7974999,0.2867056429386139,-0.033518824726343155,9.884461402893066,-1.129150390625,-3.0517578125,1.46484375
2.8024999000000004,0.22744916379451752,-0.10594342648983002,9.582193374633789,1.220703125,2.8076171875,-2.349853515625
2.8074999000000003,0.25737667083740234,0.028131870552897453,9.875483512878418,-0.640869140625,-2.166748046875,2.838134765625
2.8124999,0.28790274262428284,-0.12389993667602539,9.47146224975586,0.579833984375,1.739501953125,-3.631591796875
2.8174999,0.18734627962112427,0.06703764945268631,9.86351203918457,-0.335693359375,-1.007080078125,3.662109375
2.8224999,0.3034650683403015,-0.15921440720558167,9.428366661071777,-0.06103515625,0.457763671875,-4.21142578125
2.8274999000000003,0.09217676520347595,0.053270988166332245,9.90122127532959,0.18310546875,0.152587890625,4.486083984375
2.8324999,0.2944868206977844,-0.2064998894929886,9.48762321472168,-0.6103515625,-0.79345703125,-4.302978515625
2.8374999,0.048482585698366165,0.06823474913835526,9.961075782775879,0.79345703125,1.3427734375,4.08935546875
2.8424999,0.3166331648826599,-0.16759411990642548,9.587580680847168,-1.03759765625,-1.983642578125,-3.997802734375
2.8474999000000003,0.05386953800916672,0.11192893236875534,9.956886291503906,1.312255859375,2.25830078125,3.2958984375
2.8524999,0.36152446269989014,-0.090979665517807,9.639056205749512,-1.556396484375,-3.021240234375,-3.35693359375
2.8574999,0.06883329898118973,0.09457096457481384,9.889848709106445,1.739501953125,3.204345703125,2.288818359375
2.8624999,0.3711012601852417,-0.07841010391712189,9.673172950744629,-1.556396484375,-3.448486328125,-1.678466796875
2.8674999000000003,0.10833762586116791,0.005386953707784414,9.831191062927246,1.64794921875,3.570556640625,0.823974609375
2.8724999,0.3274070918560028,-0.09277531504631042,9.782109260559082,-1.5869140625,-3.47900390625,-0.274658203125
2.8774999,0.14604631066322327,-0.07960720360279083,9.739013671875,1.5869140625,3.47900390625,-0.54931640625
2.8824999,0.272938996553421,-0.05985504388809204,9.891644477844238,-1.312255859375,-3.173828125,1.15966796875
2.8874999000000003,0.19632454216480255,-0.11252748221158981,9.617507934570312,1.129150390625,2.99072265625,-2.38037109375
2.8924999000000002,0.22625206410884857,0.03292027488350868,9.909002304077148,-0.9765625,-2.166748046875,2.685546875
2.8974999,0.2669534981250763,-0.11851298063993454,9.494206428527832,0.48828125,1.739501953125,-3.631591796875
2.9024999,0.16819266974925995,0.09576806426048279,9.892242431640625,-0.30517578125,-1.007080078125,3.631591796875
2.9074999000000004,0.30286651849746704,-0.16220717132091522,9.426570892333984,-0.30517578125,0.335693359375,-4.241943359375
2.9124999000000003,0.0802057534456253,0.08439560979604721,9.910798072814941,0.518798828125,0.42724609375,4.08935546875
2.9174999,0.292691171169281,-0.22266076505184174,9.476848602294922,-0.579833984375,-1.007080078125,-4.2724609375
2.9224999,0.040701430290937424,0.08379705995321274,9.9371337890625,1.03759765625,1.556396484375,3.662109375
2.9274999000000004,0.32860419154167175,-0.18495208024978638,9.57860279083252,-1.15966796875,-2.349853515625,-3.662109375
2.9324999000000003,0.060453593730926514,0.11252748221158981,9.921571731567383,1.495361328125,2.8076171875,2.86865234375
2.9374999,0.36571431159973145,-0.09397241473197937,9.675567626953125,-1.556396484375,-3.0517578125,-2.38037109375
2.9424999,0.07422025501728058,0.090979665517807,9.877877235412598,1.708984375,3.41796875,1.220703125
2.9474999,0.33099839091300964,-0.0520738884806633,9.786299705505371,-1.617431640625,-3.387451171875,-1.0986328125
2.9524999000000003,0.12210428714752197,0.008978256024420261,9.80904483795166,1.708984375,3.448486328125,-0.396728515625
2.9574999,0.2974795699119568,-0.038307227194309235,9.897629737854004,-1.40380859375,-3.448486328125,0.885009765625
2.9624999,0.19871874153614044,-0.060453593730926514,9.686341285705566,1.373291015625,3.11279296875,-1.8310546875
2.9674999,0.19871874153614044,-0.060453593730926514,9.686341285705566,1.373291015625,3.11279296875,-1.8310546875
2.9724999000000003,0.2513911724090576,0.023942016065120697,9.923966407775879,-0.9765625,-2.471923828125,2.5634765625
2.9774999,0.26815059781074524,-0.08619125932455063,9.519346237182617,0.701904296875,2.0751953125,-3.387451171875
2.9824999,0.17537526786327362,0.08499415963888168,9.895236015319824,-0.54931640625,-1.0986328125,3.387451171875
2.9874999,0.3064578175544739,-0.1430535465478897,9.406818389892578,0.030517578125,0.54931640625,-4.21142578125
2.9924999000000003,0.09696517139673233,0.06883329898118973,9.897629737854004,0.30517578125,0.244140625,3.96728515625
2.9974999,0.3148375153541565,-0.21667525172233582,9.44991397857666,-0.48828125,-1.007080078125,-4.08935546875
3.0024999,0.06165069341659546,0.06823474913835526,9.93474006652832,0.91552734375,1.64794921875,3.875732421875
3.0074999,0.34596213698387146,-0.18734627962112427,9.576208114624023,-1.251220703125,-2.410888671875,-3.509521484375
3.0124999000000003,0.06165069341659546,0.09935937076807022,9.938331604003906,1.52587890625,2.838134765625,2.655029296875
3.0174999000000002,0.35075053572654724,-0.11252748221158981,9.688735961914062,-1.64794921875,-3.509521484375,-2.0751953125
3.0224999,0.06464344263076782,0.07242459803819656,9.897629737854004,1.861572265625,3.662109375,1.0986328125
3.0274999,0.29568392038345337,-0.09576806426048279,9.81024169921875,-1.52587890625,-3.753662109375,-0.396728515625
3.0324999000000004,0.11911153793334961,-0.0017956512747332454,9.79527759552002,1.5869140625,3.5400390625,-0.579833984375
3.0374999000000003,0.25677812099456787,-0.06703764945268631,9.909002304077148,-1.434326171875,-3.35693359375,1.40380859375
3.0424999,0.21966800093650818,-0.05386953800916672,9.615114212036133,1.251220703125,2.99072265625,-2.3193359375
3.0474999,0.23163901269435883,0.008379706181585789,9.904812812805176,-0.9765625,-2.3193359375,2.74658203125
3.0524999000000004,0.2992752194404602,-0.09636662155389786,9.439739227294922,0.518798828125,1.617431640625,-3.692626953125
3.0574999000000003,0.152031809091568,0.03890577703714371,9.880271911621094,-0.244140625,-0.762939453125,3.875732421875
3.0624999,0.3232172429561615,-0.18734627962112427,9.397241592407227,-0.152587890625,0.030517578125,-4.2724609375
3.0674999,0.090979665517807,0.038307227194309235,9.917980194091797,0.701904296875,0.946044921875,3.96728515625
3.0724999000000004,0.34656068682670593,-0.21787235140800476,9.50617790222168,-1.0986328125,-1.8310546875,-3.875732421875
3.0774999000000003,0.07900865375995636,0.07062894850969315,9.929951667785645,1.190185546875,2.288818359375,3.204345703125
3.0824999,0.36571431159973145,-0.13826514780521393,9.632472038269043,-1.28173828125,-3.204345703125,-2.62451171875
3.0874999,0.07122749835252762,0.08319851011037827,9.895236015319824,1.800537109375,3.326416015625,1.800537109375
3.0924999,0.3321954905986786,-0.08619125932455063,9.754576683044434,-1.739501953125,-3.631591796875,-1.0986328125
3.0974999000000003,0.11611878126859665,0.030526071786880493,9.818621635437012,1.77001953125,3.631591796875,-0.030517578125
3.1024999,0.2825157940387726,-0.06404489278793335,9.886856079101562,-1.5869140625,-3.692626953125,0.946044921875
3.1074999,0.19931729137897491,-0.033518824726343155,9.675567626953125,1.40380859375,3.23486328125,-2.01416015625
3.1124999,0.23343466222286224,0.010175357572734356,9.931148529052734,-1.28173828125,-2.593994140625,2.349853515625
3.1174999000000003,0.2783259451389313,-0.06643909960985184,9.493009567260742,0.762939453125,2.01416015625,-3.570556640625
3.1224999,0.15263035893440247,0.06643909960985184,9.899425506591797,-0.30517578125,-1.03759765625,3.662109375
3.1274999,0.3196259140968323,-0.15143325924873352,9.398438453674316,-0.030517578125,0.18310546875,-4.180908203125
3.1324999,0.09576806426048279,0.05506663769483566,9.90241813659668,0.579833984375,0.518798828125,3.875732421875
3.1374999000000003,0.34656068682670593,-0.21428105235099792,9.475052833557129,-0.8544921875,-1.46484375,-3.84521484375
3.1424999000000002,0.07781155407428741,0.07062894850969315,9.906009674072266,1.15966796875,2.288818359375,3.326416015625
3.1474999,0.363918662071228,-0.14006079733371735,9.606135368347168,-1.52587890625,-3.0517578125,-2.899169921875
3.1524999,0.07003039866685867,0.08798690885305405,9.877279281616211,1.64794921875,3.41796875,1.77001953125
3.1574999000000004,0.3280056416988373,-0.076015904545784,9.743204116821289,-1.64794921875,-3.7841796875,-1.03759765625
3.1624999000000003,0.11611878126859665,0.02274491637945175,9.798270225524902,1.678466796875,3.72314453125,-0.30517578125
3.1674999,0.2783259451389313,-0.0586579404771328,9.888651847839355,-1.556396484375,-3.41796875,1.03759765625
3.1724999,0.21607670187950134,-0.05985504388809204,9.658209800720215,1.190185546875,3.11279296875,-1.983642578125
3.1774999000000004,0.23822307586669922,0.004189853090792894,9.9401273727417,-1.03759765625,-2.62451171875,2.86865234375
3.1824999000000003,0.30286651849746704,-0.10594342648983002,9.482834815979004,0.6103515625,1.800537109375,-3.692626953125
3.1874999,0.1496376097202301,0.05267243832349777,9.911396026611328,-0.274658203125,-0.8544921875,3.7841796875
3.1924999,0.3250128924846649,-0.181959331035614,9.413402557373047,-0.274658203125,-0.244140625,-4.21142578125
3.1974999000000004,0.0802057534456253,0.06703764945268631,9.922170639038086,0.6103515625,1.007080078125,3.7841796875
3.2024999000000003,0.3345896899700165,-0.1909375786781311,9.511565208435059,-1.129150390625,-1.861572265625,-3.47900390625
3.2074999,0.05925649031996727,0.09876082092523575,9.92097282409668,1.251220703125,2.593994140625,2.838134765625
3.2124999,0.33997663855552673,-0.10714052617549896,9.64923095703125,-1.556396484375,-3.23486328125,-2.288818359375
3.2174999,0.061052143573760986,0.07541735470294952,9.88506031036377,1.800537109375,3.570556640625,1.03759765625
3.2224999000000003,0.2944868206977844,-0.08379705995321274,9.808445930480957,-1.739501953125,-3.631591796875,-0.42724609375
3.2274999,0.13287819921970367,-0.010175357572734356,9.797073364257812,1.64794921875,3.631591796875,-1.129150390625
3.2324999,0.24839842319488525,-0.03711012750864029,9.927556991577148,-1.312255859375,-3.326416015625,1.739501953125
3.2374999,0.2585737705230713,-0.06524199992418289,9.601945877075195,1.0986328125,2.716064453125,-2.685546875
3.2424999000000003,0.2064998894929886,0.053270988166332245,9.932345390319824,-0.823974609375,-1.8310546875,3.11279296875
3.2474999,0.3345896899700165,-0.1280897855758667,9.430760383605957,0.152587890625,0.9765625,-3.96728515625
3.2524999,0.1149216815829277,0.07122749835252762,9.914389610290527,0.18310546875,-0.152587890625,3.936767578125
3.2574999,0.3250128924846649,-0.21009120345115662,9.437943458557129,-0.701904296875,-0.91552734375,-4.058837890625
3.2624999000000003,0.040701430290937424,0.07541735470294952,9.909002304077148,0.946044921875,1.77001953125,3.326416015625
3.2674999000000002,0.3280056416988373,-0.17178396880626678,9.55585765838623,-1.373291015625,-2.685546875,-3.143310546875
3.2724999,0.03711012750864029,0.0802057534456253,9.874286651611328,1.52587890625,3.2958984375,1.953125
3.2774999,0.3214215636253357,-0.09157821536064148,9.706692695617676,-1.708984375,-3.570556640625,-1.46484375
3.2824999000000004,0.10235211998224258,0.016759412363171577,9.798270225524902,1.556396484375,3.72314453125,-0.335693359375
3.2874999000000003,0.2825157940387726,-0.05925649031996727,9.883264541625977,-1.556396484375,-3.570556640625,0.732421875
3.2924999,0.22026655077934265,-0.05686229094862938,9.667187690734863,1.312255859375,3.204345703125,-2.197265625
3.2974999,0.23702596127986908,0.01735796220600605,9.952696800231934,-0.946044921875,-2.349853515625,2.62451171875
3.3024999000000004,0.30526071786880493,-0.11133038252592087,9.485827445983887,0.54931640625,1.64794921875,-3.662109375
3.3074999000000003,0.14365209639072418,0.05746084079146385,9.916783332824707,-0.18310546875,-0.640869140625,3.753662109375
3.3124999,0.33279404044151306,-0.2041056901216507,9.408015251159668,-0.30517578125,-0.152587890625,-4.119873046875
3.3174999,0.0802057534456253,0.058059390634298325,9.905410766601562,0.732421875,1.434326171875,3.509521484375
3.3224999000000004,0.35494041442871094,-0.2082955539226532,9.509769439697266,-1.220703125,-2.13623046875,-3.662109375
3.3274999000000003,0.06823474913835526,0.08499415963888168,9.900622367858887,1.495361328125,2.99072265625,2.349853515625
3.3324999,0.06823474913835526,0.08499415963888168,9.900622367858887,1.495361328125,2.99072265625,2.349853515625
3.3374999,0.3495534360408783,-0.1173158809542656,9.675567626953125,-1.678466796875,-3.570556640625,-1.953125
3.3424999,0.09277531504631042,0.04668693244457245,9.854534149169922,1.800537109375,3.72314453125,0.457763671875
3.3474999000000003,0.2974795699119568,-0.0628477931022644,9.869498252868652,-1.556396484375,-3.5400390625,0.396728515625
3.3524999,0.17956513166427612,-0.041299980133771896,9.737217903137207,1.52587890625,3.47900390625,-1.64794921875
3.3574999,0.23762452602386475,0.01496376097202301,9.956886291503906,-1.190185546875,-2.685546875,2.349853515625
3.3624999,0.2759317457675934,-0.09876082092523575,9.515754699707031,0.762939453125,1.983642578125,-3.47900390625
3.3674999000000003,0.15143325924873352,0.0694318488240242,9.912593841552734,-0.213623046875,-1.068115234375,3.72314453125
3.3724999,0.32620999217033386,-0.18614917993545532,9.385271072387695,-0.1220703125,-0.1220703125,-4.21142578125
3.3774999,0.09038111567497253,0.06524199992418289,9.898826599121094,0.67138671875,0.946044921875,3.570556640625
3.3824999,0.34416648745536804,-0.21128830313682556,9.476848602294922,-1.007080078125,-1.983642578125,-3.47900390625
3.3874999000000003,0.0628477931022644,0.08259996026754379,9.8970308303833,1.40380859375,2.838134765625,2.593994140625
3.3924999000000002,0.33518823981285095,-0.11851298063993454,9.652822494506836,-1.495361328125,-3.23486328125,-1.922607421875
3.3974999,0.06883329898118973,0.06165069341659546,9.865906715393066,1.739501953125,3.692626953125,0.823974609375
3.4024999,0.28730419278144836,-0.06404489278793335,9.853337287902832,-1.64794921875,-3.753662109375,0.1220703125
3.4074999000000004,0.15981295704841614,-0.0347159244120121,9.756970405578613,1.52587890625,3.448486328125,-1.556396484375
3.4124999000000003,0.2364274114370346,0.0011971008498221636,9.950302124023438,-1.129150390625,-2.74658203125,2.166748046875
3.4174999,0.2777273952960968,-0.10773907601833344,9.530119895935059,0.885009765625,2.166748046875,-3.35693359375
3.4224999,0.1604115068912506,0.061052143573760986,9.915586471557617,-0.30517578125,-1.220703125,3.387451171875
3.4274999000000004,0.3357867896556854,-0.19393034279346466,9.389460563659668,-0.274658203125,0.152587890625,-3.997802734375
3.4324999000000003,0.09935937076807022,0.060453593730926514,9.90241813659668,0.67138671875,0.9765625,3.84521484375
3.4374999,0.35434186458587646,-0.22206220030784607,9.47265911102295,-1.068115234375,-1.89208984375,-3.570556640625
3.4424999,0.07182604819536209,0.07481880486011505,9.895236015319824,1.3427734375,2.86865234375,2.471923828125
3.4474999000000004,0.3495534360408783,-0.13168109953403473,9.651625633239746,-1.64794921875,-3.387451171875,-1.983642578125
3.4524999000000003,0.08858546614646912,0.047884032130241394,9.855731010437012,1.708984375,3.631591796875,0.54931640625
3.4574999,0.2992752194404602,-0.06524199992418289,9.860519409179688,-1.617431640625,-3.5400390625,0.18310546875
3.4624999,0.1801636815071106,-0.0454898327589035,9.743802070617676,1.40380859375,3.47900390625,-1.64794921875
3.4674999,0.24121582508087158,0.017956512048840523,9.959280967712402,-1.312255859375,-2.8076171875,2.3193359375
3.4724999000000003,0.2890998423099518,-0.11013327538967133,9.509769439697266,0.6103515625,1.708984375,-3.387451171875
3.4774999,0.15562310814857483,0.07302315533161163,9.913790702819824,-0.213623046875,-1.007080078125,3.662109375
3.4824999,0.3381809890270233,-0.19931729137897491,9.37389850616455,-0.152587890625,-0.030517578125,-4.180908203125
3.4874999,0.08858546614646912,0.06584054976701736,9.889848709106445,0.762939453125,1.129150390625,3.5400390625
3.4924999000000003,0.3513490855693817,-0.21667525172233582,9.469067573547363,-1.129150390625,-2.13623046875,-3.23486328125
3.4974999,0.06165069341659546,0.07900865375995636,9.87967300415039,1.40380859375,2.899169921875,2.349853515625
3.5024999,0.33279404044151306,-0.11133038252592087,9.66299819946289,-1.708984375,-3.448486328125,-1.739501953125
3.5074999,0.08619125932455063,0.04489128291606903,9.824606895446777,1.77001953125,3.875732421875,0.274658203125
3.5124999000000003,0.272938996553421,-0.0347159244120121,9.880271911621094,-1.5869140625,-3.692626953125,0.640869140625
3.5174999000000002,0.19033902883529663,-0.047884032130241394,9.697115898132324,1.373291015625,3.173828125,-1.953125
3.5224999,0.21966800093650818,0.03890577703714371,9.972448348999023,-1.03759765625,-2.655029296875,2.593994140625
3.5274999,0.30047231912612915,-0.1322796493768692,9.49121379852295,0.54931640625,1.708984375,-3.570556640625
3.5324999000000004,0.1346738487482071,0.0694318488240242,9.929352760314941,-0.091552734375,-0.48828125,3.72314453125
3.5374999000000003,0.333991140127182,-0.21667525172233582,9.408015251159668,-0.54931640625,-0.579833984375,-4.058837890625
3.5424999,0.05686229094862938,0.076015904545784,9.896432876586914,0.8544921875,1.495361328125,3.204345703125
3.5474999,0.33937808871269226,-0.19153612852096558,9.534908294677734,-1.28173828125,-2.50244140625,-3.021240234375
3.5524999000000004,0.05925649031996727,0.07721300423145294,9.867103576660156,1.708984375,3.11279296875,1.77001953125
3.5574999000000003,0.33518823981285095,-0.090979665517807,9.736021041870117,-1.617431640625,-3.5400390625,-1.007080078125
3.5624999,0.1364694982767105,0.0011971008498221636,9.787496566772461,1.678466796875,3.509521484375,-0.579833984375
3.5674999,0.2795230448246002,-0.02513911761343479,9.907805442810059,-1.46484375,-3.204345703125,1.312255859375
3.5724999000000004,0.25737667083740234,-0.08080431073904037,9.613917350769043,1.129150390625,2.777099609375,-2.38037109375
3.5774999000000003,0.20769700407981873,0.053270988166332245,9.950302124023438,-0.823974609375,-1.953125,3.11279296875
3.5824999,0.3315969407558441,-0.16998831927776337,9.436147689819336,0.1220703125,0.885009765625,-3.936767578125
3.5874999,0.11432313174009323,0.08140286058187485,9.920374870300293,0.42724609375,0.1220703125,3.72314453125
3.5924999,0.32860419154167175,-0.23523031175136566,9.446921348571777,-0.67138671875,-1.312255859375,-3.814697265625
3.5974999000000003,0.040701430290937424,0.07481880486011505,9.891644477844238,1.15966796875,2.044677734375,2.9296875
3.6024999,0.3166331648826599,-0.16759411990642548,9.61331844329834,-1.52587890625,-3.021240234375,-2.532958984375
3.6074999,0.05985504388809204,0.055665191262960434,9.870096206665039,1.64794921875,3.326416015625,1.007080078125
3.6124999,0.30047231912612915,-0.08140286058187485,9.825204849243164,-1.617431640625,-3.60107421875,-0.152587890625
3.6174999000000003,0.1604115068912506,-0.023942016065120697,9.78869342803955,1.678466796875,3.387451171875,-1.312255859375
3.6224999,0.2513911724090576,0.015562310814857483,9.954492568969727,-1.0986328125,-2.99072265625,1.983642578125
3.6274999,0.27892449498176575,-0.10055647045373917,9.553462982177734,0.701904296875,2.044677734375,-3.143310546875
3.6324999,0.16579847037792206,0.0975637212395668,9.931747436523438,-0.335693359375,-1.068115234375,3.47900390625
3.6374999000000003,0.33698388934135437,-0.19871874153614044,9.396044731140137,-0.152587890625,0.06103515625,-3.997802734375
3.6424999000000002,0.09516951441764832,0.0933738648891449,9.903017044067383,0.701904296875,1.03759765625,3.7841796875
3.6474999,0.34835633635520935,-0.22086510062217712,9.489418029785156,-1.129150390625,-2.0751953125,-3.35693359375
3.6524999,0.05985504388809204,0.09157821536064148,9.890447616577148,1.495361328125,2.685546875,2.288818359375
3.6574999000000004,0.3280056416988373,-0.11372458189725876,9.690531730651855,-1.678466796875,-3.326416015625,-1.556396484375
3.6624999000000003,0.09576806426048279,0.03950432687997818,9.821015357971191,1.77001953125,3.509521484375,0.091552734375
3.6674999,0.28072014451026917,-0.028730420395731926,9.892841339111328,-1.46484375,-3.2958984375,0.79345703125
3.6724999,0.22864626348018646,-0.05746084079146385,9.658209800720215,1.28173828125,2.9296875,-2.25830078125
3.6774999000000004,0.23163901269435883,0.048482585698366165,9.9586820602417,-0.91552734375,-2.166748046875,2.8076171875
3.6824999000000003,0.3363853394985199,-0.15502455830574036,9.455899238586426,0.42724609375,1.220703125,-3.84521484375
3.6874999,0.13946224749088287,0.09157821536064148,9.91977596282959,0.274658203125,-0.18310546875,3.41796875
3.6924999,0.34356793761253357,-0.23523031175136566,9.425373077392578,-0.48828125,-0.91552734375,-3.84521484375
3.6974999000000004,0.34356793761253357,-0.23523031175136566,9.425373077392578,-0.48828125,-0.91552734375,-3.84521484375
3.7024999000000003,0.0520738884806633,0.09876082092523575,9.890447616577148,1.220703125,2.044677734375,3.082275390625
3.7074999,0.32202014327049255,-0.17896658182144165,9.586981773376465,-1.5869140625,-2.8076171875,-2.716064453125
3.7124999,0.05626374110579491,0.08140286058187485,9.865906715393066,1.708984375,3.2958984375,1.312255859375
3.7174999,0.2998737692832947,-0.07841010391712189,9.807847023010254,-1.617431640625,-3.448486328125,-0.42724609375
3.7224999000000003,0.15143325924873352,-0.004189853090792894,9.78869342803955,1.495361328125,3.326416015625,-1.0986328125
3.7274999,0.2537853717803955,0.015562310814857483,9.951498985290527,-1.312255859375,-2.960205078125,1.861572265625
3.7324999,0.28072014451026917,-0.09576806426048279,9.560646057128906,0.91552734375,2.349853515625,-3.2958984375
3.7374999,0.16819266974925995,0.09636662155389786,9.9401273727417,-0.396728515625,-1.190185546875,3.387451171875
3.7424999000000003,0.33279404044151306,-0.20769700407981873,9.394847869873047,-0.18310546875,0.152587890625,-3.997802734375
3.7474999,0.08140286058187485,0.09516951441764832,9.9000244140625,0.6103515625,0.946044921875,3.448486328125
3.7524999,0.3387795388698578,-0.2406172752380371,9.479841232299805,-1.28173828125,-2.01416015625,-3.2958984375
3.7574999,0.05506663769483566,0.09038111567497253,9.875483512878418,1.617431640625,2.74658203125,2.3193359375
3.7624999000000003,0.33279404044151306,-0.1322796493768692,9.703699111938477,-1.434326171875,-3.509521484375,-1.434326171875
3.7674999000000002,0.11192893236875534,0.038307227194309235,9.821015357971191,1.708984375,3.448486328125,0
3.7724999,0.28131869435310364,-0.03232172131538391,9.922170639038086,-1.52587890625,-3.35693359375,0.9765625
3.7774999,0.24181437492370605,-0.05746084079146385,9.662399291992188,1.28173828125,2.86865234375,-2.349853515625
3.7824999000000004,0.21428105235099792,0.0628477931022644,9.982025146484375,-0.885009765625,-2.044677734375,2.899169921875
3.7874999000000003,0.33099839091300964,-0.16220717132091522,9.458293914794922,0.18310546875,1.0986328125,-3.753662109375
3.7924999,0.12629413604736328,0.11671733111143112,9.932944297790527,0.244140625,0.213623046875,3.60107421875
3.7974999,0.3423708379268646,-0.2322375625371933,9.441534042358398,-0.885009765625,-1.129150390625,-3.7841796875
3.8024999000000004,0.05626374110579491,0.11312603205442429,9.88386344909668,1.251220703125,2.13623046875,2.9296875
3.8074999000000003,0.32620999217033386,-0.1759738177061081,9.606734275817871,-1.5869140625,-2.86865234375,-2.25830078125
3.8124999,0.06344634294509888,0.07781155407428741,9.845556259155273,1.77001953125,3.41796875,0.8544921875
3.8174999,0.2902969419956207,-0.076015904545784,9.843161582946777,-1.708984375,-3.631591796875,-0.030517578125
3.8224999000000004,0.16340427100658417,-0.02454056777060032,9.744999885559082,1.495361328125,3.173828125,-1.46484375
3.8274999000000003,0.23942017555236816,0.028730420395731926,9.970054626464844,-1.0986328125,-2.685546875,2.227783203125
3.8324999,0.28969839215278625,-0.12928688526153564,9.50737476348877,0.579833984375,1.89208984375,-3.41796875
3.8374999,0.15083470940589905,0.09636662155389786,9.923966407775879,-0.1220703125,-0.6103515625,3.5400390625
3.8424999,0.3405751883983612,-0.23343466222286224,9.393052101135254,-0.396728515625,-0.48828125,-3.96728515625
3.8474999000000003,0.06823474913835526,0.11432313174009323,9.881468772888184,1.007080078125,1.556396484375,3.35693359375
3.8524999,0.3447650372982025,-0.22026655077934265,9.534309387207031,-1.3427734375,-2.50244140625,-2.838134765625
3.8574999,0.06464344263076782,0.10953472554683685,9.86351203918457,1.617431640625,3.082275390625,1.52587890625
3.8624999,0.3208230137825012,-0.1280897855758667,9.77253246307373,-1.77001953125,-3.631591796875,-0.701904296875
3.8674999000000003,0.14065934717655182,0.023942016065120697,9.804854393005371,1.64794921875,3.5400390625,-0.79345703125
3.8724999,0.2585737705230713,-0.050876785069704056,9.95090103149414,-1.52587890625,-3.0517578125,1.556396484375
3.8774999,0.27054479718208313,-0.06344634294509888,9.600749015808105,1.0986328125,2.410888671875,-2.99072265625
3.8824999,0.17836803197860718,0.048482585698366165,9.956886291503906,-0.579833984375,-1.434326171875,3.35693359375
3.8874999000000003,0.3381809890270233,-0.17058686912059784,9.404424667358398,0.030517578125,0.244140625,-3.96728515625
3.8924999000000002,0.09876082092523575,0.08379705995321274,9.893440246582031,0.54931640625,0.8544921875,3.5400390625
3.8974999,0.3387795388698578,-0.2214636504650116,9.451709747314453,-0.9765625,-1.89208984375,-3.41796875
3.9024999,0.05386953800916672,0.09217676520347595,9.86351203918457,1.434326171875,2.960205078125,2.13623046875
3.9074999000000004,0.3130418658256531,-0.15741875767707825,9.673771858215332,-1.52587890625,-3.23486328125,-1.52587890625
3.9124999000000003,0.09816227108240128,0.04908113554120064,9.813833236694336,1.678466796875,3.631591796875,0.091552734375
3.9174999,0.26336219906806946,-0.09935937076807022,9.911994934082031,-1.556396484375,-3.2958984375,1.068115234375
3.9224999,0.24420857429504395,-0.025737667456269264,9.658807754516602,1.129150390625,2.960205078125,-2.410888671875
3.9274999000000004,0.21547815203666687,-0.011971008032560349,9.98681354522705,-0.91552734375,-1.800537109375,2.960205078125
3.9324999000000003,0.3489548861980438,-0.10893617570400238,9.461286544799805,0.18310546875,1.007080078125,-3.96728515625
3.9374999,0.13287819921970367,0.05446808785200119,9.927556991577148,0.030517578125,0.274658203125,3.5400390625
3.9424999,0.3495534360408783,-0.1777694821357727,9.443928718566895,-0.732421875,-1.312255859375,-3.753662109375
3.9474999000000004,0.058059390634298325,0.08200141042470932,9.86650562286377,1.220703125,2.410888671875,2.777099609375
3.9524999000000003,0.3166331648826599,-0.15083470940589905,9.610923767089844,-1.40380859375,-2.99072265625,-2.0751953125
3.9574999,0.07003039866685867,0.05985504388809204,9.820416450500488,1.678466796875,3.35693359375,0.640869140625
3.9624999,0.2783259451389313,-0.08439560979604721,9.859322547912598,-1.5869140625,-3.387451171875,0.3662109375
3.9674999000000004,0.18734627962112427,-0.02753331884741783,9.713275909423828,1.251220703125,3.143310546875,-1.800537109375
3.9724999000000003,0.23044191300868988,-0.005985504016280174,9.990405082702637,-1.15966796875,-2.471923828125,2.50244140625
3.9774999,0.3172317147254944,-0.11791443079710007,9.498994827270508,0.457763671875,1.434326171875,-3.60107421875
3.9824999,0.14903905987739563,0.05446808785200119,9.943120002746582,-0.091552734375,-0.396728515625,3.72314453125
3.9874999,0.35075053572654724,-0.20231004059314728,9.421183586120605,-0.457763671875,-0.823974609375,-4.058837890625
3.9924999000000003,0.07122749835252762,0.08379705995321274,9.877877235412598,1.03759765625,1.800537109375,3.021240234375
3.9974999,0.3315969407558441,-0.18076223134994507,9.563039779663086,-1.46484375,-2.899169921875,-2.471923828125
4.0024999,0.07242459803819656,0.08319851011037827,9.848548889160156,1.617431640625,3.23486328125,1.15966796875
4.0074999,0.2992752194404602,-0.11372458189725876,9.80904483795166,-1.495361328125,-3.60107421875,-0.244140625
4.0124999,0.16160862147808075,0.005386953707784414,9.779715538024902,1.617431640625,3.509521484375,-1.190185546875
4.0174999,0.24121582508087158,-0.03172317147254944,9.980229377746582,-1.251220703125,-2.593994140625,2.288818359375
4.022499900000001,0.28371289372444153,-0.0802057534456253,9.551667213439941,0.79345703125,1.861572265625,-3.23486328125
4.0274999000000005,0.14604631066322327,0.05506663769483566,9.94970417022705,-0.213623046875,-1.007080078125,3.509521484375
4.0324999,0.3292027413845062,-0.17896658182144165,9.405022621154785,-0.274658203125,-0.213623046875,-3.96728515625
4.0374999,0.0628477931022644,0.08858546614646912,9.88745403289795,0.701904296875,1.40380859375,3.2958984375
4.0424999,0.33099839091300964,-0.19153612852096558,9.519346237182617,-1.220703125,-2.38037109375,-2.9296875
4.0474999,0.060453593730926514,0.09876082092523575,9.856329917907715,1.495361328125,3.143310546875,1.678466796875
4.0524999,0.314238965511322,-0.13108254969120026,9.746196746826172,-1.678466796875,-3.60107421875,-0.6103515625
4.0574999,0.14245499670505524,0.03232172131538391,9.780912399291992,1.617431640625,3.47900390625,-0.823974609375
4.062499900000001,0.14245499670505524,0.03232172131538391,9.780912399291992,1.617431640625,3.47900390625,-0.823974609375
4.0674999000000005,0.2472013235092163,-0.06165069341659546,9.923966407775879,-1.434326171875,-2.960205078125,1.739501953125
4.0724999,0.2687491476535797,-0.03950432687997818,9.575610160827637,0.946044921875,2.410888671875,-3.23486328125
4.0774999,0.15981295704841614,0.03292027488350868,9.95090103149414,-0.518798828125,-1.3427734375,3.204345703125
4.0824999,0.33099839091300964,-0.14604631066322327,9.414599418640137,-0.213623046875,0.213623046875,-3.84521484375
4.0874999,0.08379705995321274,0.06404489278793335,9.909601211547852,0.48828125,1.129150390625,3.5400390625
4.0924999,0.33518823981285095,-0.20111294090747833,9.497797966003418,-1.007080078125,-2.01416015625,-3.204345703125
4.0974999,0.050876785069704056,0.0736217051744461,9.8784761428833,1.373291015625,2.838134765625,1.922607421875
4.1024999,0.31124621629714966,-0.1412578970193863,9.732429504394531,-1.678466796875,-3.2958984375,-1.0986328125
4.1074999000000005,0.11611878126859665,0.03292027488350868,9.81263542175293,1.5869140625,3.753662109375,-0.48828125
4.1124999,0.2561795711517334,-0.06344634294509888,9.936535835266113,-1.46484375,-3.11279296875,1.52587890625
4.1174999,0.26575639843940735,-0.02274491637945175,9.624691009521484,1.068115234375,2.532958984375,-2.593994140625
4.1224999,0.18794482946395874,0.030526071786880493,9.971850395202637,-0.640869140625,-1.556396484375,3.35693359375
4.1274999,0.3447650372982025,-0.12389993667602539,9.436147689819336,0.030517578125,0.48828125,-3.90625
4.1324999,0.11252748221158981,0.06344634294509888,9.911396026611328,0.335693359375,0.701904296875,3.41796875
4.1374999,0.3471592366695404,-0.1867477297782898,9.460687637329102,-0.823974609375,-1.861572265625,-3.35693359375
4.1424999,0.05686229094862938,0.07900865375995636,9.854534149169922,1.312255859375,2.655029296875,2.197265625
4.147499900000001,0.31364041566848755,-0.12629413604736328,9.671976089477539,-1.617431640625,-3.173828125,-1.46484375
4.1524999000000005,0.0975637212395668,0.04189852997660637,9.792284965515137,1.617431640625,3.509521484375,-0.091552734375
4.1574999,0.25917232036590576,-0.058059390634298325,9.906607627868652,-1.40380859375,-3.204345703125,1.007080078125
4.1624999,0.2495955228805542,-0.033518824726343155,9.641449928283691,1.007080078125,2.62451171875,-2.62451171875
4.1674999,0.20709845423698425,0.018555063754320145,9.982624053955078,-0.762939453125,-1.800537109375,2.899169921875
4.1724999,0.3531447649002075,-0.12210428714752197,9.467870712280273,0.3662109375,0.67138671875,-3.753662109375
4.1774999,0.12928688526153564,0.05985504388809204,9.93474006652832,0.3662109375,0.335693359375,3.753662109375
4.1824999,0.3513490855693817,-0.18495208024978638,9.47265911102295,-0.885009765625,-1.556396484375,-3.5400390625
4.187499900000001,0.05506663769483566,0.0802057534456253,9.871891975402832,1.312255859375,2.44140625,2.410888671875
4.1924999000000005,0.3064578175544739,-0.14006079733371735,9.647436141967773,-1.46484375,-3.41796875,-1.556396484375
4.1974999,0.07721300423145294,0.040701430290937424,9.801262855529785,1.678466796875,3.570556640625,0.18310546875
4.2024999,0.2579752206802368,-0.07062894850969315,9.890447616577148,-1.373291015625,-3.204345703125,0.732421875
4.2074999,0.22206220030784607,-0.03651157766580582,9.666589736938477,1.251220703125,2.899169921875,-2.13623046875
4.2124999,0.20889410376548767,0.016759412363171577,10.001178741455078,-0.79345703125,-1.89208984375,2.838134765625
4.2174999,0.3387795388698578,-0.11611878126859665,9.486425399780273,0.3662109375,0.9765625,-3.72314453125
4.2224999,0.12868833541870117,0.07122749835252762,9.95209789276123,0.3662109375,0.274658203125,3.753662109375
4.2274999,0.3477577865123749,-0.17956513166427612,9.46487808227539,-0.640869140625,-1.251220703125,-3.60107421875
4.2324999000000005,0.05446808785200119,0.08439560979604721,9.884461402893066,1.220703125,2.3193359375,2.532958984375
4.2374999,0.3076549172401428,-0.1472434103488922,9.636063575744629,-1.5869140625,-3.204345703125,-1.922607421875
4.2424999,0.06524199992418289,0.043095629662275314,9.816825866699219,1.678466796875,3.265380859375,0.396728515625
4.2474999,0.2495955228805542,-0.08439560979604721,9.885659217834473,-1.46484375,-3.448486328125,0.67138671875
4.2524999,0.19213469326496124,-0.041299980133771896,9.68155288696289,1.312255859375,3.021240234375,-2.0751953125
4.2574999,0.19452889263629913,0.002992752008140087,9.990405082702637,-0.91552734375,-2.25830078125,2.838134765625
4.2624999,0.32022446393966675,-0.12330138683319092,9.470264434814453,0.42724609375,1.15966796875,-3.662109375
4.2674999,0.12928688526153564,0.06344634294509888,9.927556991577148,0.274658203125,0.1220703125,3.509521484375
4.272499900000001,0.35015198588371277,-0.181959331035614,9.43255615234375,-0.6103515625,-1.190185546875,-3.7841796875
4.2774999000000005,0.06524199992418289,0.08619125932455063,9.86351203918457,1.15966796875,2.197265625,2.532958984375
4.2824999,0.3250128924846649,-0.152031809091568,9.607333183288574,-1.495361328125,-2.899169921875,-2.105712890625
4.2874999,0.08140286058187485,0.05267243832349777,9.81024169921875,1.52587890625,3.5400390625,0.6103515625
4.2924999,0.2819172441959381,-0.07960720360279083,9.86770248413086,-1.52587890625,-3.41796875,0.67138671875
4.2974999,0.2064998894929886,-0.03411737456917763,9.692925453186035,1.28173828125,3.0517578125,-1.983642578125
4.3024999,0.21368250250816345,0.009576806798577309,9.998186111450195,-1.068115234375,-2.288818359375,2.838134765625
4.3074999,0.31364041566848755,-0.11971008777618408,9.481039047241211,0.30517578125,1.190185546875,-3.753662109375
4.312499900000001,0.11791443079710007,0.07422025501728058,9.935338973999023,0.091552734375,-0.030517578125,3.5400390625
4.3174999000000005,0.3315969407558441,-0.17417816817760468,9.425373077392578,-0.732421875,-1.251220703125,-3.631591796875
4.3224999,0.055665191262960434,0.09516951441764832,9.862914085388184,1.068115234375,2.044677734375,2.5634765625
4.3274999,0.32680854201316833,-0.14604631066322327,9.589975357055664,-1.46484375,-3.0517578125,-2.105712890625
4.3324999,0.08738835901021957,0.05925649031996727,9.81263542175293,1.708984375,3.5400390625,0.640869140625
4.3374999,0.2968810200691223,-0.08619125932455063,9.853337287902832,-1.5869140625,-3.387451171875,0.30517578125
4.3424999,0.21966800093650818,-0.03172317147254944,9.703699111938477,1.46484375,3.173828125,-2.01416015625
4.3474999,0.23523031175136566,-0.0017956512747332454,10.002974510192871,-0.91552734375,-2.349853515625,2.685546875
4.352499900000001,0.3423708379268646,-0.13168109953403473,9.496601104736328,0.30517578125,1.434326171875,-3.60107421875
4.3574999000000005,0.1454477459192276,0.06165069341659546,9.955090522766113,0.030517578125,-0.18310546875,3.448486328125
4.3624999,0.35673606395721436,-0.19931729137897491,9.43135929107666,-0.762939453125,-0.91552734375,-3.90625
4.3674999,0.061052143573760986,0.08080431073904037,9.86889934539795,1.190185546875,2.349853515625,2.8076171875
4.3724999,0.3214215636253357,-0.16519992053508759,9.579200744628906,-1.434326171875,-3.143310546875,-2.166748046875
4.3774999,0.0694318488240242,0.0586579404771328,9.803058624267578,1.52587890625,3.326416015625,0.732421875
4.3824999,0.28371289372444153,-0.07960720360279083,9.840767860412598,-1.678466796875,-3.5400390625,0.396728515625
4.3874999,0.2064998894929886,-0.023942016065120697,9.70310115814209,1.40380859375,3.265380859375,-2.0751953125
4.3924999,0.23822307586669922,0.013168109580874443,10.000580787658691,-1.03759765625,-2.349853515625,2.471923828125
4.397499900000001,0.34596213698387146,-0.1280897855758667,9.501389503479004,0.48828125,1.40380859375,-3.5400390625
4.4024999000000005,0.15442600846290588,0.07182604819536209,9.960477828979492,0.152587890625,-0.3662109375,3.47900390625
4.4074999,0.36810851097106934,-0.20709845423698425,9.441534042358398,-0.640869140625,-0.946044921875,-3.84521484375
4.4124999,0.07003039866685867,0.08140286058187485,9.889848709106445,1.129150390625,2.13623046875,2.777099609375
4.4174999,0.33039984107017517,-0.17417816817760468,9.59596061706543,-1.40380859375,-3.021240234375,-2.197265625
4.4224999,0.07422025501728058,0.055665191262960434,9.827000617980957,1.678466796875,3.448486328125,0.6103515625
4.4274999,0.07422025501728058,0.055665191262960434,9.827000617980957,1.678466796875,3.448486328125,0.6103515625
4.4324999,0.27892449498176575,-0.07841010391712189,9.846753120422363,-1.678466796875,-3.662109375,0.152587890625
4.437499900000001,0.1885433793067932,-0.025737667456269264,9.709086418151855,1.28173828125,3.2958984375,-1.953125
4.4424999000000005,0.20889410376548767,0.012569558806717396,9.997588157653809,-0.9765625,-2.38037109375,2.50244140625
4.4474999,0.314238965511322,-0.13048399984836578,9.498396873474121,0.6103515625,1.373291015625,-3.631591796875
4.4524999,0.12749123573303223,0.07541735470294952,9.953893661499023,0.152587890625,-0.091552734375,3.631591796875
4.4574999,0.3495534360408783,-0.19632454216480255,9.435548782348633,-0.579833984375,-0.8544921875,-3.60107421875
4.4624999,0.06404489278793335,0.09636662155389786,9.884461402893066,1.068115234375,2.197265625,2.685546875
4.4674999,0.3298012912273407,-0.1604115068912506,9.59715747833252,-1.40380859375,-3.0517578125,-2.13623046875
4.4724999,0.07960720360279083,0.06464344263076782,9.82759952545166,1.64794921875,3.60107421875,0.640869140625
4.477499900000001,0.2885012924671173,-0.07900865375995636,9.854534149169922,-1.739501953125,-3.509521484375,0.42724609375
4.4824999000000005,0.2059013396501541,-0.033518824726343155,9.709086418151855,1.3427734375,3.23486328125,-1.800537109375
4.4874999,0.22505496442317963,0.0077811554074287415,9.999981880187988,-0.946044921875,-2.50244140625,2.685546875
4.4924999,0.3321954905986786,-0.1472434103488922,9.502586364746094,0.396728515625,1.495361328125,-3.509521484375
4.4974999,0.1364694982767105,0.06404489278793335,9.956886291503906,0.1220703125,-0.18310546875,3.570556640625
4.5024999,0.35494041442871094,-0.2106897532939911,9.438541412353516,-0.823974609375,-1.068115234375,-3.692626953125
4.5074999,0.061052143573760986,0.08379705995321274,9.875483512878418,1.15966796875,2.0751953125,2.716064453125
4.5124999,0.32381579279899597,-0.16579847037792206,9.586981773376465,-1.40380859375,-3.021240234375,-2.227783203125
4.5174999,0.07422025501728058,0.05506663769483566,9.804255485534668,1.617431640625,3.509521484375,0.48828125
4.522499900000001,0.2777273952960968,-0.07481880486011505,9.84256362915039,-1.556396484375,-3.631591796875,0.396728515625
4.5274999000000005,0.2064998894929886,-0.0347159244120121,9.68574333190918,1.495361328125,3.265380859375,-1.953125
4.5324999,0.21847090125083923,0.017956512048840523,9.992799758911133,-0.91552734375,-2.3193359375,2.593994140625
4.5374999,0.3298012912273407,-0.13946224749088287,9.48882007598877,0.396728515625,1.312255859375,-3.5400390625
4.5424999,0.13287819921970367,0.07003039866685867,9.95209789276123,0.18310546875,-0.152587890625,3.5400390625
4.5474999,0.3477577865123749,-0.21308395266532898,9.443928718566895,-0.701904296875,-1.220703125,-3.814697265625
4.5524999,0.05267243832349777,0.07960720360279083,9.882067680358887,1.0986328125,2.227783203125,2.74658203125
4.5574999,0.31603461503982544,-0.17058686912059784,9.609128952026367,-1.434326171875,-3.082275390625,-2.01416015625
4.562499900000001,0.06524199992418289,0.04967968538403511,9.81143856048584,1.556396484375,3.570556640625,0.518798828125
4.5674999000000005,0.2645592987537384,-0.06883329898118973,9.856928825378418,-1.678466796875,-3.47900390625,0.579833984375
4.5724999,0.2017114907503128,-0.030526071786880493,9.680954933166504,1.3427734375,3.23486328125,-1.922607421875
4.5774999,0.20769700407981873,0.023942016065120697,9.992799758911133,-1.007080078125,-2.410888671875,2.716064453125
4.5824999,0.33099839091300964,-0.13826514780521393,9.485228538513184,0.457763671875,1.312255859375,-3.662109375
4.5874999,0.13168109953403473,0.07062894850969315,9.952696800231934,0.396728515625,-0.06103515625,3.631591796875
4.5924999,0.3513490855693817,-0.21428105235099792,9.443928718566895,-0.67138671875,-1.190185546875,-3.47900390625
4.5974999,0.05746084079146385,0.08080431073904037,9.88745403289795,1.190185546875,2.288818359375,2.593994140625
4.602499900000001,0.32022446393966675,-0.1646013706922531,9.619303703308105,-1.46484375,-3.173828125,-2.0751953125
4.6074999000000005,0.07900865375995636,0.046088382601737976,9.820416450500488,1.64794921875,3.509521484375,0.335693359375
4.6124999,0.27413609623908997,-0.07003039866685867,9.870695114135742,-1.64794921875,-3.60107421875,0.6103515625
4.6174999,0.22086510062217712,-0.031124621629714966,9.682151794433594,1.312255859375,3.204345703125,-2.044677734375
4.6224999,0.21368250250816345,0.030526071786880493,9.99459457397461,-0.732421875,-2.25830078125,2.9296875
4.6274999,0.3405751883983612,-0.14185644686222076,9.48343276977539,0.42724609375,1.190185546875,-3.692626953125
4.6324999,0.13168109953403473,0.08080431073904037,9.95090103149414,0.244140625,-0.091552734375,3.631591796875
4.6374999,0.35673606395721436,-0.21787235140800476,9.446322441101074,-0.701904296875,-1.28173828125,-3.448486328125
4.6424999,0.0586579404771328,0.08798690885305405,9.874884605407715,1.0986328125,2.38037109375,2.44140625
4.647499900000001,0.32022446393966675,-0.15682020783424377,9.61331844329834,-1.46484375,-3.35693359375,-1.77001953125
4.6524999000000005,0.08319851011037827,0.04908113554120064,9.790489196777344,1.495361328125,3.662109375,0.335693359375
4.6574999,0.2645592987537384,-0.06344634294509888,9.848548889160156,-1.617431640625,-3.753662109375,0.732421875
4.6624999,0.22625206410884857,-0.038307227194309235,9.641449928283691,1.312255859375,3.143310546875,-2.197265625
4.6674999,0.1999158412218094,0.035913024097681046,9.979032516479492,-0.8544921875,-2.105712890625,2.838134765625
4.6724999,0.33698388934135437,-0.14844051003456116,9.47146224975586,0.18310546875,0.946044921875,-3.692626953125
4.6774999,0.12210428714752197,0.08200141042470932,9.956287384033203,0.274658203125,0.213623046875,3.448486328125
4.6824999,0.3519476354122162,-0.21547815203666687,9.469067573547363,-0.762939453125,-1.46484375,-3.387451171875
4.687499900000001,0.05446808785200119,0.08798690885305405,9.891045570373535,1.190185546875,2.44140625,2.471923828125
4.6924999000000005,0.31783026456832886,-0.14065934717655182,9.648633003234863,-1.617431640625,-3.35693359375,-1.800537109375
4.6974999,0.08619125932455063,0.05446808785200119,9.800065994262695,1.64794921875,3.631591796875,0.030517578125
4.7024999,0.25438392162323,-0.04668693244457245,9.874286651611328,-1.52587890625,-3.60107421875,0.91552734375
4.7074999,0.22924481332302094,-0.038307227194309235,9.627683639526367,1.251220703125,3.11279296875,-2.44140625
4.7124999,0.18794482946395874,0.04189852997660637,9.97484302520752,-0.8544921875,-2.13623046875,3.021240234375
4.7174999,0.333991140127182,-0.15322890877723694,9.455899238586426,0.152587890625,0.762939453125,-3.72314453125
4.7224999,0.11671733111143112,0.08499415963888168,9.942521095275879,0.396728515625,0.30517578125,3.326416015625
4.727499900000001,0.35494041442871094,-0.21787235140800476,9.468469619750977,-0.91552734375,-1.52587890625,-3.47900390625
4.7324999000000005,0.05985504388809204,0.08319851011037827,9.877279281616211,1.312255859375,2.777099609375,2.349853515625
4.7374999,0.322618693113327,-0.1412578970193863,9.660603523254395,-1.64794921875,-3.47900390625,-1.434326171875
4.7424999,0.10295066982507706,0.03531447425484657,9.791686058044434,1.617431640625,3.570556640625,-0.274658203125
4.7474999,0.25977087020874023,-0.041299980133771896,9.886856079101562,-1.52587890625,-3.509521484375,1.03759765625
4.7524999,0.24899697303771973,-0.05267243832349777,9.616311073303223,1.15966796875,2.838134765625,-2.471923828125
4.7574999,0.18794482946395874,0.04668693244457245,9.97484302520752,-0.79345703125,-1.922607421875,3.021240234375
4.7624999,0.34596213698387146,-0.16519992053508759,9.446322441101074,0.06103515625,0.54931640625,-3.875732421875
4.7674999,0.11372458189725876,0.08559270948171616,9.941922187805176,0.335693359375,0.640869140625,3.387451171875
4.772499900000001,0.3561375141143799,-0.2214636504650116,9.479243278503418,-0.91552734375,-1.77001953125,-3.265380859375
4.7774999000000005,0.05925649031996727,0.08499415963888168,9.875483512878418,1.3427734375,2.838134765625,2.01416015625
4.7824999,0.3190273642539978,-0.14185644686222076,9.688735961914062,-1.708984375,-3.509521484375,-1.220703125
4.7874999,0.10773907601833344,0.03531447425484657,9.795876502990723,1.617431640625,3.631591796875,-0.3662109375
4.7924999,0.10773907601833344,0.03531447425484657,9.795876502990723,1.617431640625,3.631591796875,-0.3662109375
4.7974999,0.2561795711517334,-0.0347159244120121,9.910199165344238,-1.556396484375,-3.41796875,1.373291015625
4.8024999,0.25917232036590576,-0.05626374110579491,9.616909980773926,1.129150390625,2.899169921875,-2.655029296875
4.8074999,0.1825578808784485,0.0586579404771328,9.97484302520752,-0.6103515625,-1.617431640625,3.0517578125
4.812499900000001,0.345363587141037,-0.17298106849193573,9.439739227294922,-0.152587890625,0.67138671875,-3.936767578125
4.8174999000000005,0.10115502029657364,0.09038111567497253,9.934141159057617,0.48828125,0.8544921875,3.2958984375
4.8224999,0.35254621505737305,-0.2232593148946762,9.491812705993652,-0.946044921875,-2.166748046875,-3.11279296875
4.8274999,0.060453593730926514,0.08738835901021957,9.874884605407715,1.52587890625,2.86865234375,1.922607421875
4.8324999,0.32022446393966675,-0.14903905987739563,9.709685325622559,-1.678466796875,-3.72314453125,-0.9765625
4.8374999,0.1280897855758667,0.03292027488350868,9.788095474243164,1.64794921875,3.662109375,-0.6103515625
4.8424999,0.2561795711517334,-0.04010287672281265,9.91738224029541,-1.617431640625,-3.41796875,1.617431640625
4.8474999,0.27234044671058655,-0.060453593730926514,9.595361709594727,0.8544921875,2.838134765625,-2.74658203125
4.852499900000001,0.1711854189634323,0.05446808785200119,9.96945571899414,-0.701904296875,-1.556396484375,2.99072265625
4.8574999000000005,0.3381809890270233,-0.18555063009262085,9.428366661071777,0.030517578125,0.30517578125,-3.7841796875
4.8624999,0.08140286058187485,0.08319851011037827,9.922170639038086,0.762939453125,0.9765625,3.23486328125
4.8674999,0.33758243918418884,-0.2214636504650116,9.495404243469238,-1.03759765625,-2.410888671875,-2.99072265625
4.8724999,0.05446808785200119,0.08619125932455063,9.868300437927246,1.5869140625,3.11279296875,1.678466796875
4.8774999,0.314238965511322,-0.15442600846290588,9.730634689331055,-1.5869140625,-3.5400390625,-0.885009765625
4.8824999,0.13347674906253815,0.03411737456917763,9.787496566772461,1.617431640625,3.875732421875,-0.885009765625
4.8874999,0.25079262256622314,-0.05985504388809204,9.942521095275879,-1.40380859375,-3.35693359375,1.739501953125
4.8924999,0.2801215946674347,-0.04249707981944084,9.586981773376465,1.068115234375,2.410888671875,-3.021240234375
4.897499900000001,0.16998831927776337,0.04010287672281265,9.974244117736816,-0.579833984375,-1.220703125,3.509521484375
4.9024999000000005,0.35434186458587646,-0.1628057211637497,9.423578262329102,-0.06103515625,0,-3.692626953125
4.9074999,0.09696517139673233,0.07541735470294952,9.905410766601562,0.701904296875,1.15966796875,3.021240234375
4.9124999,0.353743314743042,-0.20231004059314728,9.503783226013184,-1.220703125,-2.471923828125,-2.8076171875
4.9174999,0.08259996026754379,0.08978256583213806,9.855133056640625,1.556396484375,3.265380859375,1.52587890625
4.9224999,0.3190273642539978,-0.1412578970193863,9.744999885559082,-1.64794921875,-3.662109375,-0.54931640625
4.9274999,0.15981295704841614,0.03531447425484657,9.77133560180664,1.678466796875,3.631591796875,-1.190185546875
4.9324999,0.24361002445220947,-0.05686229094862938,9.939528465270996,-1.3427734375,-3.23486328125,2.01416015625
4.937499900000001,0.2885012924671173,-0.035913024097681046,9.549273490905762,1.007080078125,2.38037109375,-3.11279296875
4.9424999000000005,0.14604631066322327,0.030526071786880493,9.955689430236816,-0.48828125,-1.129150390625,3.23486328125
4.9474999,0.33937808871269226,-0.13766659796237946,9.415796279907227,-0.18310546875,-0.244140625,-3.875732421875
4.9524999,0.0694318488240242,0.061052143573760986,9.898826599121094,0.885009765625,1.373291015625,3.143310546875
4.9574999,0.3298012912273407,-0.16340427100658417,9.541492462158203,-1.068115234375,-2.44140625,-2.8076171875
4.9624999,0.0694318488240242,0.07242459803819656,9.8599214553833,1.373291015625,3.326416015625,1.312255859375
4.9674999,0.304063618183136,-0.09157821536064148,9.791686058044434,-1.708984375,-3.814697265625,-0.396728515625
4.9724999,0.16998831927776337,0.008379706181585789,9.768342971801758,1.64794921875,3.631591796875,-1.373291015625
4.977499900000001,0.24121582508087158,-0.016759412363171577,9.971251487731934,-1.129150390625,-2.899169921875,2.13623046875
4.9824999000000005,0.30226796865463257,-0.08319851011037827,9.551069259643555,0.6103515625,1.983642578125,-3.387451171875
4.9874999,0.14425064623355865,0.05267243832349777,9.972448348999023,-0.3662109375,-0.946044921875,3.5400390625
4.9924999,0.3477577865123749,-0.17477671802043915,9.436745643615723,-0.48828125,-0.54931640625,-3.60107421875
4.9974999,0.06404489278793335,0.07781155407428741,9.890447616577148,0.8544921875,1.739501953125,2.9296875
5.0024999,0.32860419154167175,-0.1801636815071106,9.537900924682617,-1.251220703125,-2.899169921875,-2.410888671875
5.0074999,0.07302315533161163,0.0736217051744461,9.816226959228516,1.617431640625,3.570556640625,0.823974609375
5.0124999,0.2950853705406189,-0.09816227108240128,9.77672290802002,-1.708984375,-3.72314453125,0.1220703125
5.0174999,0.1885433793067932,0.0035913025494664907,9.706093788146973,1.5869140625,3.448486328125,-1.46484375
5.022499900000001,0.23582886159420013,-0.010175357572734356,9.959878921508789,-1.190185546875,-2.99072265625,2.3193359375
5.0274999000000005,0.32202014327049255,-0.09696517139673233,9.50498104095459,0.54931640625,1.922607421875,-3.387451171875
5.0324999,0.14664486050605774,0.06464344263076782,9.955689430236816,-0.244140625,-0.579833984375,3.60107421875
5.0374999,0.35733461380004883,-0.1843535304069519,9.431957244873047,-0.518798828125,-0.8544921875,-3.814697265625
5.0424999,0.07122749835252762,0.09038111567497253,9.889249801635742,1.068115234375,1.861572265625,2.62451171875
5.0474999,0.33339259028434753,-0.1735796183347702,9.560047149658203,-1.40380859375,-3.021240234375,-2.105712890625
5.0524999,0.07960720360279083,0.08140286058187485,9.814431190490723,1.739501953125,3.60107421875,0.732421875
5.0574999,0.28072014451026917,-0.08439560979604721,9.817423820495605,-1.556396484375,-3.875732421875,0.335693359375
5.062499900000001,0.1909375786781311,0.013168109580874443,9.701305389404297,1.3427734375,3.387451171875,-1.739501953125
5.0674999000000005,0.20530278980731964,0.0011971008498221636,9.992799758911133,-1.220703125,-2.9296875,2.532958984375
5.0724999,0.3196259140968323,-0.11851298063993454,9.50498104095459,0.54931640625,1.739501953125,-3.631591796875
5.0774999,0.13287819921970367,0.04908113554120064,9.959280967712402,-0.06103515625,-0.18310546875,3.509521484375
5.0824999,0.3561375141143799,-0.21787235140800476,9.436147689819336,-0.457763671875,-0.885009765625,-3.5400390625
5.0874999,0.06763619929552078,0.07721300423145294,9.886856079101562,1.129150390625,2.197265625,2.5634765625
5.0924999,0.33099839091300964,-0.17956513166427612,9.589975357055664,-1.46484375,-3.23486328125,-1.89208984375
5.0974999,0.08918401598930359,0.06584054976701736,9.810839653015137,1.64794921875,3.814697265625,0.3662109375
5.102499900000001,0.2795230448246002,-0.09038111567497253,9.840168952941895,-1.52587890625,-3.7841796875,0.518798828125
5.1074999000000005,0.22625206410884857,-0.011372458189725876,9.67077922821045,1.52587890625,3.23486328125,-1.77001953125
5.1124999,0.2041056901216507,-0.0017956512747332454,9.987412452697754,-1.068115234375,-2.685546875,2.99072265625
5.1174999,0.3357867896556854,-0.1388636976480484,9.493608474731445,0.42724609375,1.52587890625,-3.662109375
5.1224999,0.12030863761901855,0.048482585698366165,9.964069366455078,0.091552734375,-0.030517578125,3.570556640625
5.1274999,0.34835633635520935,-0.22505496442317963,9.458892822265625,-0.732421875,-1.373291015625,-3.387451171875
5.1324999,0.05446808785200119,0.0867898091673851,9.891644477844238,1.28173828125,2.44140625,2.3193359375
5.1374999,0.3208230137825012,-0.15083470940589905,9.622296333312988,-1.495361328125,-3.387451171875,-1.8310546875
5.1424999,0.09277531504631042,0.08319851011037827,9.801861763000488,1.678466796875,3.814697265625,0.213623046875
5.147499900000001,0.2687491476535797,-0.05626374110579491,9.864110946655273,-1.739501953125,-3.5400390625,0.91552734375
5.1524999000000005,0.24480712413787842,-0.002394201699644327,9.646238327026367,1.0986328125,3.23486328125,-2.471923828125
5.1574999,0.19931729137897491,0.01975216343998909,9.986215591430664,-0.946044921875,-2.38037109375,2.8076171875
5.1624999,0.19931729137897491,0.01975216343998909,9.986215591430664,-0.946044921875,-2.38037109375,2.8076171875
5.1674999,0.34656068682670593,-0.1346738487482071,9.479243278503418,0.48828125,1.190185546875,-3.753662109375
5.1724999,0.11791443079710007,0.07003039866685867,9.964667320251465,0.396728515625,0.335693359375,3.326416015625
5.1774999,0.3489548861980438,-0.22206220030784607,9.479841232299805,-0.8544921875,-1.617431640625,-3.5400390625
5.1824999,0.05267243832349777,0.08499415963888168,9.888651847839355,1.3427734375,2.777099609375,2.166748046875
5.187499900000001,0.3172317147254944,-0.1628057211637497,9.655815124511719,-1.64794921875,-3.60107421875,-1.373291015625
5.1924999000000005,0.10594342648983002,0.05985504388809204,9.784503936767578,1.678466796875,3.814697265625,-0.18310546875
5.1974999,0.2621650993824005,-0.06643909960985184,9.87967300415039,-1.52587890625,-3.387451171875,1.251220703125
5.2024999,0.2621650993824005,-0.019153613597154617,9.61331844329834,1.251220703125,3.11279296875,-2.532958984375
5.2074999,0.18734627962112427,0.01975216343998909,9.979631423950195,-0.732421875,-1.922607421875,2.960205078125
5.2124999,0.35015198588371277,-0.1496376097202301,9.44871711730957,0.091552734375,0.640869140625,-3.7841796875
