# Time (seconds),Accel_X,Accel_Y,Accel_Z,Gyro_X,Gyro_Y,Gyro_Z
0.0024999,0.4794389009475708,-0.5057750940322876,9.750985145568848,5.615234375,-0.1220703125,-0.79345703125
0.0074999,0.4794389009475708,-0.5057750940322876,9.750985145568848,5.615234375,-0.1220703125,-0.79345703125
0.012499900000000001,0.40222588181495667,-0.4531026780605316,9.803058624267578,-1.678466796875,-0.823974609375,2.227783203125
0.0174999,0.4471171796321869,-0.517746090888977,9.624092102050781,-3.5400390625,0.6103515625,-2.410888671875
0.0224999,0.48303020000457764,-0.5099649429321289,9.754576683044434,5.523681640625,0,-0.640869140625
0.0274999,0.4058171808719635,-0.45848962664604187,9.827000617980957,-1.77001953125,-0.640869140625,2.349853515625
0.0324999,0.444722980260849,-0.5315127968788147,9.649829864501953,-3.753662109375,0.91552734375,-2.410888671875
0.0374999,0.3824737071990967,-0.4668693244457245,9.819818496704102,-1.89208984375,-0.54931640625,2.288818359375
0.0424999,0.4213795065879822,-0.5183446407318115,9.627084732055664,-3.72314453125,0.396728515625,-2.38037109375
0.0474999,0.4489128291606903,-0.5129576921463013,9.756970405578613,5.767822265625,-0.06103515625,-0.396728515625
0.0524999,0.3728969097137451,-0.4387374520301819,9.791088104248047,-2.410888671875,-0.701904296875,2.349853515625
0.0574999,0.4183867573738098,-0.5135562419891357,9.63067626953125,-3.41796875,0.3662109375,-2.62451171875
0.0624999,0.4315548539161682,-0.5045779943466187,9.77791976928711,5.767822265625,-0.335693359375,-0.335693359375
0.0674999,0.34596213698387146,-0.4405331015586853,9.82759952545166,-2.471923828125,-0.640869140625,2.3193359375
0.0724999,0.39205053448677063,-0.5105634927749634,9.665990829467773,-3.143310546875,0.579833984375,-2.655029296875
0.0774999,0.40462008118629456,-0.4950011968612671,9.789292335510254,5.645751953125,-0.18310546875,-0.396728515625
0.0824999,0.333991140127182,-0.4315548539161682,9.839570045471191,-2.62451171875,-0.3662109375,2.25830078125
0.0874999,0.38486793637275696,-0.5057750940322876,9.663596153259277,-2.99072265625,0.6103515625,-2.50244140625
0.0924999,0.39384618401527405,-0.4812345504760742,9.821614265441895,5.889892578125,-0.152587890625,-0.396728515625
0.0974999,0.3705027103424072,-0.4818331003189087,9.730035781860352,-2.9296875,0.6103515625,-2.62451171875
0.1024999,0.38546648621559143,-0.3734954595565796,9.666589736938477,5.7373046875,-0.3662109375,0.030517578125
0.1074999,0.19153612852096558,-1.370081901550293,9.396044731140137,-5.67626953125,-0.3662109375,17.76123046875
0.1124999,0.6853402256965637,-2.2008697986602783,8.164227485656738,-15.045166015625,-5.92041015625,41.9921875
0.1174999,0.17537526786327362,-3.3219549655914307,7.405265808105469,17.88330078125,-12.14599609375,98.388671875
0.1224999,0.7080851793289185,-3.867234230041504,5.919663906097412,-0.335693359375,-11.322021484375,135.7421875
0.1274999,0.4165911078453064,-3.4374752044677734,5.239710330963135,11.260986328125,-43.365478515625,190.093994140625
0.1324999,0.29628247022628784,-2.867655038833618,4.687248229980469,73.42529296875,-33.721923828125,183.990478515625
0.1374999,-0.1388636976480484,-2.182314872741699,4.591480255126953,-7.38525390625,6.34765625,210.5712890625
0.1424999,-0.6129156351089478,-1.425148606300354,4.141968727111816,-49.407958984375,-83.953857421875,378.41796875
0.1474999,-1.7687164545059204,-1.173158884048462,4.432265758514404,27.587890625,-141.845703125,415.740966796875
0.1524999,-1.5550340414047241,0.02454056777060032,5.097255229949951,172.119140625,-66.314697265625,332.794189453125
0.1574999,-0.3687070608139038,2.587533473968506,7.023989200592041,238.861083984375,-21.148681640625,329.498291015625
0.1624999,1.3108254671096802,5.2480902671813965,7.438186168670654,124.08447265625,-53.3447265625,187.3779296875
0.1674999,1.745373010635376,5.858013153076172,6.1752448081970215,180.328369140625,-79.58984375,150.360107421875
0.1724999,2.4672248363494873,5.4210710525512695,5.064933776855469,156.67724609375,-89.202880859375,117.767333984375
0.17749990000000002,3.450044631958008,4.747103214263916,4.684255599975586,96.405029296875,-88.7451171875,123.565673828125
0.1824999,4.70879602432251,3.8959646224975586,5.410297393798828,78.887939453125,-74.859619140625,124.298095703125
0.1874999,5.737704277038574,3.0789434909820557,6.039972305297852,50.9033203125,-56.15234375,101.287841796875
0.1924999,6.455366134643555,2.5689783096313477,6.798934459686279,34.5458984375,-36.407470703125,91.461181640625
0.1974999,6.762422561645508,2.2661118507385254,7.367557048797607,48.27880859375,-5.43212890625,76.446533203125
0.2024999,5.528810501098633,2.6671407222747803,7.620145320892334,-13.85498046875,22.125244140625,5.584716796875
0.20749990000000001,4.74111795425415,2.8784289360046387,7.2113356590271,-62.19482421875,21.17919921875,-28.228759765625
0.2124999,4.050989151000977,3.0340521335601807,7.331644058227539,-91.85791015625,4.669189453125,-45.41015625
0.2174999,3.729567766189575,3.090914487838745,7.27298641204834,-83.67919921875,34.85107421875,-73.699951171875
0.2224999,3.4105403423309326,3.1693243980407715,7.004835605621338,-128.021240234375,47.454833984375,-93.8720703125
0.2274999,3.2986114025115967,3.177704095840454,7.112574577331543,-152.008056640625,30.6396484375,-90.118408203125
0.2324999,3.341108560562134,3.1238346099853516,7.04793119430542,-144.22607421875,58.2275390625,-105.77392578125
0.2374999,3.1699230670928955,2.98437237739563,6.738480567932129,-195.709228515625,73.54736328125,-121.978759765625
0.2424999,0.40701428055763245,0.12090718746185303,9.228450775146484,-175.445556640625,107.91015625,-90.240478515625
0.2474999,-1.7753005027770996,-2.385822057723999,11.768698692321777,-24.627685546875,6.439208984375,-63.53759765625
0.2524999,-3.8953661918640137,-4.982932090759277,13.338696479797363,55.023193359375,0.213623046875,-30.82275390625
0.2574999,-5.18284797668457,-7.292140007019043,13.290213584899902,58.563232421875,25.0244140625,-61.737060546875
0.2624999,-4.812943935394287,-7.955932140350342,10.710461616516113,50.47607421875,1.220703125,-81.6650390625
0.2674999,-3.463212728500366,-7.088632583618164,7.307103633880615,65.155029296875,-16.78466796875,-71.044921875
0.2724999,-1.8082208633422852,-5.549160957336426,4.676474571228027,34.759521484375,-17.76123046875,-76.568603515625
0.2774999,-0.5692214369773865,-3.5930981636047363,3.581127166748047,-40.771484375,-16.632080078125,-56.45751953125
0.2824999,0.11791443079710007,-1.5047557353973389,4.416105270385742,-45.654296875,-11.5966796875,-41.9921875
0.28749990000000003,0.2944868206977844,0.2693476974964142,6.3063273429870605,-53.16162109375,-7.843017578125,-43.5791015625
0.2924999,-0.013766659423708916,1.5328876972198486,9.272144317626953,-27.28271484375,-8.4228515625,-11.3525390625
0.2974999,-0.38905778527259827,1.8932149410247803,11.693281173706055,5.767822265625,-4.302978515625,1.861572265625
0.3024999,-0.7841010689735413,1.5466543436050415,13.004106521606445,-16.357421875,-17.822265625,10.25390625
0.3074999,-0.9391255974769592,0.5805938839912415,13.059173583984375,15.7470703125,-26.885986328125,17.63916015625
0.3124999,-0.6685808300971985,-0.36332011222839355,11.426926612854004,2.50244140625,-15.838623046875,-4.150390625
0.3174999,-0.2190694510936737,-1.0384849309921265,10.073004722595215,-20.32470703125,-22.0947265625,5.7373046875
0.3224999,0.47225627303123474,-1.2557587623596191,9.225458145141602,8.97216796875,-14.312744140625,2.655029296875
0.3274999,1.0684125423431396,-1.1204863786697388,8.858546257019043,-21.514892578125,-5.706787109375,-7.965087890625
0.3324999,1.501164436340332,-0.8146271109580994,9.625887870788574,7.568359375,-4.058837890625,6.9580078125
0.3374999,1.745373010635376,-0.5374982953071594,9.618106842041016,2.532958984375,10.55908203125,-7.537841796875
0.3424999,1.6801310777664185,-0.518943190574646,10.038887977600098,-9.307861328125,4.913330078125,0.274658203125
0.34749990000000003,1.5430630445480347,-0.5632359385490417,9.993996620178223,24.078369140625,15.07568359375,3.448486328125
0.35249990000000003,1.136048674583435,-0.5805938839912415,9.624691009521484,-13.00048828125,11.90185546875,-7.8125
0.3574999,0.7200561761856079,-0.6829460263252258,10.02571964263916,12.298583984375,4.0283203125,8.544921875
0.3624999,0.3519476354122162,-0.5147533416748047,9.667786598205566,9.307861328125,14.09912109375,-5.06591796875
0.3674999,0.5398924946784973,-0.4626794755458832,9.650428771972656,-21.209716796875,-6.40869140625,-4.150390625
0.3724999,0.7416039705276489,-0.6536170840263367,9.992799758911133,13.702392578125,-6.2255859375,8.941650390625
0.3774999,0.8690952062606812,-0.6643909811973572,9.57441234588623,-5.79833984375,4.547119140625,-6.9580078125
0.3824999,0.8110358119010925,-0.7242460250854492,9.971251487731934,-2.349853515625,-6.439208984375,5.43212890625
0.3874999,0.899621307849884,-0.6548141837120056,9.748590469360352,13.580322265625,9.063720703125,-3.41796875
0.3924999,0.7068880796432495,-0.5692214369773865,9.814431190490723,-16.448974609375,-1.46484375,-2.838134765625
0.3974999,0.4842272996902466,-0.45010992884635925,10.107721328735352,10.040283203125,-2.5634765625,6.622314453125
0.4024999,0.45250412821769714,-0.37169981002807617,9.5624418258667,-0.54931640625,8.270263671875,-7.781982421875
0.4074999,0.3064578175544739,-0.37828385829925537,9.927556991577148,-6.866455078125,-6.04248046875,4.08935546875
0.41249990000000003,0.3878606855869293,-0.424970805644989,9.68813705444336,14.5263671875,5.615234375,-2.105712890625
0.41749990000000003,0.2711433470249176,-0.3908534348011017,9.701305389404297,-18.49365234375,-3.41796875,-2.044677734375
0.4224999,0.414795458316803,-0.46327802538871765,9.924564361572266,18.98193359375,0.396728515625,4.302978515625
0.4274999,0.4124012291431427,-0.4405331015586853,9.570222854614258,-16.754150390625,1.800537109375,-7.049560546875
0.4324999,0.4800374507904053,-0.4423287510871887,10.072406768798828,11.260986328125,-4.058837890625,6.988525390625
0.4374999,0.5506663918495178,-0.39863458275794983,9.512163162231445,-4.57763671875,5.7373046875,-7.965087890625
0.4424999,0.4405331015586853,-0.41958385705947876,10.064026832580566,-2.655029296875,-5.859375,5.523681640625
0.4474999,0.5578489899635315,-0.43694180250167847,9.64923095703125,9.857177734375,6.40869140625,-4.45556640625
0.4524999,0.3884592354297638,-0.4255693554878235,9.890447616577148,-14.678955078125,-4.57763671875,1.556396484375
0.4574999,0.4602852761745453,-0.47884035110473633,9.84495735168457,18.280029296875,2.8076171875,0.762939453125
0.4624999,0.33997663855552673,-0.444722980260849,9.671378135681152,-19.256591796875,-1.678466796875,-3.5400390625
0.4674999,0.38486793637275696,-0.45669397711753845,10.001777648925781,17.51708984375,-1.922607421875,4.94384765625
0.47249990000000003,0.36571431159973145,-0.4489128291606903,9.552865028381348,-15.2587890625,1.678466796875,-6.89697265625
0.47749990000000003,0.3860650360584259,-0.42616790533065796,10.073603630065918,9.429931640625,-5.279541015625,7.080078125
0.4824999,0.47644615173339844,-0.4411316514015198,10.055646896362305,-1.190185546875,-6.256103515625,6.256103515625
0.4874999,0.47644615173339844,-0.4411316514015198,10.055646896362305,-1.190185546875,-6.256103515625,6.256103515625
0.4924999,0.645237386226654,-0.4770447015762329,9.597756385803223,6.2255859375,5.645751953125,-5.523681640625
0.4974999,0.5171475410461426,-0.4554968774318695,9.911396026611328,-10.7421875,-4.608154296875,3.5400390625
0.5024999,0.6212953329086304,-0.5063736438751221,9.737217903137207,14.984130859375,4.913330078125,-2.5634765625
0.5074999,0.43275195360183716,-0.4381389021873474,9.676764488220215,-18.035888671875,0.8544921875,-3.5400390625
0.5124999,0.4842272996902466,-0.38726213574409485,10.012551307678223,17.425537109375,-0.3662109375,4.241943359375
0.5174999,0.40462008118629456,-0.45190557837486267,9.564835548400879,-15.31982421875,2.5634765625,-5.645751953125
0.5224999,0.4040215313434601,-0.40521863102912903,10.046070098876953,12.603759765625,-3.5400390625,6.4697265625
0.5274999,0.41539400815963745,-0.46148237586021423,9.479243278503418,-9.857177734375,3.143310546875,-6.77490234375
0.5324999,0.33698388934135437,-0.41958385705947876,10.038887977600098,5.706787109375,-5.615234375,7.232666015625
0.5374999,0.4596867263317108,-0.4554968774318695,9.518148422241211,-3.35693359375,3.631591796875,-6.927490234375
0.5424999,0.4124012291431427,-0.4165911078453064,10.113706588745117,-0.67138671875,-6.744384765625,6.317138671875
0.5474999,0.5249287486076355,-0.43933600187301636,9.585186958312988,2.86865234375,4.08935546875,-6.072998046875
0.5524999,0.46627077460289,-0.44412440061569214,10.093356132507324,-6.866455078125,-5.889892578125,5.096435546875
0.5574999,0.5722141861915588,-0.4902127981185913,9.652822494506836,8.209228515625,4.2724609375,-4.852294921875
0.5624999,0.5614402890205383,-0.47584760189056396,9.825204849243164,16.632080078125,2.166748046875,-0.06103515625
0.5674999000000001,0.5063736438751221,-0.4668693244457245,9.709086418151855,-16.204833984375,0.06103515625,-0.946044921875
0.5724999000000001,0.5213374495506287,-0.46627077460289,9.886856079101562,16.876220703125,0.885009765625,1.3427734375
0.5774999000000001,0.4734533727169037,-0.5327098965644836,9.668384552001953,-16.29638671875,0.579833984375,-1.983642578125
0.5824999,0.4686649739742279,-0.4339490532875061,9.913790702819824,16.387939453125,-0.335693359375,2.38037109375
0.5874999,0.3926490843296051,-0.5297171473503113,9.622296333312988,-15.960693359375,1.190185546875,-3.021240234375
0.5924999,0.43275195360183716,-0.3878606855869293,9.962273597717285,15.5029296875,-1.52587890625,2.838134765625
0.5974999,0.33518823981285095,-0.4812345504760742,9.586981773376465,-15.350341796875,1.495361328125,-3.84521484375
0.6024999,0.4836287498474121,-0.34356793761253357,9.98681354522705,14.09912109375,-3.173828125,3.60107421875
0.6074999,0.375291109085083,-0.49320554733276367,9.52353572845459,-14.16015625,2.01416015625,-4.45556640625
0.6124999,0.5135562419891357,-0.36092591285705566,10.013150215148926,13.763427734375,-3.23486328125,3.84521484375
0.6174999,0.40880993008613586,-0.5309142470359802,9.519944190979004,-13.916015625,2.44140625,-4.39453125
0.6224999,0.5512649416923523,-0.37888240814208984,10.031106948852539,13.48876953125,-2.960205078125,3.90625
0.6274999,0.4423287510871887,-0.5333084464073181,9.537900924682617,-13.397216796875,2.777099609375,-4.33349609375
0.6324999,0.5770025849342346,-0.3705027103424072,10.049661636352539,13.5498046875,-2.288818359375,4.0283203125
0.6374999,0.4405331015586853,-0.5147533416748047,9.566033363342285,-13.336181640625,2.960205078125,-4.2724609375
0.6424999,0.5548562407493591,-0.35494041442871094,10.05923843383789,13.824462890625,-2.410888671875,3.509521484375
0.6474999,0.406415730714798,-0.5081692934036255,9.61212158203125,-13.580322265625,2.74658203125,-3.84521484375
0.6524999,0.5153518915176392,-0.3555389642715454,10.06582260131836,13.73291015625,-2.044677734375,3.2958984375
0.6574999,0.517746090888977,-0.3621230125427246,9.942521095275879,14.312744140625,-2.166748046875,1.77001953125
0.6624999,0.4686649739742279,-0.5530605912208557,9.623494148254395,-14.373779296875,1.15966796875,-2.3193359375
0.6674999,0.5386953949928284,-0.41120412945747375,9.9000244140625,14.373779296875,-1.556396484375,1.068115234375
0.6724999,0.5351040959358215,-0.5446808934211731,9.695918083190918,-14.678955078125,0.579833984375,-0.946044921875
0.6774999,0.5590460896492004,-0.4297592043876648,9.874884605407715,14.190673828125,-1.068115234375,0.1220703125
0.6824999,0.49320554733276367,-0.47165772318840027,9.727043151855469,-13.97705078125,0,-0.06103515625
0.6874999,0.5410895943641663,-0.42197805643081665,9.791088104248047,13.458251953125,0,-1.03759765625
0.6924999000000001,0.4058171808719635,-0.406415730714798,9.720458984375,-12.5732421875,-0.396728515625,1.46484375
0.6974999000000001,0.5363011956214905,-0.4291606545448303,9.722254753112793,11.810302734375,0.640869140625,-2.3193359375
0.7024999000000001,0.39863458275794983,-0.3908534348011017,9.819818496704102,-10.8642578125,-1.03759765625,2.62451171875
0.7074999,0.4231751561164856,-0.43514615297317505,10.01075553894043,-4.45556640625,-2.13623046875,4.852294921875
0.7124999,0.545877993106842,-0.5045779943466187,9.542689323425293,2.44140625,2.532958984375,-5.79833984375
0.7174999,0.4429273009300232,-0.3998316824436188,10.043676376342773,-0.3662109375,-2.838134765625,5.2490234375
0.7224999,0.5518634915351868,-0.48722004890441895,9.488221168518066,-2.105712890625,2.685546875,-5.859375
0.7274999,0.45010992884635925,-0.38307225704193115,10.030508041381836,4.08935546875,-2.9296875,5.37109375
0.7324999,0.5033808946609497,-0.5111620426177979,9.507973670959473,-6.134033203125,2.593994140625,-5.523681640625
0.7374999,0.4381389021873474,-0.414795458316803,10.049661636352539,8.697509765625,-2.9296875,4.57763671875
0.7424999,0.3693056106567383,-0.5728127360343933,9.552865028381348,-10.162353515625,2.410888671875,-4.364013671875
0.7474999,0.40222588181495667,-0.4423287510871887,10.075399398803711,11.322021484375,-1.922607421875,3.173828125
0.7524999,0.32860419154167175,-0.6057330369949341,9.679159164428711,-12.237548828125,1.5869140625,-2.716064453125
0.7574999,0.3884592354297638,-0.5165489912033081,9.782109260559082,-12.786865234375,0.518798828125,-0.396728515625
0.7624999,0.5027823448181152,-0.4411316514015198,9.896432876586914,11.627197265625,-0.274658203125,-1.46484375
0.7674999,0.40940847992897034,-0.42616790533065796,9.882665634155273,-10.7421875,-0.42724609375,2.044677734375
0.7724999,0.5219359993934631,-0.4537012279033661,9.743802070617676,8.453369140625,1.03759765625,-3.2958984375
0.7774999,0.414795458316803,-0.41359832882881165,10.004770278930664,-5.615234375,-1.52587890625,3.936767578125
0.7824999,0.5093663930892944,-0.46507367491722107,9.603142738342285,3.082275390625,1.708984375,-5.2490234375
0.7874999,0.40701428055763245,-0.3974374830722809,10.032901763916016,-0.152587890625,-2.288818359375,4.974365234375
0.7924999,0.5099649429321289,-0.4489128291606903,9.500192642211914,-2.960205078125,2.166748046875,-5.584716796875
0.7974999,0.44352585077285767,-0.3908534348011017,10.023923873901367,5.889892578125,-2.13623046875,4.730224609375
0.8024999,0.4728548228740692,-0.4842272996902466,9.5007905960083,-8.48388671875,2.227783203125,-4.5166015625
0.8074999,0.1215057373046875,-0.9247604012489319,9.139864921569824,7.2021484375,-2.471923828125,8.48388671875
0.8124999,-0.33099839091300964,-2.3098061084747314,7.909843921661377,-47.760009765625,-7.598876953125,101.74560546875
0.8174999000000001,-2.3116016387939453,-3.6583402156829834,4.90452241897583,83.404541015625,-106.75048828125,300.689697265625
0.8224999000000001,-3.026869535446167,-2.4654293060302734,3.666719913482666,74.188232421875,-8.544921875,250.3662109375
0.8274999000000001,-3.5733461380004883,-2.557007312774658,4.0078935623168945,89.202880859375,-14.22119140625,221.6796875
0.8324999000000001,-2.7102363109588623,-1.3437457084655762,3.536834478378296,98.907470703125,-19.53125,229.217529296875
0.8374999,-1.7723077535629272,-1.191115379333496,4.636970043182373,170.257568359375,-15.68603515625,211.273193359375
0.8424999,-0.03172317147254944,0.11312603205442429,4.663905143737793,171.478271484375,-23.92578125,165.34423828125
0.8474999,1.3772644996643066,1.3467384576797485,4.703409194946289,53.863525390625,-54.595947265625,141.204833984375
0.8524999,2.6659436225891113,2.6791117191314697,4.930259704589844,99.12109375,-66.46728515625,98.907470703125
0.8574999,3.9396588802337646,3.7229835987091064,5.246892929077148,114.349365234375,-68.206787109375,57.769775390625
0.8624999,5.0290207862854,3.9151182174682617,5.568912982940674,48.7060546875,-64.75830078125,48.9501953125
0.8674999,6.113594055175781,3.952228546142578,6.588244438171387,39.24560546875,-49.591064453125,51.7578125
0.8724999,6.771999359130859,3.5853171348571777,7.238270282745361,43.39599609375,-23.49853515625,30.364990234375
0.8774999,6.125565052032471,2.273893117904663,7.5213847160339355,-12.542724609375,33.050537109375,-22.03369140625
0.8824999,3.491943120956421,2.5977089405059814,6.8372416496276855,-92.22412109375,41.259765625,-87.982177734375
0.8874999,2.7736825942993164,2.6431987285614014,6.512228488922119,-149.35302734375,38.75732421875,-102.874755859375
0.8924999,2.3965959548950195,2.6599581241607666,6.685808181762695,-152.069091796875,41.19873046875,-103.69873046875
0.8974999,2.2020668983459473,2.6366145610809326,6.6163763999938965,-161.834716796875,58.258056640625,-119.62890625
0.9024999,2.036867141723633,2.4384944438934326,6.993463039398193,-212.799072265625,59.87548828125,-125.030517578125
0.9074999,1.6047136783599854,1.544858694076538,8.801085472106934,-170.196533203125,72.601318359375,-104.43115234375
0.9124999,0.3866635859012604,-0.6260837316513062,10.985794067382812,-35.94970703125,76.23291015625,-73.883056640625
0.9174999,-0.921169102191925,-3.092710018157959,13.035829544067383,37.2314453125,51.849365234375,-36.712646484375
0.9224999,-1.316810965538025,-3.448249101638794,4.769848346710205,-8.209228515625,-14.068603515625,-54.046630859375
0.9274999,-0.8056488633155823,-1.6059107780456543,4.774038314819336,-54.840087890625,-14.007568359375,-35.797119140625
0.9324999,-0.6230909824371338,0.06584054976701736,6.709151744842529,-14.70947265625,-7.415771484375,-8.056640625
0.9374999,-0.6560112833976746,1.202487826347351,9.051279067993164,0.42724609375,2.25830078125,0.030517578125
0.9424999000000001,-0.8768763542175293,1.6956933736801147,11.362282752990723,-8.148193359375,-15.716552734375,22.918701171875
0.9474999000000001,-0.993593692779541,1.4143747091293335,12.494141578674316,9.6435546875,-25.57373046875,14.22119140625
0.9524999000000001,-0.8846575021743774,0.7739257216453552,11.838129997253418,-21.54541015625,-30.792236328125,-10.31494140625
0.9574999000000001,-0.5979518890380859,-0.04010287672281265,10.742782592773438,-12.39013671875,-38.238525390625,2.105712890625
0.9624999,0.11851298063993454,-0.5309142470359802,9.5408935546875,-3.2958984375,-21.6064453125,-5.0048828125
0.9674999,1.6184803247451782,-0.9888052940368652,9.628880500793457,10.284423828125,-7.14111328125,9.796142578125
0.9724999,2.102707624435425,-0.9750386476516724,9.652822494506836,-3.082275390625,5.615234375,-5.706787109375
0.9774999,2.2373814582824707,-1.1504138708114624,10.096348762512207,-5.157470703125,-0.67138671875,0.54931640625
0.9824999,2.144606113433838,-1.137245774269104,9.973047256469727,22.94921875,16.998291015625,1.953125
0.9874999,1.7232266664505005,-1.0528502464294434,9.712677955627441,-10.7421875,13.3056640625,-9.429931640625
0.9924999,1.2713210582733154,-0.9516952037811279,10.023923873901367,15.106201171875,9.94873046875,6.805419921875
0.9974999,0.861314058303833,-0.5734112858772278,9.73542308807373,12.939453125,21.209716796875,-3.84521484375
1.0024999,0.3669114112854004,-0.40701428055763245,9.852140426635742,-12.420654296875,1.5869140625,-1.922607421875
1.0074999000000002,0.11851298063993454,-0.228047713637352,9.872490882873535,21.148681640625,9.46044921875,8.23974609375
1.0124999000000001,-0.11791443079710007,-0.07900865375995636,9.533711433410645,-11.383056640625,5.523681640625,-7.598876953125
1.0174999000000002,-0.2783259451389313,-0.1388636976480484,9.825204849243164,-2.044677734375,-10.162353515625,6.591796875
1.0224999000000001,-0.20889410376548767,-0.1173158809542656,9.617507934570312,9.70458984375,2.838134765625,-0.518798828125
1.0274999,0.0347159244120121,-0.36571431159973145,9.88386344909668,13.85498046875,-7.598876953125,8.941650390625
1.0324999000000001,0.27712884545326233,-0.38905778527259827,9.575011253356934,-12.51220703125,-2.471923828125,-7.171630859375
1.0374999,0.49619829654693604,-0.5315127968788147,9.96945571899414,-5.67626953125,-15.411376953125,4.69970703125
1.0424999000000001,0.8182184100151062,-0.5129576921463013,9.75637149810791,10.528564453125,3.60107421875,-1.800537109375
1.0474999,0.8583213090896606,-0.5859808921813965,9.84376049041748,-19.47021484375,-8.026123046875,-5.126953125
1.0524999000000002,1.0259153842926025,-0.6607996821403503,10.020931243896484,17.9443359375,2.288818359375,6.866455078125
1.0574999,1.0181342363357544,-0.608127236366272,9.64564037322998,-9.33837890625,8.1787109375,-7.75146484375
1.0624999000000002,0.922366201877594,-0.706289529800415,9.984419822692871,2.86865234375,-4.058837890625,5.615234375
1.0674999,0.8774749040603638,-0.5895721912384033,9.661202430725098,11.444091796875,11.41357421875,-3.23486328125
1.0724999000000002,0.5973533391952515,-0.6057330369949341,9.78869342803955,-15.380859375,-3.60107421875,-2.25830078125
1.0774999,0.5351040959358215,-0.5548562407493591,9.898826599121094,20.599365234375,5.79833984375,6.134033203125
1.0824999000000002,0.5351040959358215,-0.5548562407493591,9.898826599121094,20.599365234375,5.79833984375,6.134033203125
1.0874999,0.43993455171585083,-0.4339490532875061,9.638457298278809,-19.500732421875,-5.218505859375,-5.37109375
1.0924999000000002,0.43993455171585083,-0.4339490532875061,9.638457298278809,-19.500732421875,-5.218505859375,-5.37109375
1.0974999,0.5752069354057312,-0.52552729845047,9.913790702819824,16.2353515625,-2.410888671875,6.317138671875
1.1024999000000002,0.6416460275650024,-0.4752490520477295,9.510966300964355,-11.41357421875,3.173828125,-8.331298828125
1.1074999,0.6320692300796509,-0.596754789352417,10.050858497619629,3.082275390625,-6.9580078125,5.950927734375
1.1124999000000002,0.7667431235313416,-0.5159504413604736,9.617507934570312,5.55419921875,8.026123046875,-5.157470703125
1.1174999,0.6368576288223267,-0.5416881442070007,9.95748519897461,-12.20703125,-5.859375,1.220703125
1.1224999000000002,0.4644751250743866,-0.4668693244457245,9.964667320251465,-7.293701171875,-6.9580078125,3.875732421875
1.1274999,0.4644751250743866,-0.4668693244457245,9.964667320251465,-7.293701171875,-6.9580078125,3.875732421875
1.1324999000000002,0.5434837937355042,-0.4985924959182739,9.701305389404297,12.939453125,6.134033203125,-2.197265625
1.1374999000000001,0.42856210470199585,-0.4668693244457245,9.795876502990723,-17.242431640625,-4.8828125,-1.220703125
1.1424999000000002,0.5267243981361389,-0.5404910445213318,9.889848709106445,18.463134765625,2.38037109375,2.5634765625
1.1474999000000001,0.4537012279033661,-0.49559974670410156,9.661202430725098,-18.310546875,-0.213623046875,-5.31005859375
1.1524999000000002,0.5225345492362976,-0.5410895943641663,10.028712272644043,16.021728515625,-2.288818359375,6.134033203125
1.1574999000000001,0.517746090888977,-0.46986207365989685,9.519944190979004,-11.90185546875,4.08935546875,-7.080078125
1.1624999,0.5339069962501526,-0.5291185975074768,10.086771965026855,7.080078125,-5.584716796875,7.232666015625
1.1674999000000001,0.606930136680603,-0.44592007994651794,9.50737476348877,-1.434326171875,6.103515625,-6.77490234375
1.1724999,0.6093243360519409,-0.46507367491722107,9.637260437011719,8.697509765625,5.859375,-4.2724609375
1.1774999000000002,0.47165772318840027,-0.4213795065879822,9.925761222839355,-12.939453125,-5.859375,2.044677734375
1.1824999,0.558447539806366,-0.4967968463897705,9.7605619430542,15.472412109375,3.60107421875,-0.8544921875
1.1874999000000002,0.4878185987472534,-0.42616790533065796,9.73661994934082,-17.974853515625,-3.387451171875,-1.556396484375
1.1924999,0.5793967843055725,-0.5081692934036255,9.87967300415039,17.974853515625,0.91552734375,2.288818359375
1.1974999000000002,0.5207388401031494,-0.48243165016174316,9.632472038269043,-17.88330078125,0.030517578125,-4.638671875
1.2024999,0.5985504388809204,-0.5404910445213318,10.006566047668457,16.082763671875,-1.77001953125,5.06591796875
1.2074999000000002,0.5237316489219666,-0.49320554733276367,9.510966300964355,-14.007568359375,3.35693359375,-6.500244140625
1.2124999,0.5363011956214905,-0.5548562407493591,10.044873237609863,11.474609375,-3.5400390625,6.40869140625
1.2174999000000002,0.5656301379203796,-0.5123591423034668,9.464279174804688,-7.904052734375,5.615234375,-7.2021484375
1.2224999,0.5285200476646423,-0.5518634915351868,10.059837341308594,5.43212890625,-4.913330078125,6.7138671875
1.2274999000000002,0.6308721303939819,-0.5249287486076355,9.520543098449707,-1.40380859375,6.134033203125,-7.01904296875
1.2324999,0.6338648796081543,-0.49320554733276367,9.59057331085205,3.997802734375,5.67626953125,-5.950927734375
1.2374999000000002,0.5147533416748047,-0.4489128291606903,10.073004722595215,-6.866455078125,-5.7373046875,4.547119140625
1.2424999,0.5811924338340759,-0.4776432514190674,9.661202430725098,9.063720703125,4.7607421875,-4.302978515625
1.2474999000000002,0.4495113790035248,-0.3824737071990967,9.928754806518555,-10.986328125,-5.035400390625,3.11279296875
1.2524999,0.5590460896492004,-0.5069721937179565,9.693524360656738,12.176513671875,3.47900390625,-2.593994140625
1.2574999000000002,0.4513070285320282,-0.3794809579849243,9.784503936767578,-14.007568359375,-3.90625,1.3427734375
1.2624999000000001,0.5770025849342346,-0.5291185975074768,9.731831550598145,14.58740234375,2.44140625,-0.9765625
1.2674999000000002,0.507570743560791,-0.4207809567451477,9.750985145568848,-15.380859375,-2.38037109375,-0.274658203125
1.2724999000000001,0.6039373874664307,-0.5380968451499939,9.832387924194336,15.9912109375,1.373291015625,0.274658203125
1.2774999000000002,0.5746083855628967,-0.49320554733276367,9.767146110534668,-15.899658203125,-1.007080078125,-1.5869140625
1.2824999000000001,0.6206967830657959,-0.5225345492362976,9.894038200378418,16.17431640625,0.518798828125,1.5869140625
1.2874999,0.578798234462738,-0.45669397711753845,9.956886291503906,15.625,-1.15966796875,3.2958984375
1.2924999000000001,0.578798234462738,-0.45669397711753845,9.956886291503906,15.625,-1.15966796875,3.2958984375
1.2974999,0.4411316514015198,-0.4842272996902466,9.580398559570312,-14.923095703125,1.89208984375,-3.814697265625
1.3024999000000002,0.585382342338562,-0.47225627303123474,9.928754806518555,14.83154296875,-1.8310546875,3.692626953125
1.3074999,0.43035775423049927,-0.5434837937355042,9.526528358459473,-14.373779296875,2.0751953125,-4.2724609375
1.3124999000000002,0.5931634902954102,-0.48303020000457764,9.950302124023438,14.556884765625,-2.3193359375,4.08935546875
1.3174999,0.4507084786891937,-0.5542576909065247,9.529520988464355,-14.190673828125,2.044677734375,-4.69970703125
1.3224999000000002,0.6087257862091064,-0.45010992884635925,10.013150215148926,13.85498046875,-2.685546875,4.08935546875
1.3274999,0.4770447015762329,-0.5183446407318115,9.563039779663086,-14.129638671875,2.349853515625,-4.669189453125
1.3324999000000002,0.618302583694458,-0.4106055796146393,10.053851127624512,13.763427734375,-2.593994140625,4.119873046875
1.3374999,0.4752490520477295,-0.5003881454467773,9.591172218322754,-13.97705078125,2.44140625,-4.425048828125
1.3424999000000002,0.456095427274704,-0.4944026470184326,9.631275177001953,-13.916015625,2.471923828125,-3.936767578125
1.3474999,0.6087257862091064,-0.40880993008613586,10.038289070129395,14.007568359375,-1.922607421875,3.35693359375
1.3524999000000002,0.47165772318840027,-0.518943190574646,9.658209800720215,-14.0380859375,2.288818359375,-3.570556640625
1.3574999,0.608127236366272,-0.4465186297893524,9.97603988647461,14.34326171875,-1.5869140625,2.593994140625
1.3624999000000002,0.5105634927749634,-0.5668272376060486,9.659406661987305,-14.129638671875,1.708984375,-2.899169921875
1.3674999,0.6260837316513062,-0.4800374507904053,9.898826599121094,14.434814453125,-1.15966796875,2.01416015625
1.3724999000000002,0.5811924338340759,-0.5746083855628967,9.668384552001953,-14.404296875,1.0986328125,-1.983642578125
1.3774999,0.6368576288223267,-0.4794389009475708,9.846753120422363,14.16015625,-0.8544921875,1.03759765625
1.3824999000000002,0.6063315868377686,-0.5183446407318115,9.729436874389648,-14.09912109375,0.213623046875,-0.9765625
1.3874999000000001,0.6254851818084717,-0.4686649739742279,9.803058624267578,13.61083984375,-0.396728515625,0.030517578125
1.3924999000000002,0.456095427274704,-0.4572925269603729,9.821015357971191,-11.749267578125,-1.03759765625,1.40380859375
1.3974999000000001,0.6003460884094238,-0.5201402902603149,9.713275909423828,10.467529296875,1.46484375,-2.532958984375
1.4024999000000002,0.4818331003189087,-0.4554968774318695,9.942521095275879,-9.33837890625,-1.8310546875,2.593994140625
1.4074999000000001,0.6278793811798096,-0.518943190574646,9.64683723449707,7.6904296875,2.197265625,-3.90625
1.4124999,0.5446808934211731,-0.4381389021873474,9.990405082702637,-6.134033203125,-2.0751953125,3.84521484375
1.4174999000000001,0.6314706802368164,-0.5404910445213318,9.576807022094727,4.45556640625,3.265380859375,-4.69970703125
1.4224999,0.5297171473503113,-0.47225627303123474,10.011354446411133,-2.3193359375,-2.685546875,5.0048828125
1.4274999000000002,0.6027402877807617,-0.5793967843055725,9.520543098449707,0.18310546875,3.23486328125,-5.645751953125
1.4324999,0.4818331003189087,-0.4728548228740692,10.034697532653809,2.105712890625,-3.35693359375,5.2490234375
1.4374999000000002,0.5614402890205383,-0.5482721924781799,9.475651741027832,-4.180908203125,3.173828125,-5.889892578125
1.4424999,0.645237386226654,-0.46088382601737976,9.773131370544434,11.1083984375,0.18310546875,-1.46484375
1.4474999000000002,0.5057750940322876,-0.44831427931785583,9.9000244140625,-9.124755859375,-0.91552734375,2.288818359375
1.4524999,0.6165069341659546,-0.4854243993759155,9.67077922821045,7.049560546875,1.617431640625,-3.631591796875
1.4574999000000002,0.4710591733455658,-0.43514615297317505,10.017938613891602,-4.241943359375,-1.983642578125,3.96728515625
1.4624999,0.5835866928100586,-0.4991910457611084,9.579200744628906,1.0986328125,2.349853515625,-5.126953125
1.4674999000000002,0.47165772318840027,-0.41120412945747375,10.04188060760498,1.983642578125,-2.99072265625,4.852294921875
1.4724999,0.5410895943641663,-0.424970805644989,10.016741752624512,7.232666015625,-2.655029296875,4.852294921875
1.4774999000000002,1.1198878288269043,-0.7122750282287598,9.645041465759277,-9.552001953125,2.62451171875,-5.279541015625
1.4824999,2.8838160037994385,-0.9888052940368652,10.307637214660645,23.681640625,7.080078125,-43.701171875
1.4874999000000002,4.243722438812256,-1.1893197298049927,9.884461402893066,-11.688232421875,15.869140625,-154.144287109375
1.4924999,5.984307289123535,-0.4082113802433014,9.90361499786377,-14.007568359375,18.218994140625,-203.0029296875
1.4974999000000002,6.757634162902832,0.961870551109314,9.275735855102539,-11.1083984375,62.80517578125,-336.883544921875
1.5024999,6.44279670715332,2.363077163696289,8.565256118774414,-20.3857421875,49.6826171875,-415.95458984375
1.5074999000000002,5.495890140533447,3.420715570449829,7.866748332977295,-94.3603515625,42.327880859375,-383.758544921875
1.5124999000000001,3.9821560382843018,2.9700071811676025,7.519588947296143,-82.427978515625,60.85205078125,-289.398193359375
1.5174999000000002,1.6089035272598267,1.646013617515564,7.371747016906738,-43.64013671875,65.521240234375,-163.02490234375
1.5224999000000001,-3.2417490482330322,-1.4335283041000366,8.321646690368652,51.055908203125,59.99755859375,-30.57861328125
1.5274999000000002,-5.74129581451416,-2.917334794998169,8.837596893310547,20.355224609375,-9.21630859375,-26.30615234375
1.5324999000000001,-5.77062463760376,-3.250727415084839,8.464101791381836,7.904052734375,-44.769287109375,-11.260986328125
1.5374999000000003,-5.530007362365723,-3.023876667022705,8.08282470703125,6.591796875,-73.54736328125,9.8876953125
1.5424999000000001,-4.987122058868408,-3.0412347316741943,7.824251174926758,-4.82177734375,-90.179443359375,11.199951171875
1.5474999,-4.610633850097656,-2.721010208129883,8.463502883911133,-0.3662109375,-87.7685546875,20.477294921875
1.5524999000000002,-4.034229755401611,-2.5965118408203125,9.41400146484375,-22.552490234375,-71.2890625,16.876220703125
1.5574999,-3.314772367477417,-2.234388828277588,10.933720588684082,-10.3759765625,-58.837890625,15.2587890625
1.5624999000000002,-2.164358377456665,-1.8698714971542358,11.73398208618164,-19.500732421875,-51.57470703125,11.962890625
1.5674999,-0.729034423828125,-1.4616601467132568,12.051214218139648,9.857177734375,-53.16162109375,11.871337890625
1.5724999000000002,0.7487865686416626,-0.970848798751831,11.513715744018555,-3.41796875,-45.10498046875,22.76611328125
1.5774999,2.035670042037964,-0.7158663272857666,10.597933769226074,6.16455078125,-30.76171875,17.9443359375
1.5824999000000002,2.897582530975342,-0.2687491476535797,9.965864181518555,-3.875732421875,-22.247314453125,21.453857421875
1.5874999,3.5942952632904053,-0.11252748221158981,9.1847562789917,-9.82666015625,7.2021484375,-4.39453125
1.5924999000000002,3.2980127334594727,-0.2148796021938324,9.626486778259277,7.476806640625,15.9912109375,0.579833984375
1.5974999,2.7539305686950684,-0.5398924946784973,9.464279174804688,-7.354736328125,22.491455078125,-3.143310546875
1.6024999000000002,2.0434510707855225,-0.7852981686592102,9.789292335510254,14.007568359375,23.223876953125,-1.861572265625
1.6074999,1.204882025718689,-0.933738648891449,9.754576683044434,-2.960205078125,19.683837890625,-3.35693359375
1.6124999000000002,0.5183446407318115,-0.9816226959228516,9.870695114135742,13.916015625,16.29638671875,-7.87353515625
1.6174999,-0.13407529890537262,-0.7757213711738586,10.020931243896484,-1.708984375,8.97216796875,-0.06103515625
1.6224999000000002,-0.4034229815006256,-0.6751648783683777,9.827000617980957,6.34765625,4.39453125,-4.486083984375
1.6274999,-0.579995334148407,-0.33518823981285095,10.005967140197754,-0.213623046875,-2.9296875,6.34765625
1.6324999000000002,-0.4626794755458832,-0.2735375463962555,9.633668899536133,-5.401611328125,-5.462646484375,-3.326416015625
1.6374999000000001,-0.24121582508087158,-0.10534487664699554,9.91738224029541,0.946044921875,-9.09423828125,4.425048828125
1.6424999000000002,0.4692635238170624,-0.33698388934135437,9.870096206665039,6.04248046875,-9.002685546875,3.387451171875
1.6474999000000001,0.7954735159873962,-0.568622887134552,9.731831550598145,-11.749267578125,-6.011962890625,1.52587890625
1.6524999000000002,1.080383539199829,-0.7194576263427734,9.77672290802002,8.48388671875,-3.2958984375,-2.166748046875
1.6574999000000001,1.2018892765045166,-0.768538773059845,9.862914085388184,-5.9814453125,0.1220703125,3.204345703125
1.6624999000000003,1.3287819623947144,-0.8535329103469849,9.674968719482422,5.92041015625,3.631591796875,-3.936767578125
1.6674999000000001,1.2318167686462402,-0.7350199222564697,9.906009674072266,1.64794921875,3.692626953125,4.547119140625
1.6724999,1.0899603366851807,-0.690727174282074,9.595361709594727,-1.312255859375,5.126953125,-4.638671875
1.6774999000000002,0.8744821548461914,-0.5303156971931458,9.926959037780762,7.354736328125,3.021240234375,2.777099609375
1.6824999,0.5482721924781799,-0.39205053448677063,9.871294021606445,9.58251953125,-0.06103515625,0.42724609375
1.6874999000000002,0.4381389021873474,-0.3770867586135864,9.747992515563965,-9.796142578125,-1.52587890625,1.434326171875
1.6924999,0.4381389021873474,-0.3770867586135864,9.747992515563965,-9.796142578125,-1.52587890625,1.434326171875
1.6974999000000002,0.6625953316688538,-0.5991489887237549,9.9185791015625,2.99072265625,-2.685546875,3.96728515625
1.7024999,0.6625953316688538,-0.5991489887237549,9.9185791015625,2.99072265625,-2.685546875,3.96728515625
1.7074999000000002,0.8259995579719543,-0.7032967209815979,9.610923767089844,-6.77490234375,-0.18310546875,-3.448486328125
1.7124999,0.8732850551605225,-0.6655880808830261,9.880271911621094,9.002685546875,-0.152587890625,1.15966796875
1.7174999000000002,0.9056068062782288,-0.6721721291542053,9.73781681060791,-8.9111328125,1.129150390625,-0.3662109375
1.7224999,0.900818407535553,-0.6476315855979919,9.744999885559082,9.002685546875,1.8310546875,-2.25830078125
1.7274999000000002,0.7811083197593689,-0.5410895943641663,9.840767860412598,-4.8828125,1.251220703125,2.960205078125
1.7324999,0.7649474143981934,-0.5919663906097412,9.618705749511719,2.3193359375,2.044677734375,-4.45556640625
1.7374999000000002,0.6476315855979919,-0.45489832758903503,9.906607627868652,2.471923828125,-0.213623046875,3.692626953125
1.7424999,0.6572083830833435,-0.5141547918319702,9.626486778259277,-5.645751953125,0.79345703125,-3.753662109375
1.7474999000000002,0.606930136680603,-0.43275195360183716,9.925761222839355,8.270263671875,-1.068115234375,1.64794921875
1.7524999,0.6703764796257019,-0.49559974670410156,9.782708168029785,8.026123046875,-0.42724609375,-2.105712890625
1.7574999000000002,0.6392518281936646,-0.47405192255973816,9.86351203918457,-5.92041015625,-1.251220703125,2.99072265625
1.7624999000000001,0.8032546639442444,-0.5734112858772278,9.901819229125977,9.368896484375,0.946044921875,1.251220703125
1.7674999000000002,0.7876923680305481,-0.5829881429672241,9.785700798034668,-8.575439453125,1.220703125,0.335693359375
1.7724999000000001,0.7841010689735413,-0.5979518890380859,9.768941879272461,7.843017578125,1.739501953125,-2.593994140625
1.7774999000000002,0.6667851805686951,-0.5015852451324463,9.884461402893066,-3.662109375,0.091552734375,3.23486328125
1.7824999000000001,0.6805518269538879,-0.6003460884094238,9.63187313079834,-0.3662109375,1.190185546875,-4.425048828125
1.7874999000000003,0.6326677799224854,-0.4950011968612671,9.915586471557617,4.608154296875,-0.640869140625,3.2958984375
1.7924999000000001,0.6619967818260193,-0.5632359385490417,9.59835433959961,-7.843017578125,0.18310546875,-2.288818359375
1.7974999,0.7469909191131592,-0.5057750940322876,9.905410766601562,-0.79345703125,-1.190185546875,3.84521484375
1.8024999000000002,0.7697358727455139,-0.6033388376235962,9.630077362060547,-3.84521484375,0.579833984375,-3.72314453125
1.8074999,0.7260416746139526,-0.5315127968788147,9.904812812805176,7.32421875,-0.54931640625,1.983642578125
1.8124999000000002,0.7134721279144287,-0.5764040350914001,9.73781681060791,-8.544921875,-0.213623046875,-0.54931640625
1.8174999,0.7344213724136353,-0.5937620401382446,9.773730278015137,8.209228515625,0.335693359375,-1.678466796875
1.8224999000000002,0.6476315855979919,-0.5285200476646423,9.852140426635742,-4.669189453125,-0.762939453125,3.11279296875
1.8274999,0.6865373253822327,-0.6021417379379272,9.627683639526367,0.42724609375,0.79345703125,-4.241943359375
1.8324999000000002,0.6446388363838196,-0.52552729845047,9.915586471557617,4.0283203125,-0.9765625,3.265380859375
1.8374999,0.6560112833976746,-0.5662286877632141,9.622895240783691,-7.62939453125,-0.18310546875,-2.197265625
1.8424999000000002,0.718859076499939,-0.5614402890205383,9.853935241699219,8.544921875,-0.54931640625,-0.274658203125
1.8474999,0.7260416746139526,-0.5363011956214905,9.974244117736816,1.190185546875,-0.946044921875,3.570556640625
1.8524999000000002,0.7715315222740173,-0.6272808313369751,9.682151794433594,-5.279541015625,0.54931640625,-3.35693359375
1.8574999,0.7410054206848145,-0.5524620413780212,9.8784761428833,8.4228515625,-0.091552734375,1.068115234375
1.8624999000000002,0.7356184720993042,-0.5560533404350281,9.742605209350586,-8.23974609375,0.091552734375,0.54931640625
1.8674999,0.7571662664413452,-0.5793967843055725,9.683348655700684,5.79833984375,0.8544921875,-3.0517578125
1.8724999000000002,0.6949170231819153,-0.4926069974899292,9.837176322937012,-1.495361328125,-0.48828125,3.265380859375
1.8774999,0.7655459642410278,-0.5764040350914001,9.603142738342285,-3.448486328125,0.946044921875,-3.90625
1.8824999000000002,0.7362170219421387,-0.4967968463897705,9.874884605407715,6.988525390625,-0.30517578125,1.89208984375
1.8874999000000001,0.7422025203704834,-0.535702645778656,9.75517463684082,-8.48388671875,0.091552734375,-0.3662109375
1.8924999000000002,0.7691373229026794,-0.5668272376060486,9.792284965515137,7.14111328125,0.762939453125,-2.3193359375
1.8974999000000001,0.6733692288398743,-0.5015852451324463,9.929951667785645,-3.387451171875,-0.579833984375,3.021240234375
1.9024999000000002,0.6805518269538879,-0.5279214978218079,9.929352760314941,6.04248046875,-0.274658203125,2.25830078125
1.9074999000000001,0.6865373253822327,-0.5805938839912415,9.710283279418945,-8.148193359375,0.3662109375,-0.91552734375
1.9124999000000003,0.7655459642410278,-0.6111199855804443,9.743802070617676,7.598876953125,0.762939453125,-1.556396484375
1.9174999000000001,0.7092822790145874,-0.5644330382347107,9.818621635437012,-4.21142578125,-0.6103515625,2.777099609375
1.9224999,0.6506243348121643,-0.5548562407493591,9.706692695617676,-7.659912109375,0.06103515625,-1.312255859375
1.9274999000000002,0.7164648771286011,-0.5656301379203796,9.795876502990723,7.568359375,0.30517578125,-1.007080078125
1.9324999,0.6871358752250671,-0.5225345492362976,9.847949981689453,-4.730224609375,-0.91552734375,2.5634765625
1.9374999000000002,0.7511807680130005,-0.5590460896492004,9.623494148254395,0.06103515625,0.335693359375,-3.936767578125
1.9424999,0.7158663272857666,-0.5141547918319702,9.925761222839355,4.82177734375,-1.007080078125,2.716064453125
1.9474999000000002,0.6967126727104187,-0.5428852438926697,9.714473724365234,-7.843017578125,-0.274658203125,-1.52587890625
1.9524999,0.7032967209815979,-0.5159504413604736,9.848548889160156,-4.425048828125,-0.91552734375,2.655029296875
1.9574999000000002,0.7493851184844971,-0.5500678420066833,9.617507934570312,-0.335693359375,0.885009765625,-3.509521484375
1.9624999,0.7092822790145874,-0.5183446407318115,9.911994934082031,4.974365234375,-0.732421875,2.8076171875
1.9674999000000002,0.6943184733390808,-0.545877993106842,9.718663215637207,-7.659912109375,0.244140625,-1.15966796875
1.9724999,0.7541735172271729,-0.6093243360519409,9.785700798034668,7.38525390625,0.274658203125,-1.5869140625
1.9774999000000002,0.70090252161026,-0.5506663918495178,9.874286651611328,-3.96728515625,-0.579833984375,2.74658203125
1.9824999,0.7577648162841797,-0.5889736413955688,9.63067626953125,-0.732421875,0.9765625,-3.570556640625
1.9874999000000002,0.7170634269714355,-0.5351040959358215,9.908403396606445,5.4931640625,-0.67138671875,2.288818359375
1.9924999,0.7092822790145874,-0.5363011956214905,9.726444244384766,-7.568359375,0.213623046875,-0.79345703125
1.9974999000000002,0.7589619159698486,-0.5991489887237549,9.75936508178711,6.927490234375,0.732421875,-1.77001953125
2.0024999,0.6901286244392395,-0.5380968451499939,9.742605209350586,-8.148193359375,0.06103515625,-0.18310546875
2.0074999,0.7350199222564697,-0.6033388376235962,9.72165584564209,5.828857421875,0.54931640625,-2.38037109375
2.0124999000000003,0.690727174282074,-0.5267243981361389,9.867103576660156,-1.312255859375,-1.007080078125,2.99072265625
2.0174999000000002,0.7841010689735413,-0.6248866319656372,9.616311073303223,-3.692626953125,0.3662109375,-3.326416015625
2.0224999,0.7583633661270142,-0.5662286877632141,9.829395294189453,7.415771484375,-0.335693359375,1.15966796875
2.0274999,0.7984662652015686,-0.5931634902954102,9.761758804321289,-7.26318359375,-0.335693359375,0.823974609375
2.0324999000000004,0.7625532150268555,-0.6350619792938232,9.703699111938477,4.302978515625,0.701904296875,-3.143310546875
2.0374999000000003,0.7212532758712769,-0.5398924946784973,9.941922187805176,0.823974609375,-0.54931640625,2.899169921875
2.0424999,0.7320271730422974,-0.5668272376060486,9.642048835754395,-5.462646484375,0.762939453125,-2.50244140625
2.0474999,0.718859076499939,-0.4967968463897705,9.850942611694336,7.87353515625,-0.030517578125,0.1220703125
2.0524999,0.6823474764823914,-0.47225627303123474,9.831191062927246,-5.9814453125,-0.18310546875,1.495361328125
2.0574999000000003,0.6961141228675842,-0.558447539806366,9.691129684448242,2.0751953125,0.579833984375,-3.35693359375
2.0624999,0.6260837316513062,-0.585382342338562,9.6989107131958,-6.77490234375,0.274658203125,-1.556396484375
2.0674999,0.7116764783859253,-0.5781996846199036,9.764751434326172,7.049560546875,0.091552734375,-1.129150390625
2.0724999,0.6560112833976746,-0.4950011968612671,9.79408073425293,-4.180908203125,-0.79345703125,2.50244140625
2.0774999000000003,0.7398083209991455,-0.547075092792511,9.588777542114258,-0.54931640625,0.54931640625,-3.326416015625
2.0824999,0.7356184720993042,-0.49978959560394287,9.856928825378418,5.340576171875,-0.67138671875,2.044677734375
2.0874999,0.7715315222740173,-0.42676645517349243,9.792284965515137,-7.476806640625,-0.06103515625,-0.79345703125
2.0924999,2.2164323329925537,-1.280897855758667,10.04427433013916,17.578125,5.43212890625,-34.11865234375
2.0974999000000003,4.13179349899292,-1.7986440658569336,10.45547866821289,17.9443359375,25.421142578125,-98.846435546875
2.1024999,7.223306655883789,-2.9496564865112305,10.877456665039062,54.62646484375,57.952880859375,-172.027587890625
2.1074999,9.81024169921875,-3.087921619415283,11.41675090789795,96.37451171875,97.7783203125,-256.16455078125
2.1124999,11.010334968566895,-2.6420016288757324,11.510124206542969,99.884033203125,103.57666015625,-314.0869140625
2.1174999000000003,7.868544101715088,0.3034650683403015,9.865906715393066,35.33935546875,74.859619140625,-287.445068359375
2.1224999,4.688445568084717,1.6370353698730469,8.097189903259277,-33.75244140625,40.95458984375,-235.015869140625
2.1274999,1.467047095298767,2.896385431289673,6.324882507324219,-67.138671875,22.27783203125,-174.9267578125
2.1324999,-1.325789213180542,3.5051112174987793,4.610035419464111,-96.13037109375,29.1748046875,-95.5810546875
2.1374999000000003,-3.337517261505127,3.287238836288452,3.711611270904541,-81.146240234375,35.15625,-31.73828125
2.1424999000000002,-5.172672748565674,2.7898435592651367,3.9031472206115723,-55.7861328125,13.7939453125,19.287109375
2.1474999,-6.786364555358887,1.725022315979004,5.546766757965088,-25.848388671875,-23.284912109375,43.975830078125
2.1524999,-8.418611526489258,0.28072014451026917,8.489839553833008,11.3525390625,-60.516357421875,54.99267578125
2.1574999000000004,-9.551667213439941,-0.7697358727455139,11.744157791137695,-10.986328125,-84.381103515625,56.243896484375
2.1624999000000003,-7.30650520324707,-2.609081268310547,12.86943244934082,-33.69140625,-65.12451171875,48.248291015625
2.1674999,-3.4356794357299805,-2.0859482288360596,8.761581420898438,-19.53125,-95.733642578125,23.345947265625
2.1724999,-1.6406266689300537,-1.9638439416885376,7.69735860824585,-26.611328125,-96.49658203125,6.072998046875
2.1774999000000004,0.06883329898118973,-1.6891093254089355,8.12053394317627,-15.2587890625,-83.160400390625,-2.44140625
2.1824999000000003,1.61069917678833,-1.492186188697815,9.24940013885498,-12.20703125,-63.812255859375,-3.0517578125
2.1874999,3.1304187774658203,-1.5173252820968628,10.392630577087402,0.030517578125,-45.379638671875,-6.744384765625
2.1924999,4.094084739685059,-1.3377602100372314,11.143213272094727,12.0849609375,-30.57861328125,3.7841796875
2.1974999,4.7189717292785645,-1.3353660106658936,10.871471405029297,6.439208984375,-16.998291015625,10.833740234375
2.2024999000000003,4.744110584259033,-1.1893197298049927,10.147225379943848,15.045166015625,-1.800537109375,11.322021484375
2.2074999,4.455609321594238,-0.7799112200737,9.440337181091309,8.056640625,11.5966796875,15.380859375
2.2124999,3.8792052268981934,-0.4596867263317108,8.792107582092285,-3.662109375,19.95849609375,5.67626953125
2.2174999,3.2968156337738037,-0.05925649031996727,8.890868186950684,3.387451171875,24.017333984375,-1.007080078125
2.2224999000000003,2.4887726306915283,0.20231004059314728,9.1446533203125,-7.99560546875,27.740478515625,-0.91552734375
2.2274999,-0.5339069962501526,-0.960673451423645,10.089764595031738,3.631591796875,1.800537109375,2.25830078125
2.2324999,-0.6290764808654785,-0.9403226971626282,9.819219589233398,-2.349853515625,-3.753662109375,-2.777099609375
2.2374999,-0.41718965768814087,-0.7631517648696899,9.867103576660156,6.744384765625,-7.904052734375,-0.9765625
2.2424999000000003,-0.1256955862045288,-0.45010992884635925,9.800664901733398,-5.31005859375,-9.368896484375,2.960205078125
2.2474999,0.39624038338661194,-0.4213795065879822,9.698312759399414,-3.753662109375,-9.33837890625,-1.28173828125
2.2524999,0.7631517648696899,-0.25438392162323,9.891045570373535,1.373291015625,-7.904052734375,3.631591796875
2.2574999,1.1312602758407593,-0.3944447338581085,9.764153480529785,-9.368896484375,-5.4931640625,1.64794921875
2.2624999000000003,1.3443442583084106,-0.5506663918495178,9.755773544311523,2.44140625,-2.9296875,-2.227783203125
2.2674999000000002,1.4371196031570435,-0.6667851805686951,9.798270225524902,0.640869140625,-0.244140625,2.86865234375
2.2724999,1.1366472244262695,-0.7080851793289185,9.639654159545898,0.06103515625,2.197265625,-3.72314453125
2.2774999,0.9373299479484558,-0.4776432514190674,9.892841339111328,5.2490234375,1.5869140625,1.220703125
2.2824999000000004,0.9115923047065735,-0.42676645517349243,9.847352027893066,-7.14111328125,0.732421875,1.129150390625
2.2874999000000003,0.7924807667732239,-0.4620809257030487,9.830592155456543,1.922607421875,0.030517578125,-2.532958984375
2.2924999,0.7589619159698486,-0.4429273009300232,9.971850395202637,0.579833984375,-1.007080078125,2.74658203125
2.2974999,0.7086837291717529,-0.5638344883918762,9.742006301879883,-5.859375,-1.556396484375,-1.190185546875
2.3024999000000004,0.7912836670875549,-0.6625953316688538,9.788095474243164,6.34765625,-1.495361328125,-1.434326171875
2.3074999000000003,0.8020575642585754,-0.6230909824371338,9.750386238098145,-1.953125,-1.15966796875,2.62451171875
2.3124999,0.8020575642585754,-0.6230909824371338,9.750386238098145,-1.953125,-1.15966796875,2.62451171875
2.3174999,0.9552865028381348,-0.6991068720817566,9.589975357055664,-1.617431640625,-0.335693359375,-2.532958984375
2.3224999,0.9032126069068909,-0.6266822814941406,9.739612579345703,5.218505859375,0.640869140625,-2.38037109375
2.3274999000000003,0.9032126069068909,-0.6266822814941406,9.739612579345703,5.218505859375,0.640869140625,-2.38037109375
2.3324999,0.8912416100502014,-0.5590460896492004,9.813833236694336,-0.518798828125,0.030517578125,2.3193359375
2.3374999,0.9295487999916077,-0.6200982332229614,9.526528358459473,-3.631591796875,0.30517578125,-2.5634765625
2.3424999,0.9385270476341248,-0.5859808921813965,9.704896926879883,6.561279296875,0.335693359375,-0.152587890625
2.3474999000000003,0.9193734526634216,-0.518943190574646,9.706093788146973,-4.2724609375,-0.152587890625,2.13623046875
2.3524999,0.982221245765686,-0.6320692300796509,9.664793968200684,-0.457763671875,0.30517578125,-3.143310546875
2.3574999,0.9379284977912903,-0.585382342338562,9.899425506591797,4.608154296875,-0.213623046875,1.678466796875
2.3624999,0.9780313968658447,-0.6326677799224854,9.819818496704102,-6.28662109375,-0.152587890625,0.6103515625
2.3674999000000003,0.889445960521698,-0.5363011956214905,9.780313491821289,-1.617431640625,0.18310546875,2.777099609375
2.3724999,0.889445960521698,-0.5363011956214905,9.780313491821289,-1.617431640625,0.18310546875,2.777099609375
2.3774999,0.9217676520347595,-0.5692214369773865,9.576208114624023,-3.021240234375,0.67138671875,-2.5634765625
2.3824999,0.882861852645874,-0.5380968451499939,9.717466354370117,6.2255859375,-0.06103515625,0.152587890625
2.3874999000000003,0.8487445116043091,-0.5009866952896118,9.724050521850586,-4.730224609375,-0.67138671875,1.64794921875
2.3924999000000002,0.8331822156906128,-0.6129156351089478,9.677961349487305,0.274658203125,-0.335693359375,-3.204345703125
2.3974999,0.8170213103294373,-0.5907692909240723,9.877279281616211,4.33349609375,-1.068115234375,1.8310546875
2.4024999,0.8672995567321777,-0.6751648783683777,9.748590469360352,3.47900390625,-0.3662109375,-2.777099609375
2.4074999000000004,0.9355342984199524,-0.6039373874664307,9.88506031036377,1.46484375,-0.762939453125,2.349853515625
2.4124999000000003,1.0313023328781128,-0.5949591398239136,9.761159896850586,5.859375,0.213623046875,-1.251220703125
2.4174999,1.003769040107727,-0.4967968463897705,9.79288387298584,-1.8310546875,-0.030517578125,2.5634765625
2.4224999,1.0432734489440918,-0.5261258482933044,9.597756385803223,-3.23486328125,0.6103515625,-2.74658203125
2.4274999000000004,0.9959878921508789,-0.5135562419891357,9.745597839355469,6.34765625,0.457763671875,-0.244140625
2.4324999000000003,0.9445125460624695,-0.4710591733455658,9.739013671875,-4.425048828125,0.18310546875,1.556396484375
2.4374999,0.9283517003059387,-0.6075286865234375,9.68155288696289,-0.091552734375,0.6103515625,-3.082275390625
2.4424999,0.871489405632019,-0.586579442024231,9.883264541625977,4.669189453125,0.06103515625,1.434326171875
2.4474999,0.8846575021743774,-0.6314706802368164,9.815030097961426,-5.889892578125,0,0.42724609375
2.4524999000000003,0.8577227592468262,-0.6913257241249084,9.773131370544434,2.99072265625,0.579833984375,-2.777099609375
2.4574999,0.8696937561035156,-0.606930136680603,9.930550575256348,2.197265625,-0.030517578125,2.0751953125
2.4624999,0.8583213090896606,-0.6063315868377686,9.727641105651855,-5.615234375,0.3662109375,-1.03759765625
2.4674999,0.8846575021743774,-0.6171054840087891,9.72165584564209,5.06591796875,0.335693359375,-1.739501953125
2.4724999000000003,0.9175778031349182,-0.5452794432640076,9.677363395690918,6.16455078125,-0.213623046875,-0.457763671875
2.4774999,0.8678981065750122,-0.4752490520477295,9.706093788146973,-3.509521484375,-0.732421875,2.197265625
2.4824999,0.9804255962371826,-0.6302735805511475,9.635464668273926,-1.556396484375,0.213623046875,-2.8076171875
2.4874999,0.9289502501487732,-0.5895721912384033,9.886856079101562,5.43212890625,-0.54931640625,0.91552734375
2.4924999000000003,0.9540894031524658,-0.6290764808654785,9.871294021606445,-5.615234375,-0.518798828125,1.15966796875
2.4974999,0.9433154463768005,-0.6937199234962463,9.801861763000488,1.52587890625,0.091552734375,-2.8076171875
2.5024999,0.9097966551780701,-0.6320692300796509,9.923966407775879,3.631591796875,-0.42724609375,1.89208984375
2.5074999,0.8876502513885498,-0.6350619792938232,9.740809440612793,-5.9814453125,0,-0.244140625
2.5124999000000003,0.9044097065925598,-0.6584054827690125,9.678560256958008,4.0283203125,0.6103515625,-2.38037109375
2.5174999000000002,0.9145850539207458,-0.5847837924957275,9.77133560180664,1.15966796875,-0.244140625,2.532958984375
2.5224999,0.8966285586357117,-0.5913678407669067,9.619303703308105,-5.126953125,0.1220703125,-1.15966796875
2.5274999,0.9097966551780701,-0.5009866952896118,9.77791976928711,-1.678466796875,-0.18310546875,2.197265625
2.5324999000000004,0.9493009448051453,-0.5398924946784973,9.594164848327637,-3.35693359375,0.3662109375,-2.349853515625
2.5374999000000003,0.9253589510917664,-0.524330198764801,9.747393608093262,6.011962890625,0.030517578125,-0.152587890625
2.5424999,0.8822633028030396,-0.4686649739742279,9.75936508178711,-4.08935546875,-0.457763671875,1.77001953125
2.5474999,0.9445125460624695,-0.6236895322799683,9.68694019317627,-0.946044921875,0.42724609375,-2.99072265625
2.5524999000000004,0.8816647529602051,-0.5949591398239136,9.899425506591797,5.2490234375,-0.274658203125,0.885009765625
2.5574999000000003,0.9139865040779114,-0.6338648796081543,9.870695114135742,-5.584716796875,-0.30517578125,1.0986328125
2.5624999,0.9056068062782288,-0.6883329749107361,9.78869342803955,1.3427734375,0.48828125,-2.99072265625
2.5674999,0.8978256583213806,-0.608127236366272,9.921571731567383,3.41796875,-0.274658203125,1.739501953125
2.5724999,0.8870517015457153,-0.6141127347946167,9.734225273132324,-6.011962890625,-0.091552734375,-0.152587890625
2.5774999000000003,0.9097966551780701,-0.6314706802368164,9.679159164428711,3.753662109375,0.640869140625,-2.532958984375
2.5824999,0.9277531504631042,-0.5704185366630554,9.791088104248047,1.15966796875,-0.030517578125,2.3193359375
2.5874999,3.994127035140991,-2.321777105331421,10.317811965942383,70.3125,102.264404296875,15.07568359375
2.5924999,5.445013046264648,-3.619434356689453,10.815207481384277,111.480712890625,148.681640625,2.288818359375
2.5974999000000003,6.619369029998779,-4.446630954742432,11.868656158447266,161.773681640625,202.1484375,-13.946533203125
2.6024999,6.8372416496276855,-4.61661958694458,12.970587730407715,188.507080078125,250.67138671875,-17.974853515625
2.6074999,6.441000938415527,-4.52683687210083,14.516044616699219,217.926025390625,286.346435546875,-25.238037109375
2.6124999,5.110423564910889,-3.5242648124694824,15.953164100646973,223.175048828125,277.862548828125,-22.216796875
2.6174999000000003,3.2363622188568115,-2.4384944438934326,16.339828491210938,189.39208984375,224.30419921875,-16.54052734375
2.6224999,1.3449428081512451,-0.9852139949798584,15.342642784118652,169.647216796875,144.4091796875,-24.5361328125
2.6274999,-0.6673837304115295,0.8182184100151062,12.725181579589844,136.260986328125,28.74755859375,-38.482666015625
2.6324999,-2.078166961669922,2.3133974075317383,9.017760276794434,77.45361328125,-113.677978515625,-51.483154296875
2.6374999000000003,-3.1693243980407715,3.488950490951538,5.404311656951904,31.92138671875,-210.63232421875,-46.44775390625
2.6424999000000002,-2.316988706588745,2.6563668251037598,-0.48901569843292236,-44.708251953125,-250.91552734375,53.070068359375
2.6474999,-1.677138328552246,2.05781626701355,-0.4728548228740692,-38.14697265625,-228.6376953125,74.76806640625
2.6524999,-1.2018892765045166,1.7836803197860718,-0.25917232036590576,-18.218994140625,-197.601318359375,94.6044921875
2.6574999000000004,-1.0971429347991943,1.787870168685913,-0.1256955862045288,-5.55419921875,-165.771484375,111.572265625
2.6624999000000003,-1.1839327812194824,1.670554280281067,0.0802057534456253,12.115478515625,-140.960693359375,111.663818359375
2.6674999,-1.6903064250946045,2.1284453868865967,1.5939397811889648,19.71435546875,-125.18310546875,109.100341796875
2.6724999,-1.7154455184936523,3.6792895793914795,4.4933180809021,-66.619873046875,-56.2744140625,94.54345703125
2.6774999000000004,-1.37906014919281,5.249885559082031,7.983465671539307,-290.771484375,133.575439453125,67.596435546875
2.6824999000000003,-0.751779317855835,7.152079105377197,10.882843971252441,-369.68994140625,247.1923828125,77.63671875
2.6874999,-0.04369417950510979,7.812878608703613,11.097723007202148,-348.602294921875,210.357666015625,89.84375
2.6924999,-0.49799394607543945,4.225167274475098,8.967482566833496,-185.97412109375,-46.905517578125,64.8193359375
2.6974999,-1.1641805171966553,0.30286651849746704,9.549273490905762,19.195556640625,-82.45849609375,-2.44140625
2.7024999000000003,-1.6873136758804321,-3.912125587463379,10.681731224060059,1.64794921875,-54.74853515625,-32.3486328125
2.7074999,-1.9051860570907593,-6.787561893463135,11.25095272064209,-54.168701171875,-63.690185546875,-15.533447265625
2.7124999,-1.6765397787094116,-7.49923849105835,9.477447509765625,-48.858642578125,-80.902099609375,-24.383544921875
2.7174999,-1.3862427473068237,-6.208165168762207,6.422446250915527,-19.6533203125,-68.7255859375,-34.36279296875
2.7224999000000003,0.9917980432510376,-1.9698294401168823,1.3994108438491821,23.74267578125,-2.288818359375,-23.49853515625
2.7274999,2.2703018188476562,-2.0614075660705566,3.40216064453125,28.961181640625,24.71923828125,-19.805908203125
2.7324999,3.929483652114868,-2.8604724407196045,6.9707183837890625,37.506103515625,22.8271484375,-24.96337890625
2.7374999,5.084087371826172,-3.4129345417022705,10.751761436462402,35.0341796875,5.615234375,-13.36669921875
2.7424999000000003,3.7924153804779053,-1.4107834100723267,13.18127727508545,31.005859375,17.181396484375,1.495361328125
2.7474999,2.382230758666992,0.05686229094862938,11.216835021972656,8.48388671875,22.918701171875,-0.457763671875
2.7524999,1.2725181579589844,1.2623428106307983,9.581595420837402,-2.044677734375,22.857666015625,-3.662109375
2.7574999,0.6590040326118469,2.0452468395233154,8.839991569519043,-8.4228515625,22.735595703125,2.777099609375
2.7624999000000003,0.49559974670410156,2.010530948638916,8.790909767150879,-17.974853515625,18.646240234375,2.62451171875
2.7674999000000002,0.536899745464325,1.4844050407409668,9.43494987487793,-9.368896484375,14.0380859375,0.335693359375
2.7724999,0.5404910445213318,0.6805518269538879,10.08437728881836,-11.962890625,8.758544921875,6.8359375
2.7774999,0.47405192255973816,-0.3734954595565796,10.275315284729004,-13.641357421875,1.373291015625,4.180908203125
2.7824999000000004,0.35434186458587646,-1.2144588232040405,10.186131477355957,0.213623046875,-1.953125,1.312255859375
2.7874999000000003,0.3166331648826599,-1.7459715604782104,9.856329917907715,1.8310546875,-1.678466796875,4.0283203125
2.7924999,0.3776853084564209,-2.054823637008667,9.424176216125488,1.64794921875,-4.119873046875,-2.655029296875
2.7974999,0.8068459630012512,-1.4652514457702637,9.450512886047363,4.119873046875,-3.570556640625,-0.335693359375
2.8024999000000004,1.3401544094085693,-0.15921440720558167,9.81143856048584,-4.608154296875,-1.434326171875,3.35693359375
2.8074999000000003,1.4407109022140503,-0.12270283699035645,9.85034465789795,-4.21142578125,-1.495361328125,-1.861572265625
2.8124999,1.368884801864624,-0.11671733111143112,9.980828285217285,1.007080078125,0.42724609375,0.335693359375
2.8174999,1.325789213180542,-0.36092591285705566,9.891045570373535,-7.080078125,0.885009765625,1.251220703125
2.8224999,1.2934675216674805,-0.7206547260284424,9.785101890563965,-0.518798828125,0,-2.86865234375
2.8274999000000003,1.1534066200256348,-0.8954314589500427,9.786897659301758,4.974365234375,1.434326171875,1.28173828125
2.8324999,1.1091139316558838,-1.0211269855499268,9.654019355773926,-3.021240234375,1.007080078125,0.79345703125
2.8374999,1.0450690984725952,-1.0660183429718018,9.640253067016602,4.364013671875,0.518798828125,-2.9296875
2.8424999,1.0360907316207886,-0.8439561128616333,9.748590469360352,4.486083984375,1.678466796875,1.28173828125
2.8474999000000003,1.0606313943862915,-0.6248866319656372,9.718663215637207,2.74658203125,0.091552734375,-2.105712890625
2.8524999,1.070208191871643,-0.4800374507904053,9.835979461669922,-0.1220703125,0.579833984375,2.44140625
2.8574999,1.0696096420288086,-0.5273229479789734,9.714473724365234,-6.4697265625,-0.6103515625,-0.579833984375
2.8624999,1.083974838256836,-0.6063315868377686,9.75517463684082,3.41796875,-0.54931640625,-1.861572265625
2.8674999000000003,1.105522632598877,-0.6332663297653198,9.740211486816406,-0.3662109375,0.213623046875,2.62451171875
2.8724999,1.0983400344848633,-0.7823054194450378,9.556455612182617,-3.2958984375,-0.823974609375,-1.373291015625
2.8774999,1.125873327255249,-0.8343793153762817,9.655815124511719,6.16455078125,-0.091552734375,-1.28173828125
2.8824999,1.0845733880996704,-0.7433996200561523,9.696516990661621,-0.518798828125,0.579833984375,2.0751953125
2.8874999000000003,1.1300631761550903,-0.7625532150268555,9.585784912109375,-2.5634765625,-0.67138671875,-2.410888671875
2.8924999000000002,1.148618221282959,-0.6775590777397156,9.75278091430664,5.2490234375,0.213623046875,-0.3662109375
2.8974999,1.1091139316558838,-0.5476736426353455,9.700108528137207,-3.448486328125,0.42724609375,2.44140625
2.9024999,1.1839327812194824,-0.6428431272506714,9.706692695617676,-2.5634765625,-0.54931640625,-2.38037109375
2.9074999000000004,1.1085153818130493,-0.6434416770935059,9.818621635437012,-4.33349609375,-0.396728515625,1.617431640625
2.9124999000000003,1.1569979190826416,-0.8080430626869202,9.743204116821289,-0.06103515625,-1.007080078125,-3.021240234375
2.9174999,1.104325532913208,-0.7799112200737,9.847949981689453,5.126953125,0.244140625,0.640869140625
2.9224999,1.1402385234832764,-0.7894880175590515,9.73661994934082,-4.150390625,-0.1220703125,0.946044921875
2.9274999000000004,1.1312602758407593,-0.8152256608009338,9.731831550598145,1.220703125,-0.18310546875,-2.62451171875
2.9324999000000003,1.0899603366851807,-0.6955155730247498,9.807847023010254,3.509521484375,1.129150390625,1.64794921875
2.9374999,1.1079168319702148,-0.667982280254364,9.730035781860352,-5.584716796875,0.335693359375,0.457763671875
2.9424999,1.1079168319702148,-0.667982280254364,9.730035781860352,-5.584716796875,0.335693359375,0.457763671875
2.9474999,1.0881646871566772,-0.7116764783859253,9.710283279418945,2.288818359375,-0.213623046875,-2.685546875
2.9524999000000003,1.094150185585022,-0.6332663297653198,9.820416450500488,2.227783203125,0.6103515625,1.922607421875
2.9574999,1.0779893398284912,-0.6901286244392395,9.639654159545898,-5.31005859375,-0.640869140625,-0.30517578125
2.9624999,1.1222820281982422,-0.7038952708244324,9.68155288696289,4.45556640625,0.152587890625,-1.983642578125
2.9674999,1.1222820281982422,-0.7038952708244324,9.68155288696289,4.45556640625,0.152587890625,-1.983642578125
2.9724999000000003,1.1426327228546143,-0.606930136680603,9.728838920593262,0,0.91552734375,2.227783203125
2.9774999,1.1408370733261108,-0.6619967818260193,9.582792282104492,-4.486083984375,-0.3662109375,-1.40380859375
2.9824999,1.1444283723831177,-0.6649895310401917,9.700108528137207,5.06591796875,0.30517578125,-1.007080078125
2.9874999,1.091755986213684,-0.579995334148407,9.770736694335938,-1.46484375,0.54931640625,2.38037109375
2.9924999000000003,1.095347285270691,-0.6859387755393982,9.612719535827637,-3.631591796875,-0.823974609375,-1.983642578125
2.9974999,1.1186907291412354,-0.6847416758537292,9.77672290802002,5.43212890625,0.091552734375,-0.732421875
3.0024999,1.0863690376281738,-0.6494272351264954,9.68274974822998,-2.593994140625,0.213623046875,2.3193359375
3.0074999,1.1791443824768066,-0.7374141216278076,9.625887870788574,-2.44140625,-0.91552734375,-2.13623046875
3.0124999000000003,1.1348515748977661,-0.7266402244567871,9.757569313049316,5.2490234375,0.030517578125,-0.274658203125
3.0174999000000002,1.1558008193969727,-0.7864952683448792,9.739013671875,-1.220703125,-0.79345703125,-2.50244140625
3.0224999,1.095347285270691,-0.7308300733566284,9.869498252868652,5.157470703125,0.67138671875,0.518798828125
3.0274999,1.1318588256835938,-0.7326257228851318,9.812037467956543,-4.39453125,0.30517578125,1.64794921875
3.0324999000000004,1.193509578704834,-0.8361749649047852,9.730634689331055,0.1220703125,-0.48828125,-2.99072265625
3.0374999000000003,1.125873327255249,-0.7428010702133179,9.822212219238281,4.425048828125,0.762939453125,0.579833984375
3.0424999,1.1354501247406006,-0.7422025203704834,9.713275909423828,-4.82177734375,0.30517578125,0.9765625
3.0474999,1.1007342338562012,-0.7493851184844971,9.715071678161621,1.3427734375,-0.579833984375,-2.5634765625
3.0524999000000004,1.047463297843933,-0.6673837304115295,9.813234329223633,3.631591796875,0.67138671875,1.40380859375
3.0574999000000003,1.0648212432861328,-0.6416460275650024,9.73781681060791,-5.18798828125,-0.091552734375,0.396728515625
3.0624999,1.0690110921859741,-0.6979097723960876,9.722254753112793,2.044677734375,-0.54931640625,-2.685546875
3.0674999,1.1097124814987183,-0.6326677799224854,9.798869132995605,2.716064453125,0.91552734375,1.64794921875
3.0724999000000004,1.139639973640442,-0.6643909811973572,9.642647743225098,-5.279541015625,-0.54931640625,0.030517578125
3.0774999000000003,1.094150185585022,-0.6811503767967224,9.633070945739746,-4.974365234375,-0.274658203125,-0.579833984375
3.0824999,1.094150185585022,-0.6811503767967224,9.633070945739746,-4.974365234375,-0.274658203125,-0.579833984375
3.0874999,1.0552444458007812,-0.7080851793289185,9.744400978088379,3.875732421875,-0.091552734375,-2.044677734375
3.0924999,1.0684125423431396,-0.6607996821403503,9.814431190490723,0.8544921875,0.91552734375,2.25830078125
3.0974999000000003,1.0851719379425049,-0.6799532771110535,9.677961349487305,-4.7607421875,-0.518798828125,-1.007080078125
3.1024999,1.1216834783554077,-0.7194576263427734,9.715670585632324,4.547119140625,-0.06103515625,-1.983642578125
3.1074999,1.138442873954773,-0.6332663297653198,9.740809440612793,-0.152587890625,0.701904296875,2.25830078125
3.1124999,1.1420341730117798,-0.6877344250679016,9.588777542114258,-4.39453125,-0.9765625,-1.28173828125
3.1174999000000003,1.1468225717544556,-0.6997054219245911,9.677363395690918,5.096435546875,-0.18310546875,-1.40380859375
3.1224999,1.0989385843276978,-0.6200982332229614,9.767146110534668,-0.9765625,0.396728515625,2.197265625
3.1274999,1.0965443849563599,-0.7015010714530945,9.627683639526367,-3.7841796875,-0.823974609375,-1.800537109375
3.1324999,1.113303780555725,-0.6985083222389221,9.804854393005371,5.279541015625,0.42724609375,-0.946044921875
3.1374999000000003,1.1857284307479858,-0.6961141228675842,9.639654159545898,-2.349853515625,-0.518798828125,-2.288818359375
3.1424999000000002,1.1121066808700562,-0.6769605278968811,9.786897659301758,5.37109375,0.6103515625,-0.030517578125
3.1474999,1.07379949092865,-0.5997475385665894,9.791686058044434,-3.60107421875,0.3662109375,1.708984375
3.1524999,1.1192892789840698,-0.7206547260284424,9.77013874053955,-1.46484375,-1.007080078125,-2.593994140625
3.1574999000000004,1.0546458959579468,-0.6913257241249084,9.891045570373535,5.035400390625,0.3662109375,0.42724609375
3.1624999000000003,1.0845733880996704,-0.6901286244392395,9.824606895446777,-4.08935546875,0.091552734375,1.678466796875
3.1674999,1.158793568611145,-0.8182184100151062,9.730634689331055,-0.274658203125,-0.732421875,-2.777099609375
3.1724999,1.1097124814987183,-0.7571662664413452,9.818022727966309,4.608154296875,0.762939453125,0.640869140625
3.1774999000000004,1.1348515748977661,-0.7457938194274902,9.700706481933594,-4.57763671875,-0.1220703125,1.190185546875
3.1824999000000003,1.1192892789840698,-3.047818660736084,7.672817707061768,-0.42724609375,2.0751953125,46.81396484375
3.1874999,0.7763199210166931,-4.168305397033691,6.302735805511475,37.2314453125,2.471923828125,149.59716796875
3.1924999,1.0773907899856567,-4.973954200744629,4.563348293304443,42.96875,1.373291015625,180.511474609375
3.1974999000000004,0.38067805767059326,-4.412513732910156,3.6176388263702393,116.058349609375,42.17529296875,158.294677734375
3.2024999000000003,0.4752490520477295,-0.7469909191131592,2.9520506858825684,173.9501953125,-5.462646484375,277.77099609375
3.2074999,-0.0802057534456253,0.4842272996902466,1.875258445739746,102.203369140625,-9.613037109375,384.58251953125
3.2124999,-0.31842881441116333,1.4460978507995605,1.9369091987609863,95.916748046875,-35.491943359375,385.284423828125
3.2174999,-0.823006808757782,1.0097545385360718,1.9285295009613037,109.06982421875,-65.185546875,348.32763671875
3.2224999000000003,-0.4405331015586853,1.6849194765090942,3.5021185874938965,161.285400390625,-74.981689453125,327.606201171875
3.2274999,1.8387469053268433,2.653373956680298,7.5632829666137695,128.509521484375,-147.27783203125,251.15966796875
3.2324999,2.3756465911865234,2.674921751022339,7.966107368469238,244.5068359375,-136.65771484375,223.876953125
3.2374999,2.6653449535369873,2.2685060501098633,7.700351238250732,153.656005859375,-109.7412109375,212.738037109375
3.2424999000000003,3.3033998012542725,2.5486276149749756,7.573458671569824,49.8046875,-102.23388671875,186.82861328125
3.2474999,3.648164749145508,2.959233283996582,6.877344608306885,108.33740234375,-85.02197265625,148.193359375
3.2524999,4.065953254699707,3.06876802444458,5.81491756439209,113.34228515625,-58.4716796875,114.044189453125
3.2574999,4.584896087646484,2.9664158821105957,5.008669853210449,39.24560546875,-39.61181640625,113.28125
3.2624999000000003,5.21097993850708,2.6402058601379395,4.95120906829834,2.166748046875,-23.284912109375,128.0517578125
3.2674999000000002,5.804741859436035,2.232593059539795,5.1583075523376465,-4.180908203125,-1.708984375,110.931396484375
3.2724999,6.163273811340332,1.9333178997039795,5.330689907073975,-47.607421875,15.380859375,97.0458984375
3.2774999,6.299743175506592,1.9955670833587646,5.698200225830078,-57.4951171875,33.75244140625,99.06005859375
3.2824999000000004,5.397727966308594,2.33913516998291,6.8372416496276855,-177.825927734375,85.02197265625,12.87841796875
3.2874999000000003,5.096058368682861,2.297835111618042,6.864774703979492,-197.906494140625,93.963623046875,9.1552734375
3.2924999,4.709993362426758,2.058414936065674,7.020996570587158,-187.43896484375,112.762451171875,-13.214111328125
3.2974999,4.386775970458984,1.502361536026001,7.457339763641357,-224.884033203125,128.570556640625,-25.87890625
3.3024999000000004,4.481945514678955,0.1646013706922531,9.393052101135254,-173.980712890625,182.2509765625,-19.34814453125
3.3074999000000003,4.345476150512695,-2.3032219409942627,11.890204429626465,-6.28662109375,234.130859375,-42.755126953125
3.3124999,3.7618894577026367,-5.0876784324646,14.283208847045898,23.101806640625,136.932373046875,-59.173583984375
3.3174999,2.4127566814422607,-7.3202714920043945,14.9182710647583,13.641357421875,58.53271484375,-38.421630859375
3.3224999000000004,0.4800374507904053,-8.246828079223633,13.544597625732422,48.7060546875,28.99169921875,-63.41552734375
3.3274999000000003,-2.8185739517211914,-5.627571105957031,7.3472065925598145,21.484375,-24.7802734375,-90.972900390625
3.3324999,-3.360262155532837,-3.530250310897827,5.790975570678711,1.3427734375,-27.008056640625,-95.21484375
3.3374999,-3.2094273567199707,-1.5059528350830078,5.870582580566406,-39.947509765625,-4.364013671875,-70.86181640625
3.3424999,-2.536656618118286,0.13527239859104156,7.836222171783447,3.72314453125,13.5498046875,-28.533935546875
3.3474999000000003,-1.6340426206588745,1.2348095178604126,9.853935241699219,19.134521484375,10.955810546875,-8.7890625
3.3524999,-0.9612720012664795,1.7489643096923828,11.455058097839355,-3.997802734375,-12.054443359375,20.538330078125
3.3574999,-0.4626794755458832,1.7806875705718994,11.975198745727539,11.71875,-23.223876953125,19.04296875
3.3624999,-0.3196259140968323,1.3138182163238525,11.044452667236328,-23.651123046875,-30.731201171875,-4.119873046875
3.3674999000000003,-0.11013327538967133,0.7386112213134766,10.211270332336426,-21.42333984375,-46.9970703125,7.26318359375
3.3724999,0.25318682193756104,0.008379706181585789,9.586981773376465,1.953125,-33.935546875,2.349853515625
3.3774999,0.9409212470054626,-0.5829881429672241,9.263765335083008,-27.9541015625,-15.655517578125,-5.0048828125
3.3824999,1.5670050382614136,-1.2521674633026123,9.825204849243164,8.72802734375,-19.47021484375,6.011962890625
3.3874999000000003,2.3493103981018066,-1.7064672708511353,9.691728591918945,-13.916015625,-6.9580078125,-0.06103515625
3.3924999000000002,2.362478494644165,-1.5532383918762207,9.712677955627441,23.92578125,0.67138671875,0.396728515625
3.3974999,2.189497470855713,-1.161187767982483,9.293692588806152,-12.87841796875,6.744384765625,-9.552001953125
3.4024999,1.9494787454605103,-0.8170213103294373,9.589376449584961,0.274658203125,7.50732421875,4.852294921875
3.4074999000000004,1.721431016921997,-0.46746787428855896,9.594164848327637,17.669677734375,13.3056640625,-1.46484375
3.4124999000000003,1.3910311460494995,-0.2603694200515747,9.566631317138672,-21.942138671875,8.392333984375,-3.021240234375
3.4174999,1.0426748991012573,-0.2825157940387726,9.929352760314941,17.242431640625,7.537841796875,5.859375
3.4224999,0.7475894689559937,-0.2861070930957794,9.648633003234863,-5.950927734375,7.14111328125,-7.598876953125
3.4274999000000004,0.456095427274704,-0.47824180126190186,9.917980194091797,-11.627197265625,-2.99072265625,3.72314453125
3.4324999000000003,0.3274070918560028,-0.5997475385665894,9.904812812805176,19.989013671875,-0.762939453125,1.312255859375
3.4374999,0.3130418658256531,-0.667982280254364,9.73661994934082,-21.453857421875,-5.889892578125,-5.126953125
3.4424999,0.4405331015586853,-0.8242039084434509,10.078990936279297,14.46533203125,-7.8125,6.622314453125
3.4474999000000004,0.961870551109314,-0.7625532150268555,9.872490882873535,-13.24462890625,-6.134033203125,2.685546875
3.4524999000000003,1.202487826347351,-0.6619967818260193,9.790489196777344,21.453857421875,1.312255859375,1.0986328125
3.4574999,1.3431471586227417,-0.5560533404350281,9.50737476348877,-21.881103515625,0.91552734375,-4.82177734375
3.4624999,1.3634978532791138,-0.6027402877807617,9.847352027893066,12.87841796875,0.457763671875,6.28662109375
3.4674999,1.3377602100372314,-0.5147533416748047,9.49121379852295,-1.739501953125,5.645751953125,-6.34765625
3.4724999000000003,1.157596468925476,-0.5913678407669067,9.763554573059082,-10.7421875,-0.06103515625,3.692626953125
3.4774999,1.07379949092865,-0.6416460275650024,9.768342971801758,19.8974609375,4.08935546875,0.1220703125
3.4824999,0.9151836037635803,-0.6332663297653198,9.622296333312988,-21.331787109375,0.91552734375,-3.2958984375
3.4874999,0.8176198601722717,-0.7314286231994629,9.95090103149414,18.00537109375,-0.42724609375,6.072998046875
3.4924999000000003,0.872686505317688,-0.6667851805686951,9.582193374633789,-8.11767578125,2.685546875,-6.561279296875
3.4974999,0.7799112200737,-0.7356184720993042,9.913790702819824,-3.23486328125,-2.777099609375,5.340576171875
3.5024999,0.910993754863739,-0.6769605278968811,9.712677955627441,13.092041015625,2.410888671875,-2.960205078125
3.5074999,0.9421183466911316,-0.7056909799575806,9.99220085144043,10.284423828125,-2.471923828125,5.889892578125
3.5124999000000003,1.0001777410507202,-0.6135141849517822,9.558850288391113,-0.06103515625,2.471923828125,-6.77490234375
3.5174999000000002,0.9570821523666382,-0.6506243348121643,9.788095474243164,-8.97216796875,-1.5869140625,3.936767578125
3.5224999,1.0067617893218994,-0.6278793811798096,9.70310115814209,17.181396484375,1.861572265625,-2.105712890625
3.5274999,0.9373299479484558,-0.5931634902954102,9.59057331085205,-20.660400390625,0.3662109375,-1.251220703125
3.5324999000000004,0.9660604000091553,-0.6338648796081543,9.926959037780762,20.44677734375,-0.244140625,3.2958984375
3.5374999000000003,0.9367313981056213,-0.595557689666748,9.543886184692383,-17.15087890625,0.946044921875,-5.859375
3.5424999,0.9151836037635803,-0.656609833240509,10.022128105163574,10.101318359375,-2.50244140625,5.7373046875
3.5474999,1.0043675899505615,-0.6075286865234375,9.547477722167969,-2.86865234375,1.15966796875,-6.500244140625
3.5524999000000004,0.9295487999916077,-0.6859387755393982,9.925761222839355,-5.889892578125,-1.983642578125,5.096435546875
3.5574999000000003,0.9911994934082031,-0.7146692276000977,9.849745750427246,20.599365234375,0.274658203125,0.48828125
3.5624999,0.9702502489089966,-0.6542156338691711,9.52353572845459,-19.989013671875,1.251220703125,-3.448486328125
3.5674999,0.9283517003059387,-0.6649895310401917,9.937732696533203,17.4560546875,-0.823974609375,4.486083984375
3.5724999000000004,0.9487023949623108,-0.5734112858772278,9.464279174804688,-12.6953125,1.8310546875,-6.04248046875
3.5774999000000003,0.889445960521698,-0.6218938827514648,9.967061996459961,6.77490234375,-1.434326171875,5.889892578125
3.5824999,0.889445960521698,-0.6218938827514648,9.967061996459961,6.77490234375,-1.434326171875,5.889892578125
3.5874999,0.99479079246521,-0.5740098357200623,9.558850288391113,-0.42724609375,1.0986328125,-6.53076171875
3.5924999,0.9181763529777527,-0.5823895931243896,9.9185791015625,-6.072998046875,-1.434326171875,4.852294921875
3.5974999000000003,1.0091559886932373,-0.618302583694458,9.696516990661621,11.627197265625,0.762939453125,-4.39453125
3.6024999,0.99479079246521,-0.5889736413955688,9.48882007598877,-11.688232421875,1.129150390625,-5.828857421875
3.6074999,0.99479079246521,-0.5889736413955688,9.48882007598877,-11.688232421875,1.129150390625,-5.828857421875
3.6124999,0.9361328482627869,-0.6721721291542053,10.01075553894043,7.598876953125,-1.5869140625,5.889892578125
3.6174999000000003,1.025316834449768,-0.641047477722168,9.506776809692383,-3.692626953125,1.007080078125,-6.28662109375
3.6224999,0.9648633003234863,-0.6775590777397156,9.984419822692871,-0.396728515625,-1.46484375,5.828857421875
3.6274999,1.0295066833496094,-0.6811503767967224,9.570222854614258,4.486083984375,0.79345703125,-5.706787109375
3.6324999,0.9726444482803345,-0.6434416770935059,9.895833969116211,-7.720947265625,-1.129150390625,4.82177734375
3.6374999000000003,1.0199298858642578,-0.6727706789970398,9.673172950744629,10.68115234375,0.762939453125,-4.638671875
3.6424999000000002,0.9331400990486145,-0.5752069354057312,9.79527759552002,-13.0615234375,-0.701904296875,3.173828125
3.6474999,0.9870096445083618,-0.646434485912323,9.774328231811523,15.07568359375,0.3662109375,-2.5634765625
3.6524999,0.9780313968658447,-0.6147112846374512,9.84376049041748,17.27294921875,0,-0.91552734375
3.6574999000000004,0.9810241460800171,-0.5668272376060486,9.624691009521484,-17.547607421875,0.457763671875,-0.732421875
3.6624999000000003,0.9786299467086792,-0.628477931022644,9.90361499786377,17.7001953125,-0.335693359375,0.91552734375
3.6674999,0.922366201877594,-0.6153098344802856,9.594164848327637,-17.39501953125,0.701904296875,-2.0751953125
3.6724999,0.9295487999916077,-0.6619967818260193,9.96945571899414,16.4794921875,-0.732421875,2.410888671875
3.6774999000000004,0.839766263961792,-0.6171054840087891,9.501389503479004,-16.082763671875,0.885009765625,-3.41796875
3.6824999000000003,0.9247604012489319,-0.6500257849693298,9.963470458984375,14.7705078125,-0.762939453125,3.692626953125
3.6874999,0.9145850539207458,-0.6236895322799683,9.486425399780273,-13.916015625,1.129150390625,-4.364013671875
3.6924999,0.9768342971801758,-0.6506243348121643,9.98681354522705,12.847900390625,-1.068115234375,4.21142578125
3.6974999000000004,0.9929951429367065,-0.6458359360694885,9.526528358459473,-11.810302734375,0.946044921875,-5.126953125
3.7024999000000003,0.983418345451355,-0.6853402256965637,10.055048942565918,10.772705078125,-1.190185546875,4.852294921875
3.7074999,1.0157400369644165,-0.6751648783683777,9.530119895935059,-9.674072265625,1.15966796875,-5.462646484375
3.7124999,1.0229226350784302,-0.6739677786827087,9.472060203552246,-7.99560546875,1.251220703125,-5.79833984375
3.7174999,1.0229226350784302,-0.6739677786827087,9.472060203552246,-7.99560546875,1.251220703125,-5.79833984375
3.7224999000000003,0.9151836037635803,-0.6362590789794922,9.96945571899414,7.354736328125,-1.129150390625,5.37109375
3.7274999,1.0229226350784302,-0.6685808300971985,9.450512886047363,-6.77490234375,1.190185546875,-5.828857421875
3.7324999,0.8978256583213806,-0.628477931022644,9.96945571899414,6.317138671875,-1.129150390625,5.401611328125
3.7374999,1.037886381149292,-0.6769605278968811,9.480440139770508,-5.859375,1.251220703125,-6.072998046875
3.7424999000000003,0.9139865040779114,-0.6242880821228027,9.987412452697754,5.645751953125,-0.946044921875,5.401611328125
3.7474999,1.0522516965866089,-0.6721721291542053,9.499593734741211,-5.340576171875,1.129150390625,-5.859375
3.7524999,0.9241618514060974,-0.5985504388809204,9.97603988647461,5.157470703125,-0.91552734375,5.462646484375
3.7574999,1.0492589473724365,-0.6470330357551575,9.492411613464355,-5.401611328125,1.15966796875,-5.828857421875
3.7624999000000003,0.9169792532920837,-0.5847837924957275,9.970054626464844,5.126953125,-0.946044921875,5.340576171875
3.7674999000000002,1.0396820306777954,-0.6458359360694885,9.489418029785156,-5.828857421875,0.823974609375,-5.7373046875
3.7724999,0.9151836037635803,-0.6117185354232788,9.971251487731934,5.828857421875,-1.068115234375,5.340576171875
3.7774999,0.9307458996772766,-0.6488286852836609,9.990405082702637,6.4697265625,-1.068115234375,5.0048828125
3.7824999000000004,1.0205284357070923,-0.7092822790145874,9.497797966003418,-7.4462890625,0.8544921875,-5.37109375
3.7874999000000003,0.943913996219635,-0.645237386226654,10.031704902648926,7.9345703125,-0.91552734375,4.852294921875
3.7924999,1.0097545385360718,-0.6823474764823914,9.522936820983887,-8.636474609375,0.79345703125,-5.218505859375
3.7974999,0.9714473485946655,-0.5859808921813965,10.035895347595215,9.27734375,-0.885009765625,4.5166015625
3.8024999000000004,0.9989806413650513,-0.6685808300971985,9.499593734741211,-10.162353515625,0.946044921875,-4.791259765625
3.8074999000000003,0.99479079246521,-0.5428852438926697,9.965864181518555,11.04736328125,-0.885009765625,4.119873046875
3.8124999,0.9624691009521484,-0.6805518269538879,9.46727180480957,-11.53564453125,0.91552734375,-4.08935546875
3.8174999,0.9804255962371826,-0.5464765429496765,9.944915771484375,12.481689453125,-0.823974609375,3.143310546875
3.8224999000000004,0.9020155072212219,-0.7158663272857666,9.490615844726562,-13.00048828125,1.0986328125,-3.265380859375
3.8274999000000003,0.9672574996948242,-0.545877993106842,9.948506355285645,13.48876953125,-0.67138671875,2.44140625
3.8324999,1.0145429372787476,-0.6500257849693298,9.566631317138672,-14.312744140625,0.823974609375,-1.190185546875
3.8374999,1.0205284357070923,-0.5811924338340759,9.843161582946777,14.2822265625,-0.640869140625,-0.3662109375
3.8424999,0.9301473498344421,-0.629675030708313,9.798869132995605,-12.20703125,0.396728515625,1.800537109375
3.8474999000000003,0.9911994934082031,-0.6404489278793335,9.77791976928711,10.92529296875,-0.3662109375,-2.99072265625
3.8524999,0.9133879542350769,-0.667982280254364,9.86351203918457,-9.307861328125,0.06103515625,3.11279296875
3.8574999,0.9654618501663208,-0.6949170231819153,9.658209800720215,7.26318359375,-0.1220703125,-4.180908203125
3.8624999,0.8876502513885498,-0.6212953329086304,9.896432876586914,-5.035400390625,-0.335693359375,4.241943359375
3.8674999000000003,0.9816226959228516,-0.6937199234962463,9.583989143371582,2.899169921875,-0.1220703125,-5.0048828125
3.8724999,0.8690952062606812,-0.5291185975074768,9.899425506591797,-0.335693359375,-0.67138671875,4.791259765625
3.8774999,1.0121487379074097,-0.669179379940033,9.464279174804688,-7.049560546875,0.640869140625,-4.791259765625
3.8824999,0.9917980432510376,-0.569819986820221,9.989208221435547,8.97216796875,-0.54931640625,3.692626953125
3.8874999000000003,0.9516952037811279,-0.751779317855835,9.52473258972168,-10.68115234375,0.79345703125,-3.509521484375
3.8924999000000002,0.9774328470230103,-0.6033388376235962,9.965266227722168,11.993408203125,-0.457763671875,2.0751953125
3.8974999,0.9397241473197937,-0.7134721279144287,9.570222854614258,-12.603759765625,0.640869140625,-1.556396484375
3.9024999,1.0007762908935547,-0.5776011347770691,9.849146842956543,12.75634765625,-0.42724609375,0.152587890625
3.9074999000000004,0.973242998123169,-0.6051344871520996,9.70549488067627,-11.962890625,0.579833984375,0.79345703125
3.9124999000000003,1.5508441925048828,-0.27234044671058655,9.718064308166504,10.406494140625,-0.06103515625,-3.814697265625
3.9174999,2.079364061355591,-0.2777273952960968,9.510966300964355,-25.054931640625,18.768310546875,-39.0625
3.9224999,2.827552318572998,0.09696517139673233,8.58261489868164,-14.556884765625,54.19921875,-79.2236328125
3.9274999000000004,3.3470940589904785,0.0628477931022644,8.097189903259277,-24.993896484375,77.728271484375,-82.122802734375
3.9324999000000003,-0.7056909799575806,-0.8140285611152649,5.841253757476807,-0.18310546875,-3.35693359375,-35.858154296875
3.9374999,-1.6663644313812256,-0.9810241460800171,6.348824501037598,11.5966796875,-20.32470703125,-16.6015625
3.9424999,-2.3319525718688965,-1.876455545425415,6.826467514038086,9.307861328125,-32.8369140625,-3.60107421875
3.9474999000000004,-2.7269957065582275,-1.866280198097229,7.998429298400879,11.322021484375,-34.97314453125,13.275146484375
3.9524999000000003,-2.6886885166168213,-2.1787235736846924,8.87291145324707,-4.69970703125,-38.726806640625,9.6435546875
3.9574999,-2.1553800106048584,-1.5843629837036133,10.10173511505127,6.7138671875,-51.300048828125,17.822265625
3.9624999,-1.2222399711608887,-1.1623848676681519,10.521319389343262,-7.75146484375,-52.6123046875,6.34765625
3.9674999000000004,0.018555063754320145,-0.42856210470199585,11.132439613342285,4.974365234375,-42.999267578125,10.955810546875
3.9724999000000003,1.202487826347351,-0.09816227108240128,10.816404342651367,-12.6953125,-34.637451171875,3.173828125
3.9774999,3.1058781147003174,-0.5261258482933044,9.132682800292969,-12.542724609375,2.38037109375,1.068115234375
3.9824999,2.9682116508483887,-0.7990648150444031,9.210494041442871,10.19287109375,9.21630859375,-1.556396484375
3.9874999,2.580949544906616,-0.8888474106788635,9.248202323913574,-8.6669921875,15.2587890625,2.38037109375
3.9924999000000003,2.1990742683410645,-0.9965864419937134,9.435548782348633,11.871337890625,16.876220703125,-2.8076171875
3.9974999,1.6023194789886475,-0.8750807046890259,9.61212158203125,-5.279541015625,16.510009765625,3.753662109375
4.0024999,0.2495955228805542,-0.6200982332229614,9.763554573059082,1.3427734375,5.06591796875,-5.4931640625
4.0074999,-0.03770867735147476,-0.4926069974899292,10.112509727478027,0.640869140625,-0.640869140625,5.18798828125
4.0124999,0.011971008032560349,-0.5015852451324463,9.800664901733398,-3.96728515625,-3.60107421875,-4.2724609375
4.0174999,0.9469067454338074,-0.7547720670700073,9.604340553283691,-10.498046875,-2.471923828125,-1.922607421875
4.022499900000001,1.2066776752471924,-0.7475894689559937,9.815628051757812,11.1083984375,-1.3427734375,0.946044921875
4.0274999000000005,1.3557167053222656,-0.7583633661270142,9.600749015808105,-10.894775390625,1.373291015625,-0.152587890625
4.0324999,1.4071919918060303,-0.7344213724136353,9.698312759399414,11.138916015625,1.129150390625,-1.52587890625
4.0374999,1.270722508430481,-0.6530185341835022,9.66958236694336,-8.575439453125,2.410888671875,2.197265625
4.0424999,1.2156559228897095,-0.6853402256965637,9.676166534423828,7.904052734375,1.46484375,-3.662109375
4.0474999,0.9828197956085205,-0.5770025849342346,9.831789016723633,-4.7607421875,1.708984375,3.997802734375
4.0524999,0.9415197968482971,-0.645237386226654,9.662399291992188,2.227783203125,0.152587890625,-4.852294921875
4.0574999,0.767341673374176,-0.569819986820221,9.970054626464844,0.91552734375,-0.335693359375,4.7607421875
4.062499900000001,0.7864952683448792,-0.6224924325942993,9.608530044555664,-4.058837890625,-0.701904296875,-4.5166015625
4.0674999000000005,0.8475474119186401,-0.6745663285255432,9.57441234588623,-9.002685546875,-0.701904296875,-3.265380859375
4.0724999,0.8804676532745361,-0.6302735805511475,9.893440246582031,10.284423828125,-1.15966796875,1.495361328125
4.0774999,0.9558850526809692,-0.6799532771110535,9.59596061706543,-10.986328125,-0.030517578125,-0.79345703125
4.0824999,1.0079588890075684,-0.6536170840263367,9.759963035583496,10.345458984375,-0.396728515625,-1.373291015625
4.0874999,0.9870096445083618,-0.6147112846374512,9.707889556884766,-8.880615234375,0.79345703125,2.01416015625
4.0924999,1.0408791303634644,-0.6919242739677429,9.675567626953125,6.65283203125,0.3662109375,-3.814697265625
4.0974999,0.9277531504631042,-0.5895721912384033,9.856329917907715,-3.326416015625,0.640869140625,4.08935546875
4.1024999,0.9762357473373413,-0.6871358752250671,9.610923767089844,0.244140625,0,-5.0048828125
4.1074999000000005,0.8565256595611572,-0.5943605899810791,9.944316864013672,3.60107421875,-0.06103515625,4.058837890625
4.1124999,0.8852560520172119,-0.6326677799224854,9.609128952026367,-6.65283203125,-0.18310546875,-4.21142578125
4.1174999,0.8870517015457153,-0.5961562395095825,9.939528465270996,8.85009765625,-0.6103515625,2.655029296875
4.1224999,0.9062053561210632,-0.6099228858947754,9.59476375579834,-10.1318359375,0.18310546875,-1.312255859375
4.1274999,1.0732009410858154,-0.6811503767967224,9.718064308166504,6.77490234375,-0.030517578125,-3.509521484375
4.1324999,0.9738415479660034,-0.5847837924957275,9.865906715393066,-3.47900390625,0.67138671875,3.90625
4.1374999,1.0360907316207886,-0.6871358752250671,9.632472038269043,0.030517578125,0.30517578125,-4.7607421875
4.1424999,0.933738648891449,-0.608127236366272,9.922170639038086,4.150390625,0.274658203125,3.90625
4.147499900000001,0.9648633003234863,-0.702099621295929,9.581595420837402,-7.049560546875,0.67138671875,-3.631591796875
4.1524999000000005,0.9097966551780701,-0.6524199843406677,9.88386344909668,9.33837890625,0.42724609375,2.166748046875
4.1574999,0.8798691034317017,-0.6865373253822327,9.701305389404297,-9.918212890625,1.03759765625,-0.48828125
4.1624999,0.9379284977912903,-0.6751648783683777,9.65222454071045,3.814697265625,-0.54931640625,-4.058837890625
4.1674999,0.8780734539031982,-0.5931634902954102,9.895236015319824,0.274658203125,-0.42724609375,4.21142578125
4.1724999,0.8852560520172119,-0.6386532783508301,9.90361499786377,7.26318359375,-1.15966796875,2.899169921875
4.1774999,0.8744821548461914,-0.6613982319831848,9.52353572845459,-9.490966796875,-0.54931640625,-1.983642578125
4.1824999,0.9528923034667969,-0.6703764796257019,9.7791166305542,9.674072265625,-1.03759765625,-0.54931640625
4.187499900000001,0.9564836025238037,-0.6548141837120056,9.667187690734863,-8.087158203125,-0.030517578125,1.739501953125
4.1924999000000005,1.0426748991012573,-0.7194576263427734,9.64803409576416,5.157470703125,-0.274658203125,-3.662109375
4.1974999,1.0426748991012573,-0.7194576263427734,9.64803409576416,5.157470703125,-0.274658203125,-3.662109375
4.2024999,0.9756371974945068,-0.6320692300796509,9.844358444213867,-1.434326171875,0.457763671875,3.7841796875
4.2074999,0.9798270463943481,-0.702099621295929,9.556455612182617,-2.960205078125,0.457763671875,-4.39453125
4.2124999,0.9026140570640564,-0.6356605291366577,9.9000244140625,6.622314453125,0.3662109375,3.082275390625
4.2174999,0.8655039072036743,-0.6530185341835022,9.531316757202148,-8.85009765625,0.762939453125,-2.01416015625
4.2224999,0.8972271084785461,-0.6458359360694885,9.816226959228516,9.6435546875,0.213623046875,-0.48828125
4.2274999,0.8708908557891846,-0.6314706802368164,9.715670585632324,-7.904052734375,0.457763671875,1.556396484375
4.2324999000000005,0.9032126069068909,-0.7038952708244324,9.625288963317871,-3.814697265625,-0.091552734375,-4.180908203125
4.2374999,0.8804676532745361,-0.6446388363838196,9.924564361572266,7.110595703125,-0.152587890625,2.74658203125
4.2424999,0.9463081955909729,-0.6835445761680603,9.729436874389648,9.124755859375,-0.396728515625,-0.91552734375
4.2474999,0.9463081955909729,-0.6835445761680603,9.729436874389648,9.124755859375,-0.396728515625,-0.91552734375
4.2524999,0.9157821536064148,-0.6619967818260193,9.727641105651855,-6.591796875,0.030517578125,2.105712890625
4.2574999,1.0199298858642578,-0.7230489253997803,9.595361709594727,2.86865234375,-0.091552734375,-4.058837890625
4.2624999,0.9756371974945068,-0.6003460884094238,9.923367500305176,1.64794921875,0.18310546875,3.753662109375
4.2674999,1.0594342947006226,-0.7015010714530945,9.627683639526367,-5.950927734375,0.244140625,-3.23486328125
4.272499900000001,1.0007762908935547,-0.5835866928100586,9.903017044067383,8.48388671875,0.06103515625,1.800537109375
4.2774999000000005,0.9995791912078857,-0.6278793811798096,9.708487510681152,-9.09423828125,0.640869140625,-0.244140625
4.2824999,0.9828197956085205,-0.639850378036499,9.732429504394531,7.415771484375,0.152587890625,-2.44140625
4.2874999,0.889445960521698,-0.6817489266395569,9.517550468444824,-8.331298828125,0.091552734375,-2.13623046875
4.2924999,0.889445960521698,-0.6817489266395569,9.517550468444824,-8.331298828125,0.091552734375,-2.13623046875
4.2974999,0.9457096457481384,-0.6147112846374512,9.787496566772461,9.185791015625,-0.274658203125,-0.335693359375
4.3024999,0.9379284977912903,-0.6518214344978333,9.68933391571045,-7.415771484375,0.06103515625,1.89208984375
4.3074999,0.9917980432510376,-0.6703764796257019,9.607931137084961,3.692626953125,-0.244140625,-3.631591796875
4.312499900000001,0.9415197968482971,-0.5781996846199036,9.894038200378418,1.007080078125,-0.030517578125,3.448486328125
4.3174999000000005,1.0079588890075684,-0.7212532758712769,9.597756385803223,-5.67626953125,-0.213623046875,-3.35693359375
4.3224999,0.9391255974769592,-0.5829881429672241,9.849745750427246,8.30078125,-0.18310546875,1.373291015625
4.3274999,0.9702502489089966,-0.6703764796257019,9.660005569458008,-8.819580078125,0.18310546875,0.335693359375
4.3324999,0.9810241460800171,-0.669179379940033,9.65222454071045,6.500244140625,-0.3662109375,-2.716064453125
4.3374999,0.9044097065925598,-0.569819986820221,9.780313491821289,-2.349853515625,0.1220703125,3.204345703125
4.3424999,0.9858125448226929,-0.6991068720817566,9.798869132995605,7.9345703125,0.1220703125,-1.617431640625
4.3474999,0.9271546006202698,-0.6326677799224854,9.868300437927246,-4.638671875,0.396728515625,2.716064453125
4.352499900000001,0.9558850526809692,-0.7284358739852905,9.616909980773926,-0.213623046875,0.152587890625,-3.7841796875
4.3574999000000005,0.900818407535553,-0.5979518890380859,9.909601211547852,5.18798828125,0.091552734375,2.8076171875
4.3624999,0.884058952331543,-0.7206547260284424,9.526528358459473,-8.026123046875,0.213623046875,-1.800537109375
4.3674999,0.961870551109314,-0.6631938815116882,9.764751434326172,8.60595703125,-0.030517578125,-0.640869140625
4.3724999,0.9235633015632629,-0.6554127335548401,9.722254753112793,-5.828857421875,0.579833984375,2.25830078125
4.3774999,1.0079588890075684,-0.70090252161026,9.61331844329834,1.5869140625,0.06103515625,-3.72314453125
4.3824999,0.9594763517379761,-0.5871779918670654,9.972448348999023,3.662109375,0.18310546875,2.960205078125
4.3874999,0.9498994946479797,-0.6727706789970398,9.627683639526367,-7.354736328125,0.1220703125,-2.288818359375
4.3924999,0.9750386476516724,-0.6883329749107361,9.560646057128906,-6.622314453125,-0.030517578125,-2.227783203125
4.397499900000001,0.9762357473373413,-0.6021417379379272,9.77672290802002,8.392333984375,-0.213623046875,0.244140625
4.4024999000000005,0.9361328482627869,-0.6344634294509888,9.90361499786377,2.227783203125,-0.1220703125,3.23486328125
4.4074999,0.9528923034667969,-0.7038952708244324,9.571419715881348,-6.40869140625,-0.06103515625,-2.410888671875
4.4124999,0.9516952037811279,-0.6177040338516235,9.783905029296875,8.270263671875,0.1220703125,0.06103515625
4.4174999,0.9313444495201111,-0.6189011335372925,9.766547203063965,-6.591796875,0.18310546875,1.434326171875
4.4224999,0.9612720012664795,-0.6913257241249084,9.645041465759277,2.62451171875,-0.091552734375,-3.570556640625
4.4274999,0.9510966539382935,-0.6177040338516235,9.744999885559082,8.270263671875,0.030517578125,-0.42724609375
4.4324999,0.8966285586357117,-0.5740098357200623,9.697713851928711,-6.34765625,0.213623046875,1.739501953125
4.437499900000001,0.9361328482627869,-0.6254851818084717,9.591172218322754,1.678466796875,-0.213623046875,-3.47900390625
4.4424999000000005,0.9044097065925598,-0.5638344883918762,9.956886291503906,3.631591796875,-0.091552734375,2.8076171875
4.4474999,0.9091981053352356,-0.6751648783683777,9.624691009521484,-7.537841796875,0.06103515625,-1.8310546875
4.4524999,0.9792284965515137,-0.6470330357551575,9.81024169921875,7.99560546875,-0.06103515625,-0.67138671875
4.4574999,0.9385270476341248,-0.6033388376235962,9.743802070617676,-5.126953125,0.06103515625,2.25830078125
4.4624999,0.9911994934082031,-0.6835445761680603,9.586383819580078,0.42724609375,-0.06103515625,-3.509521484375
4.4674999,0.9552865028381348,-0.5925649404525757,9.923367500305176,5.035400390625,0.091552734375,2.471923828125
4.4724999,0.9391255974769592,-0.667982280254364,9.740211486816406,-7.6904296875,-0.030517578125,-1.15966796875
4.477499900000001,0.9726444482803345,-0.657806932926178,9.849146842956543,7.38525390625,-0.030517578125,-1.46484375
4.4824999000000005,0.9768342971801758,-0.7487865686416626,9.652822494506836,6.2255859375,-0.18310546875,-2.3193359375
4.4874999,0.9247604012489319,-0.6554127335548401,9.782109260559082,-1.28173828125,0.030517578125,2.960205078125
4.4924999,1.0211269855499268,-0.7595604658126831,9.552266120910645,-3.72314453125,0,-3.0517578125
4.4974999,0.9576807022094727,-0.585382342338562,9.80904483795166,7.32421875,-0.18310546875,1.007080078125
4.5024999,0.9858125448226929,-0.6524199843406677,9.742006301879883,-7.62939453125,0,0.823974609375
4.5074999,0.9463081955909729,-0.6619967818260193,9.696516990661621,3.90625,0.152587890625,-2.960205078125
4.5124999,0.9062053561210632,-0.5776011347770691,9.895833969116211,1.0986328125,0.274658203125,2.9296875
4.5174999,0.8798691034317017,-0.6446388363838196,9.580398559570312,-5.950927734375,0.274658203125,-2.50244140625
4.522499900000001,0.8918401598930359,-0.5602431893348694,9.759963035583496,7.781982421875,-0.1220703125,-0.18310546875
4.5274999000000005,0.9522937536239624,-0.6548141837120056,9.909002304077148,7.01904296875,-0.091552734375,-1.556396484375
4.5324999,0.9253589510917664,-0.596754789352417,9.938929557800293,-2.899169921875,0.091552734375,2.655029296875
4.5374999,0.9941922426223755,-0.6943184733390808,9.692327499389648,-2.410888671875,0.06103515625,-3.326416015625
4.5424999,0.933738648891449,-0.5716156363487244,9.883264541625977,6.744384765625,0.091552734375,1.15966796875
4.5474999,0.9570821523666382,-0.6619967818260193,9.73661994934082,-7.38525390625,-0.152587890625,0.457763671875
4.5524999,0.9397241473197937,-0.669179379940033,9.72165584564209,4.57763671875,-0.1220703125,-2.74658203125
4.5574999,0.9241618514060974,-0.5746083855628967,9.8784761428833,0.91552734375,-0.152587890625,2.899169921875
4.562499900000001,0.9247604012489319,-0.6248866319656372,9.611522674560547,-5.462646484375,-0.152587890625,-2.38037109375
4.5674999000000005,0.9463081955909729,-0.5267243981361389,9.797672271728516,7.568359375,-0.091552734375,-0.30517578125
4.5724999,0.9367313981056213,-0.585382342338562,9.689932823181152,0.335693359375,-0.030517578125,-3.35693359375
4.5774999,0.9379284977912903,-0.5608417391777039,9.973047256469727,4.547119140625,-0.091552734375,2.166748046875
4.5824999,0.9157821536064148,-0.6386532783508301,9.790489196777344,-7.293701171875,0.06103515625,-0.823974609375
4.5874999,0.9678560495376587,-0.6590040326118469,9.767744064331055,6.16455078125,0.030517578125,-1.800537109375
4.5924999,0.9283517003059387,-0.5913678407669067,9.847352027893066,-1.46484375,-0.030517578125,2.655029296875
4.5974999,1.0217255353927612,-0.6865373253822327,9.55825138092041,-3.84521484375,0.030517578125,-2.86865234375
4.602499900000001,0.9654618501663208,-0.5997475385665894,9.750985145568848,6.9580078125,0.030517578125,0.54931640625
4.6074999000000005,0.9810241460800171,-0.6661866307258606,9.725247383117676,-6.53076171875,0.030517578125,0.9765625
4.6124999,0.9558850526809692,-0.729034423828125,9.628880500793457,2.3193359375,0.030517578125,-2.838134765625
4.6174999,0.8918401598930359,-0.6697779297828674,9.908403396606445,3.265380859375,-0.18310546875,2.593994140625
4.6224999,0.9103952050209045,-0.7158663272857666,9.647436141967773,-6.927490234375,0.06103515625,-1.46484375
4.6274999,0.9427168965339661,-0.6602011322975159,9.730035781860352,6.7138671875,0.091552734375,-1.312255859375
4.6324999,1.0169371366500854,-0.6572083830833435,9.575011253356934,-2.685546875,0.152587890625,-3.082275390625
4.6374999,0.9636662006378174,-0.5680243372917175,9.818621635437012,6.4697265625,0.030517578125,0.946044921875
4.6424999,0.9229647517204285,-0.6667851805686951,9.730035781860352,6.9580078125,0.274658203125,-1.068115234375
4.647499900000001,0.8804676532745361,-0.5943605899810791,9.710283279418945,-3.082275390625,-0.030517578125,2.13623046875
4.6524999000000005,0.9906009435653687,-0.6919242739677429,9.571419715881348,-1.953125,0.030517578125,-2.99072265625
4.6574999,0.9361328482627869,-0.6021417379379272,9.832387924194336,6.439208984375,-0.1220703125,1.068115234375
4.6624999,0.9684545993804932,-0.6715735793113708,9.790489196777344,-6.8359375,-0.213623046875,0.640869140625
4.6674999,0.9163807034492493,-0.679354727268219,9.659406661987305,-6.2255859375,-0.06103515625,-1.64794921875
4.6724999,0.9528923034667969,-0.629675030708313,9.752182006835938,6.866455078125,0.1220703125,-1.129150390625
4.6774999,0.9235633015632629,-0.5506663918495178,9.732429504394531,-3.082275390625,0.152587890625,2.38037109375
4.6824999,1.0199298858642578,-0.6649895310401917,9.583989143371582,-2.38037109375,0.1220703125,-2.74658203125
4.687499900000001,0.9702502489089966,-0.5770025849342346,9.81263542175293,6.561279296875,0.1220703125,0.91552734375
4.6924999000000005,0.9744400978088379,-0.6739677786827087,9.810839653015137,-6.622314453125,0.06103515625,0.732421875
4.6974999,0.9385270476341248,-0.7206547260284424,9.737217903137207,2.777099609375,0.06103515625,-2.74658203125
4.7024999,0.8756792545318604,-0.6500257849693298,9.96825885772705,2.960205078125,0.030517578125,2.3193359375
4.7074999,0.8798691034317017,-0.7032967209815979,9.713275909423828,-6.744384765625,-0.06103515625,-1.28173828125
4.7124999,0.9050082564353943,-0.6494272351264954,9.73542308807373,6.378173828125,-0.18310546875,-1.46484375
4.7174999,0.9038111567497253,-0.5524620413780212,9.786299705505371,-2.166748046875,-0.213623046875,2.593994140625
4.7224999,0.9810241460800171,-0.5494692921638489,9.746196746826172,6.77490234375,-0.030517578125,0.244140625
4.727499900000001,1.0121487379074097,-0.619499683380127,9.762357711791992,-5.645751953125,-0.152587890625,1.251220703125
4.7324999000000005,0.9522937536239624,-0.6931213736534119,9.670180320739746,1.40380859375,0.030517578125,-2.86865234375
4.7374999,0.9355342984199524,-0.6613982319831848,9.926959037780762,4.39453125,0.244140625,1.983642578125
4.7424999,0.8816647529602051,-0.7206547260284424,9.733627319335938,-6.89697265625,0.152587890625,-0.701904296875
4.7474999,0.9355342984199524,-0.6943184733390808,9.721057891845703,5.37109375,0.1220703125,-2.0751953125
4.7524999,0.9014169573783875,-0.5937620401382446,9.82759952545166,-0.1220703125,-0.06103515625,2.5634765625
4.7574999,0.9295487999916077,-0.6111199855804443,9.522936820983887,-5.06591796875,0.152587890625,-2.0751953125
4.7624999,0.9594763517379761,-0.5494692921638489,9.713275909423828,6.77490234375,0.18310546875,-0.48828125
4.7674999,0.9091981053352356,-0.5207388401031494,9.724648475646973,-4.39453125,-0.274658203125,1.800537109375
4.772499900000001,1.0079588890075684,-0.6542156338691711,9.640851974487305,-0.946044921875,-0.091552734375,-3.021240234375
4.7774999000000005,0.9415197968482971,-0.6224924325942993,9.914987564086914,5.523681640625,-0.091552734375,1.434326171875
4.7824999,1.9949685335159302,-1.489791989326477,9.59715747833252,21.66748046875,32.77587890625,-26.85546875
4.7874999,1.9949685335159302,-1.489791989326477,9.59715747833252,21.66748046875,32.77587890625,-26.85546875
4.7924999,2.470816135406494,-1.4185645580291748,9.647436141967773,22.64404296875,37.4755859375,-25.970458984375
4.7974999,3.0382418632507324,-1.3796586990356445,9.445125579833984,11.04736328125,41.290283203125,-41.1376953125
4.8024999,1.5628151893615723,0.5225345492362976,8.375515937805176,10.55908203125,50.506591796875,-111.14501953125
4.8074999,1.0283095836639404,1.6639702320098877,7.1251444816589355,-12.176513671875,25.909423828125,-83.770751953125
4.812499900000001,0.2454056739807129,1.4850035905838013,6.144718647003174,-35.369873046875,17.974853515625,-67.718505859375
4.8174999000000005,-1.2886791229248047,0.9103952050209045,6.428431510925293,-9.979248046875,0.42724609375,-20.1416015625
4.8224999,-2.250549554824829,0.11552023142576218,7.664438247680664,-7.38525390625,-10.8642578125,-15.167236328125
4.8274999,-2.9903578758239746,-0.7026981711387634,8.796895980834961,2.288818359375,-25.146484375,13.214111328125
4.8324999,-3.5200750827789307,-1.4317326545715332,9.510966300964355,-11.322021484375,-37.933349609375,23.590087890625
4.8374999,-3.41951847076416,-1.8267759084701538,9.853935241699219,-10.498046875,-53.77197265625,14.434814453125
4.8424999,-2.781463861465454,-1.6980875730514526,10.178350448608398,-8.4228515625,-65.216064453125,13.5498046875
4.8474999,-1.6047136783599854,-1.425148606300354,10.234015464782715,-15.838623046875,-58.685302734375,7.9345703125
4.852499900000001,-0.09696517139673233,-1.0157400369644165,10.407594680786133,-4.791259765625,-45.562744140625,5.79833984375
4.8574999000000005,1.3545196056365967,-0.6093243360519409,10.607510566711426,-6.04248046875,-43.304443359375,11.688232421875
4.8624999,2.5713725090026855,-0.5518634915351868,10.266935348510742,-5.9814453125,-35.46142578125,6.89697265625
4.8674999,3.2824504375457764,-0.52552729845047,10.062829971313477,4.69970703125,-22.64404296875,6.134033203125
4.8724999,3.576338768005371,-0.7038952708244324,9.605537414550781,-4.730224609375,-10.406494140625,4.7607421875
4.8774999,3.3039982318878174,-0.9684545993804932,9.257779121398926,5.035400390625,10.986328125,1.0986328125
4.8824999,2.9089550971984863,-0.9510966539382935,9.136872291564941,-4.33349609375,17.852783203125,-1.495361328125
4.8874999,2.5019407272338867,-0.8882488012313843,9.343372344970703,7.080078125,21.8505859375,-2.8076171875
4.8924999,1.8938134908676147,-0.6404489278793335,9.616311073303223,1.0986328125,22.0947265625,2.74658203125
4.897499900000001,1.3000515699386597,-0.5626373887062073,9.55585765838623,-2.50244140625,19.04296875,-2.50244140625
4.9024999000000005,0.7015010714530945,-0.4429273009300232,9.874884605407715,6.378173828125,13.458251953125,-0.213623046875
4.9074999,0.15981295704841614,-0.4034229815006256,9.958083152770996,-4.150390625,7.293701171875,2.38037109375
4.9124999,-0.09696517139673233,-0.5195417404174805,9.925761222839355,-0.030517578125,1.0986328125,-2.471923828125
4.9174999,-0.23942017555236816,-0.5620388388633728,10.146028518676758,3.814697265625,-3.814697265625,1.983642578125
4.9224999,-0.10055647045373917,-0.628477931022644,9.943717956542969,-7.171630859375,-7.2021484375,-0.030517578125
4.9274999,0.19572599232196808,-0.7110779285430908,9.859322547912598,2.899169921875,-8.36181640625,-2.13623046875
4.9324999,0.5464765429496765,-0.6386532783508301,9.896432876586914,-0.701904296875,-6.89697265625,2.86865234375
4.937499900000001,1.2575544118881226,-0.6637924313545227,9.719860076904297,5.584716796875,-2.410888671875,-0.18310546875
4.9424999000000005,1.348534107208252,-0.6362590789794922,9.677363395690918,-3.570556640625,0.48828125,2.532958984375
4.9474999,1.5418659448623657,-0.7374141216278076,9.57979965209961,-1.007080078125,1.861572265625,-3.082275390625
4.9524999,1.4047977924346924,-0.7044938206672668,9.795876502990723,6.195068359375,2.86865234375,0.762939453125
4.9574999,1.323395013809204,-0.7134721279144287,9.774927139282227,-5.035400390625,2.9296875,0.3662109375
4.9624999,0.8475474119186401,-0.6057330369949341,9.758766174316406,-6.04248046875,-0.030517578125,-1.007080078125
4.9674999,0.7799112200737,-0.5793967843055725,9.768342971801758,5.157470703125,-0.9765625,-1.15966796875
4.9724999,0.7679402232170105,-0.5057750940322876,9.84376049041748,-2.13623046875,-1.434326171875,2.62451171875
4.977499900000001,0.8834604024887085,-0.5656301379203796,9.602544784545898,-3.692626953125,-2.13623046875,-2.532958984375
4.9824999000000005,0.9014169573783875,-0.5943605899810791,9.742605209350586,5.645751953125,-1.52587890625,0.213623046875
4.9874999,1.0199298858642578,-0.7332242727279663,9.682151794433594,-5.889892578125,0.518798828125,-0.335693359375
4.9924999,1.0444705486297607,-0.7583633661270142,9.683947563171387,4.2724609375,0.48828125,-2.44140625
4.9974999,1.0259153842926025,-0.6488286852836609,9.808445930480957,0.8544921875,0.946044921875,2.410888671875
5.0024999,0.9911994934082031,-0.6392518281936646,9.61212158203125,-5.035400390625,0.54931640625,-1.77001953125
5.0074999,1.0043675899505615,-0.6206967830657959,9.730634689331055,6.011962890625,0.152587890625,-0.823974609375
5.0124999,0.9175778031349182,-0.5578489899635315,9.762357711791992,-2.685546875,0.3662109375,2.166748046875
5.0174999,1.0073603391647339,-0.6392518281936646,9.651625633239746,-2.288818359375,-0.396728515625,-2.99072265625
5.022499900000001,0.9558850526809692,-0.6171054840087891,9.834781646728516,5.584716796875,-0.518798828125,0.54931640625
5.0274999000000005,0.9654618501663208,-0.6344634294509888,9.846753120422363,-5.31005859375,-0.244140625,1.03759765625
5.0324999,0.9660604000091553,-0.6703764796257019,9.733627319335938,1.03759765625,-0.54931640625,-2.960205078125
5.0374999,0.9540894031524658,-0.6422445774078369,9.679757118225098,-6.28662109375,0.3662109375,-0.457763671875
5.0424999,1.0103530883789062,-0.6829460263252258,9.665990829467773,4.364013671875,0.30517578125,-2.25830078125
5.0474999,1.006163239479065,-0.608127236366272,9.750386238098145,0.701904296875,0.823974609375,2.62451171875
5.0524999,0.9971849918365479,-0.6350619792938232,9.558850288391113,-4.8828125,0.396728515625,-1.983642578125
5.0574999,1.0229226350784302,-0.6320692300796509,9.701305389404297,6.2255859375,0.244140625,-0.9765625
5.062499900000001,0.9349357485771179,-0.579995334148407,9.75936508178711,-2.62451171875,0.3662109375,2.3193359375
5.0674999000000005,1.0193313360214233,-0.656609833240509,9.66958236694336,-2.38037109375,-0.30517578125,-2.685546875
5.0724999,0.9564836025238037,-0.6260837316513062,9.84376049041748,5.4931640625,-0.152587890625,0.54931640625
5.0774999,0.9540894031524658,-0.6362590789794922,9.845556259155273,-5.340576171875,-0.06103515625,1.28173828125
5.0824999,0.9385270476341248,-0.67815762758255,9.721057891845703,0.9765625,-0.579833984375,-2.899169921875
5.0874999,0.912190854549408,-0.6757634282112122,9.87967300415039,4.119873046875,-0.152587890625,1.800537109375
5.0924999,0.9199720025062561,-0.6416460275650024,9.695918083190918,-5.859375,-0.335693359375,-0.244140625
5.0974999,0.9810241460800171,-0.6051344871520996,9.81024169921875,1.28173828125,0.06103515625,2.410888671875
5.102499900000001,0.9995791912078857,-0.5985504388809204,9.656414031982422,-5.2490234375,-0.396728515625,-1.251220703125
5.1074999000000005,1.026513934135437,-0.5973533391952515,9.740809440612793,5.43212890625,-0.091552734375,-1.28173828125
5.1124999,0.99479079246521,-0.5153518915176392,9.809642791748047,-1.861572265625,0.213623046875,2.288818359375
5.1174999,1.0564415454864502,-0.5770025849342346,9.606135368347168,-3.204345703125,-0.335693359375,-2.38037109375
5.1224999,1.0055646896362305,-0.5871779918670654,9.743204116821289,5.9814453125,-0.213623046875,0.213623046875
5.1274999,0.9894038438796997,-0.6015431880950928,9.790489196777344,-4.33349609375,0.18310546875,1.46484375
5.1324999,1.0247182846069336,-0.7116764783859253,9.690531730651855,-0.30517578125,-0.091552734375,-2.9296875
5.1374999,0.9391255974769592,-0.718859076499939,9.932345390319824,4.974365234375,0.213623046875,1.312255859375
5.1424999,0.9702502489089966,-0.7182605266571045,9.854534149169922,-5.889892578125,0.30517578125,0.518798828125
5.147499900000001,0.9493009448051453,-0.7613561153411865,9.770736694335938,2.105712890625,-0.091552734375,-2.655029296875
5.1524999000000005,0.9187749028205872,-0.6775590777397156,9.9185791015625,2.685546875,0.244140625,2.13623046875
5.1574999,0.9463081955909729,-0.6584054827690125,9.66958236694336,4.852294921875,-0.3662109375,-1.953125
5.1624999,0.9457096457481384,-0.579995334148407,9.756970405578613,0.274658203125,0.152587890625,2.166748046875
5.1674999,0.973242998123169,-0.6117185354232788,9.536105155944824,-4.638671875,-0.06103515625,-2.0751953125
5.1724999,1.0420763492584229,-0.6147112846374512,9.682151794433594,6.103515625,0.030517578125,-0.640869140625
5.1774999,0.9900023937225342,-0.5752069354057312,9.733627319335938,-2.685546875,0.030517578125,2.105712890625
5.1824999,1.1139023303985596,-0.6512228846549988,9.642647743225098,-2.655029296875,-0.06103515625,-2.74658203125
5.187499900000001,1.0462661981582642,-0.6248866319656372,9.807847023010254,5.67626953125,0.152587890625,0.335693359375
5.1924999000000005,1.0432734489440918,-0.6224924325942993,9.834183692932129,-4.791259765625,0.152587890625,1.46484375
5.1974999,1.013944387435913,-0.6805518269538879,9.706093788146973,-0.030517578125,-0.1220703125,-2.685546875
5.2024999,0.9247604012489319,-0.7338228225708008,9.727641105651855,2.716064453125,-0.152587890625,-2.5634765625
5.2074999,0.9307458996772766,-0.6613982319831848,9.687539100646973,-5.645751953125,-0.152587890625,-0.762939453125
5.2124999,0.9522937536239624,-0.6440402865409851,9.674968719482422,4.5166015625,-0.152587890625,-1.800537109375
5.2174999,0.9540894031524658,-0.5793967843055725,9.75517463684082,0.152587890625,-0.06103515625,2.3193359375
5.2224999,0.9762357473373413,-0.5925649404525757,9.551069259643555,-4.730224609375,-0.213623046875,-1.8310546875
5.227499900000001,1.0324994325637817,-0.6015431880950928,9.676166534423828,5.767822265625,-0.244140625,-0.91552734375
5.2324999000000005,0.9876081943511963,-0.5620388388633728,9.743204116821289,-2.44140625,0.06103515625,2.166748046875
5.2374999,1.0881646871566772,-0.6224924325942993,9.628880500793457,-2.8076171875,-0.213623046875,-2.38037109375
5.2424999,1.0384849309921265,-0.6141127347946167,9.780313491821289,5.67626953125,0.030517578125,0.152587890625
5.2474999,1.015141487121582,-0.5889736413955688,9.841964721679688,-4.302978515625,-0.091552734375,1.52587890625
