# Time (seconds),Accel_X,Accel_Y,Accel_Z,Gyro_X,Gyro_Y,Gyro_Z
0.0024999,0.7595604658126831,-0.619499683380127,9.642647743225098,1.556396484375,0.67138671875,-2.227783203125
0.0074999,0.7715315222740173,-0.5207388401031494,9.874286651611328,3.936767578125,-0.91552734375,1.495361328125
0.012499900000000001,0.7715315222740173,-0.5207388401031494,9.874286651611328,3.936767578125,-0.91552734375,1.495361328125
0.0174999,0.6919242739677429,-0.5734112858772278,9.821614265441895,-5.279541015625,-0.152587890625,-0.030517578125
0.0224999,0.7547720670700073,-0.5901707410812378,9.632472038269043,1.52587890625,1.007080078125,-2.349853515625
0.0274999,0.7715315222740173,-0.5105634927749634,9.894038200378418,4.241943359375,-0.885009765625,1.220703125
0.0324999,0.7625532150268555,-0.5811924338340759,9.64803409576416,1.03759765625,0.91552734375,-2.349853515625
0.0374999,0.7823054194450378,-0.5051765441894531,9.882067680358887,4.547119140625,-0.701904296875,1.190185546875
0.0424999,0.7194576263427734,-0.5333084464073181,9.84495735168457,-5.31005859375,-0.152587890625,0.6103515625
0.0474999,0.7757213711738586,-0.5889736413955688,9.634865760803223,0.54931640625,1.220703125,-2.3193359375
0.0524999,0.8038532137870789,-0.507570743560791,9.853935241699219,4.82177734375,-0.3662109375,1.0986328125
0.0574999,0.7511807680130005,-0.5392939448356628,9.847352027893066,-4.730224609375,0.091552734375,0.640869140625
0.0624999,0.7835025191307068,-0.6105214357376099,9.634865760803223,0.335693359375,0.640869140625,-2.44140625
0.0674999,0.8176198601722717,-0.5386953949928284,9.876082420349121,5.18798828125,-0.640869140625,0.885009765625
0.0724999,0.7565677165985107,-0.5650315880775452,9.870096206665039,-4.39453125,-0.518798828125,0.732421875
0.0774999,0.7763199210166931,-0.6428431272506714,9.66419506072998,-0.1220703125,0.6103515625,-2.410888671875
0.0824999,0.8301894664764404,-0.5632359385490417,9.876680374145508,5.06591796875,-0.823974609375,0.48828125
0.0874999,0.7535749673843384,-0.5632359385490417,9.852140426635742,-4.82177734375,-0.640869140625,0.8544921875
0.0924999,0.8038532137870789,-0.5500678420066833,9.834183692932129,5.4931640625,-0.579833984375,0.732421875
0.0974999,0.7230489253997803,-0.5512649416923523,9.840767860412598,-4.241943359375,-0.396728515625,0.9765625
0.1024999,0.750582218170166,-0.6386532783508301,9.636661529541016,-1.007080078125,1.495361328125,-2.25830078125
0.1074999,0.8020575642585754,-0.5267243981361389,9.790489196777344,5.37109375,-0.091552734375,0.54931640625
0.1124999,0.7272387742996216,-0.5392939448356628,9.820416450500488,-3.936767578125,-0.30517578125,1.03759765625
0.1174999,0.7559691667556763,-0.6236895322799683,9.61571216583252,-1.739501953125,1.190185546875,-2.288818359375
0.1224999,0.7882909178733826,-0.5327098965644836,9.77791976928711,5.37109375,-0.274658203125,0.30517578125
0.1274999,0.7086837291717529,-0.5225345492362976,9.828198432922363,-3.448486328125,-0.91552734375,1.15966796875
0.1324999,0.7511807680130005,-0.6135141849517822,9.632472038269043,-1.617431640625,0.9765625,-2.3193359375
0.1374999,0.7841010689735413,-0.507570743560791,9.768941879272461,5.43212890625,-0.18310546875,0.274658203125
0.1424999,0.7104793787002563,-0.5081692934036255,9.831789016723633,-3.41796875,-0.701904296875,1.190185546875
0.1474999,0.7703344225883484,-0.6051344871520996,9.655815124511719,-2.288818359375,0.9765625,-2.38037109375
0.1524999,0.7338228225708008,-0.5195417404174805,9.867103576660156,-2.74658203125,-0.8544921875,1.434326171875
0.1574999,0.7823054194450378,-0.6236895322799683,9.671378135681152,-2.197265625,0.885009765625,-2.3193359375
0.1624999,0.7984662652015686,-0.5422866940498352,9.7605619430542,5.79833984375,-0.244140625,0.1220703125
0.1674999,0.7589619159698486,-0.5596446394920349,9.913790702819824,-2.50244140625,-0.91552734375,1.5869140625
0.1724999,0.7882909178733826,-0.6500257849693298,9.712677955627441,-2.410888671875,1.007080078125,-2.3193359375
0.17749990000000002,0.7960720658302307,-0.5668272376060486,9.785101890563965,5.7373046875,0.091552734375,-0.152587890625
0.1824999,0.7529764175415039,-0.5596446394920349,9.91977596282959,-2.410888671875,-0.518798828125,1.77001953125
0.1874999,0.7589619159698486,-0.6386532783508301,9.688735961914062,-2.197265625,1.40380859375,-2.0751953125
0.1924999,0.7817068696022034,-0.5566518902778625,9.709685325622559,5.92041015625,0.244140625,-0.518798828125
0.1974999,0.7230489253997803,-0.547075092792511,9.877877235412598,-2.166748046875,-0.823974609375,1.678466796875
0.2024999,0.7326257228851318,-0.6236895322799683,9.641449928283691,-3.509521484375,1.007080078125,-1.953125
0.20749990000000001,0.7631517648696899,-0.5422866940498352,9.683348655700684,5.401611328125,-0.091552734375,-0.30517578125
0.2124999,0.751779317855835,-0.5722141861915588,9.646238327026367,-3.96728515625,0.79345703125,-1.922607421875
0.2174999,0.7835025191307068,-0.5404910445213318,9.706692695617676,5.462646484375,0,-0.823974609375
0.2224999,0.730231523513794,-0.5219359993934631,9.943120002746582,-1.03759765625,-0.946044921875,1.922607421875
0.2274999,0.7380126714706421,-0.5752069354057312,9.679159164428711,-4.486083984375,0.518798828125,-1.922607421875
0.2324999,0.7697358727455139,-0.5512649416923523,9.716867446899414,5.218505859375,-0.213623046875,-1.068115234375
0.2374999,0.7296329736709595,-0.5213374495506287,9.922768592834473,-0.67138671875,-1.03759765625,2.01416015625
0.2424999,0.739209771156311,-0.5674257874488831,9.64923095703125,-4.425048828125,0.732421875,-1.495361328125
0.2474999,0.7739257216453552,-0.5614402890205383,9.676764488220215,5.31005859375,0.457763671875,-0.9765625
0.2524999,0.7535749673843384,-0.5213374495506287,9.908403396606445,-0.06103515625,-1.03759765625,1.89208984375
0.2574999,0.7936778664588928,-0.5907692909240723,9.684545516967773,4.852294921875,0.54931640625,-1.03759765625
0.2624999,0.7799112200737,-0.545877993106842,9.930550575256348,-0.06103515625,-1.007080078125,1.708984375
0.2674999,0.7487865686416626,-0.6206967830657959,9.695320129394531,-5.43212890625,0.48828125,-1.40380859375
0.2724999,0.7984662652015686,-0.6159083843231201,9.717466354370117,4.791259765625,0.67138671875,-1.0986328125
0.2774999,0.7757213711738586,-0.5590460896492004,9.95090103149414,0.762939453125,-1.03759765625,1.922607421875
0.2824999,0.7260416746139526,-0.619499683380127,9.723451614379883,-5.279541015625,0.518798828125,-1.373291015625
0.28749990000000003,0.7829039692878723,-0.6099228858947754,9.694122314453125,4.638671875,0.396728515625,-1.46484375
0.2924999,0.7547720670700073,-0.5464765429496765,9.909601211547852,0.9765625,-1.251220703125,1.983642578125
0.2974999,0.690727174282074,-0.6153098344802856,9.70310115814209,-5.584716796875,0,-1.190185546875
0.3024999,0.7643488645553589,-0.5901707410812378,9.624092102050781,4.486083984375,0.3662109375,-1.678466796875
0.3074999,0.7368155717849731,-0.5153518915176392,9.869498252868652,1.556396484375,-1.190185546875,1.800537109375
0.3124999,0.6853402256965637,-0.5829881429672241,9.671378135681152,-5.157470703125,0.18310546875,-1.007080078125
0.3174999,0.7475894689559937,-0.5123591423034668,9.885659217834473,1.678466796875,-0.946044921875,1.739501953125
0.3224999,0.6817489266395569,-0.5728127360343933,9.68694019317627,-5.79833984375,0.18310546875,-0.91552734375
0.3274999,0.7727286219596863,-0.5758054852485657,9.674370765686035,3.814697265625,0.42724609375,-1.77001953125
0.3324999,0.7475894689559937,-0.5219359993934631,9.914987564086914,2.166748046875,-0.91552734375,1.708984375
0.3374999,0.6979097723960876,-0.5770025849342346,9.758167266845703,-5.218505859375,0.518798828125,-0.8544921875
0.3424999,0.7835025191307068,-0.5722141861915588,9.707889556884766,3.47900390625,1.312255859375,-1.708984375
0.34749990000000003,0.767341673374176,-0.5093663930892944,9.924564361572266,2.471923828125,-0.823974609375,1.861572265625
0.35249990000000003,0.7200561761856079,-0.5518634915351868,9.780912399291992,-5.462646484375,0.335693359375,-0.457763671875
0.3574999,0.7846996188163757,-0.5692214369773865,9.676764488220215,3.23486328125,0.885009765625,-2.01416015625
0.3624999,0.7882909178733826,-0.5093663930892944,9.914389610290527,2.74658203125,-0.91552734375,1.678466796875
0.3674999,0.7266402244567871,-0.5440823435783386,9.747992515563965,-6.04248046875,0.152587890625,-0.396728515625
0.3724999,0.7811083197593689,-0.5877765417098999,9.653421401977539,2.685546875,0.91552734375,-1.922607421875
0.3774999,0.7050924301147461,-0.5728127360343933,9.739612579345703,-5.79833984375,0.091552734375,-0.335693359375
0.3824999,0.7775170207023621,-0.628477931022644,9.671976089477539,2.471923828125,0.518798828125,-2.13623046875
0.3874999,0.7936778664588928,-0.545877993106842,9.892841339111328,3.082275390625,-0.885009765625,1.617431640625
0.3924999,0.7350199222564697,-0.5925649404525757,9.801861763000488,-5.43212890625,0.030517578125,-0.091552734375
0.3974999,0.8008604645729065,-0.6368576288223267,9.684545516967773,2.166748046875,0.79345703125,-2.197265625
0.4024999,0.7936778664588928,-0.5135562419891357,9.894637107849121,4.2724609375,-0.91552734375,1.251220703125
0.4074999,0.7924807667732239,-0.5207388401031494,9.874884605407715,4.486083984375,-0.946044921875,1.220703125
0.41249990000000003,0.7296329736709595,-0.5482721924781799,9.841365814208984,-5.096435546875,-0.3662109375,0.518798828125
0.41749990000000003,0.7829039692878723,-0.5883750915527344,9.634267807006836,0.823974609375,0.91552734375,-2.197265625
0.4224999,0.8050503134727478,-0.518943190574646,9.867103576660156,4.82177734375,-0.885009765625,1.007080078125
0.4274999,0.7523778676986694,-0.5464765429496765,9.852140426635742,-5.035400390625,-0.457763671875,0.42724609375
0.4324999,0.7841010689735413,-0.6003460884094238,9.624092102050781,0.1220703125,0.91552734375,-2.44140625
0.4374999,0.8176198601722717,-0.5285200476646423,9.845556259155273,4.852294921875,-0.67138671875,1.007080078125
0.4424999,0.7475894689559937,-0.5398924946784973,9.837775230407715,-4.669189453125,-0.335693359375,0.6103515625
0.4474999,0.7697358727455139,-0.6224924325942993,9.608530044555664,0.213623046875,1.03759765625,-2.50244140625
0.4524999,0.8092401623725891,-0.5482721924781799,9.847949981689453,5.279541015625,-0.6103515625,0.8544921875
0.4574999,0.7601590156555176,-0.6500257849693298,9.640851974487305,-0.79345703125,1.007080078125,-2.410888671875
0.4624999,0.7990648150444031,-0.5410895943641663,9.797073364257812,5.37109375,-0.48828125,0.640869140625
0.4674999,0.7224503755569458,-0.5428852438926697,9.813833236694336,-4.241943359375,-0.335693359375,1.129150390625
0.47249990000000003,0.7416039705276489,-0.629675030708313,9.596558570861816,-1.52587890625,1.190185546875,-2.3193359375
0.47749990000000003,0.7936778664588928,-0.5297171473503113,9.773131370544434,5.37109375,-0.30517578125,0.518798828125
0.4824999,0.7152677774429321,-0.5219359993934631,9.825803756713867,-3.96728515625,-0.396728515625,1.220703125
0.4874999,0.7493851184844971,-0.608127236366272,9.61212158203125,-1.40380859375,1.220703125,-2.288818359375
0.4924999,0.7846996188163757,-0.5099649429321289,9.768941879272461,5.462646484375,-0.335693359375,0.30517578125
0.4974999,0.8140285611152649,-0.524330198764801,9.786299705505371,5.92041015625,-0.152587890625,0.274658203125
0.5024999,0.8140285611152649,-0.524330198764801,9.786299705505371,5.92041015625,-0.152587890625,0.274658203125
0.5074999,0.7433996200561523,-0.6254851818084717,9.888651847839355,-3.2958984375,-0.67138671875,1.190185546875
0.5124999,0.8529343605041504,-0.6063315868377686,9.65222454071045,-0.762939453125,1.40380859375,-4.45556640625
0.5174999,0.950498104095459,-1.2348095178604126,9.5624418258667,14.373779296875,-0.6103515625,-24.35302734375
0.5224999,0.9666589498519897,-1.1767501831054688,9.542689323425293,23.3154296875,1.89208984375,-28.533935546875
0.5274999,0.9498994946479797,-1.9620482921600342,8.727463722229004,15.56396484375,6.53076171875,-22.4609375
0.5324999,1.0654197931289673,-1.5173252820968628,8.692748069763184,42.48046875,6.134033203125,-54.351806640625
0.5374999,1.058835744857788,-1.5807716846466064,7.937975883483887,33.905029296875,-2.471923828125,-67.3828125
0.5424999,1.512536883354187,-0.4620809257030487,7.888296127319336,26.4892578125,-5.18798828125,-84.564208984375
0.5474999,1.9572598934173584,-0.3298012912273407,7.477690696716309,46.0205078125,-8.209228515625,-106.842041015625
0.5524999,1.964442491531372,0.3357867896556854,7.879317760467529,35.70556640625,-15.68603515625,-121.978759765625
0.5574999,1.5263035297393799,1.4269442558288574,8.324040412902832,20.56884765625,-8.026123046875,-144.683837890625
0.5624999,1.690904974937439,1.8836381435394287,7.783549785614014,33.721923828125,-2.105712890625,-148.223876953125
0.5674999000000001,1.5885528326034546,1.5735890865325928,6.883928298950195,32.623291015625,1.678466796875,-135.55908203125
0.5724999000000001,1.4335283041000366,2.412158250808716,5.692214488983154,43.304443359375,13.85498046875,-135.833740234375
0.5774999000000001,1.590348482131958,2.1284453868865967,4.41849946975708,61.95068359375,22.979736328125,-98.907470703125
0.5824999,1.1139023303985596,2.7335798740386963,4.0084919929504395,101.959228515625,35.003662109375,-100.15869140625
0.5874999,0.9427168965339661,2.076371431350708,2.7940332889556885,67.474365234375,21.3623046875,-17.27294921875
0.5924999,0.5943605899810791,2.7246015071868896,3.3728315830230713,48.27880859375,5.06591796875,-43.975830078125
0.5974999,-0.16819266974925995,1.8369512557983398,2.7880477905273438,85.693359375,7.415771484375,-12.20703125
0.6024999,-0.23283611238002777,3.5919010639190674,3.7696704864501953,49.224853515625,10.498046875,-21.636962890625
0.6074999,-0.6356605291366577,3.597288131713867,4.247313976287842,13.18359375,16.66259765625,18.157958984375
0.6124999,-1.634641170501709,3.8265328407287598,6.342838764190674,-52.215576171875,6.378173828125,31.6162109375
0.6174999,-1.634641170501709,3.8265328407287598,6.342838764190674,-52.215576171875,6.378173828125,31.6162109375
0.6224999,-1.9470845460891724,3.825934410095215,6.9731125831604,-53.40576171875,-1.251220703125,7.568359375
0.6274999,-1.3090298175811768,2.8610711097717285,8.005013465881348,-93.505859375,-21.17919921875,33.721923828125
0.6324999,-1.3664906024932861,2.211045265197754,8.389283180236816,-86.822509765625,-22.15576171875,9.8876953125
0.6374999,0.1777694821357727,2.167351007461548,9.564237594604492,-96.771240234375,-25.299072265625,33.843994140625
0.6424999,0.7763199210166931,2.4803929328918457,9.57441234588623,-84.625244140625,-17.181396484375,19.95849609375
0.6474999,1.810615062713623,3.2770636081695557,9.756970405578613,-129.45556640625,-5.126953125,71.929931640625
0.6524999,2.361281394958496,4.022258758544922,9.493608474731445,-123.565673828125,-7.568359375,49.74365234375
0.6574999,2.428917646408081,3.846285104751587,9.45111083984375,-104.949951171875,-10.43701171875,48.553466796875
0.6624999,2.0673930644989014,2.033874273300171,10.029311180114746,-122.894287109375,-22.27783203125,33.935546875
0.6674999,1.811812162399292,-0.7056909799575806,11.824962615966797,-63.96484375,-44.25048828125,12.39013671875
0.6724999,1.5658079385757446,-5.7772088050842285,7.528567314147949,30.059814453125,20.81298828125,6.500244140625
0.6774999,1.5580267906188965,-3.6068649291992188,7.052121162414551,16.815185546875,22.27783203125,-11.016845703125
0.6824999,1.3515268564224243,-1.0414776802062988,8.285733222961426,1.28173828125,17.608642578125,-8.48388671875
0.6874999,1.1318588256835938,0.8062474131584167,9.35893440246582,2.655029296875,12.237548828125,-9.70458984375
0.6924999000000001,0.7799112200737,2.0195090770721436,10.732008934020996,8.087158203125,6.103515625,8.544921875
0.6974999000000001,0.3405751883983612,2.2409727573394775,10.56261920928955,-9.8876953125,4.5166015625,3.753662109375
0.7024999000000001,0.0454898327589035,1.775899052619934,10.537480354309082,-2.471923828125,-4.913330078125,7.720947265625
0.7074999,-0.23582886159420013,0.900818407535553,9.889249801635742,-18.4326171875,-10.345458984375,-3.387451171875
0.7124999,-0.047884032130241394,0.02992752194404602,9.746196746826172,0.48828125,-11.41357421875,-1.77001953125
0.7174999,0.6661866307258606,-1.3634978532791138,9.710283279418945,9.368896484375,-7.293701171875,-0.640869140625
0.7224999,1.003769040107727,-1.4113819599151611,9.81024169921875,-5.31005859375,-2.50244140625,3.23486328125
0.7274999,1.4879963397979736,-1.4778209924697876,9.585186958312988,9.33837890625,3.60107421875,-2.99072265625
0.7324999,1.5705963373184204,-1.028908133506775,9.834781646728516,-0.67138671875,4.94384765625,3.753662109375
0.7374999,1.6112977266311646,-0.861314058303833,9.499593734741211,1.251220703125,7.415771484375,-4.791259765625
0.7424999,1.3227964639663696,-0.4800374507904053,9.985616683959961,3.23486328125,4.5166015625,4.119873046875
0.7474999,0.9684545993804932,-0.48243165016174316,9.59715747833252,-5.31005859375,4.302978515625,-4.0283203125
0.7524999,0.6865373253822327,-0.2932897210121155,9.949105262756348,7.50732421875,0.152587890625,4.058837890625
0.7574999,0.3711012601852417,-0.49978959560394287,9.695320129394531,-9.674072265625,-2.0751953125,-2.44140625
0.7624999,0.4339490532875061,-0.414795458316803,9.773730278015137,9.33837890625,-3.631591796875,0.762939453125
0.7674999,0.3866635859012604,-0.5644330382347107,9.785101890563965,-10.894775390625,-5.157470703125,-0.396728515625
0.7724999,0.6979097723960876,-0.5530605912208557,9.678560256958008,7.32421875,-2.044677734375,-1.89208984375
0.7774999,0.67815762758255,-0.6308721303939819,9.799467086791992,-9.674072265625,-0.701904296875,0.213623046875
0.7824999,0.7894880175590515,-0.524330198764801,9.696516990661621,7.38525390625,0,-1.861572265625
0.7874999,0.6584054827690125,-0.4255693554878235,9.877279281616211,-6.683349609375,-2.716064453125,2.593994140625
0.7924999,0.7906851172447205,-0.5596446394920349,9.569623947143555,1.46484375,0.1220703125,-4.058837890625
0.7974999,0.7583633661270142,-0.48602294921875,9.93354320526123,1.28173828125,-2.044677734375,3.936767578125
0.8024999,1.0301052331924438,-0.6039373874664307,9.755773544311523,9.735107421875,1.3427734375,-0.152587890625
0.8074999,0.8960300087928772,-0.5410895943641663,9.858125686645508,-7.965087890625,-0.335693359375,1.52587890625
0.8124999,0.9534908533096313,-0.5069721937179565,9.638457298278809,4.852294921875,1.617431640625,-3.082275390625
0.8174999000000001,0.778714120388031,-0.36810851097106934,9.932345390319824,-1.922607421875,-1.708984375,3.84521484375
0.8224999000000001,0.7924807667732239,-0.5303156971931458,9.520543098449707,-2.960205078125,0.457763671875,-4.364013671875
0.8274999000000001,0.7906851172447205,-0.44532153010368347,9.825204849243164,5.584716796875,-1.46484375,3.173828125
0.8324999000000001,0.7410054206848145,-0.6997054219245911,9.585784912109375,-8.453369140625,0,-2.471923828125
0.8374999,0.8655039072036743,-0.6368576288223267,9.660005569458008,9.307861328125,0.48828125,0.54931640625
0.8424999,0.7571662664413452,-0.7218518257141113,9.718064308166504,-8.148193359375,-0.518798828125,0.79345703125
0.8474999,0.9074024558067322,-0.7218518257141113,9.512163162231445,6.011962890625,1.495361328125,-2.838134765625
0.8524999,0.8062474131584167,-0.6027402877807617,9.797672271728516,-2.044677734375,-0.8544921875,3.41796875
0.8574999,0.7948749661445618,-0.7098808288574219,9.565434455871582,-7.99560546875,0.152587890625,-2.410888671875
0.8624999,0.8774749040603638,-0.5877765417098999,9.643844604492188,8.941650390625,0.335693359375,0.244140625
0.8674999,0.7433996200561523,-0.5937620401382446,9.72165584564209,-7.568359375,-1.03759765625,1.190185546875
0.8724999,0.8708908557891846,-0.6027402877807617,9.487024307250977,4.669189453125,0.91552734375,-3.204345703125
0.8774999,0.7775170207023621,-0.45848962664604187,9.830592155456543,-0.885009765625,-1.40380859375,3.662109375
0.8824999,0.8355764150619507,-0.5793967843055725,9.464279174804688,-3.265380859375,1.068115234375,-4.0283203125
0.8874999,0.899621307849884,-0.456095427274704,9.876082420349121,6.77490234375,-0.335693359375,2.8076171875
0.8924999,0.8457517623901367,-0.6344634294509888,9.70549488067627,-8.697509765625,0.244140625,-1.434326171875
0.8974999,0.9624691009521484,-0.5644330382347107,9.744999885559082,8.392333984375,0.79345703125,-0.885009765625
0.9024999,0.8331822156906128,-0.5668272376060486,9.873687744140625,-5.584716796875,-1.15966796875,2.044677734375
0.9074999,0.900818407535553,-0.6386532783508301,9.582193374633789,1.708984375,1.312255859375,-3.60107421875
0.9124999,0.8619126081466675,-0.5829881429672241,9.923367500305176,-2.01416015625,-1.251220703125,3.23486328125
0.9174999,0.9091981053352356,-0.6326677799224854,9.524134635925293,-2.410888671875,1.52587890625,-3.936767578125
0.9224999,0.9205705523490906,-0.48303020000457764,9.860519409179688,6.011962890625,-0.579833984375,2.5634765625
0.9274999,0.8505401611328125,-0.6218938827514648,9.651026725769043,-8.60595703125,0,-1.556396484375
0.9324999,0.9421183466911316,-0.5416881442070007,9.683348655700684,8.11767578125,0.48828125,-0.823974609375
0.9374999,0.8020575642585754,-0.5374982953071594,9.819818496704102,-5.096435546875,-0.9765625,2.13623046875
0.9424999000000001,0.8667010068893433,-0.6356605291366577,9.509769439697266,1.15966796875,1.251220703125,-3.875732421875
0.9474999000000001,0.8122329115867615,-0.4554968774318695,9.818022727966309,3.692626953125,-0.946044921875,3.082275390625
0.9524999000000001,0.7757213711738586,-0.5668272376060486,9.804854393005371,-7.26318359375,-0.79345703125,1.220703125
0.9574999000000001,0.9032126069068909,-0.6542156338691711,9.563638687133789,3.509521484375,0.9765625,-3.23486328125
0.9624999,0.8020575642585754,-0.667982280254364,9.520543098449707,-5.401611328125,0.396728515625,-3.173828125
0.9674999,0.9080010056495667,-0.5764040350914001,9.807249069213867,8.209228515625,-0.457763671875,1.190185546875
0.9724999,0.7649474143981934,-0.6177040338516235,9.73781681060791,-7.8125,-0.457763671875,0.152587890625
0.9774999,0.9199720025062561,-0.5931634902954102,9.57201862335205,4.852294921875,0.946044921875,-2.593994140625
0.9824999,0.8415619134902954,-0.5249287486076355,9.956886291503906,-0.3662109375,-1.007080078125,3.265380859375
0.9874999,0.8271966576576233,-0.5847837924957275,9.539097785949707,-4.302978515625,0.762939453125,-3.47900390625
0.9924999,0.9097966551780701,-0.497395396232605,9.824007987976074,7.415771484375,-0.579833984375,1.617431640625
0.9974999,0.7912836670875549,-0.5847837924957275,9.719860076904297,-7.75146484375,-0.18310546875,-0.1220703125
1.0024999,0.8265981078147888,-0.6512228846549988,9.494805335998535,-3.326416015625,0.823974609375,-3.60107421875
1.0074999000000002,0.8936358094215393,-0.5321113467216492,9.793481826782227,6.65283203125,-0.3662109375,1.8310546875
1.0124999000000001,0.7858967185020447,-0.6057330369949341,9.6803560256958,-8.11767578125,-0.091552734375,-0.30517578125
1.0174999000000002,0.93254154920578,-0.5985504388809204,9.576807022094727,5.889892578125,0.67138671875,-2.13623046875
1.0224999000000001,0.8535329103469849,-0.5728127360343933,9.914389610290527,-1.40380859375,-1.312255859375,2.838134765625
1.0274999,0.8254010081291199,-0.6596025824546814,9.505578994750977,-3.0517578125,0.6103515625,-3.5400390625
1.0324999000000001,0.8912416100502014,-0.5327098965644836,9.782708168029785,7.01904296875,-0.42724609375,1.708984375
1.0374999,0.7817068696022034,-0.6141127347946167,9.652822494506836,-7.659912109375,-0.244140625,-0.457763671875
1.0424999000000001,0.9319429993629456,-0.5919663906097412,9.552865028381348,5.67626953125,0.54931640625,-2.105712890625
1.0474999,0.8535329103469849,-0.5524620413780212,9.909601211547852,-1.220703125,-1.190185546875,2.899169921875
1.0524999000000002,0.8194155097007751,-0.6153098344802856,9.527127265930176,-3.7841796875,0.79345703125,-3.47900390625
1.0574999,0.8409633636474609,-0.6051344871520996,9.911396026611328,0.030517578125,-0.9765625,2.960205078125
1.0624999000000002,0.8409633636474609,-0.6051344871520996,9.911396026611328,0.030517578125,-0.9765625,2.960205078125
1.0674999,0.8224082589149475,-0.6829460263252258,9.54209041595459,-4.69970703125,0.67138671875,-3.021240234375
1.0724999000000002,0.9074024558067322,-0.5656301379203796,9.835380554199219,7.2021484375,-0.1220703125,1.251220703125
1.0774999,0.7481880187988281,-0.558447539806366,9.750386238098145,-6.988525390625,-0.30517578125,0.67138671875
1.0824999000000002,0.884058952331543,-0.5871779918670654,9.585784912109375,3.7841796875,0.885009765625,-2.62451171875
1.0874999,0.8182184100151062,-0.5039794445037842,9.90122127532959,1.556396484375,-1.03759765625,2.899169921875
1.0924999000000002,0.8254010081291199,-0.679354727268219,9.657610893249512,-5.462646484375,0.67138671875,-2.777099609375
1.0974999,0.9277531504631042,-0.6009446382522583,9.790489196777344,7.537841796875,-0.091552734375,0.335693359375
1.1024999000000002,0.8092401623725891,-0.618302583694458,9.806051254272461,-6.103515625,-0.67138671875,1.190185546875
1.1074999,0.849941611289978,-0.5614402890205383,9.9401273727417,-4.302978515625,-0.48828125,2.0751953125
1.1124999000000002,0.871489405632019,-0.6165069341659546,9.609726905822754,-0.8544921875,1.03759765625,-3.265380859375
1.1174999,0.8619126081466675,-0.45429977774620056,9.903017044067383,5.462646484375,-0.48828125,2.166748046875
1.1224999000000002,0.7846996188163757,-0.557250440120697,9.713275909423828,-7.537841796875,0.335693359375,-0.67138671875
1.1274999,0.8750807046890259,-0.5363011956214905,9.625887870788574,5.43212890625,0.6103515625,-1.64794921875
1.1324999000000002,0.7972691655158997,-0.5213374495506287,9.915586471557617,-1.495361328125,-1.129150390625,2.38037109375
1.1374999000000001,0.7894880175590515,-0.6326677799224854,9.532513618469238,-3.631591796875,0.8544921875,-2.99072265625
1.1424999000000002,0.8601169586181641,-0.5464765429496765,9.813833236694336,7.080078125,-0.152587890625,1.312255859375
1.1474999000000001,0.7386112213134766,-0.5656301379203796,9.725247383117676,-6.805419921875,-0.335693359375,0.42724609375
1.1524999000000002,0.8445546627044678,-0.5099649429321289,9.88506031036377,2.197265625,-0.8544921875,2.685546875
1.1574999000000001,0.8792705535888672,-0.6811503767967224,9.685144424438477,-6.072998046875,0.335693359375,-2.0751953125
1.1624999,0.9463081955909729,-0.6087257862091064,9.768941879272461,7.14111328125,-0.244140625,-0.335693359375
1.1674999000000001,0.8607155084609985,-0.6159083843231201,9.911396026611328,-4.39453125,-0.732421875,1.5869140625
1.1724999,0.8786720037460327,-0.6703764796257019,9.564835548400879,-0.3662109375,0.91552734375,-3.265380859375
1.1774999000000002,0.8535329103469849,-0.5159504413604736,9.844358444213867,5.2490234375,-0.54931640625,2.197265625
1.1824999,0.7793126702308655,-0.6075286865234375,9.671378135681152,-7.14111328125,0.091552734375,-0.732421875
1.1874999000000002,0.8655039072036743,-0.5847837924957275,9.59835433959961,5.279541015625,0.518798828125,-1.861572265625
1.1924999,0.8092401623725891,-0.5644330382347107,9.915586471557617,-1.007080078125,-0.640869140625,2.655029296875
1.1974999000000002,0.801459014415741,-0.6817489266395569,9.603142738342285,-4.45556640625,0.885009765625,-2.716064453125
1.2024999,0.8786720037460327,-0.5979518890380859,9.828198432922363,6.89697265625,-0.518798828125,0.732421875
1.2074999000000002,0.7691373229026794,-0.5925649404525757,9.815030097961426,-5.950927734375,-0.885009765625,0.91552734375
1.2124999,0.8601169586181641,-0.4818331003189087,9.833584785461426,3.60107421875,-0.823974609375,2.50244140625
1.2174999000000002,0.8236053586006165,-0.5943605899810791,9.628880500793457,-7.01904296875,0.06103515625,-1.40380859375
1.2224999,0.9295487999916077,-0.5548562407493591,9.640253067016602,6.011962890625,0.18310546875,-1.190185546875
1.2274999000000002,0.8427590131759644,-0.5213374495506287,9.881468772888184,-2.13623046875,-0.8544921875,2.197265625
1.2324999,0.8224082589149475,-0.6200982332229614,9.533711433410645,-2.960205078125,0.48828125,-3.021240234375
1.2374999000000002,0.8661024570465088,-0.5315127968788147,9.804255485534668,6.591796875,-0.67138671875,0.823974609375
1.2424999,0.7433996200561523,-0.5530605912208557,9.716867446899414,-6.134033203125,-0.518798828125,0.48828125
1.2474999000000002,0.8517372608184814,-0.6254851818084717,9.57860279083252,2.716064453125,0.335693359375,-2.593994140625
1.2524999,0.8505401611328125,-0.5201402902603149,9.864110946655273,2.62451171875,-0.67138671875,2.44140625
1.2574999000000002,0.8331822156906128,-0.6727706789970398,9.712677955627441,-6.591796875,0.335693359375,-1.617431640625
1.2624999000000001,0.9373299479484558,-0.6260837316513062,9.731232643127441,6.561279296875,-0.213623046875,-0.946044921875
1.2674999000000002,0.861314058303833,-0.5327098965644836,9.865307807922363,6.317138671875,0,1.312255859375
1.2724999000000001,0.7332242727279663,-0.5285200476646423,9.745597839355469,-6.40869140625,0.06103515625,0.67138671875
1.2774999000000002,0.8415619134902954,-0.5931634902954102,9.577404975891113,2.5634765625,1.15966796875,-2.44140625
1.2824999000000001,0.8271966576576233,-0.6374561786651611,9.687539100646973,-6.439208984375,0.335693359375,-1.434326171875
1.2874999,0.9379284977912903,-0.6218938827514648,9.709685325622559,6.500244140625,0.396728515625,-1.03759765625
1.2924999000000001,0.8523358106613159,-0.5859808921813965,9.972448348999023,-2.3193359375,-0.91552734375,2.197265625
1.2974999,0.8547300100326538,-0.6721721291542053,9.624691009521484,-3.082275390625,0.42724609375,-3.021240234375
1.3024999000000002,0.8810662031173706,-0.578798234462738,9.874286651611328,6.195068359375,-0.1220703125,1.068115234375
1.3074999,0.778714120388031,-0.5554547905921936,9.798270225524902,-6.28662109375,-0.152587890625,0.91552734375
1.3124999000000002,0.8409633636474609,-0.6416460275650024,9.59177017211914,1.617431640625,0.79345703125,-2.685546875
1.3174999,0.7823054194450378,-0.6308721303939819,9.6989107131958,-7.01904296875,0.732421875,-1.068115234375
1.3224999000000002,0.8810662031173706,-0.6057330369949341,9.667187690734863,5.584716796875,0.732421875,-1.708984375
1.3274999,0.8271966576576233,-0.5758054852485657,9.979631423950195,-0.885009765625,-0.732421875,2.471923828125
1.3324999000000002,0.8529343605041504,-0.6703764796257019,9.724648475646973,-4.058837890625,0.79345703125,-2.532958984375
1.3374999,0.9229647517204285,-0.578798234462738,9.892242431640625,6.439208984375,-0.54931640625,0.335693359375
1.3424999000000002,0.8403648138046265,-0.5512649416923523,9.926959037780762,-5.157470703125,-0.48828125,1.46484375
1.3474999,0.8786720037460327,-0.5913678407669067,9.596558570861816,0.30517578125,0.91552734375,-2.899169921875
1.3524999000000002,0.8762778043746948,-0.4644751250743866,9.797672271728516,5.035400390625,-0.762939453125,1.708984375
1.3574999,0.7733271718025208,-0.5608417391777039,9.679757118225098,-6.622314453125,0.030517578125,-0.30517578125
1.3624999000000002,0.8768763542175293,-0.6057330369949341,9.569025993347168,4.180908203125,0.6103515625,-2.01416015625
1.3674999,0.8301894664764404,-0.5626373887062073,9.920374870300293,0.8544921875,-0.732421875,2.227783203125
1.3724999000000002,0.8379706144332886,-0.6919242739677429,9.678560256958008,-5.859375,0.335693359375,-1.953125
1.3774999,0.8541314601898193,-0.5321113467216492,9.81143856048584,6.195068359375,-0.48828125,1.0986328125
1.3824999000000002,0.7529764175415039,-0.5410895943641663,9.746196746826172,-5.7373046875,-0.457763671875,0.762939453125
1.3874999000000001,0.8319851160049438,-0.6063315868377686,9.55705451965332,1.708984375,0.9765625,-2.86865234375
1.3924999000000002,0.8481459617614746,-0.4950011968612671,9.868300437927246,3.5400390625,-1.03759765625,2.105712890625
1.3974999000000001,0.7972691655158997,-0.6189011335372925,9.716867446899414,-6.591796875,-0.213623046875,-0.579833984375
1.4024999000000002,0.9002198576927185,-0.6224924325942993,9.690531730651855,5.340576171875,0.518798828125,-1.800537109375
1.4074999000000001,0.8577227592468262,-0.5805938839912415,9.996390342712402,-0.030517578125,-0.6103515625,2.25830078125
1.4124999,0.871489405632019,-0.6925228238105774,9.741408348083496,-4.974365234375,1.0986328125,-2.166748046875
1.4174999000000001,0.933738648891449,-0.6015431880950928,9.84256362915039,6.34765625,-0.152587890625,-0.152587890625
1.4224999,0.8541314601898193,-0.5650315880775452,9.929951667785645,-3.662109375,-0.946044921875,1.77001953125
1.4274999000000002,0.8571242094039917,-0.4944026470184326,9.756970405578613,5.615234375,-0.732421875,1.190185546875
1.4324999,0.7410054206848145,-0.5303156971931458,9.704896926879883,-6.04248046875,-0.42724609375,0.885009765625
1.4374999000000002,0.8271966576576233,-0.6027402877807617,9.551667213439941,1.953125,0.6103515625,-2.471923828125
1.4424999,0.9181763529777527,-0.6362590789794922,9.71926212310791,4.791259765625,0.54931640625,-1.678466796875
1.4474999000000002,0.8756792545318604,-0.5877765417098999,10.021530151367188,-0.06103515625,-0.67138671875,2.349853515625
1.4524999,0.882861852645874,-0.6859387755393982,9.75517463684082,-5.035400390625,0.732421875,-2.105712890625
1.4574999000000002,0.9331400990486145,-0.6153098344802856,9.819219589233398,6.195068359375,0.030517578125,-0.457763671875
1.4624999,0.8451532125473022,-0.568622887134552,9.950302124023438,-2.899169921875,-0.6103515625,1.922607421875
1.4674999000000002,0.8331822156906128,-0.6350619792938232,9.586981773376465,-2.349853515625,0.732421875,-2.8076171875
1.4724999,0.8487445116043091,-0.5345055460929871,9.77133560180664,6.134033203125,-0.244140625,0.640869140625
1.4774999000000002,0.8277952671051025,-0.6003460884094238,9.531316757202148,0.79345703125,0.8544921875,-2.655029296875
1.4824999,0.8571242094039917,-0.48482584953308105,9.806051254272461,4.425048828125,-0.518798828125,1.800537109375
1.4874999000000002,0.7972691655158997,-0.5536591410636902,9.713275909423828,-6.378173828125,0.091552734375,-0.274658203125
1.4924999,0.8900445103645325,-0.5997475385665894,9.636661529541016,3.692626953125,0.67138671875,-2.166748046875
1.4974999000000002,0.861314058303833,-0.535702645778656,9.923966407775879,1.64794921875,-0.3662109375,2.197265625
1.5024999,0.8212111592292786,-0.6643909811973572,9.726444244384766,-5.828857421875,0.640869140625,-1.46484375
1.5074999000000002,0.8990227580070496,-0.6344634294509888,9.715670585632324,5.584716796875,0.732421875,-1.068115234375
1.5124999000000001,0.8236053586006165,-0.6171054840087891,9.964069366455078,-1.373291015625,-0.457763671875,2.105712890625
1.5174999000000002,0.8409633636474609,-0.6775590777397156,9.707889556884766,-3.936767578125,0.8544921875,-2.288818359375
1.5224999000000001,0.8918401598930359,-0.5937620401382446,9.84495735168457,6.500244140625,-0.213623046875,0
1.5274999000000002,0.8224082589149475,-0.5560533404350281,9.934141159057617,-4.058837890625,-0.30517578125,1.617431640625
1.5324999000000001,0.8212111592292786,-0.5919663906097412,9.59715747833252,-1.617431640625,0.732421875,-2.685546875
1.5374999000000003,0.8271966576576233,-0.6027402877807617,9.566033363342285,1.434326171875,0.54931640625,-2.74658203125
1.5424999000000001,0.8595184087753296,-0.49799394607543945,9.86889934539795,4.058837890625,-0.732421875,1.739501953125
1.5474999,0.8056488633155823,-0.5776011347770691,9.734225273132324,-6.195068359375,-0.1220703125,-0.42724609375
1.5524999000000002,0.9038111567497253,-0.619499683380127,9.674968719482422,3.692626953125,0.335693359375,-2.105712890625
1.5574999,0.8774749040603638,-0.545877993106842,9.928155899047852,1.312255859375,-0.701904296875,2.25830078125
1.5624999000000002,0.8463503122329712,-0.6572083830833435,9.742605209350586,-5.7373046875,0.274658203125,-1.312255859375
1.5674999,0.9032126069068909,-0.6416460275650024,9.718064308166504,5.55419921875,0.091552734375,-1.251220703125
1.5724999000000002,0.7739257216453552,-0.5847837924957275,9.90241813659668,-0.213623046875,-0.732421875,1.15966796875
1.5774999,0.5985504388809204,-0.9522937536239624,9.41639518737793,-1.129150390625,0.885009765625,-9.368896484375
1.5824999000000002,0.42616790533065796,-1.292868971824646,9.107542991638184,15.777587890625,-0.54931640625,1.220703125
1.5874999,-0.10115502029657364,-1.459265947341919,8.331223487854004,24.23095703125,-0.3662109375,-5.4931640625
1.5924999000000002,0.09516951441764832,-0.9738415479660034,6.330867767333984,-5.828857421875,-1.129150390625,2.166748046875
1.5974999,0.6045359373092651,-0.05985504388809204,5.935225963592529,102.11181640625,-4.119873046875,-28.80859375
1.6024999000000002,0.5321113467216492,0.3728969097137451,5.208585739135742,78.643798828125,5.584716796875,-1.983642578125
1.6074999,0.33518823981285095,1.6950948238372803,4.902127742767334,11.566162109375,12.176513671875,16.510009765625
1.6124999000000002,0.5793967843055725,1.8531121015548706,4.993107795715332,36.0107421875,-0.762939453125,8.514404296875
1.6174999,-0.013168109580874443,2.8790276050567627,5.543774127960205,39.337158203125,-6.28662109375,-6.40869140625
1.6224999000000002,0.21009120345115662,3.092710018157959,5.884947776794434,13.153076171875,4.791259765625,3.41796875
1.6274999,0.2603694200515747,3.3177649974823,6.880337238311768,-9.735107421875,5.615234375,13.336181640625
1.6324999000000002,0.45669397711753845,3.714603900909424,7.531559944152832,-3.326416015625,3.265380859375,0.640869140625
1.6374999000000001,1.0606313943862915,3.775057554244995,7.847594738006592,-46.7529296875,4.39453125,41.778564453125
1.6424999000000002,1.2737152576446533,4.071938514709473,7.870938301086426,-74.066162109375,12.451171875,42.54150390625
1.6474999000000001,0.9217676520347595,2.4229321479797363,8.988431930541992,-100.738525390625,-18.402099609375,11.199951171875
1.6524999000000002,0.657806932926178,0.8086416125297546,11.021707534790039,-72.69287109375,-38.909912109375,3.90625
1.6574999000000001,0.5811924338340759,-2.0171148777008057,12.551003456115723,-28.717041015625,-29.632568359375,-4.08935546875
1.6624999000000003,0.7541735172271729,-4.351461410522461,13.272256851196289,6.378173828125,-12.542724609375,6.195068359375
1.6674999000000001,0.9463081955909729,-6.09324312210083,12.218210220336914,13.946533203125,-4.69970703125,7.9345703125
1.6724999,1.3335703611373901,-6.4398040771484375,10.113107681274414,36.2548828125,5.0048828125,0.518798828125
1.6774999000000002,1.5298948287963867,-5.4659624099731445,8.470685958862305,25.81787109375,15.289306640625,-0.762939453125
1.6824999,0.557250440120697,1.7411831617355347,10.560823440551758,-8.11767578125,3.997802734375,7.965087890625
1.6874999000000002,0.19452889263629913,1.4071919918060303,10.065223693847656,-5.92041015625,-2.25830078125,-0.54931640625
1.6924999,-0.06344634294509888,0.8750807046890259,10.019135475158691,-5.767822265625,-8.056640625,1.77001953125
1.6974999000000002,-0.10354922711849213,0.050876785069704056,9.710283279418945,-13.73291015625,-10.68115234375,-4.058837890625
1.7024999,0.17657238245010376,-0.6171054840087891,9.752182006835938,4.5166015625,-11.993408203125,-1.03759765625
1.7074999000000002,0.46627077460289,-1.0426748991012573,9.873687744140625,-5.67626953125,-6.927490234375,2.288818359375
1.7124999,0.9804255962371826,-1.400607943534851,9.609726905822754,4.364013671875,-1.617431640625,-2.25830078125
1.7174999000000002,1.3138182163238525,-1.1965023279190063,9.834781646728516,4.974365234375,2.5634765625,3.570556640625
1.7224999,1.4987702369689941,-1.184531331062317,9.596558570861816,-4.5166015625,6.011962890625,-2.9296875
1.7274999000000002,1.5729905366897583,-0.7972691655158997,9.77791976928711,9.3994140625,6.561279296875,0.030517578125
1.7324999,1.2372037172317505,-0.5991489887237549,9.835380554199219,-6.04248046875,4.730224609375,1.28173828125
1.7374999000000002,1.0217255353927612,-0.4842272996902466,9.642048835754395,3.936767578125,3.72314453125,-2.5634765625
1.7424999,0.4082113802433014,-0.4704606235027313,9.594164848327637,-5.43212890625,-2.166748046875,-3.0517578125
1.7474999000000002,0.4465186297893524,-0.406415730714798,9.794678688049316,6.65283203125,-4.241943359375,0.67138671875
1.7524999,0.3878606855869293,-0.4471171796321869,9.728240013122559,-8.60595703125,-4.33349609375,0.762939453125
1.7574999000000002,0.7146692276000977,-0.5159504413604736,9.540295600891113,2.349853515625,-2.01416015625,-2.410888671875
1.7624999000000001,0.8846575021743774,-0.4728548228740692,9.869498252868652,-0.30517578125,-1.5869140625,3.2958984375
1.7674999000000002,1.037886381149292,-0.6715735793113708,9.515155792236328,-5.035400390625,1.5869140625,-2.8076171875
1.7724999000000001,1.212663173675537,-0.6751648783683777,9.782109260559082,7.99560546875,2.197265625,1.03759765625
1.7774999000000002,1.0504560470581055,-0.6703764796257019,9.692327499389648,-5.706787109375,2.044677734375,0.335693359375
1.7824999000000001,1.0791864395141602,-0.74040687084198,9.5408935546875,5.157470703125,2.74658203125,-2.74658203125
1.7874999000000003,0.9050082564353943,-0.5500678420066833,9.870096206665039,1.678466796875,0.18310546875,3.021240234375
1.7924999000000001,0.768538773059845,-0.6619967818260193,9.553462982177734,-4.974365234375,0.67138671875,-2.74658203125
1.7974999,0.7811083197593689,-0.5225345492362976,9.816226959228516,6.744384765625,-0.701904296875,0.9765625
1.8024999000000002,0.7499836683273315,-0.5536591410636902,9.59835433959961,2.716064453125,-0.701904296875,-2.62451171875
1.8074999,0.7529764175415039,-0.44532153010368347,9.909002304077148,0.54931640625,-1.89208984375,2.9296875
1.8124999000000002,0.8062474131584167,-0.7068880796432495,9.619902610778809,-5.43212890625,-0.18310546875,-2.62451171875
1.8174999,0.973242998123169,-0.6506243348121643,9.821614265441895,8.23974609375,0.030517578125,0.54931640625
1.8224999000000002,0.884058952331543,-0.7098808288574219,9.7791166305542,-5.92041015625,0.396728515625,1.068115234375
1.8274999,0.9959878921508789,-0.6925228238105774,9.57979965209961,3.265380859375,1.739501953125,-2.960205078125
1.8324999000000002,0.9229647517204285,-0.5351040959358215,9.872490882873535,2.5634765625,-0.06103515625,3.0517578125
1.8374999,0.8631097078323364,-0.6368576288223267,9.66539192199707,-6.16455078125,0.91552734375,-2.0751953125
1.8424999000000002,0.884058952331543,-0.536899745464325,9.803058624267578,7.01904296875,0.1220703125,-0.091552734375
1.8474999,0.7332242727279663,-0.5273229479789734,9.884461402893066,-5.645751953125,-1.129150390625,1.373291015625
1.8524999000000002,0.7846996188163757,-0.6218938827514648,9.57201862335205,0.8544921875,-0.335693359375,-3.204345703125
1.8574999,0.7745242714881897,-0.46567222476005554,9.822212219238281,3.47900390625,-1.373291015625,2.471923828125
1.8624999000000002,0.9205705523490906,-0.6619967818260193,9.575610160827637,-0.9765625,1.15966796875,-3.173828125
1.8674999,0.922366201877594,-0.5105634927749634,9.898826599121094,5.645751953125,-0.152587890625,2.0751953125
1.8724999000000002,0.8224082589149475,-0.6254851818084717,9.740809440612793,-6.988525390625,0.42724609375,-0.701904296875
1.8774999,0.872686505317688,-0.5841852426528931,9.682151794433594,5.9814453125,0.579833984375,-1.708984375
1.8824999000000002,0.7978677153587341,-0.5632359385490417,9.960477828979492,-1.64794921875,-0.9765625,2.74658203125
1.8874999000000001,0.7601590156555176,-0.6446388363838196,9.579200744628906,-3.72314453125,0.67138671875,-3.021240234375
1.8924999000000002,0.8331822156906128,-0.5506663918495178,9.837775230407715,6.89697265625,-0.152587890625,1.312255859375
1.8974999000000001,0.7266402244567871,-0.5776011347770691,9.732429504394531,-6.9580078125,-0.244140625,0.54931640625
1.9024999000000002,0.8774749040603638,-0.6272808313369751,9.576208114624023,3.662109375,0.48828125,-2.777099609375
1.9074999000000001,0.8589198589324951,-0.52552729845047,9.891045570373535,1.983642578125,-0.762939453125,2.593994140625
1.9124999000000003,0.849941611289978,-0.5985504388809204,9.871294021606445,-5.096435546875,-0.274658203125,1.77001953125
1.9174999000000001,0.872686505317688,-0.6536170840263367,9.556455612182617,0,0.518798828125,-3.082275390625
1.9224999,0.8307880163192749,-0.4884171485900879,9.840168952941895,4.302978515625,-0.640869140625,2.25830078125
1.9274999000000002,0.7601590156555176,-0.608127236366272,9.651625633239746,-7.50732421875,0.030517578125,-0.762939453125
1.9324999,0.8439561128616333,-0.5740098357200623,9.651625633239746,5.828857421875,0.091552734375,-1.40380859375
1.9374999000000002,0.7811083197593689,-0.5626373887062073,9.953893661499023,-1.678466796875,-1.03759765625,2.288818359375
1.9424999,0.7757213711738586,-0.6715735793113708,9.606135368347168,-3.509521484375,0.30517578125,-2.9296875
1.9474999000000002,0.8553285598754883,-0.5835866928100586,9.88745403289795,6.683349609375,-0.152587890625,1.190185546875
1.9524999,0.7547720670700073,-0.6087257862091064,9.780912399291992,-6.40869140625,-0.3662109375,0.91552734375
1.9574999000000002,0.8720879554748535,-0.6404489278793335,9.623494148254395,2.86865234375,0.79345703125,-2.62451171875
1.9624999,0.862511157989502,-0.5171475410461426,9.898228645324707,2.471923828125,-0.823974609375,2.288818359375
1.9674999000000002,0.8607155084609985,-0.6613982319831848,9.715670585632324,-6.500244140625,0.3662109375,-1.89208984375
1.9724999,0.9391255974769592,-0.5913678407669067,9.754576683044434,6.622314453125,-0.030517578125,-0.640869140625
1.9774999000000002,0.8738836050033569,-0.5913678407669067,9.9401273727417,-3.326416015625,-1.129150390625,2.01416015625
1.9824999,0.838569164276123,-0.6272808313369751,9.586981773376465,-1.5869140625,0.518798828125,-3.021240234375
1.9874999000000002,0.8906430602073669,-0.5117605924606323,9.828198432922363,5.889892578125,-0.213623046875,1.739501953125
1.9924999,0.7469909191131592,-0.547075092792511,9.718663215637207,-6.805419921875,0.030517578125,0.1220703125
1.9974999000000002,0.8786720037460327,-0.5847837924957275,9.5809965133667,3.936767578125,0.9765625,-2.288818359375
2.0024999,0.8325836658477783,-0.5386953949928284,9.926959037780762,1.15966796875,-0.762939453125,2.38037109375
2.0074999,0.8571242094039917,-0.6937199234962463,9.693524360656738,-5.43212890625,0.518798828125,-2.166748046875
2.0124999000000003,0.9187749028205872,-0.6260837316513062,9.816226959228516,6.591796875,0.18310546875,-0.030517578125
2.0174999000000002,0.8547300100326538,-0.6242880821228027,9.932345390319824,-4.0283203125,-0.457763671875,1.739501953125
2.0224999,0.8391677141189575,-0.6380547285079956,9.598953247070312,-0.8544921875,0.67138671875,-3.173828125
2.0274999,0.8595184087753296,-0.5111620426177979,9.817423820495605,5.37109375,-0.518798828125,1.861572265625
2.0324999000000004,0.862511157989502,-0.5919663906097412,9.570222854614258,4.33349609375,0.335693359375,-2.0751953125
2.0374999000000003,0.8254010081291199,-0.5380968451499939,9.926959037780762,0.885009765625,-0.885009765625,2.532958984375
2.0424999,0.8553285598754883,-0.7152677774429321,9.68574333190918,-5.31005859375,0.54931640625,-2.25830078125
2.0474999,0.9253589510917664,-0.6362590789794922,9.84376049041748,7.080078125,-0.06103515625,-0.335693359375
2.0524999,0.861314058303833,-0.629675030708313,9.962273597717285,-4.119873046875,-0.518798828125,1.739501953125
2.0574999000000003,0.839766263961792,-0.6338648796081543,9.64564037322998,-0.79345703125,0.6103515625,-2.960205078125
2.0624999,0.8786720037460327,-0.497395396232605,9.859322547912598,5.218505859375,-0.3662109375,1.52587890625
2.0674999,0.7350199222564697,-0.5225345492362976,9.744999885559082,-6.89697265625,0.030517578125,-0.030517578125
2.0724999,0.8589198589324951,-0.5764040350914001,9.612719535827637,4.058837890625,0.48828125,-2.197265625
2.0774999000000003,0.8176198601722717,-0.517746090888977,9.91977596282959,1.46484375,-0.91552734375,2.25830078125
2.0824999,0.8271966576576233,-0.6254851818084717,9.600150108337402,2.8076171875,0.518798828125,-2.685546875
2.0874999,0.8493430614471436,-0.5345055460929871,9.869498252868652,3.204345703125,-0.79345703125,1.953125
2.0924999,0.8343793153762817,-0.6536170840263367,9.700706481933594,-6.195068359375,0.30517578125,-1.220703125
2.0974999000000003,0.9415197968482971,-0.606930136680603,9.713874816894531,5.9814453125,0.152587890625,-1.0986328125
2.1024999,0.8804676532745361,-0.579995334148407,9.962871551513672,-1.8310546875,-0.518798828125,2.3193359375
2.1074999,0.8607155084609985,-0.6739677786827087,9.692925453186035,-3.570556640625,0.457763671875,-2.593994140625
2.1124999,0.9038111567497253,-0.5997475385665894,9.873687744140625,6.622314453125,-0.579833984375,0.42724609375
2.1174999000000003,0.7954735159873962,-0.5979518890380859,9.890447616577148,-4.8828125,-0.3662109375,1.03759765625
2.1224999,0.8271966576576233,-0.5201402902603149,9.892841339111328,0.885009765625,-0.518798828125,2.471923828125
2.1274999,0.8427590131759644,-0.6703764796257019,9.652822494506836,-5.279541015625,0.335693359375,-2.01416015625
2.1324999,0.9103952050209045,-0.6374561786651611,9.75278091430664,6.28662109375,-0.091552734375,-0.823974609375
2.1374999000000003,0.8553285598754883,-0.6242880821228027,9.936535835266113,-2.9296875,-0.48828125,1.8310546875
2.1424999000000002,0.8319851160049438,-0.6943184733390808,9.59715747833252,-2.38037109375,0.518798828125,-2.62451171875
2.1474999,0.871489405632019,-0.5877765417098999,9.847352027893066,6.103515625,-0.54931640625,0.823974609375
2.1524999,0.7649474143981934,-0.5758054852485657,9.79647445678711,-5.889892578125,-0.274658203125,0.6103515625
2.1574999000000004,0.8337807655334473,-0.6290764808654785,9.589376449584961,1.40380859375,0.732421875,-2.50244140625
2.1624999000000003,0.9421183466911316,-0.6153098344802856,9.78869342803955,6.011962890625,0.06103515625,-0.54931640625
2.1674999,0.8762778043746948,-0.5961562395095825,9.959878921508789,-3.23486328125,-0.42724609375,1.8310546875
2.1724999,0.8409633636474609,-0.6751648783683777,9.610923767089844,-2.288818359375,0.67138671875,-2.685546875
2.1774999000000004,0.8619126081466675,-0.5758054852485657,9.840767860412598,5.92041015625,-0.3662109375,0.732421875
2.1824999000000003,0.7511807680130005,-0.5770025849342346,9.806051254272461,-5.43212890625,-0.274658203125,0.885009765625
2.1874999,0.8068459630012512,-0.6218938827514648,9.588777542114258,0.946044921875,0.48828125,-2.777099609375
2.1924999,0.8301894664764404,-0.5003881454467773,9.865307807922363,4.21142578125,-0.67138671875,1.89208984375
2.1974999,0.7649474143981934,-0.5620388388633728,9.727043151855469,-6.256103515625,0.06103515625,-0.335693359375
2.2024999000000003,0.8768763542175293,-0.5811924338340759,9.654618263244629,3.753662109375,0.518798828125,-2.166748046875
2.2074999,0.9187749028205872,-0.6206967830657959,9.747992515563965,5.950927734375,0,-1.03759765625
2.2124999,0.8529343605041504,-0.6009446382522583,9.945513725280762,-1.708984375,-0.823974609375,1.89208984375
2.2174999,0.8409633636474609,-0.690727174282074,9.697713851928711,-3.448486328125,0.335693359375,-2.349853515625
2.2224999000000003,0.8774749040603638,-0.6153098344802856,9.84256362915039,6.439208984375,-0.396728515625,0.3662109375
2.2274999,0.7990648150444031,-0.5895721912384033,9.897629737854004,-4.241943359375,-0.6103515625,1.46484375
2.2324999,0.7972691655158997,-0.6224924325942993,9.59476375579834,-0.396728515625,0.213623046875,-2.899169921875
2.2374999,0.8475474119186401,-0.5099649429321289,9.786897659301758,5.584716796875,-0.457763671875,1.251220703125
2.2424999000000003,0.7380126714706421,-0.5374982953071594,9.695918083190918,-6.195068359375,-0.030517578125,0.54931640625
2.2474999,0.8307880163192749,-0.6141127347946167,9.551667213439941,2.044677734375,0.732421875,-2.44140625
2.2524999,0.8493430614471436,-0.5374982953071594,9.830592155456543,3.23486328125,-0.946044921875,1.708984375
2.2574999,0.811634361743927,-0.628477931022644,9.710283279418945,-6.195068359375,0.18310546875,-0.762939453125
2.2624999000000003,0.9415197968482971,-0.5931634902954102,9.803657531738281,6.04248046875,-0.244140625,-0.9765625
2.2674999000000002,0.8768763542175293,-0.5626373887062073,9.961674690246582,-2.227783203125,-0.518798828125,1.953125
2.2724999,0.8786720037460327,-0.6512228846549988,9.718663215637207,-3.2958984375,0.48828125,-2.38037109375
2.2774999,0.8990227580070496,-0.5859808921813965,9.855731010437012,6.195068359375,-0.518798828125,0.335693359375
2.2824999000000004,0.8146271109580994,-0.5793967843055725,9.906009674072266,-4.241943359375,-0.48828125,1.495361328125
2.2874999000000003,0.800261914730072,-0.6260837316513062,9.598953247070312,-0.42724609375,0.335693359375,-2.716064453125
2.2924999,0.8361749649047852,-0.5249287486076355,9.783307075500488,5.55419921875,-0.67138671875,1.15966796875
2.2974999,0.7296329736709595,-0.5500678420066833,9.710283279418945,-6.011962890625,0.1220703125,0.67138671875
2.3024999000000004,0.8146271109580994,-0.6123170852661133,9.551069259643555,1.708984375,0.823974609375,-2.50244140625
2.3074999000000003,0.838569164276123,-0.5285200476646423,9.840168952941895,3.41796875,-0.42724609375,1.708984375
2.3124999,0.7876923680305481,-0.595557689666748,9.733028411865234,-5.9814453125,0.030517578125,-0.42724609375
2.3174999,0.8852560520172119,-0.6171054840087891,9.675567626953125,4.0283203125,0.3662109375,-1.953125
2.3224999,0.8469488620758057,-0.6482301354408264,9.71926212310791,-5.584716796875,0.42724609375,-1.434326171875
2.3274999000000003,0.9085995554924011,-0.6171054840087891,9.720458984375,5.43212890625,0.335693359375,-1.0986328125
2.3324999,0.8541314601898193,-0.5901707410812378,9.932345390319824,-1.007080078125,-0.579833984375,2.25830078125
2.3374999,0.8427590131759644,-0.6811503767967224,9.684545516967773,-4.241943359375,0.48828125,-2.105712890625
2.3424999,0.8906430602073669,-0.6200982332229614,9.77672290802002,5.92041015625,-0.213623046875,-0.54931640625
2.3474999000000003,0.8325836658477783,-0.6051344871520996,9.891045570373535,-3.23486328125,-0.518798828125,1.89208984375
2.3524999,0.8463503122329712,-0.6542156338691711,9.597756385803223,-2.105712890625,0.518798828125,-2.3193359375
2.3574999,0.882861852645874,-0.5680243372917175,9.780313491821289,5.889892578125,-0.18310546875,0.42724609375
2.3624999,0.8122329115867615,-0.5524620413780212,9.815628051757812,-4.913330078125,-0.030517578125,1.220703125
2.3674999000000003,0.8583213090896606,-0.5147533416748047,9.825204849243164,4.974365234375,-0.3662109375,1.0986328125
2.3724999,0.7577648162841797,-0.5291185975074768,9.73781681060791,-5.67626953125,-0.1220703125,0.396728515625
2.3774999,0.8319851160049438,-0.6057330369949341,9.575610160827637,2.105712890625,0.274658203125,-2.532958984375
2.3824999,0.8517372608184814,-0.5237316489219666,9.82640266418457,3.35693359375,-0.42724609375,1.922607421875
2.3874999000000003,0.7894880175590515,-0.5889736413955688,9.703699111938477,-6.134033203125,0.335693359375,-0.42724609375
2.3924999000000002,0.8864531517028809,-0.619499683380127,9.652822494506836,3.90625,0.335693359375,-1.983642578125
2.3974999,0.872686505317688,-0.5500678420066833,9.898228645324707,1.52587890625,-0.6103515625,2.0751953125
2.4024999,0.8403648138046265,-0.6470330357551575,9.72285270690918,-5.79833984375,0.213623046875,-1.251220703125
2.4074999000000004,0.9062053561210632,-0.6446388363838196,9.715670585632324,5.06591796875,0.244140625,-1.40380859375
2.4124999000000003,0.8631097078323364,-0.6063315868377686,9.97484302520752,-0.06103515625,-0.6103515625,1.983642578125
2.4174999,0.8607155084609985,-0.6613982319831848,9.730634689331055,-4.608154296875,0.518798828125,-1.739501953125
2.4224999,0.9205705523490906,-0.6218938827514648,9.816825866699219,5.889892578125,0.091552734375,-0.54931640625
2.4274999000000004,0.8559271097183228,-0.6655880808830261,9.683947563171387,-3.41796875,0.3662109375,-2.288818359375
2.4324999000000003,0.8780734539031982,-0.606930136680603,9.813234329223633,6.04248046875,-0.3662109375,0.091552734375
2.4374999,0.812831461429596,-0.5823895931243896,9.891644477844238,-3.5400390625,-0.396728515625,1.46484375
2.4424999,0.8212111592292786,-0.6314706802368164,9.623494148254395,-1.5869140625,0.457763671875,-2.655029296875
2.4474999,0.8678981065750122,-0.5416881442070007,9.814431190490723,5.889892578125,-0.640869140625,0.579833984375
2.4524999000000003,0.7876923680305481,-0.5249287486076355,9.79647445678711,-5.0048828125,-0.335693359375,1.129150390625
2.4574999,0.8212111592292786,-0.596754789352417,9.615114212036133,0.30517578125,0.518798828125,-2.593994140625
2.4624999,0.872686505317688,-0.5123591423034668,9.841365814208984,4.69970703125,-0.18310546875,1.251220703125
2.4674999,0.7876923680305481,-0.5291185975074768,9.77133560180664,-5.828857421875,0.1220703125,0.30517578125
2.4724999000000003,0.8529343605041504,-0.6159083843231201,9.611522674560547,2.13623046875,0.152587890625,-2.410888671875
2.4774999,0.8678981065750122,-0.5159504413604736,9.872490882873535,3.5400390625,-0.274658203125,1.617431640625
2.4824999,0.8236053586006165,-0.608127236366272,9.75517463684082,-5.79833984375,0.396728515625,-0.946044921875
2.4874999,0.9062053561210632,-0.6470330357551575,9.712079048156738,4.791259765625,-0.1220703125,-1.556396484375
2.4924999000000003,0.8732850551605225,-0.5524620413780212,9.95090103149414,0.67138671875,-0.6103515625,2.166748046875
2.4974999,0.8475474119186401,-0.6386532783508301,9.707290649414062,-5.218505859375,0.457763671875,-1.495361328125
2.5024999,0.889445960521698,-0.6206967830657959,9.747393608093262,5.157470703125,0.30517578125,-1.190185546875
2.5074999,0.8457517623901367,-0.5752069354057312,9.954492568969727,-0.91552734375,-0.274658203125,2.166748046875
2.5124999000000003,0.8367735147476196,-0.6494272351264954,9.700108528137207,-4.39453125,0.67138671875,-1.77001953125
2.5174999000000002,0.8906430602073669,-0.6302735805511475,9.807249069213867,5.828857421875,0.091552734375,-0.67138671875
2.5224999,0.8349778652191162,-0.5883750915527344,9.941324234008789,-2.532958984375,-0.213623046875,1.89208984375
2.5274999,0.8487445116043091,-0.6871358752250671,9.676166534423828,-3.204345703125,0.67138671875,-1.983642578125
2.5324999000000004,0.884058952331543,-0.6051344871520996,9.816825866699219,5.67626953125,0.030517578125,-0.1220703125
2.5374999000000003,0.8744821548461914,-0.5291185975074768,9.797672271728516,5.706787109375,-0.518798828125,0.6103515625
2.5424999,0.7960720658302307,-0.5225345492362976,9.781511306762695,-4.425048828125,-0.579833984375,0.9765625
2.5474999,0.7930793166160583,-0.6027402877807617,9.575610160827637,-0.152587890625,0.396728515625,-2.5634765625
2.5524999000000004,0.8367735147476196,-0.5249287486076355,9.791088104248047,4.974365234375,-0.335693359375,1.15966796875
2.5574999000000003,0.7595604658126831,-0.5404910445213318,9.767744064331055,-5.4931640625,-0.030517578125,0.48828125
2.5624999,0.8331822156906128,-0.6093243360519409,9.610325813293457,1.129150390625,0.518798828125,-2.5634765625
2.5674999,0.8966285586357117,-0.5015852451324463,9.858125686645508,4.486083984375,-0.518798828125,1.434326171875
2.5724999,0.8236053586006165,-0.5452794432640076,9.771934509277344,-5.950927734375,0.244140625,0.274658203125
2.5774999000000003,0.8774749040603638,-0.6153098344802856,9.633070945739746,2.349853515625,0.457763671875,-2.532958984375
2.5824999,0.8684966564178467,-0.5267243981361389,9.867103576660156,3.41796875,-0.732421875,1.5869140625
2.5874999,0.7852981686592102,-0.6105214357376099,9.730634689331055,-5.859375,0.06103515625,-0.244140625
2.5924999,0.8265981078147888,-0.6350619792938232,9.747992515563965,-5.55419921875,-0.152587890625,-0.67138671875
2.5974999000000003,0.9181763529777527,-0.6488286852836609,9.701904296875,4.57763671875,0.091552734375,-1.678466796875
2.6024999,0.8990227580070496,-0.5740098357200623,9.946112632751465,1.40380859375,-0.67138671875,1.77001953125
2.6074999,0.8631097078323364,-0.646434485912323,9.739013671875,-5.218505859375,0.54931640625,-1.312255859375
2.6124999,0.9044097065925598,-0.6350619792938232,9.734225273132324,4.69970703125,0.152587890625,-1.15966796875
2.6174999000000003,0.8649053573608398,-0.5847837924957275,9.97065258026123,-0.030517578125,-0.42724609375,2.166748046875
2.6224999,0.8313865661621094,-0.6422445774078369,9.695320129394531,-4.913330078125,0.579833984375,-1.556396484375
2.6274999,0.884058952331543,-0.6135141849517822,9.790489196777344,5.37109375,-0.091552734375,-1.068115234375
2.6324999,0.8469488620758057,-0.5722141861915588,9.950302124023438,-0.946044921875,-0.54931640625,1.922607421875
2.6374999000000003,0.8415619134902954,-0.6302735805511475,9.707290649414062,-4.0283203125,0.396728515625,-1.8310546875
2.6424999000000002,0.8912416100502014,-0.6039373874664307,9.801262855529785,5.584716796875,-0.091552734375,-0.6103515625
2.6474999,0.8343793153762817,-0.6685808300971985,9.668983459472656,-3.326416015625,0.396728515625,-2.01416015625
2.6524999,0.8601169586181641,-0.6117185354232788,9.771934509277344,5.9814453125,-0.3662109375,-0.274658203125
2.6574999000000004,0.7984662652015686,-0.5997475385665894,9.86770248413086,-2.960205078125,-0.579833984375,1.556396484375
2.6624999000000003,0.828393816947937,-0.6542156338691711,9.64564037322998,-2.227783203125,0.54931640625,-2.166748046875
2.6674999,0.8774749040603638,-0.5566518902778625,9.787496566772461,5.55419921875,-0.152587890625,0.42724609375
2.6724999,0.8337807655334473,-0.5321113467216492,9.853935241699219,-3.814697265625,-0.30517578125,1.373291015625
2.6774999000000004,0.8565256595611572,-0.5985504388809204,9.621698379516602,-1.64794921875,0.396728515625,-2.593994140625
2.6824999000000003,0.7870938181877136,-0.8271966576576233,9.547477722167969,6.40869140625,-0.579833984375,-2.50244140625
2.6874999,0.8259995579719543,-1.6316484212875366,9.045293807983398,-0.030517578125,0.457763671875,-13.458251953125
2.6924999,0.74040687084198,-1.698686122894287,7.950545310974121,16.11328125,3.936767578125,-5.584716796875
2.6974999,1.1186907291412354,-2.7545289993286133,7.10958194732666,42.48046875,2.99072265625,-13.24462890625
2.7024999000000003,1.1402385234832764,-2.027888774871826,6.8144965171813965,50.78125,2.197265625,-35.33935546875
2.7074999,1.5233107805252075,-1.6053122282028198,6.574477672576904,30.09033203125,-0.823974609375,-15.533447265625
2.7124999,1.8710685968399048,-0.43335050344467163,6.465541839599609,52.24609375,-4.94384765625,-43.27392578125
2.7174999,2.123656988143921,0.0933738648891449,6.115988254547119,41.107177734375,5.828857421875,-28.62548828125
2.7224999000000003,2.431910276412964,1.7447744607925415,6.704961776733398,6.744384765625,6.53076171875,-23.956298828125
2.7274999,2.1912930011749268,1.8525135517120361,6.110002517700195,2.74658203125,9.124755859375,-19.10400390625
2.7324999,1.8160020112991333,2.804807186126709,6.738480567932129,1.922607421875,11.29150390625,-14.46533203125
2.7374999,0.8361749649047852,2.360084295272827,6.618770599365234,-13.427734375,15.106201171875,-13.702392578125
2.7424999000000003,0.14245499670505524,2.892195701599121,7.45913553237915,-9.58251953125,14.495849609375,-14.16015625
2.7474999,-0.2059013396501541,2.647987127304077,8.13908863067627,-27.64892578125,3.997802734375,15.228271484375
2.7524999,-0.7769184708595276,2.1086931228637695,8.834604263305664,-19.6533203125,-0.030517578125,4.69970703125
2.7574999,-0.2944868206977844,2.500145196914673,9.904812812805176,-8.23974609375,-8.453369140625,14.251708984375
2.7624999000000003,-0.43993455171585083,2.0608091354370117,9.911396026611328,-26.092529296875,-14.495849609375,19.012451171875
2.7674999000000002,0.1496376097202301,2.538452386856079,9.766547203063965,-44.3115234375,-11.29150390625,39.1845703125
2.7724999,0.46746787428855896,2.627636432647705,9.732429504394531,-38.177490234375,-10.009765625,28.38134765625
2.7774999,0.8607155084609985,2.1254525184631348,9.074623107910156,-53.985595703125,-12.5732421875,17.669677734375
2.7824999000000004,1.2306196689605713,0.9995791912078857,9.499593734741211,-52.886962890625,-20.751953125,15.07568359375
2.7874999000000003,1.3521254062652588,-0.3758896589279175,9.888052940368652,-43.487548828125,-21.514892578125,9.70458984375
2.7924999,1.5286977291107178,-2.20924973487854,10.391433715820312,-9.94873046875,-12.6953125,3.662109375
2.7974999,1.501164436340332,-3.6092591285705566,10.61888313293457,-1.434326171875,-3.021240234375,7.537841796875
2.8024999000000004,1.514931082725525,-4.61781644821167,10.067618370056152,11.444091796875,1.922607421875,0.335693359375
2.8074999000000003,1.5310919284820557,-4.514865875244141,9.636063575744629,26.458740234375,9.857177734375,1.068115234375
2.8124999,1.371279001235962,-3.6733038425445557,9.117119789123535,11.322021484375,14.34326171875,-3.60107421875
2.8174999,1.3467384576797485,-2.2451627254486084,9.0859956741333,19.073486328125,13.214111328125,-5.55419921875
2.8224999,1.0743980407714844,-0.689530074596405,9.72165584564209,5.31005859375,9.765625,1.03759765625
2.8274999000000003,0.7829039692878723,0.4159925580024719,9.765350341796875,-2.9296875,7.080078125,-2.197265625
2.8324999,0.5548562407493591,1.0779893398284912,10.186729431152344,3.5400390625,0.823974609375,4.8828125
2.8374999,0.1777694821357727,1.104325532913208,9.963470458984375,-13.214111328125,-2.5634765625,2.0751953125
2.8424999,0.15801730751991272,0.7170634269714355,9.739612579345703,-3.0517578125,-7.843017578125,-1.861572265625
2.8474999000000003,0.09696517139673233,0.13407529890537262,9.943717956542969,-6.591796875,-10.7421875,1.5869140625
2.8524999,0.28730419278144836,-0.5285200476646423,9.583989143371582,-5.55419921875,-7.9345703125,-4.058837890625
2.8574999,0.7026981711387634,-0.9714473485946655,9.853935241699219,7.01904296875,-5.584716796875,1.64794921875
2.8624999,0.9798270463943481,-1.191115379333496,9.716867446899414,-4.913330078125,-0.6103515625,0.640869140625
2.8674999000000003,1.4395138025283813,-1.22642982006073,9.573814392089844,6.927490234375,4.486083984375,-2.105712890625
2.8724999,1.5292962789535522,-0.9768342971801758,9.894637107849121,1.312255859375,5.43212890625,2.5634765625
2.8774999,1.4359225034713745,-0.8696937561035156,9.55585765838623,-3.021240234375,6.40869140625,-2.838134765625
2.8824999,1.2629413604736328,-0.5979518890380859,9.8599214553833,7.415771484375,4.547119140625,1.434326171875
2.8874999000000003,0.8062474131584167,-0.4465186297893524,9.75517463684082,-7.049560546875,1.556396484375,0.640869140625
2.8924999000000002,0.6542156338691711,-0.48602294921875,9.62828254699707,3.60107421875,-0.396728515625,-2.44140625
2.8974999,0.4124012291431427,-0.5668272376060486,9.646238327026367,-6.195068359375,-3.662109375,-2.86865234375
2.9024999,0.6153098344802856,-0.507570743560791,9.848548889160156,6.34765625,-3.692626953125,0.396728515625
2.9074999000000004,0.6883329749107361,-0.5183446407318115,9.816825866699219,-7.781982421875,-2.0751953125,1.129150390625
2.9124999000000003,0.9762357473373413,-0.6308721303939819,9.600749015808105,1.708984375,0.67138671875,-2.685546875
2.9174999,1.0911574363708496,-0.5033808946609497,9.841964721679688,2.86865234375,0.640869140625,2.777099609375
2.9224999,1.138442873954773,-0.7308300733566284,9.633070945739746,-5.584716796875,2.471923828125,-2.105712890625
2.9274999000000004,1.1629834175109863,-0.6763619780540466,9.740809440612793,8.7890625,2.38037109375,-0.30517578125
2.9324999000000003,0.973242998123169,-0.6422445774078369,9.888052940368652,-3.90625,0.6103515625,1.617431640625
2.9374999,0.8864531517028809,-0.70090252161026,9.585784912109375,0.79345703125,1.220703125,-3.082275390625
2.9424999,0.7571662664413452,-0.46627077460289,9.854534149169922,4.302978515625,-0.54931640625,2.532958984375
2.9474999,0.6536170840263367,-0.5811924338340759,9.636063575744629,-8.11767578125,-0.640869140625,-1.03759765625
2.9524999000000003,0.7589619159698486,-0.6290764808654785,9.548674583435059,-2.62451171875,-0.030517578125,-3.11279296875
2.9574999,0.889445960521698,-0.5662286877632141,9.849146842956543,6.2255859375,-0.30517578125,1.861572265625
2.9624999,0.9804255962371826,-0.6655880808830261,9.613917350769043,5.43212890625,1.28173828125,-2.3193359375
2.9674999,0.9433154463768005,-0.5518634915351868,9.96945571899414,0.823974609375,-0.091552734375,2.62451171875
2.9724999000000003,0.8990227580070496,-0.6889315247535706,9.701305389404297,-4.7607421875,1.190185546875,-2.471923828125
2.9774999,0.9421183466911316,-0.5877765417098999,9.893440246582031,7.01904296875,0.213623046875,0.48828125
2.9824999,0.7906851172447205,-0.5315127968788147,9.913790702819824,-6.256103515625,-0.762939453125,1.15966796875
2.9874999,0.8439561128616333,-0.6153098344802856,9.625288963317871,1.15966796875,0,-3.021240234375
2.9924999000000003,0.8289923667907715,-0.456095427274704,9.847352027893066,3.326416015625,-1.129150390625,2.349853515625
2.9974999,0.8146271109580994,-0.586579442024231,9.641449928283691,-7.01904296875,0,-1.495361328125
3.0024999,0.8912416100502014,-0.5273229479789734,9.906607627868652,-3.082275390625,-0.48828125,2.3193359375
3.0074999,0.8912416100502014,-0.5273229479789734,9.906607627868652,-3.082275390625,-0.48828125,2.3193359375
3.0124999000000003,0.8720879554748535,-0.6051344871520996,9.540295600891113,-2.3193359375,1.190185546875,-2.838134765625
3.0174999000000002,0.9241618514060974,-0.5201402902603149,9.86770248413086,6.53076171875,-0.091552734375,1.373291015625
3.0224999,0.7703344225883484,-0.5105634927749634,9.746794700622559,-6.866455078125,0.18310546875,0.1220703125
3.0274999,0.8780734539031982,-0.5991489887237549,9.639056205749512,3.96728515625,0.67138671875,-2.105712890625
3.0324999000000004,0.823006808757782,-0.48961424827575684,9.964667320251465,1.3427734375,-0.946044921875,2.44140625
3.0374999000000003,0.839766263961792,-0.7044938206672668,9.717466354370117,-5.706787109375,0.457763671875,-2.288818359375
3.0424999,0.8744821548461914,-0.5063736438751221,9.864709854125977,5.157470703125,-0.8544921875,1.861572265625
3.0474999,0.8834604024887085,-0.606930136680603,9.600150108337402,5.279541015625,0.48828125,-1.800537109375
3.0524999000000004,0.8373720645904541,-0.5722141861915588,9.907206535339355,-0.396728515625,-0.823974609375,2.777099609375
3.0574999000000003,0.8331822156906128,-0.6961141228675842,9.661202430725098,-4.547119140625,0.54931640625,-2.5634765625
3.0624999,0.9074024558067322,-0.6057330369949341,9.841964721679688,6.89697265625,-0.42724609375,0.213623046875
3.0674999,0.8158242106437683,-0.5620388388633728,9.909002304077148,-5.462646484375,-0.823974609375,1.52587890625
3.0724999000000004,0.8804676532745361,-0.6434416770935059,9.587580680847168,0.885009765625,0.457763671875,-3.021240234375
3.0774999000000003,0.8690952062606812,-0.47225627303123474,9.829395294189453,4.241943359375,-0.274658203125,1.8310546875
3.0824999,0.8170213103294373,-0.5817909836769104,9.645041465759277,-6.89697265625,0.091552734375,-0.8544921875
3.0874999,0.8882488012313843,-0.5847837924957275,9.588777542114258,5.79833984375,0.18310546875,-1.556396484375
3.0924999,0.8445546627044678,-0.5542576909065247,9.916184425354004,-0.6103515625,-0.701904296875,2.410888671875
3.0974999000000003,0.8361749649047852,-0.6919242739677429,9.668983459472656,-4.058837890625,0.640869140625,-2.532958984375
3.1024999,0.912190854549408,-0.628477931022644,9.88386344909668,6.988525390625,-0.335693359375,0.42724609375
3.1074999,0.823006808757782,-0.5386953949928284,9.683947563171387,-7.049560546875,0.06103515625,-0.54931640625
3.1124999,0.8978256583213806,-0.5710170865058899,9.588179588317871,5.096435546875,0.30517578125,-1.8310546875
3.1174999000000003,0.8529343605041504,-0.5165489912033081,9.912593841552734,0,-0.823974609375,2.38037109375
3.1224999,0.8589198589324951,-0.6811503767967224,9.649829864501953,-4.69970703125,0.640869140625,-2.105712890625
3.1274999,0.922366201877594,-0.6212953329086304,9.827000617980957,6.77490234375,0.091552734375,0.1220703125
3.1324999,0.8535329103469849,-0.6111199855804443,9.913790702819824,-4.791259765625,-0.640869140625,1.52587890625
3.1374999000000003,0.8631097078323364,-0.6404489278793335,9.607931137084961,-0.54931640625,0.640869140625,-2.685546875
3.1424999000000002,0.8858546018600464,-0.5111620426177979,9.815030097961426,5.401611328125,-0.640869140625,1.64794921875
3.1474999,0.7721300721168518,-0.517746090888977,9.70310115814209,-6.89697265625,-0.152587890625,-0.396728515625
3.1524999,0.8786720037460327,-0.5901707410812378,9.582792282104492,3.96728515625,0.701904296875,-2.227783203125
3.1574999000000004,0.8631097078323364,-0.6572083830833435,9.682151794433594,-5.523681640625,0.3662109375,-1.89208984375
3.1624999000000003,0.9361328482627869,-0.6362590789794922,9.741408348083496,6.77490234375,0.18310546875,-0.6103515625
3.1674999,0.8798691034317017,-0.6051344871520996,9.952696800231934,-3.11279296875,-0.518798828125,2.01416015625
3.1724999,0.8589198589324951,-0.6871358752250671,9.585186958312988,-2.3193359375,0.79345703125,-2.716064453125
3.1774999000000004,0.8792705535888672,-0.5949591398239136,9.859322547912598,6.072998046875,-0.30517578125,1.007080078125
3.1824999000000003,0.7757213711738586,-0.568622887134552,9.77253246307373,-6.16455078125,-0.30517578125,0.54931640625
3.1874999,0.8373720645904541,-0.6560112833976746,9.598953247070312,2.105712890625,0.396728515625,-2.655029296875
3.1924999,0.8583213090896606,-0.50876784324646,9.864110946655273,3.5400390625,-0.701904296875,2.01416015625
3.1974999000000004,0.8242039084434509,-0.5979518890380859,9.690531730651855,-6.7138671875,0.244140625,-1.007080078125
3.2024999000000003,0.9163807034492493,-0.5913678407669067,9.656414031982422,5.279541015625,0.579833984375,-1.52587890625
3.2074999,0.8798691034317017,-0.5261258482933044,9.947908401489258,-0.54931640625,-0.640869140625,2.13623046875
3.2124999,0.8786720037460327,-0.6607996821403503,9.684545516967773,-4.547119140625,0.640869140625,-2.227783203125
3.2174999,0.8643068075180054,-0.586579442024231,9.904812812805176,-4.425048828125,-0.579833984375,1.434326171875
3.2224999000000003,0.8481459617614746,-0.6177040338516235,9.586981773376465,-0.762939453125,0.732421875,-2.74658203125
3.2274999,0.889445960521698,-0.50876784324646,9.793481826782227,5.4931640625,-0.579833984375,1.373291015625
3.2324999,0.7679402232170105,-0.5105634927749634,9.673771858215332,-6.622314453125,-0.030517578125,0.152587890625
3.2374999,0.8571242094039917,-0.608127236366272,9.566631317138672,2.685546875,0.823974609375,-2.227783203125
3.2424999000000003,0.861314058303833,-0.4985924959182739,9.829395294189453,2.777099609375,-1.03759765625,2.105712890625
3.2474999,0.823006808757782,-0.6326677799224854,9.68933391571045,-6.256103515625,0.244140625,-1.220703125
3.2524999,0.912190854549408,-0.6165069341659546,9.682151794433594,5.7373046875,0.396728515625,-1.251220703125
3.2574999,0.8601169586181641,-0.5793967843055725,9.971850395202637,-1.03759765625,-0.762939453125,2.0751953125
3.2624999000000003,0.8547300100326538,-0.6973112225532532,9.700108528137207,-4.08935546875,0.8544921875,-2.3193359375
3.2674999000000002,0.9115923047065735,-0.6177040338516235,9.888052940368652,6.744384765625,-0.335693359375,0.213623046875
3.2724999,0.8355764150619507,-0.5973533391952515,9.932345390319824,-4.33349609375,-0.457763671875,1.434326171875
3.2774999,0.8690952062606812,-0.5039794445037842,9.819219589233398,5.523681640625,-0.640869140625,1.220703125
3.2824999000000004,0.8631097078323364,-0.49140989780426025,9.837775230407715,2.593994140625,-0.457763671875,2.0751953125
3.2874999000000003,0.8301894664764404,-0.6159083843231201,9.701305389404297,-6.28662109375,0.3662109375,-0.946044921875
3.2924999,0.921169102191925,-0.6177040338516235,9.672574996948242,5.096435546875,0.213623046875,-1.52587890625
3.2974999,0.8846575021743774,-0.5734112858772278,9.968857765197754,-0.48828125,-0.457763671875,2.197265625
3.3024999000000004,0.8816647529602051,-0.7080851793289185,9.712079048156738,-4.730224609375,0.54931640625,-2.0751953125
3.3074999000000003,0.9235633015632629,-0.6320692300796509,9.813833236694336,6.500244140625,-0.274658203125,-0.457763671875
3.3124999,0.8571242094039917,-0.619499683380127,9.932944297790527,-3.204345703125,-0.762939453125,1.5869140625
3.3174999,0.8409633636474609,-0.6649895310401917,9.582792282104492,-2.13623046875,0.518798828125,-2.5634765625
3.3224999000000004,0.8702923059463501,-0.5548562407493591,9.791686058044434,6.04248046875,-0.396728515625,0.79345703125
3.3274999000000003,0.839766263961792,-0.6117185354232788,9.545083999633789,1.007080078125,0.18310546875,-2.50244140625
3.3324999,0.8631097078323364,-0.47405192255973816,9.806650161743164,4.364013671875,-0.91552734375,1.5869140625
3.3374999,0.7930793166160583,-0.5416881442070007,9.68274974822998,-6.34765625,-0.091552734375,-0.213623046875
3.3424999,0.8888474106788635,-0.5883750915527344,9.606734275817871,3.96728515625,0.48828125,-1.8310546875
3.3474999000000003,0.8690952062606812,-0.5093663930892944,9.882665634155273,1.52587890625,-0.518798828125,2.166748046875
3.3524999,0.8589198589324951,-0.6428431272506714,9.701904296875,-6.011962890625,0.3662109375,-1.46484375
3.3574999,0.9379284977912903,-0.6224924325942993,9.725846290588379,5.767822265625,0.54931640625,-1.15966796875
3.3624999,0.8433575630187988,-0.5979518890380859,9.929951667785645,-3.7841796875,-0.48828125,1.678466796875
3.3674999000000003,0.821809709072113,-0.6374561786651611,9.580398559570312,-1.708984375,0.946044921875,-2.62451171875
3.3724999,0.7595604658126831,-0.5285200476646423,9.736021041870117,-5.645751953125,-0.18310546875,0.885009765625
3.3774999,0.8259995579719543,-0.5979518890380859,9.55705451965332,1.007080078125,0.579833984375,-2.410888671875
3.3824999,0.8631097078323364,-0.4818331003189087,9.828198432922363,4.39453125,-0.152587890625,1.5869140625
3.3874999000000003,0.7996633648872375,-0.5614402890205383,9.719860076904297,-6.256103515625,0.18310546875,-0.335693359375
3.3924999000000002,0.8900445103645325,-0.5937620401382446,9.625288963317871,3.60107421875,0.3662109375,-2.13623046875
3.3974999,0.8774749040603638,-0.52552729845047,9.88625717163086,2.166748046875,-0.701904296875,2.01416015625
3.4024999,0.8433575630187988,-0.6530185341835022,9.696516990661621,-5.889892578125,0.396728515625,-1.190185546875
3.4074999000000004,0.9253589510917664,-0.6236895322799683,9.685144424438477,5.340576171875,0.18310546875,-1.220703125
3.4124999000000003,0.8732850551605225,-0.5859808921813965,9.931747436523438,-0.67138671875,-0.823974609375,2.227783203125
3.4174999,0.8708908557891846,-0.6757634282112122,9.696516990661621,-4.608154296875,0.396728515625,-2.044677734375
3.4224999,0.9205705523490906,-0.6099228858947754,9.791686058044434,6.256103515625,0.152587890625,-0.640869140625
3.4274999000000004,0.8553285598754883,-0.5764040350914001,9.932944297790527,-2.74658203125,-0.48828125,1.89208984375
3.4324999000000003,0.889445960521698,-0.5524620413780212,9.822212219238281,6.04248046875,-0.42724609375,0.213623046875
3.4374999,0.8164227604866028,-0.5590460896492004,9.865307807922363,-4.364013671875,-0.396728515625,1.251220703125
3.4424999,0.8361749649047852,-0.6224924325942993,9.573814392089844,1.708984375,0.579833984375,-2.471923828125
3.4474999000000004,0.8696937561035156,-0.535702645778656,9.854534149169922,3.90625,-0.48828125,1.8310546875
3.4524999000000003,0.8271966576576233,-0.6123170852661133,9.718663215637207,-6.011962890625,0,-0.54931640625
3.4574999,0.9205705523490906,-0.6165069341659546,9.657012939453125,3.631591796875,0.457763671875,-2.13623046875
3.4624999,0.9038111567497253,-0.5452794432640076,9.90241813659668,1.52587890625,-0.244140625,2.227783203125
3.4674999,0.8595184087753296,-0.6554127335548401,9.733028411865234,-5.767822265625,0.579833984375,-1.0986328125
3.4724999000000003,0.9163807034492493,-0.6350619792938232,9.704896926879883,5.096435546875,0.30517578125,-1.373291015625
3.4774999,0.900818407535553,-0.6039373874664307,9.758766174316406,5.4931640625,-0.091552734375,-0.48828125
3.4824999,0.851138710975647,-0.5716156363487244,9.907206535339355,-2.197265625,-0.42724609375,1.800537109375
3.4874999,0.8619126081466675,-0.6613982319831848,9.673172950744629,-3.204345703125,0.457763671875,-2.166748046875
3.4924999000000003,0.8954314589500427,-0.578798234462738,9.81263542175293,5.9814453125,-0.213623046875,0.091552734375
3.4974999,0.8403648138046265,-0.5734112858772278,9.913790702819824,-3.7841796875,-0.30517578125,1.312255859375
3.5024999,0.8367735147476196,-0.6356605291366577,9.61212158203125,-1.40380859375,0.823974609375,-2.50244140625
3.5074999,0.8798691034317017,-0.5434837937355042,9.803657531738281,5.37109375,-0.18310546875,0.9765625
3.5124999000000003,0.790086567401886,-0.558447539806366,9.77133560180664,-5.401611328125,-0.3662109375,1.03759765625
3.5174999000000002,0.8319851160049438,-0.6039373874664307,9.59057331085205,0.518798828125,0.518798828125,-2.8076171875
3.5224999,0.8032546639442444,-0.5500678420066833,9.757569313049316,-5.828857421875,0.1220703125,0.3662109375
3.5274999,0.8780734539031982,-0.5410895943641663,9.859322547912598,3.11279296875,-0.67138671875,1.77001953125
3.5324999000000004,0.8104372620582581,-0.6212953329086304,9.732429504394531,-6.134033203125,0.1220703125,-0.3662109375
3.5374999000000003,0.9020155072212219,-0.629675030708313,9.677961349487305,3.60107421875,0.640869140625,-1.861572265625
3.5424999,0.8936358094215393,-0.5596446394920349,9.916783332824707,1.8310546875,-0.762939453125,2.0751953125
3.5474999,0.8589198589324951,-0.6548141837120056,9.73661994934082,-5.584716796875,0.091552734375,-1.0986328125
3.5524999000000004,0.922366201877594,-0.645237386226654,9.706093788146973,4.82177734375,0.335693359375,-1.46484375
3.5574999000000003,0.8774749040603638,-0.5931634902954102,9.938929557800293,0.274658203125,-0.885009765625,2.044677734375
3.5624999,0.8655039072036743,-0.6506243348121643,9.68574333190918,-5.0048828125,0.18310546875,-1.5869140625
3.5674999,0.9127894043922424,-0.596754789352417,9.75637149810791,5.279541015625,0.518798828125,-1.068115234375
3.5724999000000004,0.8690952062606812,-0.5596446394920349,9.929352760314941,-1.52587890625,-0.579833984375,1.800537109375
3.5774999000000003,0.8565256595611572,-0.6667851805686951,9.688735961914062,-3.662109375,0.457763671875,-1.983642578125
3.5824999,0.8882488012313843,-0.6045359373092651,9.788095474243164,6.04248046875,-0.06103515625,-0.30517578125
3.5874999,0.8583213090896606,-0.6548141837120056,9.679757118225098,-2.62451171875,0.457763671875,-2.166748046875
3.5924999,0.8984242081642151,-0.557250440120697,9.847352027893066,5.645751953125,-0.30517578125,0.518798828125
3.5974999000000003,0.8517372608184814,-0.557250440120697,9.9185791015625,-4.150390625,-0.30517578125,1.28173828125
3.6024999,0.8457517623901367,-0.6260837316513062,9.646238327026367,-1.0986328125,0.640869140625,-2.593994140625
3.6074999,0.8732850551605225,-0.5488707423210144,9.841365814208984,5.615234375,-0.48828125,0.823974609375
3.6124999,0.7841010689735413,-0.5632359385490417,9.793481826782227,-4.8828125,-0.396728515625,0.9765625
3.6174999000000003,0.8074445128440857,-0.618302583694458,9.604938507080078,0.457763671875,0.335693359375,-2.655029296875
3.6224999,0.8684966564178467,-0.5321113467216492,9.831789016723633,4.7607421875,-0.3662109375,1.220703125
3.6274999,0.7972691655158997,-0.5632359385490417,9.782708168029785,-5.645751953125,0.152587890625,0.640869140625
3.6324999,0.8780734539031982,-0.6260837316513062,9.610923767089844,1.5869140625,0.79345703125,-2.44140625
3.6374999000000003,0.900818407535553,-0.5410895943641663,9.86650562286377,3.5400390625,-0.579833984375,1.40380859375
3.6424999000000002,0.8325836658477783,-0.606930136680603,9.733627319335938,-5.767822265625,-0.030517578125,-0.244140625
3.6474999,0.8164227604866028,-0.6153098344802856,9.72285270690918,-6.04248046875,0.335693359375,-0.762939453125
3.6524999,0.8990227580070496,-0.6302735805511475,9.676764488220215,3.997802734375,0.18310546875,-1.800537109375
3.6574999000000004,0.8882488012313843,-0.5542576909065247,9.898228645324707,1.3427734375,-0.518798828125,2.0751953125
3.6624999000000003,0.8445546627044678,-0.6302735805511475,9.712079048156738,-5.79833984375,0.396728515625,-1.129150390625
3.6674999,0.8966285586357117,-0.628477931022644,9.683947563171387,4.8828125,0.1220703125,-1.3427734375
3.6724999,0.8535329103469849,-0.5674257874488831,9.922170639038086,0.091552734375,-0.823974609375,1.983642578125
3.6774999000000004,0.8313865661621094,-0.6374561786651611,9.664793968200684,-5.126953125,0.213623046875,-1.434326171875
3.6824999000000003,0.8876502513885498,-0.6045359373092651,9.749788284301758,5.2490234375,0.18310546875,-1.0986328125
3.6874999,0.8607155084609985,-0.5662286877632141,9.926959037780762,-0.823974609375,-0.457763671875,1.77001953125
3.6924999,0.8619126081466675,-0.6320692300796509,9.689932823181152,-4.364013671875,0.640869140625,-1.89208984375
3.6974999000000004,0.8547300100326538,-0.578798234462738,9.931148529052734,-1.922607421875,-0.6103515625,1.89208984375
3.7024999000000003,0.8547300100326538,-0.578798234462738,9.931148529052734,-1.922607421875,-0.6103515625,1.89208984375
3.7074999,0.862511157989502,-0.6715735793113708,9.704896926879883,-3.326416015625,0.457763671875,-2.166748046875
3.7124999,0.8870517015457153,-0.6033388376235962,9.786897659301758,5.859375,-0.1220703125,-0.213623046875
3.7174999,0.839766263961792,-0.5871779918670654,9.913790702819824,-2.838134765625,-0.3662109375,1.708984375
3.7224999000000003,0.8690952062606812,-0.629675030708313,9.673771858215332,-2.349853515625,0.732421875,-2.197265625
3.7274999,0.9103952050209045,-0.545877993106842,9.82640266418457,5.7373046875,-0.244140625,0.213623046875
3.7324999,0.8547300100326538,-0.5291185975074768,9.88506031036377,-3.72314453125,-0.244140625,1.251220703125
3.7374999,0.8607155084609985,-0.6057330369949341,9.642048835754395,-1.46484375,0.732421875,-2.471923828125
3.7424999000000003,0.8816647529602051,-0.5380968451499939,9.810839653015137,5.462646484375,-0.30517578125,0.67138671875
3.7474999,0.8026561141014099,-0.5512649416923523,9.805453300476074,-4.730224609375,-0.335693359375,1.007080078125
3.7524999,0.7990648150444031,-0.6350619792938232,9.603142738342285,-0.18310546875,0.518798828125,-2.532958984375
3.7574999,0.8265981078147888,-0.6165069341659546,9.633070945739746,0.518798828125,0.54931640625,-2.471923828125
3.7624999000000003,0.8888474106788635,-0.5267243981361389,9.86770248413086,4.241943359375,-0.3662109375,1.373291015625
3.7674999000000002,0.8200140595436096,-0.557250440120697,9.817423820495605,-5.43212890625,-0.274658203125,0.48828125
3.7724999,0.8762778043746948,-0.6135141849517822,9.639056205749512,1.52587890625,0.396728515625,-2.44140625
3.7774999,0.8984242081642151,-0.5398924946784973,9.865906715393066,4.058837890625,-0.457763671875,1.46484375
3.7824999000000004,0.8074445128440857,-0.585382342338562,9.742605209350586,-5.43212890625,-0.030517578125,0.213623046875
3.7874999000000003,0.862511157989502,-0.6362590789794922,9.620500564575195,2.38037109375,0.518798828125,-2.227783203125
3.7924999,0.8595184087753296,-0.5518634915351868,9.8599214553833,3.23486328125,-0.518798828125,1.40380859375
3.7974999,0.788889467716217,-0.6027402877807617,9.745597839355469,-5.828857421875,-0.213623046875,-0.396728515625
3.8024999000000004,0.8696937561035156,-0.6320692300796509,9.6803560256958,3.204345703125,0.18310546875,-1.800537109375
3.8074999000000003,0.8756792545318604,-0.5380968451499939,9.907805442810059,2.38037109375,-0.396728515625,1.800537109375
3.8124999,0.9103952050209045,-0.5267243981361389,9.921571731567383,1.373291015625,-0.79345703125,1.983642578125
3.8174999,0.8607155084609985,-0.5931634902954102,9.761159896850586,-5.767822265625,0.152587890625,-1.007080078125
3.8224999000000004,0.9187749028205872,-0.6248866319656372,9.712677955627441,4.425048828125,0.274658203125,-1.5869140625
3.8274999000000003,0.8738836050033569,-0.5650315880775452,9.916783332824707,0.6103515625,-0.518798828125,1.953125
3.8324999,0.8236053586006165,-0.6500257849693298,9.692925453186035,-5.31005859375,0.518798828125,-1.068115234375
3.8374999,0.8780734539031982,-0.6518214344978333,9.684545516967773,4.82177734375,0.457763671875,-1.495361328125
3.8424999,0.8864531517028809,-0.6111199855804443,9.702502250671387,5.126953125,0.335693359375,-1.03759765625
3.8474999000000003,0.8583213090896606,-0.5392939448356628,9.901819229125977,-0.30517578125,-0.42724609375,1.983642578125
3.8524999,0.8529343605041504,-0.5997475385665894,9.628880500793457,-4.57763671875,0.335693359375,-1.708984375
3.8574999,1.113303780555725,-1.6508020162582397,8.49283218383789,7.781982421875,6.378173828125,-2.227783203125
3.8624999,0.8188169598579407,-1.699883222579956,7.63989782333374,48.4619140625,8.60595703125,-27.77099609375
3.8674999000000003,0.8487445116043091,-1.3862427473068237,7.176021099090576,37.628173828125,8.056640625,-34.85107421875
3.8724999,0.4489128291606903,-1.1103110313415527,6.282983779907227,10.1318359375,9.368896484375,-4.425048828125
3.8774999,0.3770867586135864,-0.4315548539161682,6.601412773132324,62.103271484375,4.45556640625,-36.7431640625
3.8824999,0.5500678420066833,0.27712884545326233,7.08144998550415,83.526611328125,3.814697265625,-56.243896484375
3.8874999000000003,0.4752490520477295,0.5740098357200623,6.886921405792236,1.861572265625,14.129638671875,-6.500244140625
3.8924999000000002,0.6141127347946167,0.535702645778656,7.0317702293396,17.486572265625,-5.79833984375,-40.6494140625
3.8974999,1.4562731981277466,1.4209587574005127,6.822876453399658,151.336669921875,-21.942138671875,-92.315673828125
3.9024999,1.5478514432907104,0.4596867263317108,6.558317184448242,31.79931640625,10.498046875,2.86865234375
3.9074999000000004,1.6573861837387085,1.1276689767837524,5.685031890869141,-53.009033203125,7.14111328125,2.960205078125
3.9124999000000003,1.4425065517425537,4.3209357261657715,5.69580602645874,-5.462646484375,0.823974609375,24.47509765625
3.9174999,1.3838485479354858,4.438849925994873,5.366602897644043,104.217529296875,-27.740478515625,-16.17431640625
3.9224999,0.9038111567497253,4.608838081359863,4.675876140594482,16.021728515625,11.65771484375,44.342041015625
3.9274999000000004,0.8792705535888672,4.909310817718506,4.667496204376221,-92.193603515625,11.1083984375,57.12890625
3.9324999000000003,0.6039373874664307,5.202600479125977,5.234323501586914,-33.75244140625,-2.899169921875,48.15673828125
3.9374999,0.29209262132644653,4.835090160369873,5.543774127960205,-50.079345703125,6.317138671875,42.54150390625
3.9424999,0.08140286058187485,4.396352767944336,6.341641902923584,-78.55224609375,11.23046875,32.3486328125
3.9474999000000004,-0.1412578970193863,4.365228176116943,7.223306655883789,-121.9482421875,0.8544921875,62.8662109375
3.9524999000000003,-0.03890577703714371,4.026448726654053,8.083423614501953,-145.294189453125,-1.77001953125,58.807373046875
3.9574999,0.07481880486011505,3.7193922996520996,9.3427734375,-139.129638671875,-16.448974609375,50.933837890625
3.9624999,0.7003039717674255,-0.6805518269538879,13.289016723632812,-58.258056640625,-65.093994140625,4.913330078125
3.9674999000000004,1.1701661348342896,-3.7193922996520996,14.33169174194336,-22.94921875,-34.11865234375,-2.166748046875
3.9724999000000003,1.7860745191574097,-6.234501361846924,13.79060173034668,22.27783203125,-3.997802734375,4.791259765625
3.9774999,2.2170307636260986,-7.334038257598877,11.182717323303223,36.773681640625,2.044677734375,11.474609375
3.9824999,2.5546131134033203,-7.196371555328369,8.134899139404297,55.938720703125,8.97216796875,4.608154296875
3.9874999,2.5342624187469482,-5.75326681137085,6.323685169219971,27.435302734375,22.39990234375,5.523681640625
3.9924999000000003,2.3481132984161377,-3.951629877090454,6.054935932159424,1.129150390625,27.557373046875,-7.62939453125
3.9974999,2.053027868270874,-1.6274585723876953,7.83801794052124,8.148193359375,21.331787109375,-6.16455078125
4.0024999,1.5065513849258423,0.07661445438861847,9.601346969604492,7.476806640625,16.4794921875,-8.30078125
4.0074999,0.9888052940368652,1.4526818990707397,11.134235382080078,15.228271484375,11.688232421875,2.349853515625
4.0124999,0.2944868206977844,1.9087773561477661,11.412561416625977,-11.5966796875,6.378173828125,7.26318359375
4.0174999,-0.11791443079710007,1.625662922859192,10.833763122558594,0.091552734375,-0.6103515625,3.96728515625
4.022499900000001,-0.4225766062736511,0.24121582508087158,9.509769439697266,-8.1787109375,-11.23046875,-6.34765625
4.0274999000000005,-0.20290859043598175,-0.40521863102912903,9.77672290802002,-2.349853515625,-15.869140625,1.77001953125
4.0324999,0.1999158412218094,-1.015141487121582,9.452906608581543,-8.148193359375,-10.528564453125,-3.60107421875
4.0374999,0.823006808757782,-1.2868833541870117,9.825803756713867,8.636474609375,-6.65283203125,3.35693359375
4.0424999,1.2539631128311157,-1.3658920526504517,9.598953247070312,-6.622314453125,-0.274658203125,0.213623046875
4.0474999,1.7369933128356934,-1.279700756072998,9.631275177001953,9.521484375,4.486083984375,-0.946044921875
4.0524999,1.7304092645645142,-1.0067617893218994,9.756970405578613,-4.608154296875,5.31005859375,0.885009765625
4.0574999,1.6603789329528809,-0.9157821536064148,9.607931137084961,4.69970703125,6.805419921875,-3.509521484375
4.062499900000001,1.235408067703247,-0.6009446382522583,9.98681354522705,2.0751953125,4.302978515625,4.241943359375
4.0674999000000005,0.8505401611328125,-0.6248866319656372,9.627683639526367,-3.41796875,3.143310546875,-3.5400390625
4.0724999,0.586579442024231,-0.4273650050163269,9.995193481445312,7.568359375,-0.67138671875,3.021240234375
4.0774999,0.35494041442871094,-0.4967968463897705,9.741408348083496,-9.46044921875,-3.35693359375,-1.861572265625
4.0824999,0.4812345504760742,-0.3471592366695404,9.854534149169922,-8.7890625,-4.69970703125,1.5869140625
4.0874999,0.7823054194450378,-0.5021837949752808,9.632472038269043,2.197265625,-1.739501953125,-2.99072265625
4.0924999,0.899621307849884,-0.4225766062736511,9.916783332824707,-0.457763671875,-1.3427734375,3.90625
4.0974999,1.0492589473724365,-0.7050924301147461,9.509170532226562,-4.302978515625,1.8310546875,-3.997802734375
4.1024999,1.173158884048462,-0.6859387755393982,9.886856079101562,8.11767578125,1.800537109375,2.349853515625
4.1074999000000005,1.0708067417144775,-0.7882909178733826,9.660603523254395,-7.32421875,2.227783203125,-1.5869140625
4.1124999,1.1103110313415527,-0.7589619159698486,9.733627319335938,9.674072265625,1.89208984375,-0.640869140625
4.1174999,0.8966285586357117,-0.629675030708313,9.8970308303833,-5.18798828125,0.213623046875,1.983642578125
4.1224999,0.8631097078323364,-0.6949170231819153,9.632472038269043,2.166748046875,0.640869140625,-3.387451171875
4.1274999,0.7212532758712769,-0.5195417404174805,9.996989250183105,1.434326171875,-2.044677734375,3.5400390625
4.1324999,0.6380547285079956,-0.6266822814941406,9.593565940856934,-6.805419921875,-0.823974609375,-3.631591796875
4.1374999,0.7589619159698486,-0.5602431893348694,9.856329917907715,7.38525390625,-1.922607421875,1.739501953125
4.1424999,0.9241618514060974,-0.6829460263252258,9.717466354370117,-7.659912109375,1.068115234375,-2.532958984375
4.147499900000001,0.933738648891449,-0.6045359373092651,9.798869132995605,8.392333984375,0.244140625,0.457763671875
4.1524999000000005,0.7709329724311829,-0.507570743560791,9.832986831665039,-7.354736328125,-0.6103515625,1.190185546875
4.1574999,0.838569164276123,-0.6254851818084717,9.592369079589844,3.173828125,0.42724609375,-3.021240234375
4.1624999,0.7433996200561523,-0.6428431272506714,9.497797966003418,-5.37109375,0.1220703125,-3.41796875
4.1674999,0.8780734539031982,-0.5931634902954102,9.800664901733398,7.720947265625,-0.457763671875,1.861572265625
4.1724999,0.8044517636299133,-0.6099228858947754,9.665990829467773,-8.4228515625,-0.091552734375,-0.518798828125
4.1774999,0.8445546627044678,-0.6542156338691711,9.713874816894531,-8.270263671875,0.06103515625,-1.77001953125
4.1824999,0.9157821536064148,-0.596754789352417,9.701904296875,7.8125,0,-0.640869140625
4.187499900000001,0.8254010081291199,-0.5159504413604736,9.868300437927246,-4.974365234375,-1.03759765625,1.953125
4.1924999000000005,0.884058952331543,-0.6470330357551575,9.49001693725586,0.48828125,0.18310546875,-3.5400390625
4.1974999,0.8637082576751709,-0.5093663930892944,9.81143856048584,4.2724609375,-0.91552734375,2.8076171875
4.2024999,0.8655039072036743,-0.6775590777397156,9.566033363342285,-7.537841796875,0.6103515625,-2.13623046875
4.2074999,0.9427168965339661,-0.6314706802368164,9.660603523254395,7.87353515625,0.48828125,0.244140625
4.2124999,0.851138710975647,-0.6027402877807617,9.763554573059082,-6.011962890625,-0.457763671875,1.220703125
4.2174999,0.9038111567497253,-0.6973112225532532,9.537900924682617,2.593994140625,0.885009765625,-3.326416015625
4.2224999,0.8804676532745361,-0.5991489887237549,9.807249069213867,7.568359375,0.1220703125,0.91552734375
4.2274999,0.7829039692878723,-0.5823895931243896,9.804255485534668,-7.32421875,-0.30517578125,0.762939453125
4.2324999000000005,0.9032126069068909,-0.6745663285255432,9.61571216583252,3.143310546875,0.762939453125,-2.777099609375
4.2374999,0.8738836050033569,-0.5249287486076355,9.907206535339355,1.77001953125,-0.640869140625,3.173828125
4.2424999,0.8176198601722717,-0.5829881429672241,9.744999885559082,-6.927490234375,-0.1220703125,0.640869140625
4.2474999,0.9331400990486145,-0.656609833240509,9.586383819580078,3.5400390625,1.007080078125,-2.44140625
4.2524999,0.8810662031173706,-0.49619829654693604,9.880271911621094,1.28173828125,-0.762939453125,3.11279296875
4.2574999,0.8475474119186401,-0.6847416758537292,9.609726905822754,-5.859375,0.518798828125,-2.8076171875
4.2624999,0.9307458996772766,-0.6039373874664307,9.818022727966309,7.8125,-0.6103515625,0.640869140625
4.2674999,0.8690952062606812,-0.4704606235027313,9.873088836669922,1.678466796875,-0.79345703125,2.74658203125
4.272499900000001,0.8559271097183228,-0.6596025824546814,9.62947940826416,-6.134033203125,0.640869140625,-2.655029296875
4.2774999000000005,0.9385270476341248,-0.608127236366272,9.791088104248047,7.6904296875,0.06103515625,0.518798828125
4.2824999,0.829590916633606,-0.6075286865234375,9.776124000549316,-6.256103515625,-0.48828125,1.007080078125
4.2874999,0.9145850539207458,-0.6835445761680603,9.537900924682617,2.86865234375,0.3662109375,-3.082275390625
4.2924999,0.871489405632019,-0.5111620426177979,9.813234329223633,2.593994140625,-0.42724609375,2.74658203125
4.2974999,0.871489405632019,-0.6494272351264954,9.602544784545898,-6.77490234375,0.30517578125,-2.13623046875
4.3024999,0.9367313981056213,-0.5776011347770691,9.749189376831055,7.354736328125,0,0.06103515625
4.3074999,0.8457517623901367,-0.5746083855628967,9.840168952941895,-5.645751953125,-0.640869140625,1.40380859375
4.312499900000001,0.8912416100502014,-0.6859387755393982,9.521739959716797,1.15966796875,0.457763671875,-2.99072265625
4.3174999000000005,0.828393816947937,-0.669179379940033,9.556455612182617,-7.354736328125,0.274658203125,-1.739501953125
4.3224999,0.8966285586357117,-0.5327098965644836,9.939528465270996,5.706787109375,-0.67138671875,1.8310546875
4.3274999,0.8206126093864441,-0.5680243372917175,9.747992515563965,-7.62939453125,0.030517578125,-1.007080078125
4.3324999,0.8792705535888672,-0.608127236366272,9.719860076904297,5.889892578125,0.18310546875,-1.373291015625
4.3374999,0.8104372620582581,-0.5422866940498352,9.937732696533203,-1.617431640625,-0.701904296875,2.471923828125
4.3424999,0.788889467716217,-0.6560112833976746,9.528923034667969,-3.2958984375,0.701904296875,-3.082275390625
4.3474999,0.849941611289978,-0.6057330369949341,9.79647445678711,6.89697265625,-0.213623046875,1.40380859375
4.352499900000001,0.7511807680130005,-0.5566518902778625,9.643844604492188,-7.171630859375,-0.152587890625,0.030517578125
4.3574999000000005,0.8972271084785461,-0.6805518269538879,9.525930404663086,4.150390625,0.3662109375,-2.38037109375
4.3624999,0.8930372595787048,-0.7242460250854492,9.609726905822754,-5.67626953125,0.6103515625,-2.410888671875
4.3674999,0.9780313968658447,-0.6590040326118469,9.768342971801758,7.62939453125,-0.213623046875,0.213623046875
4.3724999,0.871489405632019,-0.6200982332229614,9.821015357971191,-5.615234375,-0.457763671875,1.373291015625
4.3774999,0.933738648891449,-0.7200561761856079,9.511565208435059,1.3427734375,0.732421875,-2.74658203125
4.3824999,0.8954314589500427,-0.5590460896492004,9.785101890563965,3.7841796875,-0.762939453125,2.197265625
4.3874999,0.8475474119186401,-0.6242880821228027,9.544485092163086,-7.293701171875,0.30517578125,-1.52587890625
4.3924999,0.9313444495201111,-0.6057330369949341,9.560646057128906,6.9580078125,0.06103515625,-1.129150390625
4.397499900000001,0.8505401611328125,-0.518943190574646,9.835380554199219,-2.86865234375,-0.885009765625,2.197265625
4.4024999000000005,0.829590916633606,-0.6003460884094238,9.473855972290039,-2.471923828125,0.274658203125,-2.99072265625
4.4074999,0.8804676532745361,-0.5404910445213318,9.843161582946777,6.28662109375,-0.1220703125,1.495361328125
4.4124999,0.7631517648696899,-0.5129576921463013,9.712079048156738,-7.14111328125,-0.244140625,0.1220703125
4.4174999,0.9050082564353943,-0.6230909824371338,9.630077362060547,4.425048828125,0.091552734375,-2.3193359375
4.4224999,0.9062053561210632,-0.7026981711387634,9.665990829467773,-5.859375,0.518798828125,-2.3193359375
4.4274999,0.9062053561210632,-0.7026981711387634,9.665990829467773,-5.859375,0.518798828125,-2.3193359375
4.4324999,0.9648633003234863,-0.6416460275650024,9.794678688049316,7.080078125,-0.030517578125,-0.06103515625
4.437499900000001,0.8792705535888672,-0.6260837316513062,9.86351203918457,-5.55419921875,0.152587890625,1.556396484375
4.4424999000000005,0.8930372595787048,-0.70090252161026,9.563039779663086,-0.1220703125,0.885009765625,-2.86865234375
4.4474999,0.8601169586181641,-0.5620388388633728,9.84615421295166,4.547119140625,-0.6103515625,2.105712890625
4.4524999,0.7930793166160583,-0.6326677799224854,9.64923095703125,-7.354736328125,0.244140625,-0.823974609375
4.4574999,0.861314058303833,-0.6416460275650024,9.608530044555664,5.55419921875,0.244140625,-1.52587890625
4.4624999,0.8289923667907715,-0.5817909836769104,9.893440246582031,-0.91552734375,-0.396728515625,2.38037109375
4.4674999,0.8224082589149475,-0.70090252161026,9.623494148254395,-4.21142578125,0.518798828125,-2.50244140625
4.4724999,0.9026140570640564,-0.6374561786651611,9.848548889160156,6.591796875,-0.091552734375,0.91552734375
4.477499900000001,0.8062474131584167,-0.6105214357376099,9.855731010437012,-5.859375,-0.1220703125,0.885009765625
4.4824999000000005,0.8535329103469849,-0.606930136680603,9.61212158203125,-6.988525390625,0.48828125,-1.129150390625
4.4874999,0.9367313981056213,-0.585382342338562,9.613917350769043,5.889892578125,0.3662109375,-1.312255859375
4.4924999,0.8631097078323364,-0.5303156971931458,9.880271911621094,-2.044677734375,-0.30517578125,2.349853515625
4.4974999,0.8421604633331299,-0.6655880808830261,9.5809965133667,-3.387451171875,0.42724609375,-2.593994140625
4.5024999,0.8870517015457153,-0.6278793811798096,9.858723640441895,6.805419921875,-0.30517578125,0.823974609375
4.5074999,0.7912836670875549,-0.6242880821228027,9.81143856048584,-6.04248046875,-0.244140625,0.701904296875
4.5124999,0.872686505317688,-0.7098808288574219,9.617507934570312,2.349853515625,0.213623046875,-2.777099609375
4.5174999,0.8834604024887085,-0.545877993106842,9.877279281616211,3.265380859375,-0.91552734375,2.197265625
4.522499900000001,0.8433575630187988,-0.6272808313369751,9.666589736938477,-6.53076171875,0.18310546875,-1.190185546875
4.5274999000000005,0.9343371987342834,-0.5907692909240723,9.670180320739746,6.2255859375,-0.06103515625,-1.28173828125
4.5324999,0.861314058303833,-0.547075092792511,9.929951667785645,-1.800537109375,-0.42724609375,2.3193359375
4.5374999,0.8565256595611572,-0.6619967818260193,9.646238327026367,-3.41796875,0.6103515625,-2.74658203125
4.5424999,0.8810662031173706,-0.70090252161026,9.59177017211914,1.617431640625,0.42724609375,-2.777099609375
4.5474999,0.8756792545318604,-0.5303156971931458,9.858723640441895,3.631591796875,-0.48828125,2.288818359375
4.5524999,0.8343793153762817,-0.6159083843231201,9.643844604492188,-6.89697265625,0.457763671875,-0.91552734375
4.5574999,0.9068039059638977,-0.596754789352417,9.639654159545898,5.340576171875,0.42724609375,-1.556396484375
4.562499900000001,0.8583213090896606,-0.6218938827514648,9.948506355285645,-4.730224609375,-0.42724609375,1.15966796875
4.5674999000000005,0.8948329091072083,-0.656609833240509,9.658807754516602,0.579833984375,0.18310546875,-2.899169921875
4.5724999,0.9097966551780701,-0.5135562419891357,9.845556259155273,4.608154296875,-0.18310546875,1.8310546875
4.5774999,0.8403648138046265,-0.5003881454467773,9.870695114135742,0.732421875,-0.579833984375,2.288818359375
4.5824999,0.8589198589324951,-0.6877344250679016,9.624691009521484,-5.584716796875,0.396728515625,-1.953125
4.5874999,0.9157821536064148,-0.6631938815116882,9.743204116821289,6.8359375,-0.1220703125,-0.3662109375
4.5924999,0.8619126081466675,-0.6643909811973572,9.907805442810059,-3.47900390625,-0.48828125,1.983642578125
4.5974999,0.8391677141189575,-0.7266402244567871,9.55705451965332,-1.953125,0.396728515625,-2.838134765625
4.602499900000001,0.8661024570465088,-0.6314706802368164,9.856329917907715,6.28662109375,-0.54931640625,0.823974609375
4.6074999000000005,0.7703344225883484,-0.6045359373092651,9.740809440612793,-6.378173828125,0.030517578125,0.6103515625
4.6124999,0.8439561128616333,-0.6685808300971985,9.616311073303223,2.288818359375,0.8544921875,-2.471923828125
4.6174999,0.872686505317688,-0.5452794432640076,9.898826599121094,2.99072265625,-0.6103515625,1.922607421875
4.6224999,0.8391677141189575,-0.6344634294509888,9.711481094360352,-6.4697265625,0.030517578125,-1.220703125
4.6274999,0.9295487999916077,-0.6248866319656372,9.718064308166504,5.4931640625,0.213623046875,-1.15966796875
4.6324999,0.8690952062606812,-0.6308721303939819,9.916783332824707,-4.7607421875,-0.213623046875,1.64794921875
4.6374999,0.8541314601898193,-0.6422445774078369,9.620500564575195,-0.579833984375,0.518798828125,-2.685546875
4.6424999,0.8978256583213806,-0.5488707423210144,9.813833236694336,5.18798828125,-0.244140625,1.3427734375
4.647499900000001,0.7846996188163757,-0.5309142470359802,9.668983459472656,-6.439208984375,0.06103515625,0.213623046875
4.6524999000000005,0.8702923059463501,-0.6242880821228027,9.558850288391113,3.204345703125,0.1220703125,-2.197265625
4.6574999,0.8858546018600464,-0.5267243981361389,9.824606895446777,2.410888671875,-0.6103515625,2.197265625
4.6624999,0.8439561128616333,-0.646434485912323,9.650428771972656,-6.439208984375,0.396728515625,-1.434326171875
4.6674999,0.9427168965339661,-0.6488286852836609,9.685144424438477,5.79833984375,0,-1.28173828125
4.6724999,0.8900445103645325,-0.6165069341659546,9.93474006652832,-1.434326171875,-0.3662109375,2.410888671875
4.6774999,0.8936358094215393,-0.7260416746139526,9.709086418151855,-4.08935546875,0.54931640625,-2.25830078125
4.6824999,0.8661024570465088,-0.6386532783508301,9.931148529052734,-4.486083984375,-0.18310546875,1.373291015625
4.687499900000001,0.8409633636474609,-0.6458359360694885,9.621099472045898,-0.54931640625,0.518798828125,-2.74658203125
4.6924999000000005,0.872686505317688,-0.5398924946784973,9.80904483795166,5.31005859375,-0.3662109375,1.40380859375
4.6974999,0.7637503147125244,-0.5333084464073181,9.65222454071045,-6.439208984375,0.06103515625,0.091552734375
4.7024999,0.839766263961792,-0.6212953329086304,9.550470352172852,2.62451171875,0.335693359375,-2.288818359375
4.7074999,0.8672995567321777,-0.5345055460929871,9.818022727966309,2.471923828125,-0.701904296875,2.25830078125
4.7124999,0.8343793153762817,-0.6422445774078369,9.668983459472656,-6.256103515625,0.244140625,-1.220703125
4.7174999,0.9367313981056213,-0.6488286852836609,9.694721221923828,5.4931640625,-0.091552734375,-1.64794921875
4.7224999,0.900818407535553,-0.586579442024231,9.965864181518555,-0.579833984375,-0.30517578125,2.166748046875
4.727499900000001,0.912190854549408,-0.7038952708244324,9.713275909423828,-4.547119140625,0.823974609375,-2.105712890625
4.7324999000000005,0.9469067454338074,-0.6380547285079956,9.844358444213867,6.561279296875,-0.091552734375,-0.1220703125
4.7374999,0.8810662031173706,-0.6332663297653198,9.956287384033203,-3.448486328125,-0.48828125,1.708984375
4.7424999,0.8475474119186401,-0.6314706802368164,9.609726905822754,1.190185546875,0.274658203125,-2.471923828125
4.7474999,0.8798691034317017,-0.5081692934036255,9.874286651611328,3.997802734375,-0.579833984375,1.739501953125
4.7524999,0.8158242106437683,-0.5566518902778625,9.725846290588379,-6.4697265625,-0.030517578125,-0.396728515625
4.7574999,0.9169792532920837,-0.6159083843231201,9.6618013381958,4.364013671875,-0.1220703125,-1.953125
4.7624999,0.8906430602073669,-0.5380968451499939,9.922768592834473,1.373291015625,-0.6103515625,2.105712890625
4.7674999,0.861314058303833,-0.6518214344978333,9.696516990661621,-5.584716796875,0.396728515625,-1.5869140625
4.772499900000001,0.9391255974769592,-0.6613982319831848,9.750386238098145,5.767822265625,0.30517578125,-0.946044921875
4.7774999000000005,0.8762778043746948,-0.6392518281936646,9.952696800231934,-1.495361328125,-0.67138671875,1.8310546875
4.7824999,0.8804676532745361,-0.7451952695846558,9.704896926879883,-3.631591796875,0.244140625,-2.38037109375
4.7874999,0.9271546006202698,-0.6883329749107361,9.87967300415039,6.04248046875,0.06103515625,0.244140625
4.7924999,0.7876923680305481,-0.5482721924781799,9.743204116821289,-5.706787109375,-0.274658203125,0.518798828125
4.7974999,0.8451532125473022,-0.6428431272506714,9.586383819580078,1.617431640625,-0.030517578125,-2.593994140625
4.8024999,0.9175778031349182,-0.6165069341659546,9.666589736938477,3.96728515625,0.244140625,-1.922607421875
4.8074999,0.8972271084785461,-0.5297171473503113,9.910199165344238,1.617431640625,-0.579833984375,1.953125
4.812499900000001,0.8559271097183228,-0.6374561786651611,9.688735961914062,-5.67626953125,0.244140625,-1.434326171875
4.8174999000000005,0.9319429993629456,-0.646434485912323,9.729436874389648,5.4931640625,-0.1220703125,-1.0986328125
4.8224999,0.8720879554748535,-0.6129156351089478,9.9401273727417,-1.312255859375,-0.335693359375,2.01416015625
4.8274999,0.884058952331543,-0.7284358739852905,9.709685325622559,-4.2724609375,0.457763671875,-2.01416015625
4.8324999,0.8720879554748535,-0.657806932926178,9.946710586547852,-3.5400390625,-0.06103515625,1.64794921875
4.8374999,0.8696937561035156,-0.6931213736534119,9.61571216583252,-2.105712890625,0.701904296875,-2.532958984375
4.8424999,0.8942343592643738,-0.6015431880950928,9.82759952545166,5.889892578125,-0.518798828125,0.6103515625
4.8474999,0.8194155097007751,-0.5638344883918762,9.781511306762695,-5.035400390625,-0.1220703125,0.91552734375
4.852499900000001,0.8373720645904541,-0.6141127347946167,9.59057331085205,0.3662109375,0.3662109375,-2.532958984375
4.8574999000000005,0.8786720037460327,-0.5033808946609497,9.813234329223633,4.486083984375,-0.457763671875,1.556396484375
4.8624999,0.7996633648872375,-0.535702645778656,9.712677955627441,-6.072998046875,-0.091552734375,0.274658203125
4.8674999,0.8708908557891846,-0.6290764808654785,9.588179588317871,2.593994140625,0.42724609375,-2.410888671875
4.8724999,0.8912416100502014,-0.545877993106842,9.858125686645508,2.99072265625,-0.457763671875,1.8310546875
4.8774999,0.8331822156906128,-0.6386532783508301,9.728240013122559,-6.103515625,0.457763671875,-0.640869140625
4.8824999,0.9253589510917664,-0.6625953316688538,9.704896926879883,4.45556640625,0.274658203125,-1.5869140625
4.8874999,0.8978256583213806,-0.5877765417098999,9.971251487731934,0.6103515625,-0.244140625,1.922607421875
4.8924999,0.9002198576927185,-0.6536170840263367,9.81143856048584,6.2255859375,-0.30517578125,-0.244140625
4.897499900000001,0.8373720645904541,-0.6374561786651611,9.929352760314941,-3.570556640625,-0.30517578125,1.708984375
4.9024999000000005,0.8487445116043091,-0.6751648783683777,9.638457298278809,-2.288818359375,0.518798828125,-2.716064453125
4.9074999,0.8858546018600464,-0.5823895931243896,9.847352027893066,6.072998046875,-0.30517578125,0.54931640625
4.9124999,0.8259995579719543,-0.5620388388633728,9.821015357971191,-4.94384765625,-0.152587890625,1.220703125
4.9174999,0.829590916633606,-0.6099228858947754,9.602544784545898,0.244140625,0.396728515625,-2.593994140625
4.9224999,0.8708908557891846,-0.5267243981361389,9.825803756713867,4.7607421875,-0.3662109375,1.129150390625
4.9274999,0.7763199210166931,-0.5327098965644836,9.722254753112793,-5.767822265625,0.091552734375,0.3662109375
4.9324999,0.8966285586357117,-0.5309142470359802,9.825803756713867,3.41796875,-0.8544921875,1.5869140625
4.937499900000001,0.8289923667907715,-0.5985504388809204,9.685144424438477,-6.04248046875,0,-0.48828125
4.9424999000000005,0.9115923047065735,-0.6428431272506714,9.64803409576416,3.72314453125,0.244140625,-1.953125
4.9474999,0.8960300087928772,-0.5494692921638489,9.88625717163086,1.678466796875,-0.54931640625,2.105712890625
4.9524999,0.8529343605041504,-0.6506243348121643,9.738415718078613,-5.950927734375,0.213623046875,-1.220703125
4.9574999,0.9331400990486145,-0.6715735793113708,9.732429504394531,4.7607421875,-0.1220703125,-1.52587890625
4.9624999,0.8924387097358704,-0.6991068720817566,9.690531730651855,-3.509521484375,0.48828125,-1.983642578125
4.9674999,0.8924387097358704,-0.6991068720817566,9.690531730651855,-3.509521484375,0.48828125,-1.983642578125
4.9724999,0.9175778031349182,-0.6434416770935059,9.80904483795166,5.767822265625,-0.091552734375,-0.06103515625
4.977499900000001,0.8696937561035156,-0.657806932926178,9.655815124511719,-2.044677734375,0.48828125,-2.38037109375
4.9824999000000005,0.9026140570640564,-0.5692214369773865,9.834183692932129,5.67626953125,-0.06103515625,0.67138671875
4.9874999,0.8457517623901367,-0.5638344883918762,9.829395294189453,-4.57763671875,-0.244140625,1.190185546875
4.9924999,0.801459014415741,-0.8451532125473022,9.440936088562012,-0.54931640625,0.244140625,-2.532958984375
4.9974999,0.9636662006378174,-0.9044097065925598,9.185953140258789,9.70458984375,-0.91552734375,-10.31494140625
5.0024999,0.9726444482803345,-0.9648633003234863,8.900444984436035,3.23486328125,4.5166015625,-16.357421875
5.0074999,1.1342530250549316,-0.9900023937225342,8.241440773010254,14.6484375,9.3994140625,10.345458984375
5.0124999,1.3281834125518799,-0.679354727268219,8.658031463623047,26.214599609375,6.04248046875,-16.66259765625
5.0174999,1.1312602758407593,0.041299980133771896,8.51138687133789,23.223876953125,9.979248046875,-25.08544921875
5.022499900000001,1.1103110313415527,0.053270988166332245,8.470087051391602,4.180908203125,9.552001953125,-15.167236328125
5.0274999000000005,0.9361328482627869,0.7475894689559937,8.772355079650879,21.453857421875,9.674072265625,-11.444091796875
5.0324999,0.4878185987472534,0.45250412821769714,8.67718505859375,9.70458984375,12.786865234375,-11.23046875
5.0374999,0.04967968538403511,1.534683346748352,9.055469512939453,13.946533203125,-7.598876953125,-10.223388671875
5.0424999,0.04967968538403511,1.534683346748352,9.055469512939453,13.946533203125,-7.598876953125,-10.223388671875
5.0474999,-0.40701428055763245,1.9925743341445923,8.778939247131348,-3.96728515625,-14.70947265625,7.38525390625
5.0524999,0.0628477931022644,2.5318682193756104,8.667010307312012,-15.56396484375,-14.09912109375,13.427734375
5.0574999,0.43933600187301636,3.135805606842041,8.828619003295898,-9.70458984375,-9.429931640625,24.932861328125
5.062499900000001,0.8667010068893433,3.028665065765381,8.596381187438965,-51.8798828125,-9.21630859375,24.200439453125
5.0674999000000005,1.3239935636520386,2.4684219360351562,8.807669639587402,-31.43310546875,-15.472412109375,9.002685546875
5.0724999,1.5753847360610962,1.5119383335113525,9.418789863586426,-37.811279296875,-13.092041015625,9.21630859375
5.0774999,1.5771803855895996,-0.3130418658256531,9.733627319335938,-27.52685546875,-7.50732421875,2.25830078125
5.0824999,1.5717934370040894,-1.698686122894287,10.304045677185059,-4.669189453125,-6.77490234375,4.2724609375
5.0874999,1.390432596206665,-3.0615854263305664,10.276512145996094,-0.274658203125,1.251220703125,3.997802734375
5.0924999,1.2832920551300049,-3.582324266433716,9.62947940826416,20.233154296875,8.697509765625,-0.213623046875
5.0974999,1.1426327228546143,-2.8562827110290527,9.291297912597656,8.758544921875,11.138916015625,-4.669189453125
5.102499900000001,1.127070426940918,-1.5705963373184204,9.5007905960083,13.916015625,9.3994140625,-2.99072265625
5.1074999000000005,0.8912416100502014,-0.3495534360408783,9.974244117736816,1.739501953125,6.317138671875,2.62451171875
5.1124999,0.6607996821403503,0.45010992884635925,9.874884605407715,-5.126953125,4.241943359375,-1.15966796875
5.1174999,0.46507367491722107,0.8523358106613159,10.111311912536621,0.244140625,-1.617431640625,3.326416015625
5.1224999,0.20350714027881622,0.7230489253997803,9.885659217834473,-12.725830078125,-5.706787109375,1.3427734375
5.1274999,0.23283611238002777,0.17836803197860718,9.635464668273926,-3.631591796875,-8.087158203125,-3.387451171875
5.1324999,0.363918662071228,-0.2819172441959381,9.824007987976074,0.762939453125,-9.033203125,1.190185546875
5.1374999,0.6087257862091064,-0.8451532125473022,9.64803409576416,-5.828857421875,-5.37109375,-1.52587890625
5.1424999,1.0432734489440918,-1.1162965297698975,9.680954933166504,7.62939453125,-1.495361328125,-0.91552734375
5.147499900000001,1.2970588207244873,-1.1019313335418701,9.907805442810059,0.244140625,2.227783203125,2.197265625
5.1524999000000005,1.4778209924697876,-0.8248024582862854,9.894038200378418,6.927490234375,6.16455078125,1.0986328125
5.1574999,1.1857284307479858,-0.6212953329086304,9.858125686645508,-5.279541015625,4.57763671875,1.15966796875
5.1624999,0.9522937536239624,-0.5931634902954102,9.64564037322998,2.288818359375,2.5634765625,-2.50244140625
5.1674999,0.6733692288398743,-0.3878606855869293,9.882067680358887,3.84521484375,-1.46484375,2.044677734375
5.1724999,0.45848962664604187,-0.4818331003189087,9.66958236694336,-6.744384765625,-3.082275390625,-1.220703125
5.1774999,0.507570743560791,-0.4794389009475708,9.656414031982422,4.69970703125,-3.7841796875,-1.52587890625
5.1824999,0.5793967843055725,-0.46088382601737976,9.947309494018555,-2.74658203125,-3.90625,2.349853515625
5.187499900000001,0.751779317855835,-0.6218938827514648,9.719860076904297,-5.43212890625,-1.312255859375,-2.197265625
5.1924999000000005,1.0067617893218994,-0.6117185354232788,9.91977596282959,5.859375,-0.274658203125,0.42724609375
5.1974999,1.058835744857788,-0.6584054827690125,9.928754806518555,-5.279541015625,1.312255859375,1.251220703125
5.2024999,1.1240776777267456,-0.7487865686416626,9.63187313079834,1.3427734375,2.5634765625,-3.021240234375
5.2074999,1.1097124814987183,-0.639850378036499,9.798869132995605,6.256103515625,1.434326171875,1.46484375
5.2124999,0.9050082564353943,-0.6416460275650024,9.573814392089844,4.8828125,0.701904296875,-1.89208984375
5.2174999,0.7799112200737,-0.4818331003189087,9.884461402893066,0.48828125,-0.946044921875,2.716064453125
5.2224999,0.7511807680130005,-0.608127236366272,9.690531730651855,-6.40869140625,-0.640869140625,-1.8310546875
5.227499900000001,0.8056488633155823,-0.5650315880775452,9.77791976928711,5.584716796875,-1.678466796875,-0.54931640625
5.2324999000000005,0.7894880175590515,-0.5877765417098999,9.954492568969727,-3.96728515625,-1.77001953125,2.01416015625
5.2374999,0.8074445128440857,-0.7032967209815979,9.5809965133667,-2.25830078125,-0.42724609375,-2.74658203125
5.2424999,0.9050082564353943,-0.6530185341835022,9.854534149169922,6.103515625,-0.640869140625,0.79345703125
5.2474999,0.8637082576751709,-0.6524199843406677,9.749189376831055,-5.401611328125,0.67138671875,0.48828125
5.2524999,0.9582792520523071,-0.7332242727279663,9.592369079589844,2.655029296875,1.77001953125,-2.50244140625
5.2574999,0.9792284965515137,-0.5626373887062073,9.873088836669922,3.7841796875,0.3662109375,1.983642578125
5.2624999,0.9080010056495667,-0.6218938827514648,9.698312759399414,-6.378173828125,0.732421875,-0.91552734375
5.2674999,0.9385270476341248,-0.5793967843055725,9.6803560256958,5.340576171875,0.30517578125,-1.678466796875
5.272499900000001,0.861314058303833,-0.5081692934036255,9.967061996459961,-0.640869140625,-0.885009765625,2.0751953125
5.2774999000000005,0.8331822156906128,-0.6572083830833435,9.707889556884766,-4.7607421875,-0.3662109375,-2.13623046875
5.2824999,0.8738836050033569,-0.6051344871520996,9.870096206665039,6.4697265625,-1.03759765625,-0.06103515625
5.2874999,0.8457517623901367,-0.6344634294509888,9.9401273727417,-4.302978515625,-0.701904296875,1.617431640625
