# Time (seconds),Accel_X,Accel_Y,Accel_Z,Gyro_X,Gyro_Y,Gyro_Z
0.0024999,0.50876784324646,-0.35733461380004883,9.952696800231934,-5.279541015625,-0.396728515625,4.0283203125
0.0074999,0.50876784324646,-0.35733461380004883,9.952696800231934,-5.279541015625,-0.396728515625,4.0283203125
0.012499900000000001,0.5183446407318115,-0.44352585077285767,9.712079048156738,-3.082275390625,0.244140625,-4.5166015625
0.0174999,0.5297171473503113,-0.38546648621559143,9.95209789276123,9.21630859375,0.1220703125,0.54931640625
0.0224999,0.47405192255973816,-0.40521863102912903,9.954492568969727,-7.965087890625,0.1220703125,3.11279296875
0.0274999,0.5183446407318115,-0.40222588181495667,9.570821762084961,2.99072265625,-0.213623046875,-5.06591796875
0.0324999,0.5057750940322876,-0.2759317457675934,9.827000617980957,5.615234375,-0.3662109375,3.387451171875
0.0374999,0.4602852761745453,-0.333991140127182,9.657610893249512,-9.490966796875,0.213623046875,0.274658203125
0.0424999,0.4578910768032074,-0.345363587141037,9.588777542114258,5.767822265625,-0.06103515625,-4.547119140625
0.0474999,0.48961424827575684,-0.25079262256622314,9.857526779174805,2.471923828125,0.30517578125,4.33349609375
0.0524999,0.41958385705947876,-0.34835633635520935,9.643245697021484,-8.85009765625,-0.335693359375,-1.3427734375
0.0574999,0.49140989780426025,-0.3477577865123749,9.672574996948242,7.99560546875,-0.1220703125,-3.5400390625
0.0624999,0.5069721937179565,-0.2885012924671173,9.894038200378418,-0.9765625,0.1220703125,4.730224609375
0.0674999,0.4710591733455658,-0.4016273319721222,9.678560256958008,-7.049560546875,-0.244140625,-2.9296875
0.0724999,0.5566518902778625,-0.37648820877075195,9.822811126708984,9.8876953125,-0.213623046875,-2.13623046875
0.0774999,0.524330198764801,-0.43933600187301636,9.739013671875,-5.126953125,0.244140625,-4.150390625
0.0824999,0.5781996846199036,-0.375291109085083,9.914987564086914,9.82666015625,0.244140625,-0.30517578125
0.0874999,0.4920084476470947,-0.3860650360584259,9.956886291503906,-5.9814453125,0.1220703125,3.7841796875
0.0924999,0.5267243981361389,-0.43993455171585083,9.734824180603027,-2.01416015625,0.06103515625,-4.791259765625
0.0974999,0.5261258482933044,-0.3603273630142212,9.973047256469727,8.72802734375,-0.06103515625,1.40380859375
0.1024999,0.4902127981185913,-0.3711012601852417,9.943120002746582,-8.11767578125,0.030517578125,2.685546875
0.1074999,0.50876784324646,-0.42616790533065796,9.692327499389648,1.617431640625,-0.091552734375,-5.18798828125
0.1124999,0.5033808946609497,-0.30526071786880493,9.907805442810059,7.01904296875,0.18310546875,2.685546875
0.1174999,0.44592007994651794,-0.3495534360408783,9.773730278015137,-9.58251953125,0.335693359375,1.3427734375
0.1224999,0.46746787428855896,-0.3627215623855591,9.582193374633789,4.33349609375,-0.1220703125,-4.974365234375
0.1274999,0.4884171485900879,-0.24241292476654053,9.853935241699219,4.82177734375,-0.30517578125,3.5400390625
0.1324999,0.4423287510871887,-0.3477577865123749,9.646238327026367,-9.613037109375,0.18310546875,-0.42724609375
0.1374999,0.47644615173339844,-0.25977087020874023,9.8599214553833,1.556396484375,0.396728515625,4.364013671875
0.1424999,0.406415730714798,-0.3381809890270233,9.627683639526367,-8.575439453125,-0.1220703125,-1.953125
0.1474999,0.4985924959182739,-0.3387795388698578,9.695918083190918,8.453369140625,-0.396728515625,-2.86865234375
0.1524999,0.5093663930892944,-0.2932897210121155,9.895833969116211,-2.044677734375,0.396728515625,4.547119140625
0.1574999,0.4950011968612671,-0.40043023228645325,9.660005569458008,-6.40869140625,-0.152587890625,-3.5400390625
0.1624999,0.5195417404174805,-0.35015198588371277,9.946710586547852,-4.425048828125,0.274658203125,4.241943359375
0.1674999,0.5195417404174805,-0.4471171796321869,9.692327499389648,-4.39453125,0.06103515625,-4.39453125
0.1724999,0.547075092792511,-0.38067805767059326,9.91738224029541,9.21630859375,0,0.18310546875
0.17749990000000002,0.46327802538871765,-0.3926490843296051,9.95329475402832,-7.354736328125,-0.518798828125,3.41796875
0.1824999,0.5033808946609497,-0.44831427931785583,9.727641105651855,-0.762939453125,-0.091552734375,-5.0048828125
0.1874999,0.5045779943466187,-0.35254621505737305,9.97065258026123,8.087158203125,-0.06103515625,1.678466796875
0.1924999,0.5015852451324463,-0.424970805644989,9.668983459472656,2.410888671875,-0.335693359375,-4.94384765625
0.1974999,0.4967968463897705,-0.30047231912612915,9.888651847839355,6.744384765625,-0.18310546875,3.23486328125
0.2024999,0.44592007994651794,-0.363918662071228,9.722254753112793,-9.46044921875,0.42724609375,0.67138671875
0.20749990000000001,0.4572925269603729,-0.365115761756897,9.569623947143555,5.126953125,-0.06103515625,-4.730224609375
0.2124999,0.4902127981185913,-0.262763649225235,9.827000617980957,3.72314453125,0.244140625,4.058837890625
0.2174999,0.4429273009300232,-0.33937808871269226,9.610325813293457,-9.002685546875,-0.396728515625,-0.79345703125
0.2224999,0.4854243993759155,-0.31543606519699097,9.59715747833252,7.50732421875,0,-3.60107421875
0.2274999,0.5129576921463013,-0.2388216257095337,9.86351203918457,-0.030517578125,0.518798828125,4.486083984375
0.2324999,0.4513070285320282,-0.3321954905986786,9.673771858215332,-8.056640625,0.091552734375,-2.50244140625
0.2374999,0.5380968451499939,-0.30705636739730835,9.788095474243164,9.246826171875,-0.18310546875,-2.349853515625
0.2424999,0.5183446407318115,-0.3531447649002075,9.731831550598145,-6.134033203125,0.213623046875,-3.753662109375
0.2474999,0.524330198764801,-0.3381809890270233,9.972448348999023,-5.950927734375,-0.457763671875,3.997802734375
0.2524999,0.545877993106842,-0.41958385705947876,9.727043151855469,-2.960205078125,-0.18310546875,-4.852294921875
0.2574999,0.5482721924781799,-0.37169981002807617,9.95209789276123,8.97216796875,-0.274658203125,0.732421875
0.2624999,0.4866214990615845,-0.39384618401527405,9.948506355285645,-8.087158203125,0.6103515625,3.173828125
0.2674999,0.5039794445037842,-0.4704606235027313,9.692327499389648,0.48828125,-0.1220703125,-5.035400390625
0.2724999,0.49978959560394287,-0.3842693865299225,9.912593841552734,7.99560546875,-0.244140625,2.0751953125
0.2774999,0.444722980260849,-0.43335050344467163,9.799467086791992,-9.58251953125,0.152587890625,1.5869140625
0.2824999,0.47644615173339844,-0.4357447028160095,9.591172218322754,3.326416015625,0.030517578125,-4.8828125
0.28749990000000003,0.4710591733455658,-0.3130418658256531,9.855133056640625,5.340576171875,-0.1220703125,3.631591796875
0.2924999,0.44352585077285767,-0.3531447649002075,9.639654159545898,-9.490966796875,-0.701904296875,0.06103515625
0.2974999,0.4357447028160095,-0.3585317134857178,9.543288230895996,6.103515625,-0.30517578125,-4.486083984375
0.3024999,0.48243165016174316,-0.2537853717803955,9.786897659301758,1.983642578125,-0.274658203125,4.241943359375
0.3074999,0.5015852451324463,-0.3166331648826599,9.632472038269043,8.575439453125,-0.091552734375,-3.082275390625
0.3124999,0.5231330990791321,-0.25438392162323,9.8784761428833,-1.007080078125,0.030517578125,4.669189453125
0.3174999,0.4944026470184326,-0.3489548861980438,9.700706481933594,-7.598876953125,0.152587890625,-3.082275390625
0.3224999,0.5710170865058899,-0.33758243918418884,9.852738380432129,9.552001953125,-0.1220703125,-2.01416015625
0.3274999,0.5315127968788147,-0.3196259140968323,10.015543937683105,-4.0283203125,-0.152587890625,4.364013671875
0.3324999,0.5153518915176392,-0.45190557837486267,9.741408348083496,-4.913330078125,0.457763671875,-4.119873046875
0.3374999,0.5632359385490417,-0.4016273319721222,9.880870819091797,9.613037109375,0.152587890625,-0.213623046875
0.3424999,0.4776432514190674,-0.4225766062736511,9.900622367858887,-6.4697265625,-0.244140625,3.570556640625
0.34749990000000003,0.5165489912033081,-0.47644615173339844,9.675567626953125,-1.708984375,-0.1220703125,-5.096435546875
0.35249990000000003,0.5171475410461426,-0.3818751573562622,9.911396026611328,8.4228515625,-0.1220703125,1.373291015625
0.3574999,0.4770447015762329,-0.4034229815006256,9.898228645324707,-8.7890625,-0.1220703125,2.593994140625
0.3624999,0.49799394607543945,-0.45010992884635925,9.671378135681152,1.64794921875,-0.42724609375,-5.035400390625
0.3674999,0.4537012279033661,-0.38307225704193115,9.771934509277344,-9.979248046875,0.335693359375,1.007080078125
0.3724999,0.47884035110473633,-0.38127660751342773,9.602544784545898,4.669189453125,-0.274658203125,-4.669189453125
0.3774999,0.5021837949752808,-0.24779987335205078,9.868300437927246,4.608154296875,-0.091552734375,3.90625
0.3824999,0.45489832758903503,-0.3256114423274994,9.654618263244629,-9.552001953125,0.3662109375,-0.54931640625
0.3874999,0.4620809257030487,-0.2932897210121155,9.59177017211914,7.110595703125,-0.42724609375,-3.936767578125
0.3924999,0.49320554733276367,-0.22266076505184174,9.832986831665039,1.373291015625,-0.152587890625,4.57763671875
0.3974999,0.42197805643081665,-0.3298012912273407,9.61212158203125,-8.148193359375,0.30517578125,-2.25830078125
0.4024999,0.4794389009475708,-0.4040215313434601,9.868300437927246,-9.3994140625,0.30517578125,1.89208984375
0.4074999,0.5111620426177979,-0.4058171808719635,9.6618013381958,2.655029296875,-0.274658203125,-4.974365234375
0.41249990000000003,0.5105634927749634,-0.2555810213088989,9.889848709106445,5.9814453125,-0.42724609375,3.47900390625
0.41749990000000003,0.46986207365989685,-0.3214215636253357,9.731232643127441,-9.58251953125,-0.091552734375,0.3662109375
0.4224999,0.46986207365989685,-0.3298012912273407,9.606135368347168,5.523681640625,-0.1220703125,-4.547119140625
0.4274999,0.4908113479614258,-0.2364274114370346,9.865906715393066,2.716064453125,0.030517578125,4.21142578125
0.4324999,0.4207809567451477,-0.3519476354122162,9.622895240783691,-8.97216796875,-0.152587890625,-1.15966796875
0.4374999,0.4638765752315521,-0.5159504413604736,9.683348655700684,8.331298828125,0.030517578125,-3.021240234375
0.4424999,0.4967968463897705,-0.4800374507904053,9.916783332824707,2.44140625,0.823974609375,6.2255859375
0.4474999,0.43095630407333374,-0.4920084476470947,9.651026725769043,-7.415771484375,0.335693359375,-2.99072265625
0.4524999,0.5554547905921936,-0.33339259028434753,9.7605619430542,8.7890625,-0.732421875,-5.92041015625
0.4574999,0.5195417404174805,-0.046088382601737976,9.81024169921875,-5.828857421875,0.30517578125,4.0283203125
0.4624999,0.524330198764801,-0.08200141042470932,9.534908294677734,-7.6904296875,0.732421875,-0.732421875
0.4674999,0.557250440120697,-0.152031809091568,9.707889556884766,9.09423828125,-0.030517578125,0.8544921875
0.47249990000000003,0.4507084786891937,-0.3423708379268646,9.807847023010254,-6.28662109375,-0.48828125,2.44140625
0.47749990000000003,0.4734533727169037,-0.5829881429672241,9.651026725769043,-0.79345703125,-1.3427734375,-5.859375
0.4824999,0.4908113479614258,-0.5512649416923523,9.919178009033203,11.04736328125,-0.79345703125,0.946044921875
0.4874999,0.4776432514190674,-0.5363011956214905,9.934141159057617,-8.23974609375,-0.152587890625,2.50244140625
0.4924999,0.5386953949928284,-0.4686649739742279,9.706692695617676,1.251220703125,0.152587890625,-4.94384765625
0.4974999,0.5602431893348694,-0.22266076505184174,9.941324234008789,5.79833984375,0.42724609375,3.387451171875
0.5024999,0.5123591423034668,-0.29867666959762573,9.610325813293457,3.936767578125,0.213623046875,-5.06591796875
0.5074999,0.5123591423034668,-0.29867666959762573,9.610325813293457,3.936767578125,0.213623046875,-5.06591796875
0.5124999,0.5111620426177979,-0.2495955228805542,9.85034465789795,4.2724609375,0.701904296875,3.631591796875
0.5174999,0.42377370595932007,-0.41718965768814087,9.616909980773926,-8.544921875,0.091552734375,-0.579833984375
0.5224999,0.4279635548591614,-0.40880993008613586,9.572616577148438,8.48388671875,-0.3662109375,-3.72314453125
0.5274999,0.4489128291606903,-0.3076549172401428,9.840168952941895,1.40380859375,-0.885009765625,4.21142578125
0.5324999,0.395043283700943,-0.3387795388698578,9.640851974487305,-8.575439453125,0.06103515625,-2.5634765625
0.5374999,0.5081692934036255,-0.26994624733924866,9.755773544311523,8.575439453125,-0.152587890625,-2.197265625
0.5424999,0.5147533416748047,-0.21547815203666687,9.966463088989258,-3.692626953125,0.030517578125,5.2490234375
0.5474999,0.517746090888977,-0.3495534360408783,9.691728591918945,-6.317138671875,-0.30517578125,-3.570556640625
0.5524999,0.5913678407669067,-0.36810851097106934,9.848548889160156,9.82666015625,-0.244140625,-0.946044921875
0.5574999,0.5201402902603149,-0.43514615297317505,9.950302124023438,-5.218505859375,0.244140625,3.7841796875
0.5624999,0.5392939448356628,-0.5446808934211731,9.718663215637207,-2.197265625,-0.091552734375,-4.913330078125
0.5674999000000001,0.4818331003189087,-0.43095630407333374,9.97603988647461,-7.568359375,0.518798828125,3.204345703125
0.5724999000000001,0.4818331003189087,-0.43095630407333374,9.97603988647461,-7.568359375,0.518798828125,3.204345703125
0.5774999000000001,0.5123591423034668,-0.4381389021873474,9.710882186889648,-0.030517578125,0.213623046875,-5.035400390625
0.5824999,0.5009866952896118,-0.284311443567276,9.932345390319824,6.622314453125,-0.06103515625,2.349853515625
0.5874999,0.4471171796321869,-0.33937808871269226,9.815030097961426,-9.70458984375,-0.457763671875,1.40380859375
0.5924999,0.4644751250743866,-0.3705027103424072,9.605537414550781,3.692626953125,-0.3662109375,-5.096435546875
0.5974999,0.4752490520477295,-0.2890998423099518,9.88745403289795,5.43212890625,0.091552734375,3.570556640625
0.6024999,0.43754035234451294,-0.38067805767059326,9.667187690734863,-9.246826171875,-0.6103515625,-0.274658203125
0.6074999,0.45669397711753845,-0.3663128614425659,9.606135368347168,6.7138671875,-0.244140625,-4.302978515625
0.6124999,0.4985924959182739,-0.2561795711517334,9.84376049041748,2.01416015625,0.30517578125,4.486083984375
0.6174999,0.43933600187301636,-0.3298012912273407,9.631275177001953,-9.063720703125,0.396728515625,-1.64794921875
0.6224999,0.5267243981361389,-0.3016694188117981,9.671378135681152,8.270263671875,0.18310546875,-2.86865234375
0.6274999,0.5069721937179565,-0.35254621505737305,9.986215591430664,-3.875732421875,0.244140625,4.45556640625
0.6324999,0.4985924959182739,-0.44771572947502136,9.726444244384766,-4.119873046875,0.152587890625,-4.21142578125
0.6374999,0.5380968451499939,-0.3992331326007843,9.93593692779541,9.552001953125,-0.152587890625,0.06103515625
0.6424999,0.4596867263317108,-0.40282443165779114,9.959878921508789,-7.01904296875,-0.213623046875,3.692626953125
0.6474999,0.5141547918319702,-0.45848962664604187,9.736021041870117,-1.068115234375,-0.335693359375,-4.913330078125
0.6524999,0.5273229479789734,-0.3800795078277588,9.963470458984375,8.087158203125,-0.152587890625,1.5869140625
0.6574999,0.5003881454467773,-0.40222588181495667,9.892242431640625,-8.880615234375,0,2.349853515625
0.6624999,0.5315127968788147,-0.4495113790035248,9.66299819946289,2.716064453125,-0.3662109375,-5.2490234375
0.6674999,0.5249287486076355,-0.3106476664543152,9.872490882873535,6.591796875,0.091552734375,2.838134765625
0.6724999,0.47465047240257263,-0.3585317134857178,9.724050521850586,-9.979248046875,0.335693359375,0.762939453125
0.6774999,0.48063600063323975,-0.25917232036590576,9.856329917907715,0.823974609375,-0.030517578125,4.5166015625
0.6824999,0.4225766062736511,-0.35733461380004883,9.66299819946289,-7.75146484375,-0.091552734375,-2.471923828125
0.6874999,0.5183446407318115,-0.3585317134857178,9.778518676757812,9.307861328125,-0.244140625,-2.532958984375
0.6924999000000001,0.5117605924606323,-0.2974795699119568,9.989208221435547,-2.86865234375,0.42724609375,4.486083984375
0.6974999000000001,0.5093663930892944,-0.39863458275794983,9.717466354370117,-5.859375,-0.274658203125,-3.875732421875
0.7024999000000001,0.5770025849342346,-0.35733461380004883,9.873687744140625,10.1318359375,-0.30517578125,-0.946044921875
0.7074999,0.5111620426177979,-0.363918662071228,9.961674690246582,-5.615234375,0,4.119873046875
0.7124999,0.5249287486076355,-0.4578910768032074,9.731232643127441,-3.35693359375,0.274658203125,-4.608154296875
0.7174999,0.5422866940498352,-0.39564183354377747,9.967061996459961,9.185791015625,0,0.762939453125
0.7224999,0.8631097078323364,-0.7733271718025208,9.114726066589355,5.2490234375,-0.42724609375,3.11279296875
0.7274999,1.060032844543457,-1.0761936902999878,7.553107738494873,-69.88525390625,6.53076171875,84.747314453125
0.7324999,1.2437877655029297,-2.09672212600708,5.4653639793396,10.101318359375,-9.307861328125,167.266845703125
0.7374999,1.237802267074585,-2.319382905960083,3.995922565460205,157.04345703125,-12.14599609375,218.414306640625
0.7424999,0.6518214344978333,-3.2112231254577637,1.5747861862182617,165.52734375,57.80029296875,183.53271484375
0.7474999,-0.11252748221158981,-2.9933507442474365,0.5057750940322876,-122.039794921875,-11.871337890625,415.740966796875
0.7524999,-0.8194155097007751,-1.6478092670440674,-0.2974795699119568,115.53955078125,-94.29931640625,346.00830078125
0.7574999,-1.301847219467163,-0.657806932926178,-0.15322890877723694,-10.284423828125,-65.49072265625,175.445556640625
0.7624999,-1.0893617868423462,2.118269920349121,1.3946224451065063,-7.171630859375,-54.26025390625,157.684326171875
0.7674999,-0.6015431880950928,3.936666250228882,3.3435027599334717,-9.8876953125,-101.959228515625,71.47216796875
0.7724999,0.17058686912059784,4.445434093475342,4.84287166595459,-79.437255859375,-154.754638671875,39.6728515625
0.7774999,1.9752163887023926,5.451597213745117,6.884527206420898,1.434326171875,-106.231689453125,32.135009765625
0.7824999,2.677914619445801,4.378994941711426,7.107187747955322,-60.9130859375,-105.3466796875,23.162841796875
0.7874999,4.196436882019043,4.128202438354492,7.679401874542236,82.94677734375,-90.484619140625,51.666259765625
0.7924999,4.551377296447754,2.936488389968872,6.423044681549072,22.39990234375,-66.192626953125,42.6025390625
0.7974999,5.0050787925720215,1.202487826347351,5.643133640289307,-59.63134765625,-69.27490234375,20.782470703125
0.8024999,5.160701751708984,1.2288240194320679,5.374982833862305,85.662841796875,-41.351318359375,5.7373046875
0.8074999,4.753687381744385,0.961870551109314,4.181473255157471,39.459228515625,-6.04248046875,4.2724609375
0.8124999,4.621407985687256,1.18094003200531,4.57112979888916,-75.103759765625,-6.28662109375,3.2958984375
0.8174999000000001,4.440047264099121,1.843535304069519,4.990713596343994,1.28173828125,2.01416015625,-0.42724609375
0.8224999000000001,4.280233860015869,2.0919337272644043,5.458181381225586,-16.6015625,21.270751953125,-19.805908203125
0.8274999000000001,4.127603530883789,2.3959972858428955,6.542156219482422,-75.37841796875,35.247802734375,-10.711669921875
0.8324999000000001,4.273650169372559,2.0715830326080322,8.216899871826172,-26.7333984375,59.99755859375,-4.058837890625
0.8374999,3.6385879516601562,0.08499415963888168,10.849923133850098,10.955810546875,105.04150390625,-5.401611328125
0.8424999,2.9203274250030518,-0.7595604658126831,10.781089782714844,-7.415771484375,98.14453125,-34.11865234375
0.8474999,2.0626046657562256,-1.590348482131958,10.525508880615234,-52.398681640625,104.55322265625,-23.5595703125
0.8524999,1.24917471408844,-1.96683669090271,10.24658489227295,10.650634765625,114.776611328125,-19.866943359375
0.8574999,0.42676645517349243,-2.167949676513672,9.81143856048584,0.79345703125,94.146728515625,-45.47119140625
0.8624999,-0.23283611238002777,-2.2703018188476562,9.698312759399414,-17.333984375,82.82470703125,-23.406982421875
0.8674999,-0.7679402232170105,-2.1751322746276855,9.996989250183105,34.942626953125,70.404052734375,-16.937255859375
0.8724999,-1.30543851852417,-2.0883424282073975,10.168174743652344,4.150390625,41.839599609375,-32.379150390625
0.8774999,-1.8183962106704712,-1.7968484163284302,10.483611106872559,5.645751953125,25.08544921875,-4.2724609375
0.8824999,-2.1499931812286377,-1.3000515699386597,10.492588996887207,37.53662109375,11.65771484375,-15.960693359375
0.8874999,-2.431910276412964,-0.7775170207023621,10.052654266357422,-18.798828125,-5.79833984375,-27.7099609375
0.8924999,-0.41958385705947876,0.4800374507904053,9.801262855529785,-16.998291015625,-27.923583984375,-13.519287109375
0.8974999,0.09397241473197937,0.16998831927776337,10.063427925109863,-27.099609375,-26.91650390625,6.011962890625
0.9024999,0.6045359373092651,-0.11791443079710007,10.144830703735352,27.03857421875,-31.951904296875,-0.946044921875
0.9074999,0.8882488012313843,-0.4213795065879822,9.736021041870117,-30.731201171875,-27.008056640625,-12.6953125
0.9124999,1.1569979190826416,-0.7068880796432495,9.923367500305176,1.129150390625,-20.01953125,9.70458984375
0.9174999,1.326986312866211,-0.9181763529777527,9.740809440612793,18.798828125,-24.871826171875,-10.8642578125
0.9224999,1.3413515090942383,-0.9139865040779114,9.510367393493652,-30.853271484375,-13.214111328125,-0.640869140625
0.9274999,1.4538789987564087,-0.9810241460800171,9.8784761428833,30.487060546875,-10.833740234375,7.354736328125
0.9324999,1.392826795578003,-0.7595604658126831,9.485228538513184,-8.4228515625,-12.664794921875,-12.8173828125
0.9374999,1.3736732006072998,-0.4207809567451477,9.804255485534668,30.364990234375,-2.899169921875,-5.18798828125
0.9424999000000001,1.2156559228897095,-0.15741875767707825,9.480440139770508,-33.02001953125,3.41796875,-3.631591796875
0.9474999000000001,1.2000936269760132,-0.18136078119277954,9.940725326538086,20.843505859375,9.735107421875,11.53564453125
0.9524999000000001,1.0761936902999878,-0.10354922711849213,9.595361709594727,-0.54931640625,4.2724609375,-10.894775390625
0.9574999000000001,0.9313444495201111,-0.17417816817760468,9.747393608093262,-20.751953125,14.0380859375,9.735107421875
0.9624999,0.5386953949928284,-0.46986207365989685,9.693524360656738,0.79345703125,2.86865234375,-14.2822265625
0.9674999,0.4291606545448303,-0.49320554733276367,9.841964721679688,-17.547607421875,10.833740234375,8.7890625
0.9724999,0.48243165016174316,-0.4991910457611084,9.947309494018555,30.975341796875,1.46484375,-3.11279296875
0.9774999,0.3381809890270233,-0.38307225704193115,9.55825138092041,-30.029296875,3.997802734375,-3.875732421875
0.9824999,0.40462008118629456,-0.2214636504650116,9.941922187805176,-10.92529296875,3.47900390625,10.986328125
0.9874999,0.4638765752315521,-0.2735375463962555,9.882067680358887,24.627685546875,-7.415771484375,-7.354736328125
0.9924999,0.40940847992897034,-0.23343466222286224,9.646238327026367,-32.196044921875,-1.983642578125,-0.42724609375
0.9974999,0.4686649739742279,-0.322618693113327,10.055646896362305,28.778076171875,-4.08935546875,4.730224609375
1.0024999,0.4728548228740692,-0.3866635859012604,9.555258750915527,-20.721435546875,-8.60595703125,-11.77978515625
1.0074999000000002,0.536899745464325,-0.40880993008613586,10.02811336517334,4.913330078125,-0.091552734375,11.016845703125
1.0124999000000001,0.6536170840263367,-0.4602852761745453,9.712677955627441,10.284423828125,-9.124755859375,-11.871337890625
1.0174999000000002,0.6631938815116882,-0.4578910768032074,9.756970405578613,-23.0712890625,1.007080078125,7.049560546875
1.0224999000000001,0.8236053586006165,-0.45250412821769714,9.924564361572266,30.8837890625,-3.631591796875,-2.99072265625
1.0274999,0.7637503147125244,-0.41539400815963745,9.48762321472168,-30.914306640625,-1.312255859375,-3.662109375
1.0324999000000001,0.8912416100502014,-0.3992331326007843,9.997588157653809,24.59716796875,3.753662109375,7.293701171875
1.0374999,0.8493430614471436,-0.30226796865463257,9.928754806518555,0.18310546875,8.331298828125,11.444091796875
1.0424999000000001,0.8780734539031982,-0.3148375153541565,9.674370765686035,12.725830078125,-0.30517578125,-11.474609375
1.0474999,0.751779317855835,-0.26575639843940735,9.715071678161621,-23.101806640625,7.8125,7.354736328125
1.0524999000000002,0.812831461429596,-0.37828385829925537,9.890447616577148,29.266357421875,2.86865234375,-3.570556640625
1.0574999,0.6536170840263367,-0.345363587141037,9.533112525939941,-29.6630859375,3.814697265625,-1.556396484375
1.0624999000000002,0.6560112833976746,-0.4082113802433014,9.986215591430664,26.91650390625,5.584716796875,5.859375
1.0674999,0.5165489912033081,-0.4357447028160095,9.520543098449707,-19.195556640625,-1.5869140625,-9.70458984375
1.0724999000000002,0.4812345504760742,-0.3758896589279175,10.056245803833008,9.82666015625,5.157470703125,11.23046875
1.0774999,0.43514615297317505,-0.39803603291511536,9.66299819946289,1.190185546875,-4.82177734375,-12.603759765625
1.0824999000000002,0.4100070297718048,-0.3172317147254944,9.984419822692871,-11.566162109375,2.13623046875,10.3759765625
1.0874999,0.45429977774620056,-0.33339259028434753,9.871294021606445,20.050048828125,-5.584716796875,-9.002685546875
1.0924999000000002,0.40940847992897034,-0.31543606519699097,9.75517463684082,-26.580810546875,-1.64794921875,4.913330078125
1.0974999,0.5327098965644836,-0.3878606855869293,10.015543937683105,28.961181640625,-3.5400390625,-1.922607421875
1.1024999000000002,0.5063736438751221,-0.40880993008613586,9.612719535827637,-29.23583984375,-4.364013671875,-2.44140625
1.1074999,0.6607996821403503,-0.3932476341724396,10.032303810119629,25.421142578125,0,5.2490234375
1.1124999000000002,0.6404489278793335,-0.4183867573738098,9.539097785949707,-20.172119140625,-5.55419921875,-8.544921875
1.1174999,0.751779317855835,-0.3429693877696991,10.028712272644043,12.87841796875,2.777099609375,9.918212890625
1.1224999000000002,0.788889467716217,-0.3345896899700165,9.996390342712402,-3.23486328125,4.241943359375,11.199951171875
1.1274999,0.788889467716217,-0.3345896899700165,9.996390342712402,-3.23486328125,4.241943359375,11.199951171875
1.1324999000000002,0.8271966576576233,-0.34356793761253357,9.655217170715332,10.894775390625,-1.861572265625,-11.077880859375
1.1374999000000001,0.767341673374176,-0.29568392038345337,9.817423820495605,-17.08984375,3.84521484375,8.697509765625
1.1424999000000002,0.7870938181877136,-0.34656068682670593,9.804255485534668,22.3388671875,0.946044921875,-8.056640625
1.1474999000000001,0.6584054827690125,-0.36332011222839355,9.660603523254395,-25.360107421875,2.655029296875,4.486083984375
1.1524999000000002,0.6823474764823914,-0.4345476031303406,9.941922187805176,27.587890625,2.5634765625,-3.082275390625
1.1574999000000001,0.5267243981361389,-0.43095630407333374,9.575610160827637,-23.956298828125,-1.739501953125,-5.157470703125
1.1624999,0.5267243981361389,-0.43095630407333374,9.575610160827637,-23.956298828125,-1.739501953125,-5.157470703125
1.1674999000000001,0.5991489887237549,-0.33099839091300964,10.029909133911133,20.81298828125,2.86865234375,6.500244140625
1.1724999,0.48063600063323975,-0.37229835987091064,9.550470352172852,-16.54052734375,-3.35693359375,-8.6669921875
1.1774999000000002,0.5638344883918762,-0.30705636739730835,10.052056312561035,12.26806640625,1.953125,9.1552734375
1.1824999,0.49559974670410156,-0.3477577865123749,9.55466079711914,-7.75146484375,-3.875732421875,-10.711669921875
1.1874999000000002,0.5991489887237549,-0.32441434264183044,10.061034202575684,2.960205078125,1.52587890625,10.589599609375
1.1924999,0.6039373874664307,-0.3166331648826599,9.576807022094727,0.946044921875,-3.875732421875,-11.199951171875
1.1974999000000002,0.6631938815116882,-0.3082534670829773,9.987412452697754,-5.279541015625,1.190185546875,10.467529296875
1.2024999,0.7092822790145874,-0.3884592354297638,9.606734275817871,8.9111328125,-2.8076171875,-10.80322265625
1.2074999000000002,0.6853402256965637,-0.32202014327049255,9.872490882873535,-12.420654296875,1.129150390625,9.368896484375
1.2124999,0.7583633661270142,-0.5261258482933044,9.678560256958008,15.07568359375,-1.678466796875,-9.490966796875
1.2174999000000002,0.7487865686416626,-0.5476736426353455,9.783905029296875,19.378662109375,-0.48828125,-7.659912109375
1.2224999,0.7487865686416626,-0.5476736426353455,9.783905029296875,19.378662109375,-0.48828125,-7.659912109375
1.2274999000000002,0.6512228846549988,-0.25677812099456787,9.748590469360352,-20.965576171875,1.190185546875,5.950927734375
1.2324999,0.7050924301147461,-0.47884035110473633,9.882067680358887,22.369384765625,0.518798828125,-5.767822265625
1.2374999000000002,0.596754789352417,-0.21966800093650818,9.724050521850586,-23.162841796875,0.79345703125,3.90625
1.2424999,0.6584054827690125,-0.4207809567451477,9.900622367858887,24.261474609375,1.068115234375,-3.35693359375
1.2474999000000002,0.5638344883918762,-0.20111294090747833,9.610923767089844,-24.627685546875,0.18310546875,1.953125
1.2524999,0.641047477722168,-0.3908534348011017,9.901819229125977,25.146484375,1.220703125,-1.861572265625
1.2574999000000002,0.5554547905921936,-0.23523031175136566,9.561842918395996,-24.7802734375,-0.30517578125,0.457763671875
1.2624999000000001,0.6416460275650024,-0.414795458316803,9.965266227722168,24.078369140625,1.46484375,0.091552734375
1.2674999000000002,0.5410895943641663,-0.3298012912273407,9.591172218322754,-23.98681640625,-1.007080078125,-0.762939453125
1.2724999000000001,0.6440402865409851,-0.46986207365989685,10.017339706420898,23.773193359375,1.129150390625,0.91552734375
1.2774999000000002,0.5351040959358215,-0.40940847992897034,9.63067626953125,-23.25439453125,-1.678466796875,-2.288818359375
1.2824999000000001,0.6913257241249084,-0.37229835987091064,10.052056312561035,21.97265625,0.640869140625,2.166748046875
1.2874999,0.6003460884094238,-0.3357867896556854,9.65222454071045,-21.484375,-2.105712890625,-3.265380859375
1.2924999000000001,0.7206547260284424,-0.3208230137825012,10.023324966430664,21.42333984375,0.67138671875,2.716064453125
1.2974999,0.6278793811798096,-0.33339259028434753,9.609726905822754,-21.209716796875,-1.8310546875,-3.509521484375
1.3024999000000002,0.7368155717849731,-0.3172317147254944,9.974244117736816,20.965576171875,1.40380859375,2.8076171875
1.3074999,0.6374561786651611,-0.36092591285705566,9.57321548461914,-20.904541015625,-1.373291015625,-3.387451171875
1.3124999000000002,0.7410054206848145,-0.3519476354122162,9.946710586547852,20.965576171875,1.52587890625,2.899169921875
1.3174999,0.6242880821228027,-0.38546648621559143,9.564237594604492,-20.93505859375,-0.91552734375,-2.9296875
1.3224999000000002,0.7212532758712769,-0.3842693865299225,9.953893661499023,20.99609375,1.708984375,2.3193359375
1.3274999,0.586579442024231,-0.3902548849582672,9.59057331085205,-20.904541015625,-0.579833984375,-2.716064453125
1.3324999000000002,0.6787561774253845,-0.383670836687088,9.983820915222168,21.240234375,1.708984375,1.434326171875
1.3374999,0.6506243348121643,-0.3728969097137451,9.95209789276123,21.66748046875,0.701904296875,-0.48828125
1.3424999000000002,0.5602431893348694,-0.3082534670829773,9.618106842041016,-21.514892578125,-0.48828125,0.42724609375
1.3474999,0.6805518269538879,-0.3902548849582672,9.898228645324707,21.209716796875,0.48828125,-1.77001953125
1.3524999000000002,0.5925649404525757,-0.2849099934101105,9.643245697021484,-21.026611328125,-0.823974609375,2.044677734375
1.3574999,0.6883329749107361,-0.41359832882881165,9.872490882873535,20.599365234375,-0.1220703125,-3.265380859375
1.3624999000000002,0.5973533391952515,-0.2825157940387726,9.673172950744629,-20.20263671875,-0.579833984375,3.5400390625
1.3674999,0.6913257241249084,-0.44412440061569214,9.848548889160156,19.256591796875,-0.6103515625,-4.913330078125
1.3724999000000002,0.6063315868377686,-0.29867666959762573,9.716867446899414,-18.37158203125,0,5.31005859375
1.3774999,0.7098808288574219,-0.46627077460289,9.785700798034668,17.02880859375,-0.6103515625,-6.591796875
1.3824999000000002,0.6955155730247498,-0.4794389009475708,9.715670585632324,13.702392578125,-0.79345703125,-7.99560546875
1.3874999000000001,0.618302583694458,-0.3034650683403015,9.92097282409668,-11.322021484375,0.946044921875,7.9345703125
1.3924999000000002,0.6500257849693298,-0.4471171796321869,9.660603523254395,9.246826171875,-0.9765625,-9.185791015625
1.3974999000000001,0.6404489278793335,-0.2867056429386139,9.985616683959961,-6.134033203125,1.312255859375,8.758544921875
1.4024999000000002,0.5871779918670654,-0.383670836687088,9.633070945739746,3.631591796875,-0.79345703125,-9.552001953125
1.4074999000000001,0.6332663297653198,-0.27653029561042786,10.02691650390625,-0.396728515625,1.800537109375,8.85009765625
1.4124999,0.5380968451499939,-0.32620999217033386,9.607333183288574,-2.5634765625,-1.068115234375,-9.21630859375
1.4174999000000001,0.639850378036499,-0.2735375463962555,10.023324966430664,5.67626953125,1.556396484375,8.026123046875
1.4224999,0.5883750915527344,-0.31603461503982544,9.545681953430176,-8.6669921875,-1.0986328125,-7.99560546875
1.4274999000000002,0.7026981711387634,-0.322618693113327,9.979032516479492,11.5966796875,1.40380859375,6.378173828125
1.4324999,0.6625953316688538,-0.3663128614425659,9.522936820983887,-14.068603515625,-1.190185546875,-5.67626953125
1.4374999000000002,0.7457938194274902,-0.4183867573738098,9.940725326538086,16.448974609375,0.6103515625,3.692626953125
1.4424999,0.7164648771286011,-0.48961424827575684,9.938929557800293,18.829345703125,0.518798828125,0.3662109375
1.4474999000000002,0.5907692909240723,-0.395043283700943,9.676764488220215,-18.951416015625,-0.640869140625,0.8544921875
1.4524999,0.6823474764823914,-0.4926069974899292,9.92097282409668,18.5546875,-0.274658203125,-3.265380859375
1.4574999000000002,0.595557689666748,-0.3190273642539978,9.784503936767578,-17.242431640625,0.06103515625,4.302978515625
1.4624999,0.6949170231819153,-0.4381389021873474,9.781511306762695,15.106201171875,-0.518798828125,-6.53076171875
1.4674999000000002,0.6248866319656372,-0.2519897222518921,9.885659217834473,-11.993408203125,0.6103515625,6.9580078125
1.4724999,0.6631938815116882,-0.43933600187301636,9.632472038269043,8.697509765625,-1.373291015625,-8.30078125
1.4774999000000002,0.6362590789794922,-0.2406172752380371,9.980229377746582,-4.39453125,0.91552734375,8.453369140625
1.4824999,0.5770025849342346,-0.45250412821769714,9.621698379516602,0.335693359375,-0.946044921875,-9.063720703125
1.4874999000000002,0.6637924313545227,-0.24839842319488525,10.00955867767334,4.058837890625,1.556396484375,7.904052734375
1.4924999,0.6075286865234375,-0.36152446269989014,9.62947940826416,-8.270263671875,-1.0986328125,-7.476806640625
1.4974999000000002,0.7308300733566284,-0.26755204796791077,9.988011360168457,12.26806640625,0.9765625,5.584716796875
1.5024999,0.7332242727279663,-0.3663128614425659,9.928155899047852,17.120361328125,0.579833984375,1.5869140625
1.5074999000000002,0.6117185354232788,-0.333991140127182,9.610325813293457,-18.035888671875,-0.335693359375,0.1220703125
1.5124999000000001,0.6787561774253845,-0.49559974670410156,9.876082420349121,17.547607421875,0.274658203125,-2.838134765625
1.5174999000000002,0.5650315880775452,-0.36990416049957275,9.774328231811523,-15.533447265625,0.274658203125,4.5166015625
1.5224999000000001,0.5895721912384033,-0.507570743560791,9.603142738342285,4.058837890625,-1.251220703125,-8.636474609375
1.5274999000000002,0.6344634294509888,-0.2621650993824005,9.988011360168457,0.946044921875,1.28173828125,7.904052734375
1.5324999000000001,0.5632359385490417,-0.4076128304004669,9.610325813293457,-6.134033203125,-1.251220703125,-7.720947265625
1.5374999000000003,0.6859387755393982,-0.2454056739807129,10.023324966430664,10.55908203125,1.03759765625,5.7373046875
1.5424999000000001,0.6177040338516235,-0.26575639843940735,9.59476375579834,-14.434814453125,-0.8544921875,-4.119873046875
1.5474999,0.6979097723960876,-0.3381809890270233,9.938331604003906,16.4794921875,0.48828125,1.3427734375
1.5524999000000002,0.6955155730247498,-0.4770447015762329,9.815628051757812,16.05224609375,0.152587890625,-3.814697265625
1.5574999,0.6093243360519409,-0.35434186458587646,9.852738380432129,-13.214111328125,0.67138671875,5.462646484375
1.5624999000000002,0.6602011322975159,-0.5416881442070007,9.678560256958008,8.85009765625,-0.579833984375,-7.476806640625
1.5674999,0.6290764808654785,-0.32441434264183044,9.999382972717285,-3.47900390625,1.129150390625,7.781982421875
1.5724999000000002,0.5674257874488831,-0.4794389009475708,9.580398559570312,-1.983642578125,-1.03759765625,-8.209228515625
1.5774999,0.6428431272506714,-0.2645592987537384,9.977835655212402,7.659912109375,1.220703125,6.53076171875
1.5824999000000002,0.5931634902954102,-0.32860419154167175,9.57860279083252,-11.993408203125,-0.67138671875,-5.157470703125
1.5874999,0.6841431260108948,-0.3232172429561615,9.926360130310059,15.13671875,0.9765625,2.227783203125
1.5924999000000002,0.6248866319656372,-0.27892449498176575,9.634865760803223,-16.571044921875,0.030517578125,0.152587890625
1.5974999,0.7044938206672668,-0.4507084786891937,9.823410034179688,15.7470703125,-0.18310546875,-3.47900390625
1.6024999000000002,0.6159083843231201,-0.32441434264183044,9.82879638671875,-12.6953125,0.54931640625,5.157470703125
1.6074999,0.6422445774078369,-0.5351040959358215,9.663596153259277,8.23974609375,-0.762939453125,-7.4462890625
1.6124999000000002,0.5847837924957275,-0.4537012279033661,9.607931137084961,-3.631591796875,-1.312255859375,-7.354736328125
1.6174999,0.6703764796257019,-0.2555810213088989,10.005967140197754,9.246826171875,0.885009765625,5.55419921875
1.6224999000000002,0.608127236366272,-0.28131869435310364,9.594164848327637,-13.5498046875,-0.579833984375,-3.692626953125
1.6274999,0.706289529800415,-0.36571431159973145,9.9371337890625,15.777587890625,0.42724609375,0.18310546875
1.6324999000000002,0.6254851818084717,-0.30226796865463257,9.679159164428711,-15.472412109375,-0.1220703125,2.38037109375
1.6374999000000001,0.6943184733390808,-0.5171475410461426,9.761758804321289,13.18359375,-0.54931640625,-5.126953125
1.6424999000000002,0.6446388363838196,-0.3693056106567383,9.916184425354004,-8.392333984375,0.79345703125,7.080078125
1.6474999000000001,0.6033388376235962,-0.536899745464325,9.656414031982422,2.9296875,-1.190185546875,-7.537841796875
1.6524999000000002,0.6422445774078369,-0.2753331959247589,10.000580787658691,5.06591796875,1.678466796875,5.859375
1.6574999000000001,0.750582218170166,-0.31842881441116333,9.463082313537598,-9.246826171875,1.739501953125,-6.866455078125
1.6624999000000003,1.5071499347686768,-0.47165772318840027,9.70429801940918,51.513671875,53.52783203125,-2.716064453125
1.6674999000000001,2.2876596450805664,-0.8972271084785461,9.394248962402344,36.468505859375,42.17529296875,-23.86474609375
1.6724999,5.559336185455322,-3.070563793182373,13.35964584350586,205.87158203125,203.9794921875,-77.239990234375
1.6774999000000002,5.036203384399414,-2.761711597442627,14.756063461303711,227.783203125,197.44873046875,-111.99951171875
1.6824999,0.5937620401382446,1.0576386451721191,15.35700798034668,208.0078125,109.649658203125,-155.45654296875
1.6874999000000002,-1.2186486721038818,2.231395959854126,12.987346649169922,185.11962890625,74.493408203125,-146.1181640625
1.6924999,-2.479794502258301,2.893991231918335,10.119093894958496,184.50927734375,6.500244140625,-147.430419921875
1.6974999000000002,-2.93349552154541,3.9193081855773926,7.308899402618408,138.824462890625,-69.03076171875,-132.476806640625
1.7024999,-2.9239187240600586,3.845088005065918,4.791396141052246,103.485107421875,-118.377685546875,-147.216796875
1.7074999000000002,-2.29484224319458,4.436455726623535,3.092710018157959,70.343017578125,-160.64453125,-134.002685546875
1.7124999,0.16220717132091522,1.1893197298049927,0.17896658182144165,-92.71240234375,-237.030029296875,0.152587890625
1.7174999000000002,0.09696517139673233,1.3832499980926514,0.1472434103488922,-72.509765625,-224.822998046875,18.61572265625
1.7224999,-0.17537526786327362,1.403002142906189,0.19452889263629913,-85.174560546875,-211.5478515625,26.79443359375
1.7274999000000002,-0.5740098357200623,1.9357120990753174,2.3942017555236816,-81.207275390625,-174.25537109375,23.25439453125
1.7324999,-0.5494692921638489,3.5212721824645996,5.213374137878418,-244.20166015625,-26.214599609375,22.64404296875
1.7374999000000002,-0.46627077460289,4.32991361618042,8.252813339233398,-440.97900390625,118.011474609375,6.04248046875
1.7424999,0.13527239859104156,5.798158168792725,10.164583206176758,-452.484130859375,167.877197265625,26.30615234375
1.7474999000000002,1.193509578704834,5.67964506149292,10.547656059265137,-383.331298828125,201.47705078125,28.778076171875
1.7524999,2.805405855178833,4.121618270874023,10.910377502441406,-159.912109375,249.81689453125,19.95849609375
1.7574999000000002,4.032433986663818,0.6841431260108948,12.033856391906738,100.15869140625,249.08447265625,-37.933349609375
1.7624999000000001,3.8109705448150635,-6.3500213623046875,14.270040512084961,-82.21435546875,71.59423828125,-1.40380859375
1.7674999000000002,3.8109705448150635,-6.3500213623046875,14.270040512084961,-82.21435546875,71.59423828125,-1.40380859375
1.7724999000000001,1.8070237636566162,-8.285733222961426,12.94425106048584,-51.483154296875,71.2890625,-29.6630859375
1.7774999000000002,-0.5488707423210144,-7.478887557983398,10.149619102478027,-16.7236328125,75.37841796875,-47.2412109375
1.7824999000000001,-2.5498247146606445,-6.536170482635498,6.766014099121094,-19.53125,41.44287109375,-62.957763671875
1.7874999000000003,-4.012083530426025,-4.99669885635376,4.278438568115234,18.1884765625,-2.38037109375,-55.35888671875
1.7924999000000001,-4.7387237548828125,-4.04201078414917,3.333327293395996,21.1181640625,-19.8974609375,-33.99658203125
1.7974999,-4.765059947967529,-3.803189516067505,4.155137062072754,50.384521484375,-13.97705078125,-29.6630859375
1.8024999000000002,-4.23893404006958,-3.442862033843994,6.379350662231445,61.03515625,-23.49853515625,-7.568359375
1.8074999,-3.3506853580474854,-3.576338768005371,8.85555362701416,42.144775390625,-48.004150390625,-2.86865234375
1.8124999000000002,-0.3908534348011017,-0.5099649429321289,12.928689002990723,24.10888671875,-63.3544921875,4.150390625
1.8174999,0.2968810200691223,1.1683704853057861,12.749722480773926,2.288818359375,-69.671630859375,11.383056640625
1.8224999000000002,0.6733692288398743,2.094327926635742,11.6058931350708,-6.8359375,-73.089599609375,-2.838134765625
1.8274999,1.0708067417144775,2.938283920288086,10.885237693786621,2.960205078125,-70.86181640625,2.5634765625
1.8324999000000002,1.3778630495071411,2.8772318363189697,9.864110946655273,-26.214599609375,-68.206787109375,1.28173828125
1.8374999,1.745373010635376,2.301426410675049,9.519944190979004,-0.91552734375,-54.229736328125,-4.058837890625
1.8424999000000002,2.4636335372924805,0.18794482946395874,8.890868186950684,-8.056640625,-30.242919921875,4.852294921875
1.8474999,2.4636335372924805,0.18794482946395874,8.890868186950684,-8.056640625,-30.242919921875,4.852294921875
1.8524999000000002,2.6575639247894287,-0.6392518281936646,9.067440032958984,5.767822265625,-28.01513671875,18.096923828125
1.8574999,2.5905263423919678,-1.5119383335113525,8.888473510742188,-10.25390625,-12.0849609375,8.087158203125
1.8624999000000002,2.5276784896850586,-1.7244237661361694,9.21707820892334,14.5263671875,4.180908203125,1.77001953125
1.8674999,2.1745336055755615,-0.9265560507774353,9.624092102050781,4.82177734375,20.751953125,-1.0986328125
1.8724999000000002,1.9422961473464966,-0.6763619780540466,9.379284858703613,-8.270263671875,25.57373046875,-7.720947265625
1.8774999,1.8309657573699951,-0.2190694510936737,9.655815124511719,14.495849609375,34.1796875,-1.15966796875
1.8824999000000002,1.5502456426620483,0.04369417950510979,9.641449928283691,-12.14599609375,33.721923828125,3.84521484375
1.8874999000000001,1.2324153184890747,0.14006079733371735,9.642647743225098,5.584716796875,33.38623046875,-3.72314453125
1.8924999000000002,0.9313444495201111,0.23702596127986908,9.935338973999023,-0.91552734375,33.294677734375,7.171630859375
1.8974999000000001,0.4991910457611084,-0.009576806798577309,9.727641105651855,-9.70458984375,27.618408203125,-3.997802734375
1.9024999000000002,0.29807811975479126,-0.14484919607639313,10.064026832580566,9.979248046875,26.2451171875,0
1.9074999000000001,0.0293289702385664,-0.4129997789859772,9.992799758911133,-13.18359375,19.561767578125,0.823974609375
1.9124999000000003,-0.0975637212395668,-0.5835866928100586,9.974244117736816,9.185791015625,14.7705078125,-5.584716796875
1.9174999000000001,-0.12270283699035645,-0.5494692921638489,10.122086524963379,-0.335693359375,11.199951171875,6.866455078125
1.9224999,-0.04010287672281265,-0.4387374520301819,9.9185791015625,-12.176513671875,-4.150390625,1.861572265625
1.9274999000000002,-0.04010287672281265,-0.4387374520301819,9.9185791015625,-12.176513671875,-4.150390625,1.861572265625
1.9324999,0.09516951441764832,-0.26396074891090393,9.87967300415039,9.552001953125,-6.927490234375,-5.06591796875
1.9374999000000002,0.25737667083740234,-0.08140286058187485,9.991601943969727,-3.997802734375,-8.544921875,6.072998046875
1.9424999,0.3603273630142212,-0.20290859043598175,9.728838920593262,-5.4931640625,-11.5966796875,-5.37109375
1.9474999000000002,0.5901707410812378,-0.10773907601833344,9.955090522766113,9.124755859375,-8.941650390625,2.838134765625
1.9524999,0.6877344250679016,-0.3172317147254944,9.73661994934082,-13.36669921875,-10.80322265625,1.28173828125
1.9574999000000002,0.8242039084434509,-0.3902548849582672,9.73661994934082,9.8876953125,-9.46044921875,-4.425048828125
1.9624999,0.9044097065925598,-0.38546648621559143,9.822212219238281,-3.7841796875,-7.9345703125,5.31005859375
1.9674999000000002,0.882861852645874,-0.608127236366272,9.603142738342285,-3.265380859375,-9.09423828125,-6.500244140625
1.9724999,0.9391255974769592,-0.4626794755458832,9.883264541625977,11.04736328125,-5.31005859375,1.46484375
1.9774999000000002,0.8768763542175293,-0.5237316489219666,9.697713851928711,-11.962890625,-7.568359375,-0.91552734375
1.9824999,0.8792705535888672,-0.4129997789859772,9.727641105651855,10.80322265625,-5.55419921875,-5.645751953125
1.9874999000000002,0.8990227580070496,-0.21847090125083923,9.845556259155273,-3.814697265625,-3.84521484375,4.486083984375
1.9924999,0.8421604633331299,-0.3196259140968323,9.611522674560547,-4.180908203125,-4.94384765625,-5.92041015625
1.9974999000000002,0.9481038451194763,-0.14844051003456116,9.888052940368652,10.345458984375,-0.54931640625,2.62451171875
2.0024999,0.9265560507774353,-0.24420857429504395,9.694122314453125,-13.18359375,-1.28173828125,1.556396484375
2.0074999,0.9774328470230103,-0.262763649225235,9.692925453186035,9.429931640625,1.312255859375,-3.11279296875
2.0124999000000003,1.026513934135437,-0.1604115068912506,9.823410034179688,-3.2958984375,3.7841796875,6.378173828125
2.0174999000000002,0.9564836025238037,-0.38905778527259827,9.580398559570312,-5.523681640625,2.74658203125,-4.2724609375
2.0224999,1.027711033821106,-0.2717418968677521,9.84376049041748,10.6201171875,7.01904296875,2.38037109375
2.0274999,0.9301473498344421,-0.42377370595932007,9.70310115814209,-12.75634765625,5.55419921875,1.251220703125
2.0324999000000004,0.8810662031173706,-0.47465047240257263,9.668384552001953,8.758544921875,6.561279296875,-5.18798828125
2.0374999000000003,0.8463503122329712,-0.3585317134857178,9.818022727966309,-1.708984375,7.965087890625,4.913330078125
2.0424999,0.7032967209815979,-0.5452794432640076,9.588179588317871,-6.011962890625,4.608154296875,-5.157470703125
2.0474999,0.5925649404525757,-0.40521863102912903,9.831789016723633,-11.688232421875,2.716064453125,1.77001953125
2.0524999,0.497395396232605,-0.38905778527259827,9.806650161743164,7.598876953125,1.007080078125,-5.523681640625
2.0574999000000003,0.4902127981185913,-0.2388216257095337,9.995193481445312,0.79345703125,1.129150390625,5.2490234375
2.0624999,0.39384618401527405,-0.38486793637275696,9.688735961914062,-7.904052734375,-3.143310546875,-4.21142578125
2.0674999,0.4991910457611084,-0.2561795711517334,9.903017044067383,11.993408203125,-1.983642578125,0.244140625
2.0724999,0.517746090888977,-0.2998737692832947,9.82759952545166,-10.498046875,-4.852294921875,3.204345703125
2.0774999000000003,0.5440823435783386,-0.3842693865299225,9.756970405578613,5.096435546875,-5.67626953125,-5.92041015625
2.0824999,0.8415619134902954,-0.23582886159420013,9.77791976928711,12.02392578125,-2.716064453125,-1.03759765625
2.0874999,0.871489405632019,-0.25019407272338867,9.752182006835938,-9.185791015625,-2.38037109375,4.39453125
2.0924999,0.9594763517379761,-0.40940847992897034,9.767744064331055,11.505126953125,2.288818359375,-3.265380859375
2.0974999000000003,0.8912416100502014,-0.3555389642715454,9.819818496704102,-6.65283203125,2.777099609375,4.8828125
2.1024999,0.8439561128616333,-0.5183446407318115,9.672574996948242,-1.556396484375,1.434326171875,-5.92041015625
2.1074999,0.8631097078323364,-0.34835633635520935,9.925163269042969,9.09423828125,4.2724609375,2.685546875
2.1124999,0.7763199210166931,-0.42856210470199585,9.724648475646973,-11.71875,1.617431640625,0.457763671875
2.1174999000000003,0.7535749673843384,-0.383670836687088,9.715071678161621,9.857177734375,2.410888671875,-4.486083984375
2.1224999,0.7523778676986694,-0.24121582508087158,9.823410034179688,-2.349853515625,2.716064453125,5.43212890625
2.1274999,0.6649895310401917,-0.3974374830722809,9.61331844329834,-5.4931640625,0.06103515625,-4.5166015625
2.1324999,0.7194576263427734,-0.23942017555236816,9.90241813659668,11.29150390625,2.25830078125,1.190185546875
2.1374999000000003,0.6721721291542053,-0.31184476613998413,9.861717224121094,-11.444091796875,-0.091552734375,2.5634765625
2.1424999000000002,0.5973533391952515,-0.3693056106567383,9.653421401977539,-9.33837890625,-2.105712890625,-2.960205078125
2.1474999,0.7140706777572632,-0.2849099934101105,9.784503936767578,11.65771484375,0.18310546875,-1.312255859375
2.1524999,0.6973112225532532,-0.28730419278144836,9.766547203063965,-8.72802734375,-0.67138671875,4.150390625
2.1574999000000004,0.7200561761856079,-0.456095427274704,9.640253067016602,1.220703125,-1.739501953125,-5.859375
2.1624999000000003,0.7769184708595276,-0.3106476664543152,9.907206535339355,6.439208984375,0.48828125,3.72314453125
2.1674999,0.7218518257141113,-0.43275195360183716,9.697713851928711,-11.199951171875,-2.0751953125,-0.823974609375
2.1724999,0.7775170207023621,-0.3800795078277588,9.755773544311523,10.772705078125,-0.701904296875,-3.7841796875
2.1774999000000004,0.7763199210166931,-0.2890998423099518,9.841365814208984,-4.302978515625,-0.335693359375,5.18798828125
2.1824999000000003,0.7523778676986694,-0.4710591733455658,9.646238327026367,-3.72314453125,-2.166748046875,-5.126953125
2.1874999,0.7996633648872375,-0.3447650372982025,9.896432876586914,10.43701171875,0.79345703125,1.312255859375
2.1924999,0.7571662664413452,-0.42616790533065796,9.79408073425293,-11.16943359375,-1.068115234375,1.861572265625
2.1974999,0.7386112213134766,-0.3932476341724396,9.750985145568848,-11.3525390625,0.30517578125,-0.091552734375
2.2024999000000003,0.7374141216278076,-0.3687070608139038,9.776124000549316,9.857177734375,1.495361328125,-4.058837890625
2.2074999,0.7428010702133179,-0.26156654953956604,9.870695114135742,-2.777099609375,1.953125,5.31005859375
2.2124999,0.6805518269538879,-0.4465186297893524,9.673172950744629,-5.096435546875,-0.67138671875,-4.5166015625
2.2174999,0.7416039705276489,-0.3214215636253357,9.930550575256348,10.772705078125,1.556396484375,0.518798828125
2.2224999000000003,0.7080851793289185,-0.37648820877075195,9.880870819091797,-10.467529296875,-0.6103515625,2.838134765625
2.2274999,0.7296329736709595,-0.26396074891090393,9.75278091430664,10.986328125,-0.732421875,-2.716064453125
2.2324999,0.7194576263427734,-0.23822307586669922,9.810839653015137,-6.04248046875,-0.9765625,5.126953125
2.2374999,0.7439981698989868,-0.39624038338661194,9.648633003234863,-2.044677734375,-2.44140625,-5.31005859375
2.2424999000000003,0.812831461429596,-0.27653029561042786,9.905410766601562,9.21630859375,0.42724609375,1.953125
2.2474999,0.7966706156730652,-0.3728969097137451,9.801262855529785,-11.199951171875,-1.373291015625,1.556396484375
2.2524999,0.7589619159698486,-0.3998316824436188,9.713874816894531,7.293701171875,-0.244140625,-4.94384765625
2.2574999,0.8170213103294373,-0.25019407272338867,9.867103576660156,0.946044921875,1.373291015625,5.126953125
2.2624999000000003,0.7122750282287598,-0.37648820877075195,9.555258750915527,-8.697509765625,-0.91552734375,-2.960205078125
2.2674999000000002,0.8110358119010925,-0.2861070930957794,9.725247383117676,11.53564453125,1.77001953125,-1.77001953125
2.2724999,0.7757213711738586,-0.28131869435310364,9.75936508178711,-7.843017578125,0.946044921875,4.33349609375
2.2774999,0.718859076499939,-0.38067805767059326,9.73781681060791,8.36181640625,0.6103515625,-4.69970703125
2.2824999000000004,0.7601590156555176,-0.25677812099456787,9.851541519165039,-0.54931640625,1.28173828125,5.31005859375
2.2874999000000003,0.6625953316688538,-0.38726213574409485,9.566631317138672,-7.38525390625,-1.007080078125,-3.570556640625
2.2924999,0.7631517648696899,-0.30286651849746704,9.768941879272461,11.199951171875,1.0986328125,-0.885009765625
2.2974999,0.7140706777572632,-0.31842881441116333,9.774328231811523,-8.544921875,-0.152587890625,4.058837890625
2.3024999000000004,0.7212532758712769,-0.45250412821769714,9.695918083190918,1.129150390625,-1.220703125,-5.4931640625
2.3074999000000003,0.7493851184844971,-0.3076549172401428,9.944915771484375,6.9580078125,0.79345703125,3.143310546875
2.3124999,0.7080851793289185,-0.3932476341724396,9.758766174316406,-11.16943359375,-1.373291015625,0.152587890625
2.3174999,0.7038952708244324,-0.3585317134857178,9.739013671875,8.819580078125,-0.335693359375,-4.364013671875
2.3224999,0.7852981686592102,-0.436343252658844,9.72165584564209,1.251220703125,-0.885009765625,-5.645751953125
2.3274999000000003,0.8068459630012512,-0.30705636739730835,9.963470458984375,6.9580078125,1.40380859375,3.326416015625
2.3324999,0.7493851184844971,-0.40880993008613586,9.765948295593262,-10.92529296875,-0.762939453125,0.335693359375
2.3374999,0.7254431247711182,-0.37888240814208984,9.757569313049316,8.880615234375,0.42724609375,-4.21142578125
2.3424999,0.7649474143981934,-0.25677812099456787,9.855133056640625,-1.068115234375,1.03759765625,5.096435546875
2.3474999000000003,0.6811503767967224,-0.39384618401527405,9.609128952026367,-6.927490234375,-1.220703125,-3.570556640625
2.3524999,0.7876923680305481,-0.3172317147254944,9.822811126708984,11.077880859375,1.3427734375,-0.79345703125
2.3574999,0.7451952695846558,-0.3387795388698578,9.822811126708984,-8.331298828125,0.030517578125,4.0283203125
2.3624999,0.7511807680130005,-0.4812345504760742,9.750985145568848,1.03759765625,-0.67138671875,-5.523681640625
2.3674999000000003,0.7511807680130005,-0.4812345504760742,9.750985145568848,1.03759765625,-0.67138671875,-5.523681640625
2.3724999,0.730231523513794,-0.4106055796146393,9.818621635437012,-11.138916015625,-0.9765625,0.42724609375
2.3774999,0.706289529800415,-0.36990416049957275,9.771934509277344,8.056640625,0.30517578125,-4.608154296875
2.3824999,0.7703344225883484,-0.22505496442317963,9.882665634155273,-0.42724609375,1.0986328125,4.974365234375
2.3874999000000003,0.6769605278968811,-0.35254621505737305,9.587580680847168,-7.720947265625,-1.495361328125,-3.11279296875
2.3924999000000002,0.7841010689735413,-0.2861070930957794,9.774328231811523,11.016845703125,0.885009765625,-1.190185546875
2.3974999,0.739209771156311,-0.31783026456832886,9.80904483795166,-7.598876953125,0.213623046875,4.058837890625
2.4024999,0.7829039692878723,-0.35254621505737305,9.983820915222168,8.36181640625,1.434326171875,2.13623046875
2.4074999000000004,0.7829039692878723,-0.35254621505737305,9.983820915222168,8.36181640625,1.434326171875,2.13623046875
2.4124999000000003,0.7428010702133179,-0.43993455171585083,9.853337287902832,-10.7421875,-0.885009765625,1.0986328125
2.4174999,0.7068880796432495,-0.42437225580215454,9.75517463684082,7.293701171875,-0.274658203125,-4.8828125
2.4224999,0.7661445140838623,-0.24839842319488525,9.880870819091797,1.0986328125,0.91552734375,4.852294921875
2.4274999000000004,0.6613982319831848,-0.363918662071228,9.595361709594727,-8.60595703125,-1.190185546875,-2.685546875
2.4324999000000003,0.7469909191131592,-0.25498247146606445,9.801262855529785,-6.34765625,0.30517578125,4.669189453125
2.4374999,0.750582218170166,-0.41718965768814087,9.682151794433594,-2.105712890625,-0.946044921875,-4.8828125
2.4424999,0.7972691655158997,-0.3292027413845062,9.967659950256348,9.3994140625,1.434326171875,1.617431640625
2.4474999,0.7691373229026794,-0.3974374830722809,9.859322547912598,-10.467529296875,-0.457763671875,2.044677734375
2.4524999000000003,0.7164648771286011,-0.44532153010368347,9.780912399291992,5.31005859375,-0.518798828125,-5.43212890625
2.4574999,1.1701661348342896,-0.7320271730422974,9.657610893249512,14.83154296875,15.80810546875,3.173828125
2.4624999,1.6035165786743164,-1.3467384576797485,9.125499725341797,65.36865234375,90.789794921875,-17.7001953125
2.4674999,2.516305923461914,-1.9075802564620972,8.959701538085938,93.902587890625,79.559326171875,-18.951416015625
2.4724999000000003,3.3285388946533203,-2.387019157409668,9.214683532714844,99.67041015625,119.720458984375,-8.1787109375
2.4774999,3.737348794937134,-2.9945478439331055,9.843161582946777,155.70068359375,186.737060546875,-9.8876953125
2.4824999,3.6577415466308594,-3.0603883266448975,11.408370971679688,215.27099609375,210.87646484375,-8.60595703125
2.4874999,2.8838160037994385,-3.5015199184417725,12.791022300720215,194.3359375,170.654296875,-1.678466796875
2.4924999000000003,-0.37409400939941406,-2.7461493015289307,13.505691528320312,152.7099609375,85.3271484375,18.06640625
2.4974999,-2.227804660797119,-1.8100165128707886,11.687893867492676,136.810302734375,46.478271484375,14.312744140625
2.5024999,-3.685873508453369,-0.38127660751342773,9.298480987548828,140.56396484375,-21.6064453125,9.124755859375
2.5074999,-4.35804557800293,1.0522516965866089,6.645106792449951,109.588623046875,-83.3740234375,18.49365234375
2.5124999000000003,-4.440645694732666,1.7363947629928589,4.575319290161133,96.49658203125,-114.8681640625,17.974853515625
2.5174999000000002,-3.9833531379699707,2.5073277950286865,3.6822822093963623,102.996826171875,-116.2109375,31.280517578125
2.5224999,-3.2106244564056396,2.7676970958709717,3.6320040225982666,90.75927734375,-98.69384765625,46.661376953125
2.5274999,-2.4366986751556396,2.697666883468628,4.307767391204834,112.396240234375,-76.934814453125,48.15673828125
2.5324999000000004,-1.535880446434021,2.9520506858825684,5.503072738647461,127.716064453125,-56.243896484375,59.661865234375
2.5374999000000003,-0.6829460263252258,2.7317841053009033,6.642114162445068,122.039794921875,-37.506103515625,58.4716796875
2.5424999,0.09576806426048279,2.609679937362671,8.076839447021484,130.79833984375,-23.406982421875,49.468994140625
2.5474999,0.7140706777572632,2.7527334690093994,9.429563522338867,91.9189453125,-17.578125,54.901123046875
2.5524999000000004,0.27712884545326233,4.118625640869141,10.710461616516113,-18.798828125,-43.701171875,48.76708984375
2.5574999000000003,-0.5057750940322876,4.527435302734375,9.667786598205566,-21.820068359375,-55.816650390625,38.909912109375
2.5624999,-1.0235211849212646,4.941632270812988,8.740632057189941,-23.284912109375,-63.65966796875,46.356201171875
2.5674999,-1.3162124156951904,4.70759916305542,7.689577102661133,-55.389404296875,-68.267822265625,54.840087890625
2.5724999,-1.3329718112945557,4.288015365600586,7.158663272857666,-63.3544921875,-71.929931640625,56.427001953125
2.5774999000000003,-0.8810662031173706,4.158129692077637,7.271190643310547,-90.423583984375,-70.648193359375,74.89013671875
2.5824999,-0.4800374507904053,3.869029998779297,7.135918140411377,-124.603271484375,-70.61767578125,80.4443359375
2.5874999,0.20290859043598175,3.9815573692321777,7.4998369216918945,-124.725341796875,-69.793701171875,75.927734375
2.5924999,0.9427168965339661,4.2550950050354,7.814674377441406,-150.909423828125,-67.0166015625,81.329345703125
2.5974999000000003,1.4610615968704224,4.175487995147705,7.766790390014648,-168.487548828125,-58.013916015625,74.64599609375
2.6024999,2.167949676513672,4.182071685791016,7.982268333435059,-164.24560546875,-45.34912109375,75.3173828125
2.6074999,2.5905263423919678,3.796605348587036,7.924807548522949,-189.51416015625,-28.045654296875,81.11572265625
2.6124999,2.890998601913452,3.003525972366333,7.592013359069824,-187.255859375,-8.48388671875,76.934814453125
2.6174999000000003,3.273472309112549,2.6138696670532227,7.687781810760498,-188.5986328125,13.85498046875,87.554931640625
2.6224999,3.3698389530181885,1.6777368783950806,7.534552574157715,-215.39306640625,31.707763671875,89.2333984375
2.6274999,3.450044631958008,1.1492167711257935,7.444770336151123,-205.74951171875,48.126220703125,83.160400390625
2.6324999,3.426102638244629,0.5237316489219666,7.8332295417785645,-216.24755859375,56.57958984375,85.113525390625
2.6374999000000003,3.821146011352539,-0.718859076499939,9.039308547973633,-213.7451171875,65.97900390625,63.201904296875
2.6424999000000002,4.6255974769592285,-7.926004886627197,13.662511825561523,26.641845703125,68.42041015625,-36.285400390625
2.6474999,3.24953031539917,-9.041104316711426,12.4971342086792,34.210205078125,43.426513671875,-63.995361328125
2.6524999,1.2623428106307983,-8.812458038330078,9.731831550598145,22.003173828125,50.628662109375,-93.07861328125
2.6574999000000004,-0.4297592043876648,-7.222707748413086,7.326257228851318,24.871826171875,46.38671875,-104.67529296875
2.6624999000000003,-1.5089455842971802,-2.539649486541748,7.178415298461914,-2.01416015625,39.886474609375,-41.015625
2.6674999,-1.2856862545013428,-0.37469255924224854,8.900444984436035,30.70068359375,46.5087890625,-12.420654296875
2.6724999,-0.9798270463943481,1.2767080068588257,10.736797332763672,22.613525390625,28.106689453125,13.48876953125
2.6774999000000004,-1.0324994325637817,2.013523578643799,11.241375923156738,7.6904296875,12.908935546875,4.150390625
2.6824999000000003,-1.1552022695541382,2.3535003662109375,11.160571098327637,8.819580078125,-3.5400390625,2.044677734375
2.6874999,-1.5304933786392212,2.1553800106048584,10.465055465698242,-14.678955078125,-17.822265625,0.457763671875
2.6924999,-1.6735470294952393,1.5765818357467651,9.661202430725098,-13.946533203125,-24.139404296875,-9.613037109375
2.6974999,-1.5095441341400146,1.1204863786697388,9.731232643127441,-8.056640625,-27.069091796875,2.38037109375
2.7024999000000003,-1.080383539199829,0.4100070297718048,9.751583099365234,-22.308349609375,-28.778076171875,6.89697265625
2.7074999,-0.47165772318840027,-0.2861070930957794,9.907206535339355,-0.18310546875,-29.78515625,4.33349609375
2.7124999,0.24779987335205078,-0.706289529800415,10.118494987487793,-2.3193359375,-29.144287109375,11.90185546875
2.7174999,0.6991068720817566,-1.20368492603302,9.774927139282227,-9.3994140625,-26.9775390625,0.396728515625
2.7224999000000003,1.731606364250183,-0.3998316824436188,9.738415718078613,-7.904052734375,-1.495361328125,0.67138671875
2.7274999,1.5849615335464478,-0.1777694821357727,9.57979965209961,2.471923828125,4.2724609375,-7.50732421875
2.7324999,1.4425065517425537,0.10175357013940811,9.751583099365234,4.150390625,7.4462890625,1.129150390625
2.7374999,1.1791443824768066,0.06165069341659546,9.554061889648438,-11.871337890625,8.453369140625,-1.953125
2.7424999000000003,0.9307458996772766,-0.0011971008498221636,9.605537414550781,6.561279296875,11.04736328125,-5.37109375
2.7474999,0.7846996188163757,-0.07841010391712189,9.789292335510254,-1.556396484375,10.528564453125,4.119873046875
2.7524999,0.5315127968788147,-0.36990416049957275,9.635464668273926,-6.77490234375,9.490966796875,-3.326416015625
2.7574999,0.48303020000457764,-0.42616790533065796,9.825204849243164,11.41357421875,9.521484375,-1.52587890625
2.7624999000000003,0.3100491166114807,-0.5656301379203796,9.823410034179688,-0.457763671875,4.730224609375,-3.60107421875
2.7674999000000002,0.2908954918384552,-0.4076128304004669,10.052056312561035,9.979248046875,3.753662109375,3.47900390625
2.7724999,0.24480712413787842,-0.36332011222839355,9.970054626464844,-9.185791015625,0.579833984375,4.21142578125
2.7774999,0.20709845423698425,-0.3124433159828186,9.805453300476074,3.90625,-0.030517578125,-3.47900390625
2.7824999000000004,0.2867056429386139,-0.11372458189725876,9.952696800231934,3.570556640625,-1.129150390625,5.0048828125
2.7874999000000003,0.26575639843940735,-0.19213469326496124,9.710882186889648,-10.8642578125,-3.41796875,-0.42724609375
2.7924999,0.3531447649002075,-0.19452889263629913,9.704896926879883,7.568359375,-3.11279296875,-3.936767578125
2.7974999,0.47824180126190186,-0.18614917993545532,9.851541519165039,-2.38037109375,-4.2724609375,3.753662109375
2.8024999000000004,0.7056909799575806,-0.42676645517349243,9.889249801635742,-6.683349609375,-3.753662109375,2.50244140625
2.8074999000000003,0.750582218170166,-0.5428852438926697,9.747393608093262,-1.068115234375,-2.716064453125,-6.195068359375
2.8124999,0.6871358752250671,-0.42018240690231323,9.710283279418945,4.608154296875,-0.030517578125,-5.37109375
2.8174999,0.730231523513794,-0.21966800093650818,9.858723640441895,3.875732421875,0.18310546875,4.058837890625
2.8224999,0.6093243360519409,-0.2753331959247589,9.588179588317871,-9.552001953125,0.3662109375,-0.335693359375
2.8274999000000003,0.6320692300796509,-0.23403321206569672,9.596558570861816,8.85009765625,2.44140625,-2.655029296875
2.8324999,0.6643909811973572,-0.17178396880626678,9.762955665588379,-1.77001953125,1.5869140625,5.279541015625
2.8374999,0.5943605899810791,-0.3172317147254944,9.588179588317871,-6.2255859375,1.922607421875,-3.35693359375
2.8424999,0.679354727268219,-0.2885012924671173,9.804255485534668,10.101318359375,3.2958984375,-0.885009765625
2.8474999000000003,0.6320692300796509,-0.30466216802597046,9.922170639038086,-6.8359375,2.227783203125,4.119873046875
2.8524999,0.6141127347946167,-0.4207809567451477,9.788095474243164,-1.434326171875,2.74658203125,-5.06591796875
2.8574999,0.6045359373092651,-0.3423708379268646,10.028712272644043,8.331298828125,2.685546875,1.8310546875
2.8624999,0.5464765429496765,-0.3770867586135864,9.932345390319824,-9.58251953125,0.335693359375,1.861572265625
2.8674999000000003,0.4902127981185913,-0.26156654953956604,9.911994934082031,3.997802734375,-0.48828125,3.204345703125
2.8724999,0.38905778527259827,-0.3531447649002075,9.64923095703125,-9.613037109375,-2.25830078125,-1.40380859375
2.8774999,0.4118026793003082,-0.3232172429561615,9.642647743225098,8.6669921875,-1.617431640625,-4.119873046875
2.8824999,0.4854243993759155,-0.25318682193756104,9.805453300476074,-1.28173828125,-2.74658203125,4.7607421875
2.8874999000000003,0.46507367491722107,-0.375291109085083,9.585186958312988,-6.866455078125,-3.326416015625,-2.777099609375
2.8924999000000002,0.5997475385665894,-0.31603461503982544,9.799467086791992,10.223388671875,-2.0751953125,-0.8544921875
2.8974999,0.6320692300796509,-0.31124621629714966,9.892841339111328,-6.134033203125,-2.899169921875,4.425048828125
2.9024999,0.6661866307258606,-0.39863458275794983,9.771934509277344,-1.983642578125,-2.227783203125,-4.82177734375
2.9074999000000004,0.7128735780715942,-0.3280056416988373,10.014347076416016,9.002685546875,-0.701904296875,1.220703125
2.9124999000000003,0.70090252161026,-0.3513490855693817,9.921571731567383,-9.429931640625,-1.46484375,2.166748046875
2.9174999,0.6607996821403503,-0.4076128304004669,9.754576683044434,3.23486328125,0.79345703125,-5.279541015625
2.9224999,0.6853402256965637,-0.2801215946674347,9.895236015319824,5.0048828125,1.5869140625,3.47900390625
2.9274999000000004,0.6344634294509888,-0.25258827209472656,9.791088104248047,0.030517578125,2.044677734375,4.364013671875
2.9324999000000003,0.5392939448356628,-0.3579331636428833,9.561244010925293,-7.568359375,1.5869140625,-2.74658203125
2.9374999,0.6272808313369751,-0.30705636739730835,9.750386238098145,9.979248046875,2.5634765625,-1.8310546875
2.9424999,0.6141127347946167,-0.2974795699119568,9.861717224121094,-4.82177734375,0.91552734375,4.57763671875
2.9474999,0.5716156363487244,-0.3884592354297638,9.750985145568848,-3.448486328125,0.396728515625,-4.608154296875
2.9524999000000003,0.5985504388809204,-0.32620999217033386,9.983820915222168,9.46044921875,0.6103515625,0.54931640625
2.9574999,0.5416881442070007,-0.3477577865123749,9.95748519897461,-8.392333984375,-1.251220703125,2.960205078125
2.9624999,0.5093663930892944,-0.42377370595932007,9.806051254272461,1.617431640625,-0.762939453125,-5.401611328125
2.9674999,0.5309142470359802,-0.29388827085494995,9.955689430236816,6.40869140625,-1.068115234375,2.960205078125
2.9724999000000003,0.49619829654693604,-0.3711012601852417,9.783905029296875,-10.223388671875,-2.197265625,0.79345703125
2.9774999,0.47405192255973816,-0.34835633635520935,9.667786598205566,6.134033203125,-0.701904296875,-4.69970703125
2.9824999,0.5015852451324463,-0.3106476664543152,9.576807022094727,-8.758544921875,-1.46484375,-1.922607421875
2.9874999,0.6224924325942993,-0.2364274114370346,9.661202430725098,9.27734375,0.06103515625,-3.0517578125
2.9924999000000003,0.6554127335548401,-0.22385786473751068,9.77791976928711,-3.0517578125,-0.48828125,4.5166015625
2.9974999,0.629675030708313,-0.3519476354122162,9.627084732055664,-5.2490234375,-0.274658203125,-3.814697265625
3.0024999,0.7104793787002563,-0.32680854201316833,9.833584785461426,10.07080078125,1.15966796875,-0.396728515625
3.0074999,0.6560112833976746,-0.3489548861980438,9.909601211547852,-7.38525390625,-0.244140625,3.7841796875
3.0124999000000003,0.6368576288223267,-0.47165772318840027,9.788095474243164,-0.518798828125,0.54931640625,-5.096435546875
3.0174999000000002,0.6272808313369751,-0.36750996112823486,10.00836181640625,8.026123046875,1.220703125,1.8310546875
3.0224999,0.5734112858772278,-0.41120412945747375,9.904812812805176,-9.552001953125,-0.213623046875,1.89208984375
3.0274999,0.5237316489219666,-0.41718965768814087,9.727641105651855,4.39453125,0.9765625,-5.126953125
3.0324999000000004,0.5566518902778625,-0.24480712413787842,9.876680374145508,4.180908203125,0.732421875,3.84521484375
3.0374999000000003,0.5566518902778625,-0.24480712413787842,9.876680374145508,4.180908203125,0.732421875,3.84521484375
3.0424999,0.5770025849342346,-0.20470423996448517,9.80904483795166,-0.3662109375,-0.152587890625,4.547119140625
3.0474999,0.5770025849342346,-0.20470423996448517,9.80904483795166,-0.3662109375,-0.152587890625,4.547119140625
3.0524999000000004,0.5123591423034668,-0.3298012912273407,9.604938507080078,-7.537841796875,-0.48828125,-3.0517578125
3.0574999000000003,0.6117185354232788,-0.2974795699119568,9.787496566772461,10.009765625,0.54931640625,-2.0751953125
3.0624999,0.6141127347946167,-0.2968810200691223,9.8784761428833,-4.730224609375,-0.946044921875,4.302978515625
3.0674999,0.5919663906097412,-0.4016273319721222,9.734824180603027,-3.5400390625,-0.457763671875,-4.57763671875
3.0724999000000004,0.6440402865409851,-0.3513490855693817,9.955689430236816,9.27734375,0.213623046875,0.335693359375
3.0774999000000003,0.596754789352417,-0.37648820877075195,9.925761222839355,-8.48388671875,-1.190185546875,2.99072265625
3.0824999,0.5847837924957275,-0.4471171796321869,9.797073364257812,1.373291015625,-0.335693359375,-5.18798828125
3.0874999,0.596754789352417,-0.3274070918560028,9.943717956542969,6.77490234375,0,2.777099609375
3.0924999,0.5446808934211731,-0.38546648621559143,9.797672271728516,-9.918212890625,-0.946044921875,1.129150390625
3.0974999000000003,0.6805518269538879,-0.035913024097681046,9.581595420837402,1.434326171875,1.617431640625,-7.904052734375
3.1024999,0.9660604000091553,-0.12030863761901855,9.516951560974121,7.4462890625,25.665283203125,-11.566162109375
3.1074999,1.1749545335769653,-0.2106897532939911,9.34157657623291,24.566650390625,11.016845703125,11.383056640625
3.1124999,0.9355342984199524,-0.6111199855804443,9.610923767089844,-20.751953125,7.537841796875,3.5400390625
3.1174999000000003,0.7493851184844971,-0.884058952331543,9.372700691223145,-0.54931640625,13.0615234375,-16.29638671875
3.1224999,0.2687491476535797,-1.2186486721038818,9.997588157653809,8.331298828125,7.080078125,-1.678466796875
3.1274999,0.04728548228740692,-0.7661445140838623,10.38844108581543,30.1513671875,-3.631591796875,7.8125
3.1324999,-0.2849099934101105,-0.1711854189634323,10.192116737365723,-7.38525390625,-13.916015625,6.103515625
3.1374999000000003,-0.4842272996902466,0.0694318488240242,9.846753120422363,2.50244140625,-18.5546875,-3.875732421875
3.1424999000000002,-0.3728969097137451,0.7308300733566284,9.75936508178711,-3.875732421875,-19.22607421875,3.814697265625
3.1474999,-0.20769700407981873,0.5333084464073181,9.438541412353516,-17.242431640625,-18.035888671875,0.762939453125
3.1524999,1.1725603342056274,-0.596754789352417,9.870096206665039,8.880615234375,2.349853515625,1.800537109375
3.1574999000000004,0.9876081943511963,-0.46986207365989685,9.712079048156738,-8.30078125,2.44140625,0
3.1624999000000003,0.8104372620582581,-0.24600422382354736,9.641449928283691,7.32421875,5.035400390625,-4.791259765625
3.1674999,0.7398083209991455,0.008978256024420261,9.791686058044434,-0.91552734375,4.69970703125,4.150390625
3.1724999,0.5536591410636902,-0.07122749835252762,9.554061889648438,-9.6435546875,4.241943359375,-2.349853515625
3.1774999000000004,0.5919663906097412,-0.050876785069704056,9.747992515563965,9.21630859375,5.31005859375,-0.335693359375
3.1824999000000003,0.5380968451499939,-0.17178396880626678,9.86231517791748,-5.401611328125,3.23486328125,6.500244140625
3.1874999,0.507570743560791,-0.46148237586021423,9.996989250183105,10.07080078125,2.288818359375,0.9765625
3.1924999,0.4734533727169037,-0.5345055460929871,9.944915771484375,-8.30078125,0.335693359375,2.5634765625
3.1974999000000004,0.4507084786891937,-0.547075092792511,9.782708168029785,3.7841796875,1.190185546875,-5.37109375
3.2024999000000003,0.44173020124435425,-0.23104046285152435,9.640851974487305,7.2021484375,0.701904296875,-4.39453125
3.2074999,0.5081692934036255,-0.1454477459192276,9.789292335510254,-0.762939453125,-0.6103515625,4.33349609375
3.2124999,0.4279635548591614,-0.2974795699119568,9.567828178405762,-7.965087890625,-1.5869140625,-3.5400390625
3.2174999,0.5422866940498352,-0.2861070930957794,9.765948295593262,10.040283203125,-0.701904296875,-2.227783203125
3.2224999000000003,0.5327098965644836,-0.3292027413845062,9.892242431640625,-5.218505859375,-2.716064453125,4.08935546875
3.2274999,0.5518634915351868,-0.47225627303123474,9.769539833068848,-2.13623046875,-3.143310546875,-5.06591796875
3.2324999,0.5997475385665894,-0.3932476341724396,10.038289070129395,9.21630859375,-2.5634765625,0.946044921875
3.2374999,0.5997475385665894,-0.41778820753097534,9.791686058044434,3.021240234375,-2.166748046875,-5.18798828125
3.2424999000000003,0.6661866307258606,-0.24660277366638184,9.925163269042969,5.06591796875,-1.52587890625,3.96728515625
3.2474999,0.6428431272506714,-0.31184476613998413,9.673172950744629,-10.19287109375,-1.678466796875,0.335693359375
3.2524999,0.6554127335548401,-0.3082534670829773,9.61331844329834,7.720947265625,1.129150390625,-3.96728515625
3.2574999,0.7541735172271729,-0.2172738015651703,9.761758804321289,-0.1220703125,1.739501953125,4.638671875
3.2624999000000003,0.6919242739677429,-0.3555389642715454,9.560646057128906,-7.476806640625,2.13623046875,-2.777099609375
3.2674999000000002,0.788889467716217,-0.30885201692581177,9.739612579345703,10.345458984375,4.45556640625,-1.89208984375
3.2724999,0.7541735172271729,-0.314238965511322,9.873687744140625,-5.096435546875,3.326416015625,4.547119140625
3.2774999,0.6925228238105774,-0.42437225580215454,9.746794700622559,-2.685546875,3.47900390625,-4.669189453125
3.2824999000000004,0.5506663918495178,-0.365115761756897,9.941922187805176,-9.063720703125,1.03759765625,2.685546875
3.2874999000000003,0.4836287498474121,-1.1426327228546143,9.794678688049316,-4.0283203125,2.838134765625,0.701904296875
3.2924999,0.0065840547904372215,-0.6380547285079956,8.33601188659668,18.157958984375,12.725830078125,18.585205078125
3.2974999,-0.3345896899700165,-0.013168109580874443,6.488884925842285,51.239013671875,6.500244140625,12.603759765625
3.3024999000000004,-0.5518634915351868,1.169567584991455,6.099827289581299,59.967041015625,10.80322265625,87.34130859375
3.3074999000000003,-1.0947487354278564,-0.07182604819536209,5.574898719787598,35.21728515625,9.09423828125,49.835205078125
3.3124999,-0.8319851160049438,0.37169981002807617,4.703409194946289,106.26220703125,7.32421875,51.7578125
3.3174999,-0.9469067454338074,-0.29149407148361206,6.089053630828857,33.538818359375,-2.532958984375,47.9736328125
3.3224999000000004,-0.6051344871520996,-0.37229835987091064,5.612008571624756,95.489501953125,4.852294921875,42.205810546875
3.3274999000000003,-0.3411737382411957,0.5410895943641663,6.1501054763793945,-59.63134765625,-42.724609375,5.645751953125
3.3324999,-0.27712884545326233,1.7561469078063965,5.785588264465332,-35.797119140625,-96.893310546875,-40.924072265625
3.3374999,-0.22625206410884857,3.6529531478881836,5.338471412658691,-31.6162109375,-111.99951171875,-47.088623046875
3.3424999,-0.05386953800916672,4.401739597320557,4.898536682128906,-68.878173828125,-91.00341796875,-64.02587890625
3.3474999000000003,0.4692635238170624,5.307346820831299,5.789778232574463,-76.7822265625,-63.873291015625,-55.267333984375
3.3524999,3.6296098232269287,2.412158250808716,11.467028617858887,-10.31494140625,41.56494140625,22.216796875
3.3574999,4.21080207824707,0.20470423996448517,12.30859088897705,-5.523681640625,28.9306640625,17.486572265625
3.3624999,4.151545524597168,-1.6166846752166748,12.489952087402344,0.335693359375,18.73779296875,22.15576171875
3.3674999000000003,3.4165258407592773,-2.892195701599121,11.291055679321289,-17.9443359375,29.693603515625,11.5966796875
3.3724999,2.212841033935547,-3.6086604595184326,10.00836181640625,8.544921875,34.515380859375,-3.326416015625
3.3774999,1.1001356840133667,-3.6092591285705566,9.083003044128418,1.129150390625,25.87890625,-3.72314453125
3.3824999,0.24181437492370605,-3.487753391265869,8.558073997497559,5.523681640625,28.045654296875,-17.822265625
3.3874999000000003,-0.08619125932455063,-2.5731682777404785,9.070432662963867,21.392822265625,33.599853515625,-8.209228515625
3.3924999000000002,-0.15023615956306458,-1.8507179021835327,9.39784049987793,-0.457763671875,27.191162109375,-9.82666015625
3.3974999,0.0999579206109047,-0.8206126093864441,9.908403396606445,24.566650390625,23.74267578125,-8.026123046875
3.4024999,0.17836803197860718,0.1280897855758667,10.171167373657227,-0.762939453125,16.66259765625,1.678466796875
3.4074999000000004,-0.04429273307323456,1.071405291557312,9.936535835266113,-15.56396484375,6.927490234375,-0.9765625
3.4124999000000003,-0.02274491637945175,0.8086416125297546,10.074800491333008,8.209228515625,2.838134765625,2.01416015625
3.4174999,-0.1388636976480484,0.4129997789859772,10.036493301391602,-14.801025390625,-2.960205078125,6.866455078125
3.4224999,-0.14425064623355865,-0.20290859043598175,9.872490882873535,0.67138671875,-8.48388671875,-5.43212890625
3.4274999000000004,-0.04728548228740692,-0.4770447015762329,10.083779335021973,1.5869140625,-9.521484375,3.60107421875
3.4324999000000003,-0.03232172131538391,-0.9103952050209045,9.728838920593262,-9.70458984375,-13.580322265625,-7.26318359375
3.4374999,0.2687491476535797,-0.8900445103645325,9.913191795349121,14.22119140625,-12.481689453125,-3.47900390625
3.4424999,0.9319429993629456,-0.36750996112823486,9.910798072814941,2.01416015625,-8.6669921875,5.0048828125
3.4474999000000004,0.9421183466911316,-0.353743314743042,9.559449195861816,-8.148193359375,-8.85009765625,-3.96728515625
3.4524999000000003,1.0732009410858154,-0.1107318252325058,9.73542308807373,-13.48876953125,-3.662109375,2.777099609375
3.4574999,1.0528502464294434,-0.1711854189634323,9.672574996948242,6.744384765625,-1.861572265625,-4.5166015625
3.4624999,1.0594342947006226,-0.12330138683319092,9.88386344909668,-1.220703125,1.922607421875,5.706787109375
3.4674999,0.9091981053352356,-0.4106055796146393,9.537302017211914,-7.9345703125,1.007080078125,-4.5166015625
3.4724999000000003,0.9971849918365479,-0.3561375141143799,9.81263542175293,12.451171875,5.462646484375,1.739501953125
3.4774999,0.882861852645874,-0.4842272996902466,9.716269493103027,-11.627197265625,5.218505859375,1.5869140625
3.4824999,0.8529343605041504,-0.5201402902603149,9.671976089477539,9.124755859375,6.378173828125,-5.55419921875
3.4874999,0.8206126093864441,-0.32860419154167175,9.909002304077148,-0.30517578125,8.636474609375,4.547119140625
3.4924999000000003,0.6488286852836609,-0.48722004890441895,9.616311073303223,-6.072998046875,5.645751953125,-5.43212890625
3.4974999,0.6871358752250671,-0.24001872539520264,9.911396026611328,12.20703125,7.6904296875,1.46484375
3.5024999,0.524330198764801,-0.29388827085494995,9.824007987976074,-12.3291015625,5.126953125,2.197265625
3.5074999,0.4034229815006256,-0.2585737705230713,9.932345390319824,11.71875,-0.518798828125,1.0986328125
3.5124999000000003,0.3477577865123749,-0.38905778527259827,9.845556259155273,-11.810302734375,-3.631591796875,2.50244140625
3.5174999000000002,0.3770867586135864,-0.44532153010368347,9.785101890563965,7.598876953125,-4.57763671875,-5.31005859375
3.5224999,0.4734533727169037,-0.3190273642539978,9.983820915222168,0.3662109375,-4.058837890625,5.645751953125
3.5274999,0.4638765752315521,-0.4710591733455658,9.647436141967773,-7.8125,-6.744384765625,-4.974365234375
3.5324999000000004,0.6530185341835022,-0.31603461503982544,9.888052940368652,11.65771484375,-4.486083984375,-0.1220703125
3.5374999000000003,0.7110779285430908,-0.34656068682670593,9.81263542175293,-11.505126953125,-5.06591796875,2.01416015625
3.5424999,0.7667431235313416,-0.38546648621559143,9.722254753112793,6.134033203125,-3.84521484375,-5.9814453125
3.5474999,0.8852560520172119,-0.22266076505184174,9.929352760314941,1.434326171875,-0.67138671875,5.401611328125
3.5524999000000004,0.828393816947937,-0.3734954595565796,9.582792282104492,-9.21630859375,-1.953125,-3.692626953125
3.5574999000000003,0.8607155084609985,-0.2513911724090576,9.908403396606445,4.39453125,5.157470703125,4.94384765625
3.5624999,0.6733692288398743,-0.39863458275794983,9.610923767089844,-10.25390625,2.74658203125,-2.532958984375
3.5674999,0.7314286231994629,-0.272938996553421,9.795876502990723,12.02392578125,4.791259765625,-1.3427734375
3.5724999000000004,0.6039373874664307,-0.27653029561042786,9.825803756713867,-8.60595703125,3.326416015625,4.486083984375
3.5774999000000003,0.5512649416923523,-0.4159925580024719,9.717466354370117,1.40380859375,1.678466796875,-6.072998046875
3.5824999,0.5524620413780212,-0.2801215946674347,10.017938613891602,6.622314453125,3.021240234375,4.180908203125
3.5874999,0.42018240690231323,-0.4213795065879822,9.756970405578613,-11.322021484375,-0.67138671875,-1.312255859375
3.5924999,0.4866214990615845,-0.345363587141037,9.855731010437012,11.322021484375,-0.1220703125,-3.387451171875
3.5974999000000003,0.45429977774620056,-0.30286651849746704,9.90122127532959,-6.195068359375,-1.190185546875,4.974365234375
3.6024999,0.7206547260284424,-0.23163901269435883,9.877877235412598,-2.8076171875,-1.708984375,5.523681640625
3.6074999,0.6931213736534119,-0.3758896589279175,9.610923767089844,-5.706787109375,-3.265380859375,-5.035400390625
3.6124999,0.7960720658302307,-0.23822307586669922,9.921571731567383,10.92529296875,0.091552734375,0.885009765625
3.6174999000000003,0.7649474143981934,-0.29568392038345337,9.840767860412598,-11.23046875,-0.8544921875,2.349853515625
3.6224999,0.7104793787002563,-0.35733461380004883,9.770736694335938,6.4697265625,0,-5.706787109375
3.6274999,0.7739257216453552,-0.19572599232196808,9.946710586547852,1.708984375,2.288818359375,5.0048828125
3.6324999,0.6374561786651611,-0.3381809890270233,9.586981773376465,-8.97216796875,-0.274658203125,-3.2958984375
3.6374999000000003,0.7523778676986694,-0.24779987335205078,9.742605209350586,11.871337890625,2.50244140625,-1.190185546875
3.6424999000000002,0.7523778676986694,-0.24779987335205078,9.742605209350586,11.871337890625,2.50244140625,-1.190185546875
3.6474999,0.667982280254364,-0.2783259451389313,9.736021041870117,-8.758544921875,1.953125,4.241943359375
3.6524999,0.6739677786827087,-0.31184476613998413,9.929352760314941,6.256103515625,3.0517578125,4.180908203125
3.6574999000000004,0.5608417391777039,-0.41958385705947876,9.68694019317627,-11.23046875,0.244140625,-0.762939453125
3.6624999000000003,0.6075286865234375,-0.3627215623855591,9.773730278015137,10.7421875,1.312255859375,-3.60107421875
3.6674999,0.5913678407669067,-0.284311443567276,9.864709854125977,-4.791259765625,1.068115234375,5.401611328125
3.6724999,0.5746083855628967,-0.46088382601737976,9.659406661987305,-3.143310546875,-1.190185546875,-5.37109375
3.6774999000000004,0.6524199843406677,-0.353743314743042,9.963470458984375,10.009765625,0.79345703125,1.678466796875
3.6824999000000003,0.5835866928100586,-0.4513070285320282,9.748590469360352,7.354736328125,-1.40380859375,-5.523681640625
3.6874999,0.5835866928100586,-0.4513070285320282,9.748590469360352,7.354736328125,-1.40380859375,-5.523681640625
3.6924999,0.645237386226654,-0.2603694200515747,9.9000244140625,0.762939453125,-0.1220703125,5.157470703125
3.6974999000000004,0.5398924946784973,-0.37888240814208984,9.569623947143555,-8.36181640625,-2.227783203125,-3.387451171875
3.7024999000000003,0.6805518269538879,-0.26336219906806946,9.771934509277344,11.444091796875,0.152587890625,-1.068115234375
3.7074999,0.6218938827514648,-0.2974795699119568,9.777320861816406,-8.880615234375,-0.732421875,3.814697265625
3.7124999,0.6991068720817566,-0.30885201692581177,9.964069366455078,6.683349609375,1.15966796875,3.84521484375
3.7174999,0.6386532783508301,-0.4124012291431427,9.712677955627441,-11.1083984375,-1.434326171875,-0.640869140625
3.7224999000000003,0.6901286244392395,-0.3597288131713867,9.75637149810791,10.101318359375,0.30517578125,-3.875732421875
3.7274999,0.7122750282287598,-0.26096799969673157,9.849146842956543,-3.570556640625,1.03759765625,5.340576171875
3.7324999,0.6745663285255432,-0.42437225580215454,9.637260437011719,-4.33349609375,-0.762939453125,-4.94384765625
3.7374999,0.751779317855835,-0.3250128924846649,9.946710586547852,10.498046875,1.89208984375,1.068115234375
3.7424999000000003,0.7003039717674255,-0.37409400939941406,9.871294021606445,-10.955810546875,0.48828125,2.62451171875
3.7474999,0.6428431272506714,-0.42856210470199585,9.800664901733398,5.37109375,0.457763671875,-5.523681640625
3.7524999,0.7212532758712769,-0.24241292476654053,9.959878921508789,3.021240234375,2.197265625,4.82177734375
3.7574999,0.5841852426528931,-0.36571431159973145,9.644442558288574,-9.58251953125,-0.732421875,-2.13623046875
3.7624999000000003,0.6901286244392395,-0.25019407272338867,9.752182006835938,11.23046875,1.03759765625,-2.3193359375
3.7674999000000002,0.6314706802368164,-0.24899697303771973,9.815030097961426,-6.591796875,0.396728515625,4.791259765625
3.7724999,0.6177040338516235,-0.36092591285705566,9.870695114135742,-11.199951171875,-1.068115234375,1.251220703125
3.7774999,0.6177040338516235,-0.36092591285705566,9.870695114135742,-11.199951171875,-1.068115234375,1.251220703125
3.7824999000000004,0.5949591398239136,-0.3705027103424072,9.771934509277344,7.4462890625,-0.762939453125,-4.974365234375
3.7874999000000003,0.6500257849693298,-0.23343466222286224,9.921571731567383,0.152587890625,0.1220703125,5.18798828125
3.7924999,0.5380968451499939,-0.36810851097106934,9.559449195861816,-7.99560546875,-1.983642578125,-3.509521484375
3.7974999,0.6655880808830261,-0.2992752194404602,9.734225273132324,11.199951171875,0.1220703125,-1.251220703125
3.8024999000000004,0.6171054840087891,-0.3256114423274994,9.75517463684082,-8.4228515625,-0.518798828125,4.302978515625
3.8074999000000003,0.6619967818260193,-0.47165772318840027,9.677961349487305,0.885009765625,-1.434326171875,-5.7373046875
3.8124999,0.6973112225532532,-0.32860419154167175,9.955689430236816,7.6904296875,1.190185546875,3.173828125
3.8174999,0.6649895310401917,-0.3926490843296051,9.77253246307373,-11.199951171875,-1.28173828125,0.3662109375
3.8224999000000004,0.6584054827690125,-0.32381579279899597,9.711481094360352,8.758544921875,0.152587890625,-4.638671875
3.8274999000000003,0.7140706777572632,-0.1825578808784485,9.831191062927246,-1.251220703125,1.15966796875,5.2490234375
3.8324999,0.6775590777397156,-0.44412440061569214,9.724050521850586,1.800537109375,-0.396728515625,-6.011962890625
3.8374999,0.6877344250679016,-0.31842881441116333,9.953893661499023,6.7138671875,1.64794921875,3.326416015625
3.8424999,0.6105214357376099,-0.4016273319721222,9.744400978088379,-10.833740234375,-0.823974609375,-0.1220703125
3.8474999000000003,0.608127236366272,-0.35075053572654724,9.725247383117676,9.124755859375,0.42724609375,-4.39453125
3.8524999,0.6380547285079956,-0.23163901269435883,9.838972091674805,-2.0751953125,0.762939453125,5.31005859375
3.8574999,0.5566518902778625,-0.3842693865299225,9.595361709594727,-6.256103515625,-1.40380859375,-4.08935546875
3.8624999,0.6775590777397156,-0.2902969419956207,9.840168952941895,10.986328125,0.885009765625,-0.42724609375
3.8674999000000003,0.6075286865234375,-0.3561375141143799,9.838972091674805,-9.124755859375,-0.518798828125,3.753662109375
3.8724999,0.6368576288223267,-0.46986207365989685,9.740211486816406,2.01416015625,-0.9765625,-5.4931640625
3.8774999,0.6548141837120056,-0.33339259028434753,9.968857765197754,6.744384765625,1.007080078125,3.509521484375
3.8824999,0.618302583694458,-0.3561375141143799,9.73661994934082,9.1552734375,-0.152587890625,-4.486083984375
3.8874999000000003,0.6703764796257019,-0.23104046285152435,9.853337287902832,-1.46484375,0.579833984375,5.18798828125
3.8924999000000002,0.5973533391952515,-0.3621230125427246,9.61331844329834,-6.65283203125,-1.5869140625,-3.7841796875
3.8974999,0.7254431247711182,-0.28790274262428284,9.865307807922363,10.833740234375,0.91552734375,-0.54931640625
3.9024999,0.6631938815116882,-0.3363853394985199,9.868300437927246,-8.697509765625,-0.274658203125,3.96728515625
3.9074999000000004,0.689530074596405,-0.4644751250743866,9.798869132995605,1.28173828125,-0.518798828125,-5.615234375
3.9124999000000003,0.7044938206672668,-0.3208230137825012,10.022128105163574,7.293701171875,1.739501953125,2.960205078125
3.9174999,0.657806932926178,-0.40940847992897034,9.840767860412598,-10.955810546875,-1.068115234375,0.244140625
3.9224999,0.5506663918495178,-0.3447650372982025,9.561244010925293,-7.4462890625,-1.068115234375,-3.570556640625
3.9274999000000004,0.6613982319831848,-0.2555810213088989,9.75517463684082,10.772705078125,0.946044921875,-1.28173828125
3.9324999000000003,0.6350619792938232,-0.44352585077285767,9.728838920593262,-0.3662109375,-1.03759765625,-5.55419921875
3.9374999,0.667982280254364,-0.32860419154167175,9.991601943969727,8.1787109375,1.312255859375,2.50244140625
3.9424999,0.6171054840087891,-0.42437225580215454,9.86231517791748,-10.7421875,-1.251220703125,1.251220703125
3.9474999000000004,0.5793967843055725,-0.4129997789859772,9.761159896850586,6.988525390625,-0.518798828125,-5.218505859375
3.9524999000000003,0.6524199843406677,-0.24181437492370605,9.885659217834473,1.40380859375,0.732421875,4.730224609375
3.9574999,0.5297171473503113,-0.36152446269989014,9.59715747833252,-8.544921875,-1.251220703125,-2.44140625
3.9624999,0.6667851805686951,-0.2454056739807129,9.732429504394531,10.80322265625,0.67138671875,-2.227783203125
3.9674999000000004,0.6512228846549988,-0.2472013235092163,9.808445930480957,-6.16455078125,0.1220703125,4.82177734375
3.9724999000000003,0.6805518269538879,-0.3818751573562622,9.677961349487305,-2.38037109375,-1.15966796875,-5.0048828125
3.9774999,0.729034423828125,-0.3190273642539978,9.967061996459961,9.490966796875,1.0986328125,1.40380859375
3.9824999,0.707486629486084,-0.3800795078277588,9.856928825378418,-10.498046875,-0.701904296875,2.0751953125
3.9874999,0.6404489278793335,-0.4465186297893524,9.761159896850586,4.974365234375,-0.18310546875,-5.523681640625
3.9924999000000003,0.5817909836769104,-0.3321954905986786,9.635464668273926,-9.979248046875,-0.8544921875,-1.251220703125
3.9974999,0.6685808300971985,-0.26096799969673157,9.694721221923828,9.765625,0.640869140625,-3.5400390625
4.0024999,0.6368576288223267,-0.38307225704193115,9.819818496704102,-9.21630859375,-0.3662109375,3.60107421875
4.0074999,0.6476315855979919,-0.48243165016174316,9.758766174316406,1.5869140625,-0.8544921875,-5.645751953125
4.0124999,0.6524199843406677,-0.3256114423274994,9.965266227722168,6.256103515625,0.885009765625,3.23486328125
4.0174999,0.6099228858947754,-0.39564183354377747,9.780912399291992,-10.8642578125,-1.0986328125,0.457763671875
4.022499900000001,0.5829881429672241,-0.32620999217033386,9.70549488067627,7.843017578125,0,-4.547119140625
4.0274999000000005,0.6494272351264954,-0.19632454216480255,9.837176322937012,-0.732421875,0.42724609375,5.06591796875
4.0324999,0.5500678420066833,-0.32680854201316833,9.567828178405762,-7.965087890625,-1.5869140625,-3.11279296875
4.0374999,0.6979097723960876,-0.3908534348011017,9.886856079101562,-10.498046875,-0.8544921875,2.0751953125
4.0424999,0.6428431272506714,-0.44352585077285767,9.774328231811523,4.69970703125,-0.42724609375,-5.43212890625
4.0474999,0.7110779285430908,-0.25498247146606445,9.92097282409668,4.302978515625,1.495361328125,4.08935546875
4.0524999,0.5823895931243896,-0.32860419154167175,9.622296333312988,-9.82666015625,-1.03759765625,-1.007080078125
4.0574999,0.6458359360694885,-0.28790274262428284,9.672574996948242,9.46044921875,0.6103515625,-3.631591796875
4.062499900000001,0.6607996821403503,-0.21966800093650818,9.784503936767578,-2.62451171875,0.54931640625,5.0048828125
4.0674999000000005,0.5961562395095825,-0.3734954595565796,9.591172218322754,-5.7373046875,-0.9765625,-3.997802734375
4.0724999,0.7086837291717529,-0.32620999217033386,9.854534149169922,10.498046875,1.312255859375,-0.518798828125
4.0774999,0.6446388363838196,-0.3561375141143799,9.885659217834473,-8.270263671875,-0.091552734375,3.936767578125
4.0824999,0.6416460275650024,-0.3687070608139038,9.630077362060547,-4.302978515625,-1.220703125,-4.33349609375
4.0874999,0.7338228225708008,-0.3172317147254944,9.90361499786377,10.25390625,1.03759765625,-0.030517578125
4.0924999,0.6590040326118469,-0.3758896589279175,9.864110946655273,-8.60595703125,-0.3662109375,3.35693359375
4.0974999,0.6637924313545227,-0.47465047240257263,9.78989028930664,1.861572265625,-0.6103515625,-5.462646484375
4.1024999,0.6739677786827087,-0.3100491166114807,9.956287384033203,7.080078125,1.5869140625,2.899169921875
4.1074999000000005,0.5847837924957275,-0.3513490855693817,9.707290649414062,7.293701171875,0.213623046875,-4.7607421875
4.1124999,0.6560112833976746,-0.19692309200763702,9.824606895446777,1.220703125,1.3427734375,4.5166015625
4.1174999,0.5339069962501526,-0.3130418658256531,9.551667213439941,-8.30078125,-0.762939453125,-2.349853515625
4.1224999,0.9313444495201111,-0.43993455171585083,9.533711433410645,18.341064453125,13.824462890625,-5.157470703125
4.1274999,1.3886369466781616,-0.5919663906097412,8.942941665649414,23.3154296875,46.2646484375,-10.406494140625
4.1324999,1.756745457649231,-1.3413515090942383,8.577826499938965,17.39501953125,26.702880859375,-18.035888671875
4.1374999,2.713229179382324,-1.3940238952636719,8.795698165893555,63.90380859375,62.896728515625,-23.834228515625
4.1424999,3.1711201667785645,-2.0931308269500732,9.63187313079834,79.437255859375,103.302001953125,-35.15625
4.147499900000001,3.885190725326538,-2.2685060501098633,11.202469825744629,112.36572265625,135.25390625,-48.553466796875
4.1524999000000005,4.335300922393799,-2.102707624435425,13.306973457336426,149.505615234375,159.576416015625,-55.694580078125
4.1574999,4.356249809265137,-2.03507137298584,14.73990249633789,153.3203125,158.721923828125,-82.6416015625
4.1624999,2.670732021331787,-0.19273324310779572,13.702614784240723,108.062744140625,100.40283203125,-100.830078125
4.1674999,1.1593921184539795,0.606930136680603,10.56381607055664,66.619873046875,-31.097412109375,-117.7978515625
4.1724999,-0.4471171796321869,1.632246971130371,6.6127848625183105,42.938232421875,-112.640380859375,-121.734619140625
4.1774999,-1.635838270187378,2.29484224319458,2.9053637981414795,-4.241943359375,-152.83203125,-115.203857421875
4.1824999,-2.207453966140747,2.2649147510528564,0.47405192255973816,-30.45654296875,-186.8896484375,-112.274169921875
4.187499900000001,-2.160168409347534,2.4199392795562744,-0.5644330382347107,-52.032470703125,-218.170166015625,-86.456298828125
4.1924999000000005,-1.7998411655426025,2.099116325378418,-0.6554127335548401,-91.339111328125,-226.6845703125,-61.21826171875
4.1974999,-1.4778209924697876,1.8303672075271606,0.4058171808719635,-102.630615234375,-201.2939453125,-47.576904296875
4.2024999,-1.3856441974639893,2.4576480388641357,3.139995574951172,-142.63916015625,-130.55419921875,-29.022216796875
4.2074999,-1.4413094520568848,3.1477766036987305,6.1267619132995605,-231.719970703125,-4.241943359375,-31.097412109375
4.2124999,-1.3569138050079346,4.113238334655762,9.804255485534668,-264.6484375,78.2470703125,-23.529052734375
4.2174999,-0.4297592043876648,4.072536945343018,13.365631103515625,-180.96923828125,132.01904296875,1.708984375
4.2224999,1.611896276473999,-0.06224924325942993,17.106571197509766,42.6025390625,54.62646484375,-9.246826171875
4.2274999,1.8405425548553467,-2.388216257095337,16.251840591430664,-31.524658203125,42.96875,4.5166015625
4.2324999000000005,0.9409212470054626,-4.388571739196777,13.186065673828125,-29.205322265625,20.965576171875,-3.662109375
4.2374999,-0.47584760189056396,-4.638765811920166,8.926780700683594,-9.70458984375,-24.2919921875,-3.021240234375
4.2424999,-3.044227361679077,-3.7846343517303467,3.5278561115264893,22.0947265625,-35.400390625,-5.7373046875
4.2474999,-3.3417069911956787,-3.200449228286743,4.340089321136475,33.233642578125,1.373291015625,4.608154296875
4.2524999,-2.756923198699951,-3.052008628845215,6.863577842712402,16.693115234375,-3.173828125,1.007080078125
4.2574999,-1.6633716821670532,-2.6833014488220215,9.838972091674805,23.5595703125,-25.87890625,-2.044677734375
4.2624999,-1.6633716821670532,-2.6833014488220215,9.838972091674805,23.5595703125,-25.87890625,-2.044677734375
4.2674999,-0.25258827209472656,-1.8806453943252563,12.05959415435791,15.899658203125,-31.707763671875,8.453369140625
4.272499900000001,0.6332663297653198,-1.0905588865280151,12.509105682373047,11.23046875,-35.064697265625,1.5869140625
4.2774999000000005,1.0989385843276978,1.3287819623947144,9.753378868103027,-6.744384765625,-31.646728515625,-3.2958984375
4.2824999,1.0989385843276978,1.3287819623947144,9.753378868103027,-6.744384765625,-31.646728515625,-3.2958984375
4.2874999,1.1510124206542969,1.668160080909729,9.55705451965332,2.044677734375,-25.45166015625,2.44140625
4.2924999,1.24917471408844,1.449090600013733,9.5007905960083,-17.15087890625,-25.787353515625,6.866455078125
4.2974999,1.4850035905838013,0.8433575630187988,9.746794700622559,-3.90625,-20.416259765625,-1.922607421875
4.3024999,1.6759412288665771,0.4812345504760742,9.837176322937012,-0.8544921875,-2.01416015625,6.988525390625
4.3074999,1.7519570589065552,-0.3363853394985199,9.667187690734863,-13.031005859375,-8.1787109375,4.974365234375
4.312499900000001,1.602918028831482,-0.8744821548461914,9.431957244873047,5.859375,-9.124755859375,-1.708984375
4.3174999000000005,1.5322890281677246,-1.0606313943862915,9.395445823669434,2.0751953125,3.631591796875,4.82177734375
4.3224999,1.3096283674240112,-1.3724761009216309,9.272144317626953,-5.828857421875,6.53076171875,-3.509521484375
4.3274999,1.315613865852356,-1.1504138708114624,9.524134635925293,12.63427734375,9.368896484375,-5.584716796875
4.3324999,1.30543851852417,-0.8122329115867615,9.644442558288574,-1.89208984375,11.3525390625,1.495361328125
4.3374999,0.6979097723960876,-0.13527239859104156,9.854534149169922,-0.06103515625,9.185791015625,-4.791259765625
4.3424999,0.5638344883918762,0.06524199992418289,10.077195167541504,5.157470703125,10.31494140625,2.50244140625
4.3474999,0.43514615297317505,-0.14245499670505524,10.00716495513916,-11.5966796875,3.47900390625,1.40380859375
4.352499900000001,0.3232172429561615,-0.2645592987537384,9.907206535339355,4.5166015625,1.708984375,-5.096435546875
4.3574999000000005,0.365115761756897,-0.2364274114370346,9.975440979003906,2.288818359375,2.38037109375,3.84521484375
4.3624999,0.243011474609375,-0.47824180126190186,9.68694019317627,-8.4228515625,-2.0751953125,-1.220703125
4.3674999,0.35254621505737305,-0.48722004890441895,9.750985145568848,10.31494140625,-2.8076171875,-2.74658203125
4.3724999,0.44412440061569214,-0.3734954595565796,9.75637149810791,-1.40380859375,-4.638671875,5.096435546875
4.3774999,0.46148237586021423,-0.5195417404174805,9.621698379516602,-4.08935546875,-7.75146484375,-3.84521484375
4.3824999,0.6673837304115295,-0.3280056416988373,9.831789016723633,10.25390625,-5.279541015625,-1.068115234375
4.3874999,0.8313865661621094,-0.38127660751342773,9.814431190490723,-0.79345703125,-6.439208984375,-4.608154296875
4.3924999,0.9415197968482971,-0.228047713637352,10.018536567687988,7.476806640625,-3.2958984375,2.3193359375
4.397499900000001,0.983418345451355,-0.33039984107017517,9.875483512878418,-10.406494140625,-3.448486328125,2.044677734375
4.4024999000000005,1.0115501880645752,-0.4159925580024719,9.779715538024902,3.936767578125,-0.213623046875,-5.615234375
4.4074999,1.0755951404571533,-0.284311443567276,9.823410034179688,3.0517578125,3.173828125,3.41796875
4.4124999,0.9977835416793823,-0.4537012279033661,9.57321548461914,-9.3994140625,0.6103515625,-0.18310546875
4.4174999,0.9415197968482971,-0.44831427931785583,9.597756385803223,9.1552734375,3.387451171875,-3.5400390625
4.4224999,0.9265560507774353,-0.3256114423274994,9.663596153259277,-0.42724609375,5.950927734375,4.39453125
4.4274999,0.7745242714881897,-0.4692635238170624,9.533711433410645,-6.40869140625,2.899169921875,-3.60107421875
4.4324999,0.8008604645729065,-0.33279404044151306,9.725247383117676,10.101318359375,4.33349609375,-2.44140625
4.437499900000001,0.7433996200561523,-0.28371289372444153,9.783905029296875,-5.67626953125,3.082275390625,4.547119140625
4.4424999000000005,0.6542156338691711,-0.4225766062736511,9.730634689331055,-2.3193359375,0.48828125,-4.241943359375
4.4474999,0.558447539806366,-0.4058171808719635,9.888052940368652,2.105712890625,-2.655029296875,-5.43212890625
4.4524999,0.5752069354057312,-0.2472013235092163,9.980229377746582,5.584716796875,-1.40380859375,2.716064453125
4.4574999,0.5710170865058899,-0.36990416049957275,9.794678688049316,-9.857177734375,-4.08935546875,1.129150390625
4.4624999,0.578798234462738,-0.39384618401527405,9.745597839355469,6.7138671875,-3.509521484375,-4.39453125
4.4674999,0.7272387742996216,-0.2519897222518921,9.804854393005371,1.495361328125,-1.77001953125,4.791259765625
4.4724999,0.6877344250679016,-0.414795458316803,9.59177017211914,-8.026123046875,-3.84521484375,-1.40380859375
4.477499900000001,0.8433575630187988,-0.3429693877696991,9.670180320739746,9.6435546875,-1.28173828125,-3.2958984375
4.4824999000000005,0.9133879542350769,-0.27653029561042786,9.701904296875,-3.509521484375,0.1220703125,4.302978515625
4.4874999,0.8870517015457153,-0.44352585077285767,9.552266120910645,-5.37109375,-0.9765625,-3.753662109375
4.4924999,0.993593692779541,-0.3693056106567383,9.77013874053955,10.040283203125,2.410888671875,-0.518798828125
4.4974999,0.9241618514060974,-0.38965633511543274,9.809642791748047,-7.171630859375,2.288818359375,4.2724609375
4.5024999,0.6440402865409851,-0.3411737382411957,9.724050521850586,-9.368896484375,-0.67138671875,0.06103515625
4.5074999,0.5764040350914001,-0.3010708689689636,9.748590469360352,7.904052734375,-0.518798828125,-4.425048828125
4.5124999,0.6434416770935059,-0.16998831927776337,9.835979461669922,0.213623046875,0.1220703125,4.45556640625
4.5174999,0.5398924946784973,-0.3423708379268646,9.631275177001953,-7.781982421875,-3.082275390625,-2.227783203125
4.522499900000001,0.657806932926178,-0.2783259451389313,9.779715538024902,9.368896484375,-1.220703125,-2.25830078125
4.5274999000000005,0.7140706777572632,-0.26994624733924866,9.814431190490723,-4.5166015625,-1.434326171875,4.8828125
4.5324999,0.7248445749282837,-0.45429977774620056,9.694122314453125,-4.21142578125,-3.204345703125,-3.96728515625
4.5374999,0.8565256595611572,-0.37409400939941406,9.889249801635742,9.033203125,-0.3662109375,-0.3662109375
4.5424999,0.8487445116043091,-0.262763649225235,9.825803756713867,4.058837890625,2.9296875,3.5400390625
4.5474999,0.7643488645553589,-0.35015198588371277,9.606734275817871,-9.429931640625,0.06103515625,-0.48828125
4.5524999,0.70090252161026,-0.32620999217033386,9.640253067016602,8.087158203125,1.434326171875,-4.180908203125
4.5574999,0.7439981698989868,-0.20470423996448517,9.727043151855469,-0.42724609375,2.532958984375,4.7607421875
4.562499900000001,0.727837324142456,-0.28072014451026917,9.847949981689453,-4.69970703125,0.335693359375,4.57763671875
4.5674999000000005,0.6883329749107361,-0.424970805644989,9.733028411865234,-3.875732421875,-2.0751953125,-4.21142578125
4.5724999,0.7451952695846558,-0.5321113467216492,9.814431190490723,0.54931640625,-2.44140625,-5.035400390625
4.5774999,0.7793126702308655,-0.37409400939941406,9.971850395202637,7.32421875,1.03759765625,1.8310546875
4.5824999,0.7631517648696899,-0.4686649739742279,9.824007987976074,-9.857177734375,-1.434326171875,1.89208984375
4.5874999,0.7631517648696899,-0.46627077460289,9.739013671875,4.45556640625,-1.03759765625,-5.0048828125
4.5924999,0.821809709072113,-0.25977087020874023,9.823410034179688,3.997802734375,2.197265625,3.692626953125
4.5974999,0.768538773059845,-0.3705027103424072,9.603142738342285,-9.368896484375,-0.640869140625,-0.18310546875
4.602499900000001,0.74040687084198,-0.32022446393966675,9.637260437011719,7.9345703125,0.335693359375,-4.08935546875
4.6074999000000005,0.8140285611152649,-0.2059013396501541,9.723451614379883,0.152587890625,2.044677734375,4.5166015625
4.6124999,0.6925228238105774,-0.37169981002807617,9.57201862335205,-7.4462890625,-0.79345703125,-2.410888671875
4.6174999,0.778714120388031,-0.31603461503982544,9.764751434326172,9.27734375,0.91552734375,-2.532958984375
4.6224999,0.7835025191307068,-0.2777273952960968,9.808445930480957,-4.08935546875,1.40380859375,4.5166015625
4.6274999,0.8176198601722717,-0.34656068682670593,9.907805442810059,9.552001953125,0.823974609375,-0.3662109375
4.6324999,0.74040687084198,-0.3866635859012604,9.901819229125977,-7.568359375,-0.3662109375,3.875732421875
4.6374999,0.7398083209991455,-0.48482584953308105,9.841365814208984,-0.091552734375,-1.8310546875,-4.7607421875
4.6424999,0.7577648162841797,-0.3561375141143799,10.039485931396484,7.62939453125,0.9765625,1.5869140625
4.647499900000001,0.7236474752426147,-0.40701428055763245,9.873687744140625,-9.33837890625,-1.373291015625,2.13623046875
4.6524999000000005,0.7326257228851318,-0.44412440061569214,9.797672271728516,4.21142578125,-1.708984375,-4.94384765625
4.6574999,0.7757213711738586,-0.2519897222518921,9.846753120422363,5.096435546875,1.0986328125,3.35693359375
4.6624999,0.7356184720993042,-0.3776853084564209,9.643844604492188,-9.613037109375,-1.434326171875,0.091552734375
4.6674999,0.7015010714530945,-0.3423708379268646,9.64923095703125,7.32421875,-0.518798828125,-4.2724609375
4.6724999,0.7882909178733826,-0.22864626348018646,9.728838920593262,0.762939453125,1.3427734375,4.45556640625
4.6774999,0.6841431260108948,-0.3687070608139038,9.569025993347168,-7.87353515625,-1.15966796875,-2.0751953125
4.6824999,0.7817068696022034,-0.33339259028434753,9.700108528137207,9.185791015625,0.762939453125,-2.960205078125
4.687499900000001,0.7380126714706421,-0.456095427274704,9.640851974487305,-5.035400390625,-0.885009765625,-3.570556640625
4.6924999000000005,0.8254010081291199,-0.353743314743042,9.852738380432129,9.735107421875,1.220703125,-0.79345703125
4.6974999,0.7553706169128418,-0.3818751573562622,9.871891975402832,-6.805419921875,0.18310546875,4.0283203125
4.7024999,0.750582218170166,-0.47884035110473633,9.813833236694336,-1.312255859375,-1.220703125,-4.852294921875
4.7074999,0.7763199210166931,-0.3513490855693817,10.019135475158691,8.48388671875,0.701904296875,0.9765625
4.7124999,0.7332242727279663,-0.3794809579849243,9.882067680358887,-8.880615234375,-0.579833984375,2.777099609375
4.7174999,0.7320271730422974,-0.456095427274704,9.797672271728516,2.777099609375,-0.8544921875,-5.18798828125
4.7224999,0.7978677153587341,-0.2579752206802368,9.797672271728516,2.5634765625,0.518798828125,3.997802734375
4.727499900000001,0.707486629486084,-0.37469255924224854,9.5809965133667,-8.36181640625,-1.28173828125,-1.068115234375
4.7324999000000005,0.7589619159698486,-0.35075053572654724,9.643844604492188,8.72802734375,0.885009765625,-3.509521484375
4.7374999,0.7966706156730652,-0.24181437492370605,9.694122314453125,-2.044677734375,1.007080078125,4.730224609375
4.7424999,0.7182605266571045,-0.41958385705947876,9.576208114624023,-6.34765625,-1.190185546875,-3.021240234375
4.7474999,0.8008604645729065,-0.3363853394985199,9.768941879272461,9.94873046875,1.312255859375,-1.983642578125
4.7524999,0.7924807667732239,-0.32381579279899597,9.837176322937012,-5.645751953125,0.701904296875,4.486083984375
4.7574999,0.761954665184021,-0.4507084786891937,9.749189376831055,-3.204345703125,-1.0986328125,-4.21142578125
4.7624999,0.8355764150619507,-0.3423708379268646,9.971251487731934,9.27734375,1.129150390625,0.152587890625
4.7674999,0.7535749673843384,-0.3776853084564209,9.891644477844238,-8.11767578125,-0.152587890625,3.35693359375
4.772499900000001,0.7571662664413452,-0.47465047240257263,9.834183692932129,0.701904296875,-0.91552734375,-5.218505859375
4.7774999000000005,0.7625532150268555,-0.3280056416988373,9.959878921508789,6.805419921875,1.251220703125,2.227783203125
4.7824999,0.7242460250854492,-0.39564183354377747,9.813234329223633,-9.46044921875,-0.885009765625,1.983642578125
4.7874999,0.7248445749282837,-0.4183867573738098,9.726444244384766,4.669189453125,-0.79345703125,-5.31005859375
4.7924999,0.768538773059845,-0.24480712413787842,9.827000617980957,3.692626953125,1.312255859375,3.692626953125
4.7974999,0.7260416746139526,-0.3711012601852417,9.607931137084961,-9.246826171875,-1.46484375,0
4.8024999,0.6943184733390808,-0.3645172119140625,9.600150108337402,-7.8125,-1.220703125,-1.8310546875
4.8074999,0.800261914730072,-0.29568392038345337,9.764751434326172,9.674072265625,0.213623046875,-2.593994140625
4.812499900000001,0.8044517636299133,-0.2513911724090576,9.804854393005371,-3.11279296875,1.28173828125,4.57763671875
4.8174999000000005,0.7541735172271729,-0.43335050344467163,9.685144424438477,-5.035400390625,-1.15966796875,-3.96728515625
4.8224999,0.8331822156906128,-0.37828385829925537,9.880271911621094,9.3994140625,0.885009765625,-0.79345703125
4.8274999,0.7763199210166931,-0.4010287821292877,9.874286651611328,-6.622314453125,0.42724609375,4.302978515625
4.8324999,0.7751228213310242,-0.5596446394920349,9.797672271728516,-1.15966796875,-1.190185546875,-4.82177734375
4.8374999,0.7966706156730652,-0.40282443165779114,9.983222961425781,8.23974609375,1.52587890625,0.946044921875
4.8424999,0.7469909191131592,-0.436343252658844,9.852738380432129,-9.002685546875,-0.335693359375,3.021240234375
4.8474999,0.6883329749107361,-0.3489548861980438,9.575011253356934,-8.9111328125,-1.495361328125,-0.823974609375
4.852499900000001,0.7146692276000977,-0.3357867896556854,9.659406661987305,8.148193359375,0.030517578125,-3.753662109375
4.8574999000000005,0.7769184708595276,-0.23104046285152435,9.704896926879883,-1.220703125,1.129150390625,4.608154296875
4.8624999,0.6991068720817566,-0.4010287821292877,9.595361709594727,-6.89697265625,-1.40380859375,-2.716064453125
4.8674999,0.6991068720817566,-0.4010287821292877,9.595361709594727,-6.89697265625,-1.40380859375,-2.716064453125
4.8724999,0.7930793166160583,-0.34656068682670593,9.798270225524902,9.857177734375,0.3662109375,-2.3193359375
4.8774999,0.8194155097007751,-0.30526071786880493,9.841365814208984,-4.33349609375,1.0986328125,4.547119140625
4.8824999,0.760757565498352,-0.4513070285320282,9.72165584564209,-3.90625,-1.068115234375,-4.150390625
4.8874999,0.7763199210166931,-0.353743314743042,10.004770278930664,7.843017578125,0.518798828125,1.312255859375
4.8924999,0.7422025203704834,-0.38905778527259827,9.844358444213867,-9.09423828125,-0.54931640625,2.38037109375
4.897499900000001,0.739209771156311,-0.4537012279033661,9.770736694335938,3.570556640625,-0.640869140625,-5.37109375
4.9024999000000005,0.7589619159698486,-0.24660277366638184,9.831789016723633,5.18798828125,1.3427734375,2.9296875
4.9074999,0.730231523513794,-0.36152446269989014,9.68155288696289,-9.552001953125,-0.885009765625,0.91552734375
4.9124999,0.6805518269538879,-0.3489548861980438,9.683348655700684,6.378173828125,-0.1220703125,-4.608154296875
4.9174999,0.7793126702308655,-0.22685061395168304,9.818621635437012,1.922607421875,1.190185546875,4.08935546875
4.9224999,0.6823474764823914,-0.35913026332855225,9.625887870788574,-8.7890625,-1.8310546875,-1.0986328125
4.9274999,0.9080010056495667,-0.4770447015762329,9.815628051757812,8.514404296875,-0.152587890625,-3.448486328125
4.9324999,1.2826935052871704,-0.4866214990615845,10.04068374633789,16.937255859375,29.84619140625,4.119873046875
4.937499900000001,2.9484593868255615,-1.8495208024978638,11.044452667236328,85.26611328125,89.996337890625,-2.44140625
4.9424999000000005,3.7385458946228027,-2.7257986068725586,11.977592468261719,117.401123046875,139.678955078125,-2.197265625
4.9474999,4.11443567276001,-3.6337995529174805,13.159729957580566,190.4296875,217.620849609375,-17.578125
4.9524999,3.7834372520446777,-3.7421371936798096,14.839860916137695,256.195068359375,263.85498046875,-15.716552734375
4.9574999,2.609679937362671,-3.693056106567383,16.326061248779297,251.52587890625,247.802734375,-7.26318359375
4.9624999,-3.2591071128845215,0.5309142470359802,14.115015983581543,329.7119140625,150.2685546875,1.15966796875
4.9674999,-3.7277719974517822,2.360682964324951,10.752958297729492,334.1064453125,61.798095703125,-22.003173828125
4.9724999,-3.912724018096924,3.6834793090820312,7.281964302062988,297.66845703125,-45.806884765625,-52.24609375
4.977499900000001,-3.598485231399536,4.873397350311279,4.36343240737915,243.560791015625,-159.576416015625,-62.43896484375
4.9824999000000005,-0.076015904545784,1.492186188697815,0.67815762758255,39.4287109375,-222.503662109375,55.267333984375
4.9874999,0.11312603205442429,1.1797429323196411,0.5410895943641663,20.965576171875,-194.854736328125,75.469970703125
4.9924999,-0.05985504388809204,1.0271124839782715,0.32620999217033386,33.599853515625,-168.02978515625,74.89013671875
4.9974999,-0.13527239859104156,1.5682021379470825,0.05626374110579491,46.44775390625,-159.027099609375,82.1533203125
5.0024999,-0.4471171796321869,1.5951368808746338,-0.33339259028434753,33.477783203125,-166.259765625,87.249755859375
5.0074999,-0.7026981711387634,1.7178397178649902,-0.34177228808403015,46.44775390625,-176.513671875,78.338623046875
5.0124999,-0.8224082589149475,2.11946702003479,0.3106476664543152,34.698486328125,-188.751220703125,83.587646484375
5.0174999,-0.45010992884635925,3.451840400695801,3.0538041591644287,-30.70068359375,-156.768798828125,82.82470703125
5.022499900000001,1.6747441291809082,7.836222171783447,9.071630477905273,-439.239501953125,108.978271484375,87.249755859375
5.0274999000000005,2.522291421890259,9.239823341369629,9.998186111450195,-399.47509765625,33.8134765625,92.498779296875
5.0324999,2.9885623455047607,9.625887870788574,8.60116958618164,-321.075439453125,-7.415771484375,100.128173828125
5.0374999,2.7982232570648193,8.6897554397583,6.354809761047363,-286.56005859375,32.3486328125,120.361328125
5.0424999,5.609015941619873,-5.005677223205566,12.01111125946045,-25.87890625,285.369873046875,53.741455078125
5.0474999,6.5930328369140625,-8.175002098083496,13.213000297546387,60.699462890625,217.620849609375,6.89697265625
5.0524999,3.8810009956359863,-11.176732063293457,10.319607734680176,43.731689453125,99.029541015625,-84.47265625
5.0574999,1.2270283699035645,-9.52353572845459,7.536946773529053,21.026611328125,90.4541015625,-103.729248046875
5.062499900000001,-0.7146692276000977,-7.485471725463867,5.790376663208008,-41.9921875,75.347900390625,-98.81591796875
5.0674999000000005,-1.8213889598846436,-5.017648220062256,5.8873419761657715,-53.802490234375,66.558837890625,-70.587158203125
5.0724999,-1.9267338514328003,-2.743156671524048,7.48726749420166,-20.93505859375,89.263916015625,-27.435302734375
5.0774999,-1.9889830350875854,-1.367687702178955,9.561842918395996,15.13671875,84.9609375,-0.79345703125
5.0824999,-1.9273324012756348,-0.1430535465478897,11.51850414276123,25.787353515625,45.654296875,15.838623046875
5.0874999,-2.1362264156341553,0.5051765441894531,12.384607315063477,-7.26318359375,18.37158203125,20.99609375
5.0924999,-2.6174609661102295,0.5859808921813965,11.839327812194824,-8.270263671875,1.77001953125,2.593994140625
5.0974999,-2.9071593284606934,0.7799112200737,10.703877449035645,8.48388671875,-18.73779296875,-2.3193359375
5.102499900000001,-3.0621838569641113,0.42018240690231323,9.528324127197266,-6.40869140625,-35.308837890625,2.593994140625
5.1074999000000005,-2.76350736618042,-0.08619125932455063,8.89445972442627,0.335693359375,-36.9873046875,2.777099609375
5.1124999,-1.2168530225753784,-0.8972271084785461,9.75397777557373,-0.54931640625,-42.29736328125,20.01953125
5.1174999,-0.33339259028434753,-1.0911574363708496,10.177152633666992,11.53564453125,-45.0439453125,7.843017578125
5.1224999,0.3423708379268646,-0.8804676532745361,10.442310333251953,12.420654296875,-46.142578125,8.758544921875
5.1274999,0.7667431235313416,-0.800261914730072,10.184335708618164,-2.899169921875,-46.32568359375,-0.640869140625
5.1324999,0.9786299467086792,-0.5237316489219666,9.900622367858887,10.3759765625,-41.351318359375,-10.711669921875
5.1374999,1.2270283699035645,-0.12389993667602539,9.821614265441895,4.241943359375,-33.75244140625,-4.57763671875
5.1424999,1.3329718112945557,-0.12330138683319092,9.520543098449707,-7.354736328125,-28.106689453125,-9.307861328125
5.147499900000001,1.5095441341400146,-0.008978256024420261,9.539097785949707,9.27734375,-20.233154296875,-8.941650390625
5.1524999000000005,1.6352397203445435,0.047884032130241394,9.580398559570312,-1.46484375,-13.00048828125,0.396728515625
5.1574999,1.6041151285171509,-0.1975216418504715,9.41519832611084,-6.134033203125,-9.521484375,-5.92041015625
5.1624999,1.5981296300888062,-0.21847090125083923,9.570821762084961,8.544921875,-1.77001953125,-2.86865234375
5.1674999,1.513733983039856,-0.28550854325294495,9.638457298278809,-5.859375,3.662109375,4.058837890625
5.1724999,0.3693056106567383,-0.11013327538967133,9.853337287902832,0.6103515625,22.76611328125,4.302978515625
5.1774999,0.19632454216480255,-0.27653029561042786,9.678560256958008,-11.71875,17.822265625,-0.335693359375
5.1824999,0.043095629662275314,-0.3064578175544739,9.750985145568848,5.31005859375,15.625,-4.150390625
5.187499900000001,-0.002394201699644327,-0.26096799969673157,9.84495735168457,-1.739501953125,13.48876953125,3.997802734375
5.1924999000000005,-0.19632454216480255,-0.5051765441894531,9.712079048156738,-8.087158203125,6.500244140625,-3.265380859375
5.1974999,-0.18555063009262085,-0.4800374507904053,9.849745750427246,8.819580078125,3.936767578125,-2.9296875
5.2024999,-0.12749123573303223,-0.568622887134552,9.95209789276123,-5.0048828125,-11.932373046875,3.753662109375
5.2074999,0.01975216343998909,-0.6272808313369751,9.88386344909668,1.312255859375,-15.31982421875,-5.035400390625
5.2124999,0.17298106849193573,-0.44352585077285767,10.053851127624512,9.58251953125,-12.14599609375,1.220703125
5.2174999,0.3034650683403015,-0.44592007994651794,9.911994934082031,-7.080078125,-13.580322265625,1.953125
5.2224999,0.46746787428855896,-0.42197805643081665,9.785700798034668,4.119873046875,-12.786865234375,-5.401611328125
5.227499900000001,0.5919663906097412,-0.22385786473751068,9.825803756713867,6.04248046875,-7.75146484375,3.143310546875
