# Time (seconds),Accel_X,Accel_Y,Accel_Z,Gyro_X,Gyro_Y,Gyro_Z
0.0024999,-2.9969420433044434,-0.5943605899810791,8.01339340209961,-23.406982421875,-10.68115234375,-1.03759765625
0.0074999,-2.9969420433044434,-0.5943605899810791,8.01339340209961,-23.406982421875,-10.68115234375,-1.03759765625
0.012499900000000001,-4.132990837097168,-1.182137131690979,6.890512466430664,-17.578125,-59.417724609375,14.58740234375
0.0174999,-4.887762546539307,-1.9333178997039795,5.818508625030518,-8.697509765625,-104.91943359375,27.587890625
0.0224999,-5.005677223205566,-2.668337821960449,5.1116204261779785,4.791259765625,-141.29638671875,41.473388671875
0.0274999,-3.0107085704803467,-2.606088638305664,7.0132155418396,25.81787109375,-157.867431640625,42.388916015625
0.0324999,-0.284311443567276,-1.3425486087799072,9.37509536743164,3.875732421875,-117.1875,26.031494140625
0.0374999,2.956240653991699,-0.010773907415568829,12.235568046569824,-9.33837890625,-52.581787109375,6.4697265625
0.0424999,5.89392614364624,1.2282254695892334,13.849858283996582,3.35693359375,25.0244140625,-3.2958984375
0.0474999,7.185597896575928,1.5197194814682007,14.465766906738281,13.18359375,54.779052734375,-7.659912109375
0.0524999,6.485892295837402,1.325789213180542,13.641562461853027,11.199951171875,54.046630859375,-16.05224609375
0.0574999,4.067748546600342,0.8708908557891846,12.096105575561523,5.401611328125,43.365478515625,-15.716552734375
0.0624999,1.2880805730819702,0.47584760189056396,10.58536434173584,2.13623046875,24.261474609375,-12.6953125
0.0674999,-0.9546879529953003,0.0975637212395668,9.322422981262207,3.448486328125,8.575439453125,-15.93017578125
0.0724999,-2.185307502746582,-0.14006079733371735,8.670002937316895,1.434326171875,0.762939453125,-18.768310546875
0.0774999,-2.363675594329834,-0.19931729137897491,8.60236644744873,-2.166748046875,0.6103515625,-16.66259765625
0.0824999,-1.8189947605133057,-0.13287819921970367,8.974664688110352,-3.631591796875,6.40869140625,-17.547607421875
0.0874999,-0.5536591410636902,0.0005985504249110818,9.797073364257812,-8.209228515625,9.918212890625,-19.622802734375
0.0924999,-0.4950011968612671,-0.04728548228740692,9.840168952941895,-11.16943359375,0.30517578125,-16.510009765625
0.0974999,-0.8607155084609985,-0.1693897694349289,9.61331844329834,-15.838623046875,-18.61572265625,-5.218505859375
0.1024999,-1.4281413555145264,-0.3687070608139038,9.278130531311035,-19.989013671875,-42.694091796875,8.7890625
0.1074999,-1.8040310144424438,-0.595557689666748,9.011177062988281,-22.247314453125,-61.370849609375,15.899658203125
0.1124999,-1.6741455793380737,-0.8553285598754883,8.993220329284668,-21.331787109375,-67.291259765625,17.791748046875
0.1174999,-0.9103952050209045,-1.1234791278839111,9.263166427612305,-15.19775390625,-58.929443359375,21.1181640625
0.1224999,0.2950853705406189,-1.3407529592514038,9.642048835754395,-5.06591796875,-38.51318359375,21.392822265625
0.1274999,1.591545581817627,-1.501164436340332,10.107122421264648,5.37109375,-15.045166015625,14.495849609375
0.1324999,2.430713176727295,-1.4119805097579956,10.27890682220459,12.14599609375,3.662109375,6.500244140625
0.1374999,2.6186580657958984,-1.182137131690979,10.365097999572754,12.87841796875,6.439208984375,1.983642578125
0.1424999,2.22660756111145,-0.7793126702308655,10.249577522277832,11.871337890625,4.8828125,-1.190185546875
0.1474999,0.9798270463943481,-0.03651157766580582,10.030508041381836,8.087158203125,8.270263671875,-8.48388671875
0.1524999,0.5847837924957275,0.16220717132091522,9.975440979003906,6.011962890625,11.444091796875,-8.819580078125
0.1574999,0.4076128304004669,0.1951274424791336,9.945513725280762,4.82177734375,13.153076171875,-10.040283203125
0.1624999,0.32022446393966675,0.011971008032560349,9.883264541625977,5.37109375,14.09912109375,-13.24462890625
0.1674999,0.26815059781074524,-0.09157821536064148,9.856329917907715,7.38525390625,15.19775390625,-16.11328125
0.1724999,0.1586158573627472,-0.043095629662275314,9.754576683044434,4.608154296875,13.214111328125,-14.09912109375
0.17749990000000002,-0.1364694982767105,0.090979665517807,9.78869342803955,-5.06591796875,6.500244140625,-11.871337890625
0.1824999,-0.5099649429321289,0.2082955539226532,9.6989107131958,-9.765625,-2.5634765625,-9.21630859375
0.1874999,-0.970848798751831,0.14604631066322327,9.68274974822998,-10.986328125,-11.749267578125,-3.11279296875
0.1924999,-1.3521254062652588,-0.07541735470294952,9.623494148254395,-11.29150390625,-21.270751953125,9.21630859375
0.1974999,-1.4915876388549805,-0.32202014327049255,9.59057331085205,-15.5029296875,-32.562255859375,15.106201171875
0.2024999,-1.2779051065444946,-0.5165489912033081,9.622895240783691,-17.303466796875,-37.29248046875,15.93017578125
0.20749990000000001,0.05626374110579491,-1.0905588865280151,9.75397777557373,-4.119873046875,-25.054931640625,22.03369140625
0.2124999,0.8792705535888672,-1.3844470977783203,9.806650161743164,6.34765625,-13.3056640625,17.547607421875
0.2174999,1.5131354331970215,-1.4532804489135742,9.833584785461426,12.20703125,-3.41796875,10.92529296875
0.2224999,1.5131354331970215,-1.4532804489135742,9.833584785461426,12.20703125,-3.41796875,10.92529296875
0.2274999,1.8195933103561401,-1.1869255304336548,9.881468772888184,12.054443359375,3.173828125,3.387451171875
0.2324999,1.8201918601989746,-0.727837324142456,9.943120002746582,9.33837890625,7.62939453125,-4.119873046875
0.2374999,1.5951368808746338,-0.15322890877723694,10.02811336517334,6.34765625,10.986328125,-9.124755859375
0.2424999,0.9917980432510376,0.11372458189725876,10.035296440124512,5.279541015625,13.85498046875,-10.833740234375
0.2474999,0.9917980432510376,0.11372458189725876,10.035296440124512,5.279541015625,13.85498046875,-10.833740234375
0.2524999,0.871489405632019,-0.181959331035614,9.980229377746582,10.711669921875,20.233154296875,-17.242431640625
0.2574999,0.7906851172447205,-0.25977087020874023,9.923966407775879,14.70947265625,27.77099609375,-19.805908203125
0.2624999,0.5129576921463013,-0.2908954918384552,9.913191795349121,6.683349609375,25.0244140625,-15.13671875
0.2674999,-0.9367313981056213,0.5207388401031494,9.744999885559082,-23.74267578125,-9.246826171875,-6.927490234375
0.2724999,-1.4449007511138916,0.5183446407318115,9.59476375579834,-17.9443359375,-19.287109375,-11.199951171875
0.2774999,-1.9147628545761108,-0.13826514780521393,9.527725219726562,-12.420654296875,-20.050048828125,11.3525390625
0.2824999,-1.6328455209732056,-0.821809709072113,9.591172218322754,-10.894775390625,-27.64892578125,20.01953125
0.28749990000000003,-1.1234791278839111,-1.1953052282333374,9.611522674560547,-11.138916015625,-28.778076171875,18.035888671875
0.2924999,-0.41120412945747375,-1.2862848043441772,9.698312759399414,-9.27734375,-25.81787109375,27.191162109375
0.2974999,0.414795458316803,-1.323395013809204,9.816226959228516,-0.79345703125,-18.890380859375,25.0244140625
0.3024999,1.1210849285125732,-1.3605051040649414,9.849146842956543,7.843017578125,-8.056640625,14.09912109375
0.3074999,1.5795745849609375,-1.2084733247756958,9.847949981689453,11.41357421875,1.922607421875,4.7607421875
0.3124999,1.7519570589065552,-0.8601169586181641,9.880870819091797,10.19287109375,6.195068359375,-2.99072265625
0.3174999,1.6729484796524048,-0.2932897210121155,9.910199165344238,6.4697265625,9.94873046875,-9.82666015625
0.3224999,-0.39863458275794983,-1.744175910949707,9.531915664672852,-7.38525390625,-23.040771484375,29.998779296875
0.3274999,0.10833762586116791,-1.349731206893921,9.740809440612793,0.1220703125,-18.06640625,25.360107421875
0.3324999,1.094150185585022,-0.821809709072113,9.86770248413086,11.5966796875,-0.18310546875,0.67138671875
0.3374999,1.3898340463638306,-0.2735375463962555,9.956886291503906,8.270263671875,5.615234375,-6.103515625
0.3424999,1.4736311435699463,-0.016759412363171577,9.965864181518555,2.166748046875,9.735107421875,-14.2822265625
0.34749990000000003,1.3401544094085693,0.13407529890537262,9.964069366455078,2.655029296875,11.810302734375,-11.749267578125
0.35249990000000003,1.3521254062652588,-0.4465186297893524,9.932345390319824,12.0849609375,16.845703125,-17.2119140625
0.3574999,1.2449848651885986,-0.5422866940498352,9.827000617980957,22.27783203125,29.96826171875,-28.350830078125
0.3624999,0.9427168965339661,-0.619499683380127,9.849146842956543,12.054443359375,28.900146484375,-18.24951171875
0.3674999,0.4950011968612671,0.053270988166332245,9.818621635437012,-4.08935546875,9.246826171875,-15.106201171875
0.3724999,-0.4381389021873474,0.7912836670875549,9.778518676757812,-23.223876953125,-13.12255859375,-15.2587890625
0.3774999,-0.9726444482803345,0.4010287821292877,9.619902610778809,-31.494140625,-20.32470703125,-13.427734375
0.3824999,-1.3581109046936035,-0.5237316489219666,9.360730171203613,-9.21630859375,-6.2255859375,-4.669189453125
0.3874999,-1.270722508430481,-1.5909470319747925,9.213486671447754,-2.0751953125,-13.275146484375,24.871826171875
0.3924999,0.2651578485965729,-1.184531331062317,9.876680374145508,5.37109375,-15.19775390625,18.524169921875
0.3974999,0.7936778664588928,-0.8415619134902954,9.98681354522705,9.27734375,-6.622314453125,2.8076171875
0.4024999,1.6023194789886475,-0.07960720360279083,9.97065258026123,1.739501953125,9.09423828125,-14.5263671875
0.4074999,1.5951368808746338,0.05446808785200119,9.96825885772705,1.678466796875,11.260986328125,-14.068603515625
0.41249990000000003,1.5622166395187378,-0.5351040959358215,9.880271911621094,11.77978515625,15.869140625,-13.5498046875
0.41749990000000003,1.490989089012146,-0.6919242739677429,9.778518676757812,21.240234375,27.557373046875,-28.533935546875
0.4224999,1.0875661373138428,-0.7511807680130005,9.807847023010254,12.664794921875,29.632568359375,-22.247314453125
0.4274999,0.5249287486076355,-0.13048399984836578,9.726444244384766,-1.220703125,12.359619140625,-12.20703125
0.4324999,-0.5560533404350281,0.7015010714530945,10.093954086303711,-17.08984375,-10.31494140625,-13.97705078125
0.4374999,-1.4562731981277466,-0.4076128304004669,9.709685325622559,-15.7470703125,-10.955810546875,-9.6435546875
0.4424999,-1.1641805171966553,-1.4502876996994019,9.519346237182617,3.2958984375,-7.4462890625,16.6015625
0.4474999,-0.6482301354408264,-2.385822057723999,9.023147583007812,-1.953125,-15.56396484375,30.3955078125
0.4524999,-0.21547815203666687,-2.3331496715545654,9.370306968688965,-0.457763671875,-17.27294921875,20.843505859375
0.4574999,0.12449848651885986,-1.8393454551696777,9.357138633728027,-1.28173828125,-15.380859375,18.00537109375
0.4624999,0.4842272996902466,-1.171961784362793,9.743204116821289,5.79833984375,-11.383056640625,22.39990234375
0.4674999,0.9463081955909729,-0.899621307849884,9.806051254272461,8.23974609375,-4.852294921875,3.814697265625
0.47249990000000003,1.3102269172668457,-0.36332011222839355,9.963470458984375,8.544921875,4.302978515625,-0.396728515625
0.47749990000000003,1.701080322265625,-0.20231004059314728,9.898228645324707,4.33349609375,12.786865234375,-19.927978515625
0.4824999,0.22026655077934265,0.19213469326496124,9.771934509277344,-1.953125,8.6669921875,-12.542724609375
0.4874999,-0.7451952695846558,0.6075286865234375,9.840168952941895,-18.37158203125,-12.908935546875,-18.1884765625
0.4924999,-1.2180501222610474,-0.08619125932455063,9.640851974487305,-36.590576171875,-25.665283203125,-9.8876953125
0.4974999,-1.4814122915267944,-1.013944387435913,9.533711433410645,-9.002685546875,-10.6201171875,-1.922607421875
0.5024999,-1.2270283699035645,-2.081159830093384,9.484031677246094,2.899169921875,-8.270263671875,17.608642578125
0.5074999,-0.8583213090896606,-2.7311856746673584,9.181763648986816,-7.50732421875,-17.120361328125,25.57373046875
0.5124999,-0.2621650993824005,-2.275090217590332,9.55585765838623,-1.129150390625,-20.965576171875,24.261474609375
0.5174999,0.23942017555236816,-1.6148890256881714,9.503783226013184,1.40380859375,-11.444091796875,7.843017578125
0.5224999,0.6757634282112122,-0.9433154463768005,9.841365814208984,4.33349609375,-2.288818359375,13.458251953125
0.5274999,1.0971429347991943,-0.6212953329086304,9.84376049041748,4.8828125,-3.326416015625,0.91552734375
0.5324999,1.2910733222961426,-0.3423708379268646,9.916184425354004,6.378173828125,-1.861572265625,2.5634765625
0.5374999,1.5568296909332275,-0.26815059781074524,9.847949981689453,6.2255859375,9.09423828125,-16.9677734375
0.5424999,0.5811924338340759,-0.5051765441894531,9.81263542175293,7.171630859375,17.608642578125,-13.73291015625
0.5474999,0.33039984107017517,-0.21607670187950134,9.780912399291992,0.9765625,12.20703125,-9.09423828125
0.5524999,-0.5231330990791321,0.21308395266532898,9.719860076904297,-5.401611328125,2.38037109375,-4.730224609375
0.5574999,-0.656609833240509,-0.49619829654693604,9.671976089477539,-24.810791015625,-19.927978515625,6.04248046875
0.5624999,-0.8571242094039917,-0.6129156351089478,9.624092102050781,-3.90625,-8.758544921875,-7.9345703125
0.5674999000000001,-0.7428010702133179,-1.4622586965560913,9.539097785949707,0.213623046875,2.777099609375,11.29150390625
0.5724999000000001,-0.43095630407333374,-1.9620482921600342,9.534908294677734,-4.7607421875,-9.429931640625,13.3056640625
0.5774999000000001,-0.19452889263629913,-1.4945803880691528,9.519944190979004,-4.94384765625,-20.1416015625,21.697998046875
0.5824999,0.07302315533161163,-1.2401964664459229,9.635464668273926,2.38037109375,-11.5966796875,15.68603515625
0.5874999,0.4991910457611084,-0.8307880163192749,9.753378868103027,-2.349853515625,-0.640869140625,-3.662109375
0.5924999,0.8607155084609985,-0.42616790533065796,9.897629737854004,2.532958984375,-0.457763671875,-3.5400390625
0.5974999,0.8888474106788635,-0.2059013396501541,9.852140426635742,2.3193359375,6.591796875,-8.4228515625
0.6024999,0.8643068075180054,-0.19692309200763702,9.90361499786377,3.96728515625,9.94873046875,-11.199951171875
0.6074999,0.8104372620582581,-0.37648820877075195,9.835979461669922,3.90625,8.209228515625,-7.01904296875
0.6124999,0.823006808757782,-0.375291109085083,9.84615421295166,5.79833984375,8.758544921875,-10.55908203125
0.6174999,0.8140285611152649,-0.5225345492362976,9.843161582946777,7.9345703125,16.2353515625,-16.204833984375
0.6224999,0.6997054219245911,-0.32381579279899597,9.833584785461426,6.28662109375,20.56884765625,-13.7939453125
0.6274999,0.38486793637275696,-0.26755204796791077,9.906009674072266,2.105712890625,9.46044921875,-5.157470703125
0.6324999,-0.1430535465478897,-0.37888240814208984,9.835380554199219,-14.95361328125,-13.61083984375,-4.791259765625
0.6374999,-0.3818751573562622,-0.5781996846199036,9.828198432922363,-10.711669921875,-12.14599609375,-9.6435546875
0.6424999,-0.3687070608139038,-0.7727286219596863,9.66539192199707,-9.552001953125,-16.7236328125,9.6435546875
0.6474999,-0.020949264988303185,-0.6147112846374512,9.747992515563965,3.570556640625,-2.197265625,6.500244140625
0.6524999,0.5093663930892944,-0.8637082576751709,9.747992515563965,3.72314453125,0.42724609375,3.47900390625
0.6574999,0.7308300733566284,-0.7697358727455139,9.798270225524902,2.38037109375,-1.953125,4.791259765625
0.6624999,0.9361328482627869,-0.7248445749282837,9.801861763000488,3.326416015625,-0.54931640625,-3.41796875
0.6674999,0.9253589510917664,-0.5566518902778625,9.841365814208984,4.486083984375,5.43212890625,-6.927490234375
0.6724999,0.9139865040779114,-0.16759411990642548,9.876082420349121,3.96728515625,7.50732421875,-7.049560546875
0.6774999,0.7068880796432495,-0.19812019169330597,9.874286651611328,-0.42724609375,3.448486328125,-5.462646484375
0.6824999,0.7769184708595276,-0.2561795711517334,9.885659217834473,0.18310546875,2.044677734375,-6.9580078125
0.6874999,0.812831461429596,-0.5506663918495178,9.86770248413086,11.383056640625,15.19775390625,-15.655517578125
0.6924999000000001,0.6254851818084717,-0.40462008118629456,9.786897659301758,-0.335693359375,7.568359375,-6.256103515625
0.6974999000000001,-0.004788403399288654,0.25737667083740234,9.868300437927246,-10.1318359375,-7.965087890625,-10.040283203125
0.7024999000000001,-0.16579847037792206,-0.375291109085083,9.708487510681152,-15.9912109375,-11.23046875,-10.009765625
0.7074999,-0.6512228846549988,-0.43275195360183716,9.740809440612793,1.617431640625,3.387451171875,-0.42724609375
0.7124999,-0.5991489887237549,-1.1103110313415527,9.57321548461914,-0.54931640625,-3.387451171875,10.406494140625
0.7174999,-0.6159083843231201,-1.0564415454864502,9.603142738342285,-5.950927734375,-14.2822265625,9.6435546875
0.7224999,-0.1646013706922531,-0.6925228238105774,9.741408348083496,-3.265380859375,-9.613037109375,11.749267578125
0.7274999,0.24361002445220947,-0.6865373253822327,9.82879638671875,1.64794921875,-5.279541015625,5.523681640625
0.7324999,0.6009446382522583,-0.7481880187988281,9.836577415466309,3.692626953125,-1.251220703125,5.06591796875
0.7374999,0.884058952331543,-0.7038952708244324,9.847949981689453,4.08935546875,1.220703125,0.213623046875
0.7424999,1.002571940422058,-0.5045779943466187,9.86889934539795,3.753662109375,4.058837890625,-5.126953125
0.7474999,0.8236053586006165,-0.243011474609375,9.845556259155273,0.396728515625,3.631591796875,-8.026123046875
0.7524999,0.7224503755569458,-0.25677812099456787,9.837775230407715,2.349853515625,4.669189453125,-6.622314453125
0.7574999,0.8242039084434509,-0.7829039692878723,9.844358444213867,10.406494140625,12.75634765625,-13.458251953125
0.7624999,0.6667851805686951,-0.6033388376235962,9.821015357971191,11.932373046875,20.20263671875,-13.336181640625
0.7674999,0.4034229815006256,-0.4213795065879822,9.841365814208984,1.434326171875,10.833740234375,-2.62451171875
0.7724999,-0.014365210197865963,0.4770447015762329,9.610325813293457,-7.080078125,-5.828857421875,-4.21142578125
0.7774999,-0.5913678407669067,0.3274070918560028,9.658209800720215,-17.913818359375,-14.617919921875,3.60107421875
0.7824999,-0.579995334148407,0.015562310814857483,9.537900924682617,-11.260986328125,-9.94873046875,-6.805419921875
0.7874999,-0.8271966576576233,-0.7769184708595276,9.580398559570312,-3.326416015625,-3.662109375,11.383056640625
0.7924999,-0.8271966576576233,-0.7769184708595276,9.580398559570312,-3.326416015625,-3.662109375,11.383056640625
0.7974999,-0.49559974670410156,-1.3341689109802246,9.644442558288574,-5.2490234375,-14.16015625,14.46533203125
0.8024999,0.8529343605041504,-0.8254010081291199,9.832387924194336,5.55419921875,-3.021240234375,4.45556640625
0.8074999,1.1306617259979248,-0.5345055460929871,9.829395294189453,3.2958984375,0.396728515625,-3.72314453125
0.8124999,1.260547161102295,-0.3010708689689636,9.824007987976074,0.67138671875,4.119873046875,-11.505126953125
0.8174999000000001,1.2156559228897095,-0.29628247022628784,9.822212219238281,0.91552734375,7.50732421875,-10.162353515625
0.8224999000000001,1.1761516332626343,-0.5979518890380859,9.75278091430664,6.011962890625,9.613037109375,-9.246826171875
0.8274999000000001,1.1336544752120972,-0.8104372620582581,9.769539833068848,13.12255859375,16.29638671875,-19.53125
0.8324999000000001,0.823006808757782,-0.628477931022644,9.780313491821289,10.07080078125,20.1416015625,-14.09912109375
0.8374999,0.5021837949752808,-0.272938996553421,9.837775230407715,-0.335693359375,9.857177734375,-6.16455078125
0.8424999,-0.13048399984836578,0.9702502489089966,9.856928825378418,-5.4931640625,-0.579833984375,-5.279541015625
0.8474999,-0.436343252658844,0.7314286231994629,9.909601211547852,-21.820068359375,-11.566162109375,3.875732421875
0.8524999,-0.4878185987472534,-1.799242615699768,9.497797966003418,-1.708984375,-11.871337890625,18.310546875
0.8574999,-0.33698388934135437,-1.9027918577194214,9.637859344482422,-3.41796875,-13.73291015625,12.969970703125
0.8624999,-0.12030863761901855,-1.5909470319747925,9.601346969604492,-3.84521484375,-9.429931640625,17.7001953125
0.8674999,0.19452889263629913,-1.1432312726974487,9.782109260559082,1.708984375,-7.87353515625,16.143798828125
0.8724999,0.5560533404350281,-0.9995791912078857,9.794678688049316,4.425048828125,-6.591796875,2.9296875
0.8774999,0.7499836683273315,-0.6422445774078369,9.843161582946777,6.2255859375,-0.579833984375,4.33349609375
0.8824999,1.0899603366851807,-0.24480712413787842,9.864709854125977,3.47900390625,4.2724609375,-8.514404296875
0.8874999,1.1276689767837524,-0.11192893236875534,9.886856079101562,-0.91552734375,5.706787109375,-13.641357421875
0.8924999,1.1127052307128906,-0.22924481332302094,9.843161582946777,1.678466796875,7.2021484375,-6.072998046875
0.8974999,1.1516109704971313,-0.6602011322975159,9.833584785461426,10.07080078125,11.322021484375,-15.44189453125
0.9024999,1.0019733905792236,-0.6302735805511475,9.768941879272461,14.34326171875,21.514892578125,-19.500732421875
0.9074999,-0.3926490843296051,0.2801215946674347,9.70549488067627,-16.326904296875,-8.72802734375,3.692626953125
0.9124999,-0.5722141861915588,-0.33937808871269226,9.715071678161621,-23.712158203125,-15.167236328125,-3.570556640625
0.9174999,-0.811634361743927,-0.9163807034492493,9.405022621154785,-6.16455078125,-1.40380859375,-4.302978515625
0.9224999,-0.669179379940033,-1.7962498664855957,9.446921348571777,2.99072265625,-6.4697265625,19.134521484375
0.9274999,-0.4644751250743866,-1.96683669090271,9.351153373718262,-1.953125,-14.373779296875,19.073486328125
0.9324999,-0.22445641458034515,-1.5741876363754272,9.551069259643555,-0.06103515625,-11.383056640625,14.739990234375
0.9374999,0.08738835901021957,-1.22642982006073,9.716269493103027,0.1220703125,-8.544921875,15.07568359375
0.9424999000000001,0.4944026470184326,-0.8074445128440857,9.828198432922363,6.256103515625,-6.378173828125,12.75634765625
0.9474999000000001,0.8110358119010925,-0.6320692300796509,9.907805442810059,7.537841796875,-3.173828125,2.01416015625
0.9524999000000001,1.0965443849563599,-0.29149407148361206,9.925761222839355,4.69970703125,3.143310546875,-4.913330078125
0.9574999000000001,1.2641384601593018,-0.11971008777618408,9.921571731567383,1.953125,8.453369140625,-13.519287109375
0.9624999,0.6913257241249084,-0.5081692934036255,9.800065994262695,5.462646484375,18.00537109375,-10.986328125
0.9674999,0.35913026332855225,-0.0802057534456253,9.797073364257812,0.42724609375,7.080078125,-5.92041015625
0.9724999,-0.40222588181495667,0.1496376097202301,9.815628051757812,-6.65283203125,-1.617431640625,-1.800537109375
0.9774999,-0.7026981711387634,-0.5931634902954102,9.625887870788574,-17.425537109375,-11.016845703125,-2.105712890625
0.9824999,-0.9463081955909729,-0.8906430602073669,9.752182006835938,-2.8076171875,-7.080078125,3.448486328125
0.9874999,-0.8427590131759644,-1.6190788745880127,9.525331497192383,-0.091552734375,-7.354736328125,10.101318359375
0.9924999,-0.6177040338516235,-1.2952631711959839,9.827000617980957,-2.593994140625,-10.8642578125,22.552490234375
0.9974999,-0.1867477297782898,-1.3006501197814941,9.808445930480957,-7.415771484375,-17.059326171875,10.7421875
1.0024999,-0.10773907601833344,-0.6428431272506714,9.968857765197754,0.396728515625,-8.544921875,16.78466796875
1.0074999000000002,0.569819986820221,-0.7398083209991455,9.970054626464844,5.37109375,-7.904052734375,10.43701171875
1.0124999000000001,1.2270283699035645,-0.18614917993545532,9.88745403289795,2.74658203125,5.584716796875,-3.84521484375
1.0174999000000002,1.2270283699035645,-0.18614917993545532,9.88745403289795,2.74658203125,5.584716796875,-3.84521484375
1.0224999000000001,1.2970588207244873,-0.17178396880626678,9.839570045471191,0.1220703125,5.828857421875,-14.22119140625
1.0274999,1.2312182188034058,-0.30526071786880493,9.82879638671875,0.91552734375,5.645751953125,-7.171630859375
1.0324999000000001,1.2180501222610474,-0.8672995567321777,9.778518676757812,7.9345703125,10.162353515625,-15.380859375
1.0374999,1.0283095836639404,-0.5740098357200623,9.768342971801758,14.007568359375,21.942138671875,-21.820068359375
1.0424999000000001,0.8092401623725891,-0.9085995554924011,9.77133560180664,3.2958984375,17.63916015625,-10.3759765625
1.0474999,0.20769700407981873,-0.08798690885305405,9.799467086791992,-4.0283203125,3.936767578125,-5.92041015625
1.0524999000000002,-0.3926490843296051,-0.10833762586116791,9.774927139282227,-14.0380859375,-9.307861328125,-0.06103515625
1.0574999,-0.6955155730247498,-1.0528502464294434,9.709086418151855,-19.378662109375,-12.298583984375,-13.18359375
1.0624999000000002,-0.8517372608184814,-1.3479355573654175,9.545083999633789,-2.3193359375,0.18310546875,-3.143310546875
1.0674999,-0.679354727268219,-2.2469582557678223,9.505578994750977,1.89208984375,-8.880615234375,25.604248046875
1.0724999000000002,-0.3315969407558441,-1.5849615335464478,9.534908294677734,-2.471923828125,-15.380859375,13.763427734375
1.0774999,0.27234044671058655,-0.8391677141189575,9.744400978088379,-2.86865234375,-8.148193359375,8.026123046875
1.0824999000000002,0.46986207365989685,-0.5207388401031494,9.899425506591797,8.514404296875,-4.150390625,14.251708984375
1.0874999,0.9726444482803345,-0.6949170231819153,9.854534149169922,3.936767578125,-4.974365234375,-3.35693359375
1.0924999000000002,0.9498994946479797,-0.076015904545784,9.888651847839355,2.105712890625,5.126953125,-6.2255859375
1.0974999,1.2000936269760132,-0.13048399984836578,9.9000244140625,0.152587890625,5.4931640625,-10.162353515625
1.1024999000000002,1.047463297843933,-0.1149216815829277,9.850942611694336,0.67138671875,4.730224609375,-11.53564453125
1.1074999,1.081580638885498,-0.6027402877807617,9.79288387298584,5.37109375,8.7890625,-9.27734375
1.1124999000000002,1.169567584991455,-0.8349778652191162,9.748590469360352,12.542724609375,19.34814453125,-25.054931640625
1.1174999,0.7152677774429321,-0.586579442024231,9.777320861816406,12.20703125,26.42822265625,-15.0146484375
1.1224999000000002,-0.6171054840087891,-1.6400281190872192,9.588777542114258,5.31005859375,-2.960205078125,22.0947265625
1.1274999,-0.1735796183347702,-1.8477251529693604,9.43494987487793,-2.227783203125,-16.357421875,15.68603515625
1.1324999000000002,-0.21308395266532898,-1.1186907291412354,9.615114212036133,-5.92041015625,-11.077880859375,10.6201171875
1.1374999000000001,0.14664486050605774,-1.1019313335418701,9.781511306762695,-4.21142578125,-8.11767578125,9.490966796875
1.1424999000000002,0.37648820877075195,-0.5650315880775452,9.823410034179688,1.28173828125,-7.293701171875,6.378173828125
1.1474999000000001,0.5841852426528931,-0.6709750294685364,9.85034465789795,7.904052734375,-4.730224609375,15.19775390625
1.1524999000000002,0.9379284977912903,-0.6057330369949341,9.862914085388184,2.655029296875,-1.190185546875,-9.063720703125
1.1574999000000001,0.9091981053352356,-0.22385786473751068,9.854534149169922,0.152587890625,5.889892578125,-5.92041015625
1.1624999,1.0785878896713257,-0.10115502029657364,9.914987564086914,1.52587890625,3.936767578125,-7.9345703125
1.1674999000000001,0.8667010068893433,-0.2663549482822418,9.849146842956543,0.18310546875,2.50244140625,-9.674072265625
1.1724999,0.8547300100326538,-0.47405192255973816,9.75397777557373,2.44140625,6.927490234375,-8.636474609375
1.1774999000000002,0.228047713637352,-0.8086416125297546,9.820416450500488,-1.953125,6.34765625,4.638671875
1.1824999,-0.21188685297966003,0.2902969419956207,9.937732696533203,-7.568359375,-10.894775390625,-3.23486328125
1.1874999000000002,-0.5650315880775452,-0.5015852451324463,9.82999324798584,-13.336181640625,-10.345458984375,-2.532958984375
1.1924999,-0.5404910445213318,-1.0217255353927612,9.926959037780762,-6.591796875,-1.0986328125,-0.885009765625
1.1974999000000002,-0.38486793637275696,-1.6208745241165161,9.62947940826416,-0.18310546875,-2.410888671875,8.270263671875
1.2024999,0.16579847037792206,-0.7439981698989868,9.701904296875,-4.364013671875,-7.38525390625,10.650634765625
1.2074999000000002,0.42616790533065796,-0.4213795065879822,9.676166534423828,-3.47900390625,-7.049560546875,6.072998046875
1.2124999,0.569819986820221,-0.2777273952960968,9.838972091674805,7.598876953125,-3.11279296875,9.33837890625
1.2174999000000002,0.8104372620582581,-0.6937199234962463,9.764751434326172,3.0517578125,-2.62451171875,-1.0986328125
1.2224999,0.9487023949623108,-0.31364041566848755,9.888052940368652,1.89208984375,4.730224609375,-6.317138671875
1.2274999000000002,0.8786720037460327,-0.34416648745536804,9.870695114135742,-0.457763671875,1.77001953125,-7.6904296875
1.2324999,0.8188169598579407,-0.4644751250743866,9.82759952545166,0.6103515625,3.692626953125,-7.293701171875
1.2374999000000002,0.8182184100151062,-0.6871358752250671,9.805453300476074,5.37109375,9.613037109375,-10.986328125
1.2424999,0.7906851172447205,-0.6649895310401917,9.766547203063965,8.209228515625,13.946533203125,-12.451171875
1.2474999000000002,0.5512649416923523,-0.5201402902603149,9.795876502990723,2.655029296875,10.55908203125,-7.8125
1.2524999,0.28969839215278625,-0.38726213574409485,9.870695114135742,-3.814697265625,0.396728515625,0.79345703125
1.2574999000000002,-0.008978256024420261,-0.47405192255973816,9.928155899047852,-9.002685546875,-6.011962890625,-0.946044921875
1.2624999000000001,-0.19871874153614044,-1.0989385843276978,9.769539833068848,-9.70458984375,-2.899169921875,-6.683349609375
1.2674999000000002,-0.4141969084739685,-1.601720929145813,9.644442558288574,1.068115234375,0.244140625,8.636474609375
1.2724999000000001,-0.29388827085494995,-1.40180504322052,9.456498146057129,0.518798828125,-8.48388671875,11.016845703125
1.2774999000000002,-0.4124012291431427,-1.4323312044143677,9.414599418640137,-4.21142578125,-9.6435546875,13.092041015625
1.2824999000000001,0.8912416100502014,-0.12629413604736328,9.884461402893066,0.152587890625,6.8359375,-5.462646484375
1.2874999,0.93254154920578,-0.15801730751991272,9.877279281616211,0.18310546875,2.5634765625,-9.002685546875
1.2924999000000001,0.9091981053352356,-0.5620388388633728,9.837775230407715,4.730224609375,6.744384765625,-14.0380859375
1.2974999,0.8038532137870789,-0.5057750940322876,9.813833236694336,9.857177734375,16.815185546875,-14.6484375
1.3024999000000002,0.5374982953071594,-0.36571431159973145,9.820416450500488,3.875732421875,12.8173828125,-7.293701171875
1.3074999,0.23343466222286224,-0.4106055796146393,9.771934509277344,-7.293701171875,-2.5634765625,0.518798828125
1.3124999000000002,-0.15981295704841614,-0.2388216257095337,9.971251487731934,-11.138916015625,-8.453369140625,-3.204345703125
1.3174999,-0.4495113790035248,-1.2204443216323853,9.855133056640625,0,-0.701904296875,6.195068359375
1.3224999000000002,-0.3082534670829773,-0.9289502501487732,9.824007987976074,-1.0986328125,-9.521484375,12.542724609375
1.3274999,-0.38067805767059326,-1.0606313943862915,9.739013671875,-6.072998046875,-12.6953125,16.7236328125
1.3324999000000002,-0.21188685297966003,-0.6356605291366577,9.677363395690918,-6.256103515625,-11.5966796875,15.31982421875
1.3374999,0.0999579206109047,-0.7583633661270142,9.750386238098145,3.204345703125,-9.429931640625,13.275146484375
1.3424999000000002,0.4507084786891937,-0.8415619134902954,9.68933391571045,4.57763671875,-5.4931640625,0.9765625
1.3474999,0.6817489266395569,-0.7655459642410278,9.731831550598145,4.486083984375,-0.762939453125,8.48388671875
1.3524999000000002,1.148618221282959,-0.4926069974899292,9.771934509277344,3.35693359375,-0.030517578125,-4.5166015625
1.3574999,1.2042834758758545,-0.22026655077934265,9.823410034179688,1.708984375,6.378173828125,-13.48876953125
1.3624999000000002,1.1504138708114624,-0.25438392162323,9.833584785461426,0.1220703125,9.002685546875,-6.866455078125
1.3674999,1.2198457717895508,-0.35913026332855225,9.797073364257812,2.960205078125,6.04248046875,-11.3525390625
1.3724999000000002,1.0438719987869263,-0.9103952050209045,9.799467086791992,9.429931640625,13.763427734375,-17.822265625
1.3774999,0.8265981078147888,-0.49140989780426025,9.828198432922363,8.514404296875,19.927978515625,-11.077880859375
1.3824999000000002,0.8265981078147888,-0.49140989780426025,9.828198432922363,8.514404296875,19.927978515625,-11.077880859375
1.3874999000000001,0.47165772318840027,-0.595557689666748,9.868300437927246,-1.220703125,8.30078125,-5.9814453125
1.3924999000000002,-0.11611878126859665,0.37648820877075195,9.944915771484375,-6.256103515625,-1.983642578125,-2.50244140625
1.3974999000000001,-0.38546648621559143,-0.3621230125427246,9.762357711791992,-14.312744140625,-7.171630859375,-3.509521484375
1.4024999000000002,-0.7170634269714355,-0.6536170840263367,9.691728591918945,-4.119873046875,0,-3.35693359375
1.4074999000000001,-0.5554547905921936,-1.479616641998291,9.413402557373047,1.373291015625,-4.57763671875,12.75634765625
1.4124999,-0.424970805644989,-1.522712230682373,9.546878814697266,-2.166748046875,-11.444091796875,16.17431640625
1.4174999000000001,-0.2759317457675934,-1.4371196031570435,9.52353572845459,-7.62939453125,-13.092041015625,16.021728515625
1.4224999,-0.05446808785200119,-1.1276689767837524,9.67077922821045,-2.532958984375,-10.19287109375,16.78466796875
1.4274999000000002,0.33937808871269226,-1.0187327861785889,9.73542308807373,7.87353515625,-6.7138671875,7.99560546875
1.4324999,0.5674257874488831,-0.973242998123169,9.742006301879883,6.103515625,-2.9296875,5.035400390625
1.4374999000000002,0.982221245765686,-0.5835866928100586,9.790489196777344,3.173828125,0.457763671875,-0.640869140625
1.4424999,1.0672154426574707,-0.6943184733390808,9.838373184204102,8.575439453125,11.871337890625,-18.096923828125
1.4474999000000002,0.8265981078147888,-0.4411316514015198,9.809642791748047,9.246826171875,19.378662109375,-12.664794921875
1.4524999,0.6422445774078369,-0.4770447015762329,9.748590469360352,0.6103515625,9.58251953125,-7.9345703125
1.4574999000000002,0.10354922711849213,0.2819172441959381,9.566631317138672,-4.5166015625,0.06103515625,-1.89208984375
1.4624999,-0.3214215636253357,-0.33698388934135437,9.677961349487305,-16.845703125,-9.307861328125,-1.3427734375
1.4674999000000002,-0.585382342338562,-0.8475474119186401,9.429563522338867,-10.19287109375,-4.45556640625,-7.415771484375
1.4724999,-0.6865373253822327,-1.6974890232086182,9.495404243469238,2.838134765625,-3.326416015625,11.383056640625
1.4774999000000002,-0.6177040338516235,-1.811812162399292,9.576208114624023,-1.708984375,-11.077880859375,19.1650390625
1.4824999,-0.4159925580024719,-1.611896276473999,9.604340553283691,-5.584716796875,-14.739990234375,16.876220703125
1.4874999000000002,0.5566518902778625,-0.9870096445083618,9.807249069213867,6.744384765625,-6.8359375,3.570556640625
1.4924999,0.5566518902778625,-0.9870096445083618,9.807249069213867,6.744384765625,-6.8359375,3.570556640625
1.4974999000000002,0.921169102191925,-0.5147533416748047,9.840168952941895,4.364013671875,-0.42724609375,-0.06103515625
1.5024999,1.2922704219818115,-0.1646013706922531,9.884461402893066,0.9765625,5.859375,-13.427734375
1.5074999000000002,1.2635399103164673,-0.15502455830574036,9.864709854125977,-0.152587890625,9.1552734375,-11.810302734375
1.5124999000000001,1.3210008144378662,-0.2902969419956207,9.813234329223633,4.82177734375,7.99560546875,-7.9345703125
1.5174999000000002,1.224035620689392,-0.7326257228851318,9.77672290802002,9.490966796875,12.603759765625,-20.01953125
1.5224999000000001,-0.3405751883983612,-0.4381389021873474,9.667786598205566,-20.8740234375,-12.298583984375,-4.913330078125
1.5274999000000002,-0.7583633661270142,-0.750582218170166,9.516951560974121,-7.6904296875,-3.60107421875,-3.5400390625
1.5324999000000001,0.7410054206848145,-1.0187327861785889,9.787496566772461,7.476806640625,-5.706787109375,1.190185546875
1.5374999000000003,1.0444705486297607,-0.3663128614425659,9.843161582946777,3.875732421875,3.082275390625,-3.96728515625
1.5424999000000001,1.3479355573654175,-0.12030863761901855,9.874286651611328,0.457763671875,8.392333984375,-14.801025390625
1.5474999,1.2617442607879639,-0.06404489278793335,9.881468772888184,0.640869140625,9.368896484375,-9.918212890625
1.5524999000000002,1.2689268589019775,-0.35733461380004883,9.853337287902832,6.4697265625,8.36181640625,-10.101318359375
1.5574999,1.0923545360565186,-0.7398083209991455,9.752182006835938,10.19287109375,15.838623046875,-20.08056640625
1.5624999000000002,0.9038111567497253,-0.5171475410461426,9.813833236694336,8.026123046875,22.064208984375,-15.869140625
1.5674999,0.38546648621559143,-0.3076549172401428,9.771934509277344,0.335693359375,11.962890625,-4.791259765625
1.5724999000000002,-0.6063315868377686,-0.9145850539207458,9.604340553283691,-22.39990234375,-14.6484375,-8.697509765625
1.5774999,-0.871489405632019,-1.3239935636520386,9.519944190979004,-2.44140625,-1.495361328125,3.0517578125
1.5824999000000002,-0.6380547285079956,-2.454056739807129,9.279327392578125,3.23486328125,-4.669189453125,13.24462890625
1.5874999,-0.47465047240257263,-1.9967641830444336,9.336189270019531,-3.0517578125,-13.031005859375,25.238037109375
1.5924999000000002,-0.14604631066322327,-1.6944962739944458,9.516951560974121,-6.195068359375,-16.357421875,12.542724609375
1.5974999,-0.018555063754320145,-0.9995791912078857,9.688735961914062,-1.0986328125,-9.735107421875,14.312744140625
1.6024999000000002,1.301847219467163,-0.04908113554120064,9.87967300415039,0.152587890625,8.575439453125,-16.4794921875
1.6074999,1.184531331062317,-0.12629413604736328,9.889249801635742,2.50244140625,8.85009765625,-6.134033203125
1.6124999000000002,1.2072762250900269,-0.641047477722168,9.856928825378418,6.744384765625,8.697509765625,-15.44189453125
1.6174999,-0.25917232036590576,-0.15143325924873352,9.631275177001953,-14.678955078125,-10.07080078125,0.30517578125
1.6224999000000002,-0.6416460275650024,-1.103128433227539,9.4636812210083,-19.744873046875,-13.275146484375,-8.270263671875
1.6274999,-0.74040687084198,-1.7076643705368042,9.379883766174316,2.044677734375,-0.335693359375,5.706787109375
1.6324999000000002,-0.6242880821228027,-2.1942858695983887,9.24940013885498,2.716064453125,-6.195068359375,18.310546875
1.6374999000000001,-0.43275195360183716,-1.6741455793380737,9.57321548461914,-3.265380859375,-14.801025390625,23.4375
1.6424999000000002,-0.16160862147808075,-1.3617022037506104,9.616311073303223,-7.843017578125,-16.6015625,10.7421875
1.6474999000000001,0.019153613597154617,-0.7433996200561523,9.861717224121094,3.84521484375,-6.34765625,18.707275390625
1.6524999000000002,0.7086837291717529,-0.871489405632019,9.857526779174805,9.70458984375,-4.669189453125,7.537841796875
1.6574999000000001,0.960673451423645,-0.6153098344802856,9.841365814208984,4.547119140625,0.48828125,-3.631591796875
1.6624999000000003,1.3395558595657349,-0.23104046285152435,9.858723640441895,2.288818359375,7.6904296875,-6.9580078125
1.6674999000000001,1.2689268589019775,-0.750582218170166,9.903017044067383,8.697509765625,13.00048828125,-18.6767578125
1.6724999,1.0935516357421875,-0.5907692909240723,9.82879638671875,14.862060546875,25.421142578125,-18.035888671875
1.6774999000000002,0.8026561141014099,-0.6889315247535706,9.88506031036377,6.622314453125,23.590087890625,-9.521484375
1.6824999,0.20470423996448517,-0.05626374110579491,9.793481826782227,-2.8076171875,6.77490234375,-4.21142578125
1.6874999000000002,-0.4878185987472534,-0.2795230448246002,9.870096206665039,-18.707275390625,-13.0615234375,-0.335693359375
1.6924999,-0.8092401623725891,-0.9409212470054626,9.77133560180664,-15.655517578125,-13.61083984375,-6.65283203125
1.6974999000000002,-0.9169792532920837,-1.5526398420333862,9.816825866699219,4.180908203125,0.06103515625,8.270263671875
1.7024999,-0.8080430626869202,-1.5771803855895996,9.755773544311523,1.312255859375,-6.40869140625,20.263671875
1.7074999000000002,-0.517746090888977,-1.346139907836914,9.847949981689453,-6.988525390625,-17.364501953125,19.287109375
1.7124999,-0.25019407272338867,-1.0217255353927612,9.71926212310791,-8.544921875,-16.632080078125,11.749267578125
1.7174999000000002,0.14484919607639313,-0.578798234462738,9.835979461669922,6.65283203125,-3.143310546875,17.181396484375
1.7224999,1.060032844543457,-0.7793126702308655,9.952696800231934,8.48388671875,11.505126953125,-19.22607421875
1.7274999000000002,0.9367313981056213,-0.5566518902778625,9.88506031036377,15.045166015625,24.35302734375,-16.815185546875
1.7324999,0.6344634294509888,-0.5225345492362976,9.853337287902832,5.279541015625,19.683837890625,-6.9580078125
1.7374999000000002,0.0975637212395668,-0.0011971008498221636,9.77791976928711,-5.859375,-0.274658203125,-5.645751953125
1.7424999,-0.5979518890380859,-0.2059013396501541,9.799467086791992,-18.951416015625,-17.76123046875,-4.08935546875
1.7474999000000002,-0.8343793153762817,-0.8960300087928772,9.692925453186035,-14.312744140625,-13.763427734375,-5.096435546875
1.7524999,-0.8846575021743774,-1.4347254037857056,9.696516990661621,2.044677734375,-2.899169921875,7.14111328125
1.7574999000000002,-0.730231523513794,-1.315613865852356,9.737217903137207,0.091552734375,-7.99560546875,19.378662109375
1.7624999000000001,0.26755204796791077,-0.5901707410812378,9.860519409179688,6.317138671875,-5.06591796875,13.641357421875
1.7674999000000002,0.7697358727455139,-0.8822633028030396,9.787496566772461,4.0283203125,-2.8076171875,-0.8544921875
1.7724999000000001,1.0558429956436157,-0.5716156363487244,9.804255485534668,3.387451171875,0.579833984375,1.953125
1.7774999000000002,1.347337007522583,-0.3124433159828186,9.864110946655273,1.89208984375,1.983642578125,-9.613037109375
1.7824999000000001,1.1839327812194824,-0.2059013396501541,9.849745750427246,0.762939453125,7.62939453125,-11.322021484375
1.7874999000000003,1.1150994300842285,-0.314238965511322,9.849745750427246,1.8310546875,7.293701171875,-5.06591796875
1.7924999000000001,1.1240776777267456,-0.8505401611328125,9.843161582946777,6.378173828125,8.331298828125,-16.7236328125
1.7974999,1.0193313360214233,-0.6913257241249084,9.794678688049316,13.73291015625,21.331787109375,-16.815185546875
1.8024999000000002,0.70090252161026,-0.6404489278793335,9.754576683044434,6.500244140625,21.240234375,-6.317138671875
1.8074999,0.3016694188117981,0.0005985504249110818,9.756970405578613,-4.45556640625,3.570556640625,-3.753662109375
1.8124999000000002,-0.6260837316513062,-0.6129156351089478,9.738415718078613,-14.2822265625,-10.009765625,-7.781982421875
1.8174999,-0.760757565498352,-1.2144588232040405,9.658807754516602,3.47900390625,0.42724609375,7.476806640625
1.8224999000000002,-0.6039373874664307,-1.2324153184890747,9.709685325622559,1.617431640625,-7.049560546875,18.035888671875
1.8274999,-0.4638765752315521,-1.1875240802764893,9.690531730651855,-8.11767578125,-16.387939453125,17.791748046875
1.8324999000000002,-0.20709845423698425,-0.7894880175590515,9.70549488067627,-7.38525390625,-14.923095703125,16.9677734375
1.8374999,0.19812019169330597,-0.6446388363838196,9.869498252868652,5.859375,-5.157470703125,12.237548828125
1.8424999000000002,1.2078747749328613,-0.4016273319721222,9.844358444213867,3.41796875,3.631591796875,-7.904052734375
1.8474999,1.1300631761550903,-0.21966800093650818,9.840168952941895,2.13623046875,9.124755859375,-11.199951171875
1.8524999000000002,1.039083480834961,-0.18734627962112427,9.858723640441895,1.983642578125,8.544921875,-7.415771484375
1.8574999,1.0528502464294434,-0.6859387755393982,9.846753120422363,5.523681640625,8.392333984375,-14.251708984375
1.8624999000000002,0.7469909191131592,-0.6949170231819153,9.847352027893066,9.979248046875,24.4140625,-9.21630859375
1.8674999,0.31603461503982544,-0.07242459803819656,9.812037467956543,-1.861572265625,8.30078125,-5.950927734375
1.8724999000000002,-0.36332011222839355,0.22505496442317963,9.941324234008789,-15.533447265625,-13.18359375,-5.4931640625
1.8774999,-0.7398083209991455,-0.36990416049957275,9.742605209350586,-20.233154296875,-16.143798828125,-8.880615234375
1.8824999000000002,-0.93254154920578,-0.8415619134902954,9.740809440612793,0.67138671875,-1.739501953125,5.37109375
1.8874999000000001,-0.7841010689735413,-1.2443863153457642,9.649829864501953,1.46484375,-7.232666015625,15.56396484375
1.8924999000000002,-0.6248866319656372,-1.2497732639312744,9.732429504394531,-6.9580078125,-17.059326171875,19.683837890625
1.8974999000000001,-0.37229835987091064,-0.9911994934082031,9.734225273132324,-9.94873046875,-18.951416015625,17.791748046875
1.9024999000000002,-0.023343466222286224,-0.669179379940033,9.906607627868652,2.0751953125,-9.368896484375,13.5498046875
1.9074999000000001,0.5111620426177979,-0.8966285586357117,9.822811126708984,5.584716796875,-4.150390625,2.960205078125
1.9124999000000003,0.8062474131584167,-0.7122750282287598,9.819818496704102,3.753662109375,-2.044677734375,4.2724609375
1.9174999000000001,1.1965023279190063,-0.45669397711753845,9.843161582946777,2.44140625,-0.701904296875,-5.7373046875
1.9224999,1.1534066200256348,-0.17537526786327362,9.852140426635742,1.708984375,8.9111328125,-7.50732421875
1.9274999000000002,1.1827356815338135,-0.5823895931243896,9.790489196777344,3.5400390625,5.79833984375,-11.444091796875
1.9324999,1.1204863786697388,-0.7679402232170105,9.786299705505371,10.223388671875,14.7705078125,-20.599365234375
1.9374999000000002,0.8846575021743774,-0.6506243348121643,9.805453300476074,10.55908203125,22.0947265625,-11.23046875
1.9424999,0.4620809257030487,-0.3190273642539978,9.850942611694336,-1.434326171875,9.735107421875,-3.96728515625
1.9474999000000002,0.4620809257030487,-0.3190273642539978,9.850942611694336,-1.434326171875,9.735107421875,-3.96728515625
1.9524999,-0.24121582508087158,0.20051439106464386,10.165182113647461,-12.908935546875,-7.965087890625,-0.48828125
1.9574999000000002,-0.5596446394920349,-0.4297592043876648,9.923966407775879,-22.125244140625,-15.625,-7.8125
1.9624999,-0.8140285611152649,-1.013944387435913,10.002974510192871,-1.8310546875,-1.007080078125,-2.50244140625
1.9674999000000002,-0.5680243372917175,-1.602918028831482,9.616909980773926,3.5400390625,-3.509521484375,15.56396484375
1.9724999,-0.33279404044151306,-1.5322890281677246,9.671378135681152,-1.77001953125,-12.969970703125,20.416259765625
1.9774999000000002,-0.11192893236875534,-1.2832920551300049,9.5809965133667,-9.46044921875,-16.998291015625,15.7470703125
1.9824999,0.5734112858772278,-0.8259995579719543,9.77672290802002,8.575439453125,-3.997802734375,6.134033203125
1.9874999000000002,0.7775170207023621,-0.7469909191131592,9.768941879272461,4.638671875,-0.48828125,2.13623046875
1.9924999,1.1073182821273804,-0.40521863102912903,9.818022727966309,3.662109375,2.3193359375,-2.410888671875
1.9974999000000002,1.1887211799621582,-0.21368250250816345,9.852738380432129,1.312255859375,6.317138671875,-13.5498046875
2.0024999,1.1228805780410767,-0.4692635238170624,9.827000617980957,4.5166015625,8.1787109375,-10.040283203125
2.0074999,1.1228805780410767,-0.4692635238170624,9.827000617980957,4.5166015625,8.1787109375,-10.040283203125
2.0124999000000003,1.0935516357421875,-0.8236053586006165,9.840767860412598,10.772705078125,15.80810546875,-19.83642578125
2.0174999000000002,0.9020155072212219,-0.596754789352417,9.831191062927246,11.993408203125,23.956298828125,-13.153076171875
2.0224999,0.4411316514015198,-0.5440823435783386,9.84495735168457,0.732421875,14.0380859375,-5.157470703125
2.0274999,-0.3705027103424072,0.5811924338340759,9.874884605407715,-6.9580078125,-3.23486328125,1.3427734375
2.0324999000000004,-0.6955155730247498,-0.424970805644989,9.68694019317627,-26.123046875,-20.01953125,-6.7138671875
2.0374999000000003,-1.0444705486297607,-0.7769184708595276,9.5007905960083,-8.819580078125,-4.119873046875,-5.18798828125
2.0424999,-0.4118026793003082,-2.05781626701355,9.336189270019531,-1.5869140625,-13.275146484375,18.798828125
2.0474999,-0.19213469326496124,-1.731606364250183,9.405621528625488,-9.490966796875,-17.364501953125,17.303466796875
2.0524999,0.06404489278793335,-1.1725603342056274,9.61451530456543,-3.143310546875,-12.420654296875,18.341064453125
2.0574999000000003,0.48063600063323975,-0.9786299467086792,9.733627319335938,6.805419921875,-5.859375,8.819580078125
2.0624999,0.7416039705276489,-0.838569164276123,9.774328231811523,6.195068359375,-2.532958984375,2.44140625
2.0674999,1.0121487379074097,-0.4411316514015198,9.834781646728516,3.570556640625,-0.091552734375,-0.8544921875
2.0724999,1.1348515748977661,-0.21368250250816345,9.884461402893066,0.091552734375,3.47900390625,-11.71875
2.0774999000000003,1.0630255937576294,-0.11911153793334961,9.882067680358887,0.823974609375,7.99560546875,-9.33837890625
2.0824999,-0.6787561774253845,-1.3868412971496582,9.525930404663086,3.387451171875,-2.62451171875,12.420654296875
2.0874999,-0.4620809257030487,-1.8399440050125122,9.583989143371582,0.54931640625,-11.5966796875,20.843505859375
2.0924999,-0.2645592987537384,-1.7411831617355347,9.514557838439941,-8.056640625,-15.960693359375,15.9912109375
2.0974999000000003,-0.03711012750864029,-1.326986312866211,9.628880500793457,-3.47900390625,-13.153076171875,18.1884765625
2.1024999,0.36332011222839355,-1.139639973640442,9.750386238098145,7.32421875,-7.8125,10.498046875
2.1074999,0.6871358752250671,-1.0031704902648926,9.718064308166504,7.01904296875,-3.692626953125,3.692626953125
2.1124999,0.9816226959228516,-0.5530605912208557,9.804854393005371,4.791259765625,1.3427734375,2.777099609375
2.1174999000000003,1.2384008169174194,-0.23762452602386475,9.850942611694336,0.18310546875,3.570556640625,-9.765625
2.1224999,1.170764684677124,-0.1346738487482071,9.87967300415039,0.457763671875,8.36181640625,-11.871337890625
2.1274999,1.2384008169174194,-0.30286651849746704,9.838972091674805,4.82177734375,9.735107421875,-7.049560546875
2.1324999,0.9510966539382935,-0.5123591423034668,9.836577415466309,9.94873046875,21.026611328125,-14.0380859375
2.1374999000000003,0.7050924301147461,-0.6278793811798096,9.809642791748047,1.678466796875,13.18359375,-8.819580078125
2.1424999000000002,0.10773907601833344,0.2555810213088989,9.86111831665039,-2.655029296875,3.570556640625,-0.518798828125
2.1474999,-0.35075053572654724,-0.27473464608192444,10.016142845153809,-18.9208984375,-12.298583984375,-1.220703125
2.1524999,-0.5776011347770691,-0.9014169573783875,9.822811126708984,-16.754150390625,-7.26318359375,-12.359619140625
2.1574999000000004,-0.7272387742996216,-1.5047557353973389,9.848548889160156,5.06591796875,0.42724609375,13.18359375
2.1624999000000003,-0.5620388388633728,-1.9967641830444336,9.727641105651855,1.03759765625,-10.19287109375,22.064208984375
2.1674999,-0.4124012291431427,-1.6543933153152466,9.588777542114258,-6.53076171875,-14.6484375,14.892578125
2.1724999,-0.1562216579914093,-1.1863269805908203,9.637260437011719,-3.326416015625,-12.237548828125,18.85986328125
2.1774999000000004,0.24839842319488525,-0.9864110946655273,9.699509620666504,4.69970703125,-6.622314453125,10.25390625
2.1824999000000003,0.6105214357376099,-0.8445546627044678,9.706093788146973,7.6904296875,-2.227783203125,3.570556640625
2.1874999,1.1186907291412354,-0.2717418968677521,9.830592155456543,1.03759765625,4.33349609375,-11.04736328125
2.1924999,1.0678139925003052,-0.166995570063591,9.86351203918457,0.091552734375,8.1787109375,-11.322021484375
2.1974999,1.1085153818130493,-0.31842881441116333,9.853337287902832,5.645751953125,9.063720703125,-8.48388671875
2.2024999000000003,1.0947487354278564,-0.6757634282112122,9.836577415466309,9.735107421875,14.068603515625,-20.355224609375
2.2074999,0.767341673374176,-0.6093243360519409,9.841964721679688,8.087158203125,19.71435546875,-13.48876953125
2.2124999,0.5746083855628967,-0.4967968463897705,9.777320861816406,-0.18310546875,9.033203125,-6.988525390625
2.2174999,0.1215057373046875,0.12030863761901855,9.88506031036377,-3.143310546875,0.06103515625,-5.462646484375
2.2224999000000003,-0.40521863102912903,-0.12449848651885986,10.057442665100098,-16.204833984375,-9.063720703125,3.11279296875
2.2274999,-0.5003881454467773,-0.7829039692878723,9.910798072814941,-17.76123046875,-8.60595703125,-12.481689453125
2.2324999,-0.6829460263252258,-1.3108254671096802,9.865906715393066,1.617431640625,-3.35693359375,7.9345703125
2.2374999,-0.6009446382522583,-1.810615062713623,9.759963035583496,1.52587890625,-10.711669921875,23.712158203125
2.2424999000000003,0.922366201877594,-0.5560533404350281,9.75517463684082,5.035400390625,-1.495361328125,1.312255859375
2.2474999,1.2527660131454468,-0.30526071786880493,9.813833236694336,0.335693359375,3.326416015625,-10.223388671875
2.2524999,1.316810965538025,-0.23582886159420013,9.865307807922363,1.007080078125,9.735107421875,-13.61083984375
2.2574999,1.3838485479354858,-0.4465186297893524,9.84376049041748,6.744384765625,12.3291015625,-8.819580078125
2.2624999000000003,1.3186066150665283,-0.6506243348121643,9.77133560180664,9.429931640625,14.46533203125,-18.707275390625
2.2674999000000002,0.9056068062782288,-0.6697779297828674,9.800664901733398,6.072998046875,18.218994140625,-15.533447265625
2.2724999,0.6039373874664307,-0.4345476031303406,9.673771858215332,-0.274658203125,10.040283203125,-6.439208984375
2.2774999,0.1346738487482071,0.3190273642539978,9.609726905822754,-1.89208984375,1.922607421875,-5.096435546875
2.2824999000000004,-0.4016273319721222,-0.2059013396501541,9.851541519165039,-16.632080078125,-6.591796875,0.579833984375
2.2874999000000003,-0.5452794432640076,-0.6224924325942993,9.671378135681152,-13.18359375,-5.035400390625,-6.805419921875
2.2924999,-0.375291109085083,-1.703474521636963,9.585186958312988,-5.43212890625,-14.373779296875,15.9912109375
2.2974999,-0.14844051003456116,-1.1534066200256348,9.725846290588379,-2.349853515625,-11.53564453125,17.08984375
2.3024999000000004,0.33518823981285095,-1.0157400369644165,9.77013874053955,3.90625,-7.232666015625,8.758544921875
2.3074999000000003,0.6548141837120056,-0.7990648150444031,9.793481826782227,7.598876953125,-2.227783203125,4.82177734375
2.3124999,1.0672154426574707,-0.4183867573738098,9.825204849243164,6.011962890625,1.8310546875,-1.708984375
2.3174999,1.258152961730957,-0.31783026456832886,9.82759952545166,-0.152587890625,5.645751953125,-13.702392578125
2.3224999,1.2832920551300049,-0.16879121959209442,9.868300437927246,1.556396484375,10.650634765625,-10.498046875
2.3274999000000003,1.335964560508728,-0.4465186297893524,9.876082420349121,8.758544921875,12.664794921875,-11.16943359375
2.3324999,1.1851298809051514,-0.5901707410812378,9.800065994262695,10.43701171875,17.913818359375,-19.83642578125
2.3374999,0.7649474143981934,-0.5015852451324463,9.828198432922363,5.462646484375,19.805908203125,-14.007568359375
2.3424999,0.44173020124435425,-0.33518823981285095,9.718064308166504,0.244140625,7.8125,-6.04248046875
2.3474999000000003,-0.6751648783683777,-0.8972271084785461,9.848548889160156,1.03759765625,-6.34765625,21.30126953125
2.3524999,-0.2974795699119568,-0.718859076499939,9.718064308166504,-9.735107421875,-16.9677734375,18.06640625
2.3574999,-0.15263035893440247,-0.22266076505184174,9.86889934539795,-3.2958984375,-15.13671875,15.289306640625
2.3624999,0.38486793637275696,-0.4908113479614258,9.871891975402832,3.96728515625,-6.7138671875,5.126953125
2.3674999000000003,0.6673837304115295,-0.4692635238170624,9.852140426635742,4.364013671875,1.007080078125,2.044677734375
2.3724999,1.1623848676681519,-0.3579331636428833,9.85034465789795,1.312255859375,0.946044921875,-4.82177734375
2.3774999,1.2336124181747437,-0.4489128291606903,9.803058624267578,-1.922607421875,2.471923828125,-15.472412109375
2.3824999,1.1887211799621582,-0.43694180250167847,9.782109260559082,4.119873046875,9.94873046875,-6.40869140625
2.3874999000000003,1.2886791229248047,-0.8487445116043091,9.79408073425293,8.026123046875,11.90185546875,-15.869140625
2.3924999000000002,-0.4866214990615845,-1.0223240852355957,9.881468772888184,4.119873046875,-4.730224609375,8.9111328125
2.3974999,-0.4297592043876648,-1.2922704219818115,9.944316864013672,-1.220703125,-7.50732421875,23.529052734375
2.4024999,-0.04908113554120064,-1.0456676483154297,9.797672271728516,-9.8876953125,-16.6015625,13.275146484375
2.4074999000000004,0.12509703636169434,-0.5859808921813965,9.86111831665039,0.42724609375,-11.383056640625,15.625
2.4124999000000003,0.596754789352417,-0.7858967185020447,9.77253246307373,4.69970703125,-4.45556640625,1.40380859375
2.4174999,0.823006808757782,-0.4818331003189087,9.767146110534668,4.486083984375,3.2958984375,2.74658203125
2.4224999,1.2659341096878052,-0.40222588181495667,9.786897659301758,0.06103515625,2.01416015625,-9.735107421875
2.4274999000000004,0.09696517139673233,-0.3256114423274994,9.84615421295166,0.701904296875,5.584716796875,-2.86865234375
2.4324999000000003,-0.536899745464325,-0.3411737382411957,9.879075050354004,-6.988525390625,-3.387451171875,3.5400390625
2.4374999,-0.6817489266395569,-1.4311341047286987,9.549273490905762,-23.101806640625,-16.90673828125,-9.674072265625
2.4424999,-0.7799112200737,-1.8794482946395874,9.467870712280273,-4.302978515625,-5.096435546875,4.8828125
2.4474999,-0.6039373874664307,-2.360084295272827,9.41400146484375,6.8359375,-3.84521484375,23.0712890625
2.4524999000000003,-0.3034650683403015,-2.147000312805176,9.519944190979004,-3.753662109375,-12.8173828125,19.4091796875
2.4574999,-0.11552023142576218,-1.3670891523361206,9.728838920593262,-6.866455078125,-15.533447265625,13.97705078125
2.4624999,0.18794482946395874,-0.7763199210166931,9.900622367858887,3.021240234375,-7.99560546875,13.092041015625
2.4674999,1.0091559886932373,-0.30047231912612915,9.894038200378418,4.974365234375,3.753662109375,-3.936767578125
2.4724999000000003,1.2431892156600952,-0.16101007163524628,9.892841339111328,0.518798828125,5.462646484375,-12.51220703125
2.4774999,1.1605892181396484,-0.061052143573760986,9.832986831665039,0.91552734375,7.50732421875,-10.345458984375
2.4824999,1.1971008777618408,-0.3974374830722809,9.81143856048584,5.9814453125,9.063720703125,-9.307861328125
2.4874999,1.0845733880996704,-0.9409212470054626,9.724648475646973,10.3759765625,16.326904296875,-21.026611328125
2.4924999000000003,0.8810662031173706,-0.7511807680130005,9.801262855529785,9.735107421875,20.99609375,-13.73291015625
2.4974999,0.5213374495506287,-0.6123170852661133,9.692925453186035,2.44140625,11.077880859375,-8.30078125
2.5024999,-0.3387795388698578,0.8667010068893433,9.832986831665039,-5.889892578125,-2.288818359375,2.197265625
2.5074999,-0.5847837924957275,-0.06224924325942993,9.806650161743164,-28.289794921875,-21.3623046875,-8.941650390625
2.5124999000000003,-0.5847837924957275,-0.06224924325942993,9.806650161743164,-28.289794921875,-21.3623046875,-8.941650390625
2.5174999000000002,-0.9636662006378174,-0.1825578808784485,9.733028411865234,-8.392333984375,-5.401611328125,-2.105712890625
2.5224999,1.0708067417144775,-0.23582886159420013,9.823410034179688,2.471923828125,4.21142578125,-3.875732421875
2.5274999,1.2802993059158325,-0.06823474913835526,9.857526779174805,0.396728515625,6.103515625,-13.275146484375
2.5324999000000004,1.1079168319702148,0.011971008032560349,9.85034465789795,2.0751953125,7.9345703125,-8.9111328125
2.5374999000000003,1.1743559837341309,-0.6003460884094238,9.794678688049316,5.157470703125,8.4228515625,-11.16943359375
2.5424999,1.0971429347991943,-0.7529764175415039,9.741408348083496,11.71875,17.51708984375,-20.263671875
2.5474999,0.9133879542350769,-0.7571662664413452,9.773730278015137,10.07080078125,21.942138671875,-12.3291015625
2.5524999000000004,0.4076128304004669,-0.524330198764801,9.801861763000488,-0.6103515625,8.7890625,-3.96728515625
2.5574999000000003,-1.0115501880645752,-0.8882488012313843,9.817423820495605,-5.55419921875,-1.46484375,-0.67138671875
2.5624999,-0.5973533391952515,-1.701080322265625,9.610325813293457,6.683349609375,-3.11279296875,16.4794921875
2.5674999,-0.5973533391952515,-1.701080322265625,9.610325813293457,6.683349609375,-3.11279296875,16.4794921875
2.5724999,-0.37409400939941406,-1.9333178997039795,9.663596153259277,-1.678466796875,-11.077880859375,19.4091796875
2.5774999000000003,-0.06584054976701736,-1.5765818357467651,9.602544784545898,-9.796142578125,-14.95361328125,14.495849609375
2.5824999,0.1711854189634323,-0.9319429993629456,9.762955665588379,0.396728515625,-8.331298828125,15.716552734375
2.5874999,0.679354727268219,-0.9139865040779114,9.766547203063965,7.87353515625,-2.0751953125,2.01416015625
2.5924999,0.8152256608009338,-0.7571662664413452,9.788095474243164,4.8828125,3.082275390625,0.79345703125
2.5974999000000003,1.1222820281982422,-0.35733461380004883,9.849745750427246,2.74658203125,3.326416015625,-4.302978515625
2.6024999,1.0540473461151123,-0.13706804811954498,9.883264541625977,1.15966796875,4.33349609375,-11.77978515625
2.6074999,0.9534908533096313,-0.1173158809542656,9.906607627868652,1.708984375,7.38525390625,-6.2255859375
2.6124999,0.9989806413650513,-0.6045359373092651,9.838373184204102,5.401611328125,8.575439453125,-12.5732421875
2.6174999000000003,-0.11013327538967133,0.383670836687088,9.692327499389648,-6.53076171875,-8.514404296875,-4.2724609375
2.6224999,-0.7433996200561523,-0.14664486050605774,9.909601211547852,-12.237548828125,-10.8642578125,-1.8310546875
2.6274999,-0.7015010714530945,-0.3884592354297638,9.768941879272461,-5.615234375,-8.30078125,2.5634765625
2.6324999,-0.6823474764823914,-0.7763199210166931,9.99100399017334,2.044677734375,-4.57763671875,12.542724609375
2.6374999000000003,-0.5452794432640076,-1.115697979927063,9.982025146484375,-5.859375,-10.528564453125,20.08056640625
2.6424999000000002,1.1025298833847046,-0.8924387097358704,9.733627319335938,10.345458984375,17.2119140625,-15.5029296875
2.6474999,0.8433575630187988,-0.7841010689735413,9.780313491821289,6.2255859375,17.63916015625,-12.63427734375
2.6524999,0.3315969407558441,-0.41120412945747375,9.77791976928711,-0.579833984375,7.598876953125,-2.62451171875
2.6574999000000004,-0.2346317619085312,0.596754789352417,9.849146842956543,-4.08935546875,-4.69970703125,1.434326171875
2.6624999000000003,-0.6230909824371338,-0.24361002445220947,9.928155899047852,-16.876220703125,-12.63427734375,-6.317138671875
2.6674999,-0.7416039705276489,-0.7015010714530945,9.838373184204102,-8.636474609375,-5.37109375,0.152587890625
2.6724999,-0.5937620401382446,-1.2306196689605713,9.8970308303833,4.608154296875,-3.448486328125,17.15087890625
2.6774999000000004,-0.365115761756897,-1.9183541536331177,9.817423820495605,-4.180908203125,-12.786865234375,21.026611328125
2.6824999000000003,-0.1538274586200714,-1.6011223793029785,9.755773544311523,-8.087158203125,-15.44189453125,14.0380859375
2.6874999,0.1933317929506302,-1.2994530200958252,9.764153480529785,1.861572265625,-7.537841796875,12.0849609375
2.6924999,0.9810241460800171,-0.8655039072036743,9.701904296875,5.2490234375,2.8076171875,0.091552734375
2.6974999,1.1988965272903442,-0.4644751250743866,9.754576683044434,1.983642578125,4.8828125,-9.490966796875
2.7024999000000003,1.1510124206542969,-0.21787235140800476,9.800664901733398,1.434326171875,7.080078125,-10.8642578125
2.7074999,1.0636241436004639,-0.1759738177061081,9.822811126708984,3.265380859375,8.148193359375,-7.4462890625
2.7124999,1.0438719987869263,-0.7218518257141113,9.861717224121094,6.7138671875,11.383056640625,-16.9677734375
2.7174999,0.9804255962371826,-0.6236895322799683,9.802460670471191,12.8173828125,20.56884765625,-16.754150390625
2.7224999000000003,0.6967126727104187,-0.5985504388809204,9.831789016723633,8.209228515625,19.47021484375,-10.467529296875
2.7274999,0.284311443567276,0.016160860657691956,9.846753120422363,-4.669189453125,-0.9765625,-10.1318359375
2.7324999,-0.2645592987537384,0.055665191262960434,9.853337287902832,-18.98193359375,-13.458251953125,-8.209228515625
2.7374999,-0.6416460275650024,-0.7559691667556763,9.798270225524902,-19.6533203125,-11.932373046875,-5.859375
2.7424999000000003,-0.7218518257141113,-1.3634978532791138,9.806650161743164,4.8828125,-2.197265625,9.246826171875
2.7474999,-0.6661866307258606,-1.7483657598495483,9.771934509277344,3.265380859375,-6.7138671875,18.37158203125
2.7524999,0.912190854549408,-0.4620809257030487,9.806051254272461,2.86865234375,2.50244140625,-1.373291015625
2.7574999,1.245583415031433,-0.21188685297966003,9.834183692932129,0.823974609375,3.5400390625,-10.7421875
2.7624999000000003,1.12467622756958,-0.07541735470294952,9.838972091674805,1.46484375,6.28662109375,-11.29150390625
2.7674999000000002,1.1049240827560425,-0.2621650993824005,9.817423820495605,2.74658203125,7.01904296875,-7.598876953125
2.7724999,1.0522516965866089,-0.8451532125473022,9.851541519165039,6.28662109375,10.7421875,-19.287109375
2.7774999,0.9331400990486145,-0.5620388388633728,9.804255485534668,12.481689453125,19.95849609375,-16.143798828125
2.7824999000000004,0.5596446394920349,-0.5225345492362976,9.75637149810791,4.69970703125,15.5029296875,-6.8359375
2.7874999000000003,0.1173158809542656,0.2777273952960968,9.643844604492188,-6.7138671875,-2.349853515625,-1.739501953125
2.7924999,-0.39624038338661194,-0.15023615956306458,9.880271911621094,-20.751953125,-17.669677734375,-3.265380859375
2.7974999,-0.6057330369949341,-0.6189011335372925,9.768941879272461,-10.009765625,-7.232666015625,-4.180908203125
2.8024999000000004,-0.0694318488240242,-1.103128433227539,9.731831550598145,-5.67626953125,-12.939453125,12.603759765625
2.8074999000000003,0.3315969407558441,-0.7721300721168518,9.795876502990723,8.48388671875,-3.204345703125,13.946533203125
2.8124999,0.8254010081291199,-0.9726444482803345,9.714473724365234,5.126953125,-2.288818359375,-3.021240234375
2.8174999,1.0235211849212646,-0.49380409717559814,9.763554573059082,2.288818359375,3.509521484375,-0.640869140625
2.8224999,1.290474772453308,-0.24181437492370605,9.82879638671875,1.190185546875,4.8828125,-12.115478515625
2.8274999000000003,1.1492167711257935,-0.08080431073904037,9.85034465789795,2.105712890625,7.9345703125,-10.284423828125
2.8324999,1.1354501247406006,-0.3579331636428833,9.816226959228516,3.204345703125,7.965087890625,-8.4228515625
2.8374999,1.0660183429718018,-0.8409633636474609,9.86111831665039,7.598876953125,12.969970703125,-19.378662109375
2.8424999,0.9014169573783875,-0.5434837937355042,9.815628051757812,13.0615234375,22.3388671875,-15.045166015625
2.8474999000000003,0.4339490532875061,-0.5039794445037842,9.852140426635742,3.387451171875,14.495849609375,-6.591796875
2.8524999,-0.012569558806717396,0.6428431272506714,9.716269493103027,-8.544921875,-6.500244140625,-9.979248046875
2.8574999,-0.5464765429496765,-0.17537526786327362,9.627084732055664,-20.6298828125,-13.36669921875,-6.500244140625
2.8624999,-0.7493851184844971,-0.5225345492362976,9.489418029785156,-4.638671875,-3.11279296875,1.3427734375
2.8674999000000003,-0.6572083830833435,-1.7082629203796387,9.354146003723145,4.241943359375,-3.47900390625,10.009765625
2.8724999,-0.5267243981361389,-1.8932149410247803,9.525930404663086,-1.220703125,-8.941650390625,19.378662109375
2.8774999,-0.24241292476654053,-1.8531121015548706,9.560646057128906,-7.62939453125,-14.739990234375,16.571044921875
2.8824999,1.136048674583435,-0.08259996026754379,9.889848709106445,1.434326171875,3.692626953125,-11.993408203125
2.8874999000000003,0.973242998123169,-0.7769184708595276,9.849146842956543,6.28662109375,10.467529296875,-18.096923828125
2.8924999000000002,0.8672995567321777,-0.4513070285320282,9.815030097961426,12.451171875,20.93505859375,-16.265869140625
2.8974999,0.40282443165779114,-0.46746787428855896,9.858125686645508,2.38037109375,13.61083984375,-5.126953125
2.9024999,-0.01975216343998909,0.4991910457611084,9.691129684448242,-9.3994140625,-8.453369140625,-7.232666015625
2.9074999000000004,-0.5817909836769104,-0.181959331035614,9.684545516967773,-16.510009765625,-13.61083984375,-3.72314453125
2.9124999000000003,-0.7571662664413452,-0.7416039705276489,9.554061889648438,-5.06591796875,-5.035400390625,1.861572265625
2.9174999,-0.629675030708313,-1.678335428237915,9.46487808227539,2.74658203125,-3.387451171875,8.4228515625
2.9224999,-0.46806642413139343,-1.8956091403961182,9.668384552001953,-1.77001953125,-9.918212890625,21.026611328125
2.9274999000000004,-0.16998831927776337,-1.845929503440857,9.632472038269043,-9.368896484375,-17.4560546875,16.2353515625
2.9324999000000003,0.004788403399288654,-1.2096704244613647,9.755773544311523,-1.678466796875,-10.528564453125,14.22119140625
2.9374999,0.5093663930892944,-1.0678139925003052,9.810839653015137,7.26318359375,-3.11279296875,6.4697265625
2.9424999,1.1204863786697388,-0.44592007994651794,9.831789016723633,2.227783203125,1.068115234375,-1.953125
2.9474999,1.1887211799621582,-0.1472434103488922,9.856329917907715,1.46484375,4.241943359375,-11.993408203125
2.9524999000000003,1.1390414237976074,-0.05506663769483566,9.849146842956543,2.227783203125,8.72802734375,-9.002685546875
2.9574999,1.0995371341705322,-0.2890998423099518,9.797672271728516,2.44140625,7.110595703125,-10.345458984375
2.9624999,1.092953085899353,-0.8122329115867615,9.830592155456543,6.4697265625,11.566162109375,-18.035888671875
2.9674999,0.961870551109314,-0.4920084476470947,9.803058624267578,12.939453125,22.52197265625,-16.845703125
2.9724999000000003,0.4668693244457245,-0.4704606235027313,9.855133056640625,3.11279296875,15.80810546875,-6.04248046875
2.9774999,-0.0017956512747332454,0.535702645778656,9.77133560180664,-9.307861328125,-6.7138671875,-7.720947265625
2.9824999,-0.5871779918670654,-0.03770867735147476,9.768941879272461,-17.486572265625,-13.18359375,-5.462646484375
2.9874999,-0.8271966576576233,-0.5464765429496765,9.722254753112793,-3.96728515625,-3.35693359375,2.99072265625
2.9924999000000003,-0.6943184733390808,-1.4209587574005127,9.630077362060547,3.021240234375,-2.838134765625,9.46044921875
2.9974999,-0.518943190574646,-1.688510775566101,9.816825866699219,-1.617431640625,-9.552001953125,22.03369140625
3.0024999,1.0402805805206299,-0.008978256024420261,9.86889934539795,2.38037109375,8.36181640625,-8.85009765625
3.0074999,0.9756371974945068,-0.3082534670829773,9.851541519165039,2.716064453125,6.866455078125,-10.589599609375
3.0124999000000003,1.0205284357070923,-0.7661445140838623,9.88386344909668,7.598876953125,12.75634765625,-18.9208984375
3.0174999000000002,0.8708908557891846,-0.44412440061569214,9.837176322937012,13.031005859375,22.613525390625,-16.2353515625
3.0224999,0.46746787428855896,-0.4129997789859772,9.868300437927246,0.091552734375,9.8876953125,-9.1552734375
3.0274999,-0.12928688526153564,0.38486793637275696,9.882665634155273,-11.90185546875,-9.979248046875,-14.95361328125
3.0324999000000004,-0.6829460263252258,-0.25258827209472656,9.691129684448242,-17.822265625,-12.542724609375,-4.302978515625
3.0374999000000003,-0.1801636815071106,-1.4754267930984497,9.707290649414062,-9.429931640625,-17.364501953125,14.739990234375
3.0424999,1.2096704244613647,-0.12270283699035645,9.858723640441895,1.15966796875,5.18798828125,-12.786865234375
3.0474999,1.1480196714401245,-0.040701430290937424,9.8599214553833,1.953125,8.941650390625,-9.002685546875
3.0524999000000004,1.159990668296814,-0.4710591733455658,9.792284965515137,2.716064453125,7.26318359375,-12.115478515625
3.0574999000000003,1.157596468925476,-0.8026561141014099,9.821015357971191,8.544921875,14.251708984375,-19.989013671875
3.0624999,0.37169981002807617,-0.5309142470359802,9.84615421295166,-0.885009765625,11.1083984375,-2.410888671875
3.0674999,-0.24241292476654053,0.0933738648891449,10.001178741455078,-12.39013671875,-10.528564453125,-1.007080078125
3.0724999000000004,-0.6625953316688538,-0.6344634294509888,9.747393608093262,-18.12744140625,-15.625,-4.8828125
3.0774999000000003,-0.8786720037460327,-1.2144588232040405,9.841365814208984,-0.762939453125,-1.312255859375,4.180908203125
3.0824999,-0.5901707410812378,-1.600523829460144,9.585784912109375,3.265380859375,-3.47900390625,13.885498046875
3.0874999,-0.39803603291511536,-1.5005658864974976,9.740211486816406,-3.631591796875,-13.153076171875,22.369384765625
3.0924999,-0.11013327538967133,-1.2647370100021362,9.693524360656738,-9.765625,-16.815185546875,14.007568359375
3.0974999000000003,0.06823474913835526,-0.6835445761680603,9.8599214553833,3.204345703125,-6.256103515625,16.326904296875
3.1024999,0.657806932926178,-0.8804676532745361,9.807847023010254,8.026123046875,-2.349853515625,2.5634765625
3.1074999,0.8319851160049438,-0.6434416770935059,9.802460670471191,3.753662109375,1.708984375,0.06103515625
3.1124999,1.1959037780761719,-0.31783026456832886,9.837176322937012,1.922607421875,3.753662109375,-6.4697265625
3.1174999000000003,1.171961784362793,-0.10893617570400238,9.853935241699219,1.220703125,6.561279296875,-13.73291015625
3.1224999,0.7146692276000977,-0.558447539806366,9.75637149810791,9.613037109375,22.369384765625,-10.43701171875
3.1274999,0.28371289372444153,-0.3531447649002075,9.754576683044434,-5.0048828125,2.38037109375,-5.706787109375
3.1324999,-0.25019407272338867,-0.11312603205442429,9.783307075500488,-17.39501953125,-14.556884765625,-7.50732421875
3.1374999000000003,-0.7350199222564697,-0.871489405632019,9.739612579345703,-14.70947265625,-10.833740234375,-1.373291015625
3.1424999000000002,-0.7439981698989868,-1.4299370050430298,9.787496566772461,2.13623046875,-3.2958984375,7.26318359375
3.1474999,-0.6943184733390808,-1.5143325328826904,9.738415718078613,1.52587890625,-6.805419921875,15.899658203125
3.1524999,-0.4866214990615845,-1.304241418838501,9.926360130310059,-5.4931640625,-14.5263671875,22.613525390625
3.1574999000000004,-0.2214636504650116,-1.0690110921859741,9.82879638671875,-8.6669921875,-16.41845703125,11.962890625
3.1624999000000003,0.026336219161748886,-0.5793967843055725,9.946710586547852,6.591796875,-5.615234375,17.08984375
3.1674999,0.6416460275650024,-0.900818407535553,9.82759952545166,7.080078125,-4.33349609375,0.885009765625
3.1724999,1.2557587623596191,-0.21428105235099792,9.828198432922363,0.701904296875,3.448486328125,-9.6435546875
3.1774999000000004,1.1875240802764893,-0.09876082092523575,9.82879638671875,0.762939453125,6.65283203125,-13.7939453125
3.1824999000000003,1.1414356231689453,-0.2017114907503128,9.825803756713867,2.655029296875,8.148193359375,-7.049560546875
3.1874999,1.1426327228546143,-0.8619126081466675,9.84376049041748,5.55419921875,10.19287109375,-19.22607421875
3.1924999,1.0055646896362305,-0.5440823435783386,9.794678688049316,11.749267578125,20.172119140625,-19.012451171875
3.1974999000000004,0.585382342338562,-0.5213374495506287,9.747992515563965,4.45556640625,17.578125,-6.378173828125
3.2024999000000003,0.2017114907503128,0.13407529890537262,9.623494148254395,-7.171630859375,-1.373291015625,-0.518798828125
3.2074999,-0.395043283700943,-0.22026655077934265,9.895833969116211,-19.256591796875,-16.2353515625,-1.495361328125
3.2124999,-0.6147112846374512,-0.8846575021743774,9.75278091430664,-12.115478515625,-7.75146484375,-3.60107421875
3.2174999,-0.6554127335548401,-1.7896658182144165,9.900622367858887,4.0283203125,-1.5869140625,10.162353515625
3.2224999000000003,-0.517746090888977,-1.7573440074920654,9.9185791015625,1.28173828125,-8.819580078125,21.331787109375
3.2274999,0.3363853394985199,-0.8595184087753296,9.784503936767578,10.009765625,-3.96728515625,17.333984375
3.2324999,0.8146271109580994,-1.0217255353927612,9.674370765686035,6.134033203125,-2.86865234375,-2.655029296875
3.2374999,1.0211269855499268,-0.4034229815006256,9.729436874389648,2.74658203125,3.814697265625,-1.8310546875
3.2424999000000003,1.2976573705673218,-0.166995570063591,9.803058624267578,0.3662109375,5.828857421875,-13.824462890625
3.2474999,1.1767501831054688,0.03232172131538391,9.850942611694336,1.77001953125,9.368896484375,-10.894775390625
3.2524999,1.2204443216323853,-0.40880993008613586,9.797073364257812,4.669189453125,9.94873046875,-11.23046875
3.2574999,1.217451572418213,-0.861314058303833,9.847352027893066,9.82666015625,16.937255859375,-22.705078125
3.2624999000000003,0.9385270476341248,-0.5410895943641663,9.823410034179688,12.481689453125,24.96337890625,-16.17431640625
3.2674999000000002,0.3974374830722809,-0.5123591423034668,9.86770248413086,-0.152587890625,12.20703125,-4.5166015625
3.2724999,-0.395043283700943,0.23582886159420013,9.817423820495605,-11.871337890625,-8.9111328125,-2.838134765625
3.2774999,-0.899621307849884,-0.6763619780540466,9.518148422241211,-23.040771484375,-17.059326171875,-5.37109375
3.2824999000000004,0.6811503767967224,-0.8882488012313843,9.880271911621094,10.711669921875,-4.5166015625,10.467529296875
3.2874999000000003,0.8900445103645325,-0.6129156351089478,9.874884605407715,4.241943359375,-0.91552734375,-5.096435546875
3.2924999,1.192312479019165,-0.1256955862045288,9.908403396606445,1.068115234375,4.730224609375,-5.92041015625
3.2974999,1.2318167686462402,0.013766659423708916,9.914987564086914,-0.244140625,6.40869140625,-16.78466796875
3.3024999000000004,1.1444283723831177,-0.0017956512747332454,9.890447616577148,2.777099609375,8.6669921875,-7.476806640625
3.3074999000000003,1.1737574338912964,-0.7523778676986694,9.882067680358887,6.317138671875,10.986328125,-18.951416015625
3.3124999,1.0558429956436157,-0.5578489899635315,9.778518676757812,13.00048828125,21.759033203125,-23.101806640625
3.3174999,0.6470330357551575,-0.5895721912384033,9.778518676757812,5.950927734375,19.989013671875,-8.636474609375
3.3224999000000004,-0.7739257216453552,-1.4688427448272705,9.510966300964355,-16.510009765625,-11.1083984375,-4.82177734375
3.3274999000000003,-0.7948749661445618,-2.2637176513671875,9.34397029876709,2.99072265625,-2.471923828125,8.819580078125
3.3324999,-0.6554127335548401,-2.11946702003479,9.23682975769043,2.9296875,-8.36181640625,22.76611328125
3.3374999,-0.32381579279899597,-1.7938556671142578,9.370306968688965,-4.913330078125,-16.4794921875,21.66748046875
3.3424999,-0.07900865375995636,-1.2892776727676392,9.441534042358398,-7.171630859375,-14.34326171875,11.474609375
3.3474999000000003,0.25917232036590576,-0.689530074596405,9.70429801940918,9.735107421875,-4.730224609375,20.8740234375
3.3524999,0.8678981065750122,-0.8756792545318604,9.72165584564209,7.537841796875,-3.7841796875,-1.251220703125
3.3574999,1.0522516965866089,-0.2735375463962555,9.82879638671875,2.960205078125,3.448486328125,-3.509521484375
3.3624999,1.3305776119232178,-0.5237316489219666,9.838972091674805,5.889892578125,11.3525390625,-12.75634765625
3.3674999000000003,-0.34596213698387146,0.10055647045373917,9.988609313964844,-16.78466796875,-11.505126953125,-5.55419921875
3.3724999,-0.9050082564353943,-0.7026981711387634,9.701305389404297,-22.94921875,-15.5029296875,-4.608154296875
3.3774999,-1.0438719987869263,-1.5502456426620483,9.71926212310791,0,-4.364013671875,6.683349609375
3.3824999,-0.8655039072036743,-2.1547815799713135,9.332598686218262,4.638671875,-5.401611328125,17.425537109375
3.3874999000000003,-0.5596446394920349,-1.8363527059555054,9.554061889648438,-0.79345703125,-12.542724609375,28.472900390625
3.3924999000000002,-0.11851298063993454,-1.4969745874404907,9.528324127197266,-8.48388671875,-17.02880859375,9.857177734375
3.3974999,0.0293289702385664,-0.6889315247535706,9.803657531738281,2.960205078125,-7.049560546875,19.10400390625
3.4024999,0.7475894689559937,-0.7050924301147461,9.822811126708984,10.284423828125,-4.0283203125,6.40869140625
3.4074999000000004,0.9445125460624695,-0.40282443165779114,9.82999324798584,4.180908203125,1.708984375,-6.53076171875
3.4124999000000003,1.2755109071731567,-0.1173158809542656,9.854534149169922,0.91552734375,6.744384765625,-8.4228515625
3.4174999,1.2587515115737915,-0.18076223134994507,9.84615421295166,4.69970703125,9.674072265625,-8.544921875
3.4224999,1.259350061416626,-0.8517372608184814,9.900622367858887,8.758544921875,15.0146484375,-22.03369140625
3.4274999000000004,1.0055646896362305,-0.5003881454467773,9.832986831665039,13.458251953125,24.749755859375,-21.759033203125
3.4324999000000003,0.4381389021873474,-0.4207809567451477,9.847949981689453,2.349853515625,14.984130859375,-6.317138671875
3.4374999,-0.37169981002807617,0.6853402256965637,9.998785018920898,-11.3525390625,-7.87353515625,-4.608154296875
3.4424999,-0.899621307849884,-0.1364694982767105,9.685144424438477,-28.900146484375,-21.026611328125,-5.279541015625
3.4474999000000004,-1.1402385234832764,-0.7721300721168518,9.610923767089844,-8.72802734375,-8.209228515625,0.6103515625
3.4524999000000003,-0.8098387122154236,-2.1302409172058105,9.242815971374512,5.584716796875,-4.33349609375,13.0615234375
3.4574999,-0.47584760189056396,-2.3133974075317383,9.2841157913208,1.15966796875,-10.7421875,28.99169921875
3.4624999,0.05626374110579491,-2.1805191040039062,9.35654067993164,-7.14111328125,-18.310546875,14.739990234375
3.4674999,0.16819266974925995,-1.4299370050430298,9.558850288391113,-3.47900390625,-11.65771484375,14.46533203125
3.4724999000000003,0.6733692288398743,-0.9307458996772766,9.793481826782227,11.90185546875,-3.84521484375,18.798828125
3.4774999,1.2413935661315918,-0.1909375786781311,9.873088836669922,1.617431640625,4.913330078125,-7.080078125
3.4824999,1.3766659498214722,-0.12689268589019775,9.912593841552734,0.152587890625,8.36181640625,-15.9912109375
3.4874999,1.256955862045288,-0.03292027488350868,9.894038200378418,3.631591796875,10.07080078125,-8.697509765625
3.4924999000000003,1.2862848043441772,-0.7691373229026794,9.891644477844238,7.232666015625,12.51220703125,-18.463134765625
3.4974999,1.1408370733261108,-0.6769605278968811,9.806650161743164,13.519287109375,22.796630859375,-23.834228515625
3.5024999,0.7775170207023621,-0.628477931022644,9.831191062927246,7.171630859375,20.6298828125,-12.14599609375
3.5074999,0.2693476974964142,-0.15023615956306458,9.962871551513672,-5.096435546875,3.448486328125,-2.838134765625
3.5124999000000003,-0.4926069974899292,-0.4345476031303406,9.865906715393066,-24.993896484375,-18.035888671875,0.213623046875
3.5174999000000002,-0.8152256608009338,-1.0618284940719604,9.776124000549316,-16.326904296875,-11.993408203125,-6.9580078125
3.5224999,-0.7565677165985107,-1.9267338514328003,9.336189270019531,3.936767578125,-7.01904296875,24.658203125
3.5274999,-0.3794809579849243,-1.657984733581543,9.443329811096191,-3.90625,-15.472412109375,20.93505859375
3.5324999000000004,0.2472013235092163,-0.6063315868377686,9.6803560256958,9.002685546875,-4.547119140625,20.99609375
3.5374999000000003,0.8798691034317017,-0.8074445128440857,9.70429801940918,8.026123046875,-3.082275390625,-1.617431640625
3.5424999,1.049857497215271,-0.27473464608192444,9.801861763000488,3.204345703125,4.547119140625,-4.547119140625
3.5474999,1.3557167053222656,-0.15981295704841614,9.880271911621094,0.06103515625,6.927490234375,-13.85498046875
3.5524999000000004,1.227626919746399,0.03172317147254944,9.922768592834473,2.01416015625,8.6669921875,-10.955810546875
3.5574999000000003,1.2557587623596191,-0.5512649416923523,9.86889934539795,5.79833984375,10.68115234375,-13.36669921875
3.5624999,1.1971008777618408,-0.7978677153587341,9.800065994262695,11.77978515625,19.622802734375,-24.71923828125
3.5674999,0.8451532125473022,-0.595557689666748,9.797672271728516,10.55908203125,23.74267578125,-14.556884765625
3.5724999000000004,0.27653029561042786,-0.23283611238002777,9.809642791748047,-2.227783203125,7.476806640625,-3.96728515625
3.5774999000000003,-0.44352585077285767,0.12629413604736328,9.951498985290527,-17.88330078125,-13.763427734375,0.67138671875
3.5824999,-0.889445960521698,-0.6649895310401917,9.769539833068848,-24.59716796875,-18.890380859375,-8.23974609375
3.5874999,-0.7416039705276489,-2.100912094116211,9.475651741027832,4.94384765625,-5.31005859375,18.829345703125
3.5924999,-0.42676645517349243,-1.8632874488830566,9.682151794433594,-1.64794921875,-14.34326171875,26.2451171875
3.5974999000000003,-0.05686229094862938,-1.5017629861831665,9.576807022094727,-9.246826171875,-18.341064453125,10.833740234375
3.6024999,0.05925649031996727,-0.7266402244567871,9.798270225524902,3.90625,-7.4462890625,20.050048828125
3.6074999,0.7386112213134766,-0.7661445140838623,9.80904483795166,10.406494140625,-4.608154296875,8.270263671875
3.6124999,0.950498104095459,-0.414795458316803,9.79408073425293,3.387451171875,-0.640869140625,-4.57763671875
3.6174999000000003,1.3227964639663696,-0.13946224749088287,9.843161582946777,0.3662109375,5.584716796875,-9.58251953125
3.6224999,1.3227964639663696,-0.13946224749088287,9.843161582946777,0.3662109375,5.584716796875,-9.58251953125
3.6274999,1.3563152551651,0.02274491637945175,9.88386344909668,0.3662109375,8.6669921875,-14.923095703125
3.6324999,1.3850456476211548,-0.2364274114370346,9.81263542175293,4.364013671875,9.857177734375,-8.697509765625
3.6374999000000003,1.3658920526504517,-0.8870517015457153,9.856928825378418,8.575439453125,14.95361328125,-23.49853515625
3.6424999000000002,1.0684125423431396,-0.5740098357200623,9.810839653015137,13.214111328125,24.84130859375,-21.148681640625
3.6474999,-0.8319851160049438,-0.2783259451389313,9.729436874389648,-26.458740234375,-19.22607421875,-3.60107421875
3.6524999,-1.1091139316558838,-0.9319429993629456,9.619902610778809,-8.60595703125,-6.2255859375,-0.579833984375
3.6574999000000004,-0.7906851172447205,-2.1984755992889404,9.228450775146484,5.7373046875,-2.532958984375,13.85498046875
3.6624999000000003,-0.4489128291606903,-2.3708581924438477,9.30686092376709,1.64794921875,-10.43701171875,27.03857421875
3.6674999,0.005985504016280174,-2.24935245513916,9.340977668762207,-7.659912109375,-17.39501953125,15.19775390625
3.6724999,0.13407529890537262,-1.455674648284912,9.573814392089844,-2.777099609375,-10.284423828125,15.68603515625
3.6774999000000004,0.6709750294685364,-1.0534487962722778,9.75936508178711,11.627197265625,-3.936767578125,15.07568359375
3.6824999000000003,1.22642982006073,-0.2172738015651703,9.854534149169922,2.62451171875,6.2255859375,-5.06591796875
3.6874999,1.22642982006073,-0.2172738015651703,9.854534149169922,2.62451171875,6.2255859375,-5.06591796875
3.6924999,1.3239935636520386,-0.08140286058187485,9.906009674072266,0.213623046875,8.11767578125,-16.7236328125
3.6974999000000004,1.1671733856201172,0.0520738884806633,9.928155899047852,3.570556640625,10.55908203125,-8.30078125
3.7024999000000003,1.1097124814987183,-0.5536591410636902,9.829395294189453,14.923095703125,24.5361328125,-25.69580078125
3.7074999,0.7589619159698486,-0.5045779943466187,9.803058624267578,7.598876953125,22.4609375,-12.39013671875
3.7124999,0.3232172429561615,-0.26336219906806946,9.791686058044434,-7.2021484375,0.335693359375,-10.25390625
3.7174999,-0.517746090888977,-0.5650315880775452,9.718663215637207,-21.575927734375,-15.289306640625,-4.425048828125
3.7224999000000003,-0.8834604024887085,-1.3742717504501343,9.588179588317871,-15.5029296875,-12.87841796875,0.152587890625
3.7274999,-1.0085574388504028,-2.2385785579681396,9.476250648498535,3.7841796875,-5.06591796875,8.331298828125
3.7324999,-0.8810662031173706,-2.008136749267578,9.422979354858398,2.716064453125,-6.65283203125,21.636962890625
3.7374999,-0.4854243993759155,-1.6262614727020264,9.543886184692383,-5.31005859375,-15.56396484375,21.91162109375
3.7424999000000003,-0.18375498056411743,-1.1192892789840698,9.561244010925293,-7.26318359375,-16.66259765625,12.14599609375
3.7474999,0.18375498056411743,-0.585382342338562,9.776124000549316,9.58251953125,-5.79833984375,19.927978515625
3.7524999,0.823006808757782,-0.8086416125297546,9.746196746826172,7.26318359375,-3.84521484375,-0.518798828125
3.7574999,1.0761936902999878,-0.22026655077934265,9.815628051757812,3.47900390625,3.021240234375,-2.105712890625
3.7624999000000003,1.3096283674240112,-0.7936778664588928,9.830592155456543,10.498046875,17.181396484375,-25.970458984375
3.7674999000000002,0.9175778031349182,-0.5644330382347107,9.82999324798584,11.505126953125,24.96337890625,-16.845703125
3.7724999,0.3585317134857178,-0.5530605912208557,9.84615421295166,-2.471923828125,10.009765625,-3.570556640625
3.7774999,-0.4854243993759155,0.2687491476535797,10.0765962600708,-12.298583984375,-10.07080078125,1.495361328125
3.7824999000000004,-0.9792284965515137,-0.7799112200737,9.7605619430542,-23.651123046875,-19.195556640625,-5.157470703125
3.7874999000000003,-1.0995371341705322,-1.3449428081512451,9.841365814208984,-4.302978515625,-4.791259765625,2.99072265625
3.7924999,-0.7661445140838623,-1.998559832572937,9.457097053527832,4.058837890625,-5.157470703125,16.05224609375
3.7974999,-0.39564183354377747,-1.9153614044189453,9.643844604492188,-1.312255859375,-13.336181640625,24.993896484375
3.8024999000000004,0.02753331884741783,-1.6442179679870605,9.57321548461914,-10.1318359375,-18.890380859375,14.404296875
3.8074999000000003,0.1364694982767105,-0.8912416100502014,9.81024169921875,3.509521484375,-8.544921875,19.4091796875
3.8124999,0.9648633003234863,-0.5734112858772278,9.815628051757812,4.241943359375,-0.42724609375,-0.823974609375
3.8174999,1.3628993034362793,-0.20111294090747833,9.858125686645508,1.312255859375,5.035400390625,-7.9345703125
3.8224999000000004,1.3670891523361206,-0.03651157766580582,9.875483512878418,0.06103515625,8.819580078125,-16.2353515625
3.8274999000000003,1.3210008144378662,-0.11372458189725876,9.854534149169922,3.90625,11.077880859375,-7.415771484375
3.8324999,1.3162124156951904,-0.8457517623901367,9.870096206665039,7.50732421875,13.5498046875,-21.42333984375
3.8374999,1.105522632598877,-0.4836287498474121,9.834781646728516,14.251708984375,24.96337890625,-24.0478515625
3.8424999,-0.6769605278968811,-0.32441434264183044,9.786897659301758,-21.66748046875,-18.310546875,-0.091552734375
3.8474999000000003,-0.9187749028205872,-0.9870096445083618,9.494206428527832,-13.61083984375,-10.467529296875,-2.471923828125
3.8524999,-0.9421183466911316,-1.9171570539474487,9.531316757202148,4.33349609375,-1.5869140625,11.474609375
3.8574999,-0.7224503755569458,-2.0410568714141846,9.70310115814209,2.349853515625,-8.392333984375,24.10888671875
3.8624999,-0.13108254969120026,-1.3024457693099976,9.694122314453125,-4.57763671875,-12.939453125,16.693115234375
3.8674999000000003,0.4183867573738098,-1.0193313360214233,9.816226959228516,10.406494140625,-4.425048828125,13.824462890625
3.8724999,0.8361749649047852,-0.9349357485771179,9.75278091430664,6.500244140625,-1.0986328125,-2.0751953125
3.8774999,1.1683704853057861,-0.3190273642539978,9.794678688049316,3.96728515625,4.21142578125,-2.197265625
3.8824999,1.3581109046936035,-0.13048399984836578,9.849146842956543,-0.152587890625,5.92041015625,-16.204833984375
3.8874999000000003,1.2563573122024536,0.10893617570400238,9.882067680358887,2.0751953125,10.040283203125,-9.490966796875
3.8924999000000002,1.3174095153808594,-0.5488707423210144,9.839570045471191,5.92041015625,11.3525390625,-15.0146484375
3.8974999,1.3078327178955078,-0.646434485912323,9.795876502990723,13.153076171875,21.3623046875,-26.2451171875
3.9024999,0.8954314589500427,-0.5752069354057312,9.837176322937012,11.138916015625,26.397705078125,-14.556884765625
3.9074999000000004,0.292691171169281,-0.35673606395721436,9.785101890563965,-3.631591796875,8.148193359375,-4.364013671875
3.9124999000000003,-0.5339069962501526,-0.22505496442317963,9.715670585632324,-17.242431640625,-14.892578125,-1.15966796875
3.9174999,-1.0360907316207886,-1.115697979927063,9.472060203552246,-23.74267578125,-21.3623046875,-4.364013671875
3.9224999,-0.09876082092523575,-1.3443442583084106,9.578003883361816,-10.3759765625,-19.439697265625,13.5498046875
3.9274999000000004,0.13108254969120026,-0.6512228846549988,9.8784761428833,6.8359375,-7.62939453125,20.050048828125
3.9324999000000003,0.760757565498352,-0.8798691034317017,9.835380554199219,9.033203125,-4.150390625,4.608154296875
3.9374999,1.0193313360214233,-0.37229835987091064,9.876680374145508,4.21142578125,0.6103515625,-0.335693359375
3.9424999,1.4395138025283813,-0.166995570063591,9.907805442810059,0.457763671875,4.57763671875,-11.3525390625
3.9474999000000004,1.4047977924346924,0.053270988166332245,9.93354320526123,0.213623046875,9.46044921875,-14.617919921875
3.9524999000000003,1.4891934394836426,-0.262763649225235,9.833584785461426,4.425048828125,11.138916015625,-9.185791015625
3.9574999,1.4538789987564087,-0.9163807034492493,9.865906715393066,9.46044921875,16.265869140625,-24.658203125
3.9624999,1.1635819673538208,-0.5488707423210144,9.798869132995605,13.916015625,26.092529296875,-22.0947265625
3.9674999000000004,-0.48602294921875,0.444722980260849,9.853935241699219,-8.819580078125,-3.7841796875,0.762939453125
3.9724999000000003,-0.9965864419937134,-0.4118026793003082,9.68694019317627,-25.57373046875,-22.15576171875,-3.082275390625
3.9774999,-1.3108254671096802,-0.9995791912078857,9.59835433959961,-8.7890625,-8.270263671875,-0.48828125
3.9824999,-0.8876502513885498,-1.8680758476257324,9.299078941345215,4.69970703125,-2.5634765625,14.46533203125
3.9874999,-0.44532153010368347,-2.146401882171631,9.489418029785156,0.762939453125,-10.80322265625,26.885986328125
3.9924999000000003,0.0520738884806633,-2.034472942352295,9.408614158630371,-9.70458984375,-18.85986328125,15.838623046875
3.9974999,0.17178396880626678,-1.2838906049728394,9.671976089477539,0.640869140625,-10.101318359375,18.798828125
4.0024999,0.7709329724311829,-1.1917139291763306,9.738415718078613,10.8642578125,-4.150390625,9.27734375
4.0074999,1.0001777410507202,-0.801459014415741,9.783307075500488,6.2255859375,1.373291015625,-2.3193359375
4.0124999,1.326986312866211,-0.2902969419956207,9.841964721679688,2.9296875,5.889892578125,-6.317138671875
4.0174999,1.2934675216674805,-0.07481880486011505,9.898228645324707,-0.091552734375,7.781982421875,-16.510009765625
4.022499900000001,1.2096704244613647,0.005386953707784414,9.916184425354004,3.47900390625,10.833740234375,-8.23974609375
4.0274999000000005,0.6949170231819153,-0.4752490520477295,9.749189376831055,6.04248046875,21.636962890625,-11.993408203125
4.0324999,0.17657238245010376,0.22864626348018646,9.564237594604492,-7.843017578125,-1.129150390625,-8.514404296875
4.0374999,-0.6859387755393982,-0.1628057211637497,9.667187690734863,-23.223876953125,-18.9208984375,-2.8076171875
4.0424999,-0.9816226959228516,-0.8984242081642151,9.543886184692383,-14.556884765625,-14.95361328125,0.1220703125
4.0474999,-1.0301052331924438,-1.8201918601989746,9.601945877075195,3.448486328125,-5.218505859375,9.21630859375
4.0524999,-0.8463503122329712,-1.8848352432250977,9.794678688049316,2.044677734375,-7.50732421875,25.238037109375
4.0574999,-0.3758896589279175,-1.8303672075271606,9.724648475646973,-8.1787109375,-18.829345703125,19.989013671875
4.062499900000001,-0.1735796183347702,-1.237802267074585,9.75637149810791,-4.974365234375,-15.80810546875,15.2587890625
4.0674999000000005,0.34835633635520935,-0.9427168965339661,9.84615421295166,10.8642578125,-5.401611328125,16.876220703125
4.0724999,0.828393816947937,-0.9115923047065735,9.749189376831055,6.34765625,-2.410888671875,0
4.0774999,1.2156559228897095,-0.28969839215278625,9.787496566772461,3.326416015625,3.0517578125,-3.082275390625
4.0824999,1.3838485479354858,-0.5422866940498352,9.819818496704102,5.37109375,10.80322265625,-16.265869140625
4.0874999,1.3066356182098389,-0.6230909824371338,9.761159896850586,12.451171875,20.416259765625,-25.665283203125
4.0924999,0.8888474106788635,-0.5482721924781799,9.805453300476074,9.09423828125,23.8037109375,-14.617919921875
4.0974999,0.23343466222286224,-0.38127660751342773,9.79527759552002,-4.791259765625,6.65283203125,-4.21142578125
4.1024999,-0.4866214990615845,-0.2555810213088989,9.774328231811523,-17.39501953125,-14.46533203125,1.8310546875
4.1074999000000005,-0.9810241460800171,-1.1312602758407593,9.716867446899414,-21.270751953125,-17.181396484375,-6.40869140625
4.1124999,-0.983418345451355,-1.8507179021835327,9.62947940826416,0.1220703125,-3.90625,4.39453125
4.1174999,-0.7122750282287598,-1.956661343574524,9.640851974487305,3.753662109375,-5.706787109375,20.56884765625
4.1224999,-0.3423708379268646,-1.7435773611068726,9.830592155456543,-3.875732421875,-15.533447265625,24.23095703125
4.1274999,-0.04668693244457245,-1.2850877046585083,9.761159896850586,-8.72802734375,-17.39501953125,13.12255859375
4.1324999,0.19632454216480255,-0.6823474764823914,9.919178009033203,8.453369140625,-6.317138671875,20.416259765625
4.1374999,1.0468647480010986,-0.3597288131713867,9.77672290802002,4.608154296875,2.166748046875,-1.0986328125
4.1424999,1.4077905416488647,-0.18076223134994507,9.807249069213867,0.640869140625,6.378173828125,-12.87841796875
4.147499900000001,1.3527239561080933,0.053270988166332245,9.845556259155273,0.885009765625,10.07080078125,-12.359619140625
4.1524999000000005,1.4431051015853882,-0.33279404044151306,9.780912399291992,4.730224609375,11.1083984375,-10.833740234375
4.1574999,1.391629695892334,-0.8786720037460327,9.849146842956543,10.772705078125,18.37158203125,-24.35302734375
4.1624999,1.1186907291412354,-0.5656301379203796,9.807249069213867,13.85498046875,27.313232421875,-19.83642578125
4.1674999,0.49380409717559814,-0.6458359360694885,9.84615421295166,0.42724609375,15.472412109375,-9.002685546875
4.1724999,-0.48303020000457764,0.4291606545448303,9.93474006652832,-9.94873046875,-4.913330078125,-0.152587890625
4.1774999,-0.9959878921508789,-0.5021837949752808,9.709086418151855,-24.932861328125,-20.599365234375,-3.35693359375
4.1824999,-1.2395979166030884,-1.1252747774124146,9.682151794433594,-6.256103515625,-7.75146484375,2.166748046875
4.187499900000001,-0.8684966564178467,-1.9716250896453857,9.388263702392578,5.279541015625,-2.471923828125,14.373779296875
4.1924999000000005,-0.46327802538871765,-2.160767078399658,9.545083999633789,-0.06103515625,-11.260986328125,27.83203125
4.1974999,0.9864110946655273,-0.6835445761680603,9.793481826782227,6.195068359375,1.8310546875,-1.678466796875
4.2024999,1.3317747116088867,-0.23163901269435883,9.847949981689453,2.8076171875,4.82177734375,-7.01904296875
4.2074999,1.2527660131454468,-0.0035913025494664907,9.891045570373535,0.030517578125,7.2021484375,-15.56396484375
4.2124999,1.1761516332626343,0.010773907415568829,9.895833969116211,3.173828125,10.009765625,-8.11767578125
4.2174999,1.1875240802764893,-0.6943184733390808,9.916783332824707,7.8125,13.427734375,-20.660400390625
4.2224999,1.0534487962722778,-0.45848962664604187,9.828198432922363,15.228271484375,24.871826171875,-22.94921875
4.2274999,0.6039373874664307,-0.4572925269603729,9.723451614379883,5.92041015625,21.087646484375,-9.3994140625
4.2324999000000005,0.13108254969120026,0.11611878126859665,9.713874816894531,-7.659912109375,-1.556396484375,-4.2724609375
4.2374999,0.13108254969120026,0.11611878126859665,9.713874816894531,-7.659912109375,-1.556396484375,-4.2724609375
4.2424999,-0.6835445761680603,-0.28371289372444153,9.803657531738281,-22.8271484375,-20.721435546875,-1.922607421875
4.2474999,-0.9175778031349182,-1.968033790588379,9.782109260559082,3.082275390625,-4.21142578125,8.514404296875
4.2524999,-0.9175778031349182,-1.968033790588379,9.782109260559082,3.082275390625,-4.21142578125,8.514404296875
4.2574999,-0.7422025203704834,-1.953070044517517,9.858125686645508,2.01416015625,-7.720947265625,24.810791015625
4.2624999,-0.30286651849746704,-1.8213889598846436,9.746794700622559,-8.453369140625,-19.8974609375,19.6533203125
4.2674999,-0.14425064623355865,-1.1994950771331787,9.745597839355469,-5.218505859375,-16.082763671875,15.2587890625
4.272499900000001,0.3621230125427246,-0.871489405632019,9.841365814208984,10.3759765625,-4.94384765625,16.7236328125
4.2774999000000005,0.8301894664764404,-0.8744821548461914,9.725247383117676,5.828857421875,-3.265380859375,1.03759765625
4.2824999,1.2072762250900269,-0.2819172441959381,9.758167266845703,3.23486328125,1.983642578125,-0.8544921875
4.2874999,1.4814122915267944,-0.12330138683319092,9.782708168029785,-0.54931640625,5.18798828125,-15.228271484375
4.2924999,1.4209587574005127,0.06404489278793335,9.832986831665039,1.708984375,10.772705078125,-10.19287109375
4.2974999,1.478419542312622,-0.5476736426353455,9.784503936767578,5.06591796875,11.3525390625,-14.129638671875
4.3024999,1.427542805671692,-0.7416039705276489,9.787496566772461,11.688232421875,19.59228515625,-24.7802734375
4.3074999,1.0438719987869263,-0.629675030708313,9.813833236694336,10.589599609375,25.146484375,-17.08984375
4.312499900000001,-0.38546648621559143,-0.15263035893440247,9.853337287902832,-14.46533203125,-10.467529296875,2.197265625
4.3174999000000005,-0.38546648621559143,-0.15263035893440247,9.853337287902832,-14.46533203125,-10.467529296875,2.197265625
4.3224999,-0.9085995554924011,-1.095347285270691,9.64923095703125,-21.54541015625,-18.280029296875,-5.37109375
4.3274999,-1.0450690984725952,-1.6759412288665771,9.558850288391113,-0.67138671875,-3.11279296875,4.608154296875
4.3324999,-0.7835025191307068,-1.953070044517517,9.44871711730957,4.852294921875,-3.509521484375,19.378662109375
4.3374999,-0.4626794755458832,-1.7603367567062378,9.625288963317871,-3.326416015625,-14.58740234375,24.71923828125
4.3424999,-0.1472434103488922,-1.3126211166381836,9.628880500793457,-9.21630859375,-17.791748046875,14.22119140625
4.3474999,0.11133038252592087,-0.729034423828125,9.875483512878418,6.988525390625,-6.378173828125,18.585205078125
4.352499900000001,0.7469909191131592,-0.9516952037811279,9.788095474243164,8.72802734375,-2.777099609375,2.01416015625
4.3574999000000005,1.0097545385360718,-0.4836287498474121,9.819219589233398,6.072998046875,3.448486328125,0.30517578125
4.3624999,1.37906014919281,-0.23163901269435883,9.86231517791748,1.861572265625,5.79833984375,-10.31494140625
4.3674999,1.3311761617660522,0.0035913025494664907,9.877279281616211,0.946044921875,9.3994140625,-14.0380859375
4.3724999,-1.1049240827560425,-0.14484919607639313,9.736021041870117,-25.909423828125,-25.08544921875,-1.5869140625
4.3774999,-1.1049240827560425,-0.14484919607639313,9.736021041870117,-25.909423828125,-25.08544921875,-1.5869140625
4.3824999,-1.3425486087799072,-0.5841852426528931,9.652822494506836,-9.613037109375,-14.373779296875,1.77001953125
4.3874999,-1.0630255937576294,-1.4981716871261597,9.579200744628906,4.638671875,-2.288818359375,13.763427734375
4.3924999,-0.5746083855628967,-1.8740613460540771,9.767146110534668,-0.244140625,-9.552001953125,26.9775390625
4.397499900000001,-0.0520738884806633,-1.8519150018692017,9.656414031982422,-10.101318359375,-21.484375,16.021728515625
4.4024999000000005,0.090979665517807,-1.2096704244613647,9.785101890563965,0.18310546875,-12.0849609375,18.096923828125
4.4074999,0.6913257241249084,-1.161187767982483,9.81263542175293,9.490966796875,-3.11279296875,9.552001953125
4.4124999,0.9792284965515137,-0.8571242094039917,9.810839653015137,5.828857421875,0.885009765625,2.227783203125
4.4174999,1.4323312044143677,-0.1215057373046875,9.8599214553833,0.457763671875,7.14111328125,-15.777587890625
4.4224999,1.3922282457351685,0.002394201699644327,9.8599214553833,3.265380859375,12.8173828125,-8.9111328125
4.4274999,1.4598644971847534,-0.6554127335548401,9.853337287902832,7.415771484375,14.801025390625,-18.00537109375
4.4324999,1.4389152526855469,-0.5913678407669067,9.82999324798584,16.387939453125,27.069091796875,-24.71923828125
4.437499900000001,0.9289502501487732,-0.5524620413780212,9.832387924194336,11.505126953125,30.914306640625,-14.2822265625
4.4424999000000005,0.20111294090747833,-0.3034650683403015,9.75936508178711,-4.058837890625,11.3525390625,-3.23486328125
4.4474999,-0.9217676520347595,-0.25677812099456787,9.753378868103027,-23.49853515625,-20.965576171875,-0.640869140625
4.4524999,-1.4185645580291748,-1.0983400344848633,9.5624418258667,-23.956298828125,-25.69580078125,-7.049560546875
4.4574999,-1.4257471561431885,-1.7357962131500244,9.389460563659668,-1.556396484375,-7.14111328125,2.01416015625
4.4624999,-1.0283095836639404,-1.8860323429107666,9.495404243469238,2.74658203125,-5.462646484375,26.947021484375
4.4674999,-0.3405751883983612,-1.7782933712005615,9.493608474731445,-7.4462890625,-18.768310546875,22.491455078125
4.4724999,0.008978256024420261,-1.2156559228897095,9.66539192199707,-6.317138671875,-17.913818359375,16.265869140625
4.477499900000001,0.9349357485771179,-0.9840168952941895,9.793481826782227,7.965087890625,0.48828125,6.927490234375
4.4824999000000005,1.325789213180542,-0.5309142470359802,9.820416450500488,7.62939453125,5.7373046875,2.349853515625
4.4874999,1.5783774852752686,-0.25737667083740234,9.873687744140625,2.8076171875,8.087158203125,-11.29150390625
4.4924999,1.548449993133545,-0.06823474913835526,9.90241813659668,2.197265625,14.007568359375,-12.939453125
4.4974999,1.611896276473999,-0.3298012912273407,9.910199165344238,8.026123046875,19.1650390625,-12.969970703125
4.5024999,1.7549498081207275,-0.8984242081642151,9.974244117736816,18.00537109375,29.754638671875,-23.895263671875
4.5074999,1.6370353698730469,-0.5793967843055725,9.97484302520752,22.613525390625,45.074462890625,-25.0244140625
4.5124999,0.8876502513885498,-0.5919663906097412,9.99459457397461,5.523681640625,35.552978515625,-11.90185546875
4.5174999,-0.5464765429496765,0.3423708379268646,9.988011360168457,-11.8408203125,6.439208984375,-7.904052734375
4.522499900000001,-1.9195512533187866,-0.06823474913835526,9.541492462158203,-34.11865234375,-31.79931640625,-5.889892578125
4.5274999000000005,-2.513911724090576,-0.6057330369949341,9.455301284790039,-15.44189453125,-33.966064453125,-0.42724609375
4.5324999,-2.123656988143921,-1.2330138683319092,9.120711326599121,-2.349853515625,-17.791748046875,19.6533203125
4.5374999,0.645237386226654,-1.3210008144378662,9.708487510681152,3.173828125,-11.71875,19.8974609375
4.5424999,1.1851298809051514,-1.2779051065444946,9.790489196777344,9.429931640625,-1.52587890625,8.7890625
4.5474999,1.4873977899551392,-0.9026140570640564,9.905410766601562,10.43701171875,6.500244140625,2.716064453125
4.5524999,1.6765397787094116,-0.456095427274704,9.981427192687988,7.4462890625,9.613037109375,-6.988525390625
4.5574999,1.5538369417190552,-0.16340427100658417,10.033500671386719,3.90625,13.763427734375,-14.2822265625
4.562499900000001,1.6633716821670532,-0.6159083843231201,10.128670692443848,27.099609375,46.295166015625,-28.25927734375
4.5674999000000005,1.3012486696243286,-0.45190557837486267,10.178948402404785,17.9443359375,51.8798828125,-22.552490234375
4.5724999,0.5297171473503113,0.016759412363171577,10.072406768798828,-2.105712890625,30.792236328125,-10.101318359375
4.5774999,-1.37906014919281,0.44771572947502136,9.576208114624023,-27.557373046875,-9.674072265625,-10.589599609375
4.5824999,-2.631826162338257,-1.3730746507644653,8.801684379577637,-8.36181640625,-36.0107421875,27.64892578125
4.5874999,-1.1091139316558838,-1.5406688451766968,9.135675430297852,-10.55908203125,-25.5126953125,28.106689453125
4.5924999,0.3196259140968323,-1.4460978507995605,9.647436141967773,-6.256103515625,-15.869140625,20.660400390625
4.5974999,1.2874820232391357,-1.314416766166687,9.977835655212402,8.453369140625,-6.072998046875,17.852783203125
4.602499900000001,1.734000563621521,-1.304241418838501,10.06582260131836,11.138916015625,0.946044921875,12.0849609375
4.6074999000000005,1.8327614068984985,-0.8595184087753296,10.08078670501709,11.3525390625,6.378173828125,8.72802734375
4.6124999,1.7986440658569336,-0.3100491166114807,10.120290756225586,5.035400390625,7.781982421875,-6.866455078125
4.6174999,1.6531962156295776,0.016160860657691956,10.13286018371582,2.288818359375,13.702392578125,-16.082763671875
4.6224999,1.5861586332321167,0.03411737456917763,10.077195167541504,7.87353515625,22.15576171875,-11.199951171875
4.6274999,1.647210717201233,-0.42197805643081665,10.149619102478027,16.05224609375,31.55517578125,-22.27783203125
4.6324999,1.5646108388900757,-0.4812345504760742,10.119093894958496,23.529052734375,47.149658203125,-27.099609375
4.6374999,0.14065934717655182,0.5434837937355042,9.634865760803223,-3.570556640625,24.0478515625,-11.474609375
4.6424999,-1.6657658815383911,0.12330138683319092,9.395445823669434,-30.517578125,-16.357421875,-7.781982421875
4.647499900000001,-2.6856956481933594,-0.12928688526153564,8.846575736999512,-24.566650390625,-42.938232421875,-4.486083984375
4.6524999000000005,-3.0316579341888428,-1.2336124181747437,8.828619003295898,-10.7421875,-46.234130859375,8.148193359375
4.6574999,-2.2661118507385254,-1.8465280532836914,9.249998092651367,-7.843017578125,-34.423828125,29.96826171875
4.6624999,-0.6721721291542053,-1.974617838859558,9.600150108337402,-10.284423828125,-24.5361328125,27.16064453125
4.6674999,0.6428431272506714,-1.755548357963562,10.042478561401367,-2.5634765625,-12.3291015625,20.69091796875
4.6724999,1.535880446434021,-1.5490485429763794,10.168174743652344,9.94873046875,-3.265380859375,17.88330078125
4.6774999,1.8782511949539185,-1.3198037147521973,10.153210639953613,11.90185546875,1.861572265625,9.1552734375
4.6824999,1.911171555519104,-0.7823054194450378,10.106523513793945,11.90185546875,7.965087890625,0.823974609375
4.687499900000001,1.6974890232086182,-0.1999158412218094,10.110115051269531,6.4697265625,12.51220703125,-9.46044921875
4.6924999000000005,1.4526818990707397,0.13766659796237946,10.116100311279297,4.791259765625,17.059326171875,-13.031005859375
4.6974999,-2.786850690841675,-0.2585737705230713,8.858546257019043,-20.477294921875,-40.435791015625,-4.8828125
4.7024999,-3.404554843902588,-1.3431471586227417,8.76337718963623,-10.009765625,-50.506591796875,11.138916015625
4.7074999,-2.765901565551758,-1.8255788087844849,9.161413192749023,-11.53564453125,-45.2880859375,28.961181640625
4.7124999,-1.1785458326339722,-1.7962498664855957,9.601945877075195,-14.34326171875,-34.48486328125,25.177001953125
4.7174999,0.4100070297718048,-1.5610195398330688,10.10053825378418,-5.584716796875,-14.251708984375,17.76123046875
4.7224999,1.3868412971496582,0.12030863761901855,10.052654266357422,7.598876953125,21.78955078125,-10.7421875
4.727499900000001,1.403002142906189,-0.2346317619085312,10.10173511505127,13.702392578125,29.96826171875,-20.8740234375
4.7324999000000005,1.390432596206665,-0.31364041566848755,10.128670692443848,20.660400390625,44.3115234375,-25.177001953125
4.7374999,1.0875661373138428,-0.24181437492370605,10.239401817321777,11.444091796875,49.01123046875,-19.47021484375
4.7424999,0.5512649416923523,0.09876082092523575,10.040084838867188,-0.48828125,36.56005859375,-12.63427734375
4.7474999,-1.0660183429718018,0.1999158412218094,9.650428771972656,-22.308349609375,5.706787109375,-7.843017578125
4.7524999,-2.295440912246704,-0.314238965511322,9.033921241760254,-21.636962890625,-27.64892578125,-6.591796875
4.7574999,-3.3207578659057617,-0.8900445103645325,8.559270858764648,-10.986328125,-49.102783203125,1.800537109375
4.7624999,-3.24953031539917,-1.3503297567367554,8.577826499938965,-13.73291015625,-55.816650390625,26.30615234375
4.7674999,2.1763293743133545,-0.7451952695846558,10.287285804748535,11.29150390625,12.63427734375,1.220703125
4.772499900000001,1.7489643096923828,-0.22385786473751068,10.229227066040039,7.232666015625,15.838623046875,-11.138916015625
4.7774999000000005,1.391629695892334,0.10714052617549896,10.207080841064453,8.087158203125,23.98681640625,-12.8173828125
4.7824999,1.3539210557937622,-0.04429273307323456,10.153809547424316,13.12255859375,31.55517578125,-14.892578125
4.7874999,1.4191631078720093,-0.23104046285152435,10.262146949768066,20.99609375,45.074462890625,-24.871826171875
4.7924999,1.280897855758667,-0.10773907601833344,10.311227798461914,17.181396484375,56.671142578125,-21.514892578125
4.7974999,0.8415619134902954,-0.13826514780521393,10.268132209777832,1.03759765625,48.27880859375,-15.960693359375
4.8024999,-4.173692226409912,-1.1348515748977661,8.022970199584961,-10.31494140625,-63.17138671875,21.1181640625
4.8074999,-4.173692226409912,-1.1348515748977661,8.022970199584961,-10.31494140625,-63.17138671875,21.1181640625
4.812499900000001,-3.6547489166259766,-1.2952631711959839,8.309077262878418,-18.157958984375,-76.171875,29.632568359375
4.8174999000000005,-1.890222191810608,-1.2120646238327026,8.951920509338379,-22.613525390625,-63.201904296875,25.45166015625
4.8224999,0.3166331648826599,-1.1186907291412354,9.961075782775879,-4.82177734375,-22.674560546875,21.240234375
4.8274999,2.293046712875366,-1.2563573122024536,10.497377395629883,9.33837890625,8.148193359375,14.923095703125
4.8324999,3.2327709197998047,-1.2407950162887573,10.782885551452637,13.458251953125,13.031005859375,12.0849609375
4.8374999,3.0813376903533936,-0.9864110946655273,10.644021987915039,13.031005859375,11.23046875,5.767822265625
4.8424999,2.2679076194763184,-0.4124012291431427,10.418967247009277,7.8125,10.009765625,-3.7841796875
4.8474999,1.4832079410552979,-0.02693476900458336,10.216657638549805,4.33349609375,12.451171875,-13.3056640625
4.852499900000001,1.0007762908935547,0.16998831927776337,10.05923843383789,6.65283203125,19.622802734375,-11.23046875
4.8574999000000005,0.8307880163192749,-0.1322796493768692,10.183736801147461,9.033203125,47.393798828125,-18.310546875
4.8624999,0.8307880163192749,-0.1322796493768692,10.183736801147461,9.033203125,47.393798828125,-18.310546875
4.8674999,0.34416648745536804,0.5093663930892944,9.7791166305542,-1.8310546875,34.66796875,-13.031005859375
4.8724999,-1.1701661348342896,0.23044191300868988,9.519346237182617,-21.148681640625,3.7841796875,-9.82666015625
4.8774999,-2.3948001861572266,0.05925649031996727,8.7484130859375,-17.364501953125,-29.1748046875,-7.62939453125
4.8824999,2.513911724090576,-1.4963760375976562,10.505158424377441,11.65771484375,8.30078125,15.045166015625
4.8874999,2.513911724090576,-1.4963760375976562,10.505158424377441,11.65771484375,8.30078125,15.045166015625
4.8924999,2.6455929279327393,-1.3210008144378662,10.433931350708008,13.85498046875,8.48388671875,13.519287109375
4.897499900000001,1.6382324695587158,-0.272938996553421,10.11669921875,5.645751953125,8.575439453125,-6.16455078125
4.9024999000000005,1.337161660194397,-0.0005985504249110818,10.052654266357422,5.279541015625,17.059326171875,-15.167236328125
4.9074999,1.2976573705673218,0.026336219161748886,10.003573417663574,11.1083984375,27.130126953125,-11.810302734375
4.9124999,1.4024035930633545,-0.2621650993824005,10.078392028808594,17.63916015625,35.980224609375,-21.6064453125
4.9174999,1.2449848651885986,-0.07781155407428741,10.157999038696289,17.39501953125,45.806884765625,-25.909423828125
4.9224999,0.74040687084198,-0.16340427100658417,10.102932929992676,3.173828125,40.557861328125,-16.78466796875
4.9274999,-0.40880993008613586,0.4770447015762329,9.880870819091797,-8.819580078125,20.843505859375,-14.2822265625
4.9324999,-1.8363527059555054,-0.02274491637945175,9.308655738830566,-24.23095703125,-15.045166015625,-11.3525390625
4.937499900000001,-2.9652187824249268,-0.2968810200691223,8.797493934631348,-13.458251953125,-38.02490234375,-5.79833984375
4.9424999000000005,-3.4290952682495117,-0.8301894664764404,8.520963668823242,-12.664794921875,-52.825927734375,20.5078125
4.9474999,-2.715024709701538,-1.1994950771331787,8.796297073364258,-18.341064453125,-58.04443359375,26.458740234375
4.9524999,-1.1641805171966553,-1.2042834758758545,9.366715431213379,-17.2119140625,-44.525146484375,24.688720703125
4.9574999,1.9794062376022339,-1.370081901550293,10.329184532165527,8.941650390625,4.730224609375,14.068603515625
4.9624999,1.9794062376022339,-1.370081901550293,10.329184532165527,8.941650390625,4.730224609375,14.068603515625
4.9674999,2.5689783096313477,-1.3299790620803833,10.405200958251953,12.39013671875,5.523681640625,11.627197265625
4.9724999,2.366668462753296,-1.0444705486297607,10.304045677185059,11.3525390625,6.4697265625,2.960205078125
4.977499900000001,1.8393454551696777,-0.5434837937355042,10.203489303588867,7.781982421875,9.033203125,-5.035400390625
4.9824999000000005,1.3778630495071411,-0.16819266974925995,10.120290756225586,5.79833984375,14.7705078125,-12.6953125
4.9874999,1.1342530250549316,-0.0011971008498221636,10.051457405090332,8.30078125,22.003173828125,-11.53564453125
4.9924999,1.1252747774124146,-0.2041056901216507,10.044873237609863,13.61083984375,28.411865234375,-17.669677734375
4.9974999,1.1318588256835938,-0.17717093229293823,10.094552993774414,19.134521484375,40.283203125,-26.458740234375
5.0024999,0.8212111592292786,-0.0347159244120121,10.120290756225586,10.68115234375,43.487548828125,-21.759033203125
5.0074999,0.24600422382354736,0.4866214990615845,9.645041465759277,-2.471923828125,28.106689453125,-13.946533203125
5.0124999,-1.326986312866211,0.32680854201316833,9.435548782348633,-23.590087890625,-4.730224609375,-9.58251953125
5.0174999,-2.470816135406494,-0.016759412363171577,8.741230010986328,-22.003173828125,-36.07177734375,-9.58251953125
5.022499900000001,-3.0137014389038086,-1.3401544094085693,8.950722694396973,-16.510009765625,-55.938720703125,27.008056640625
5.0274999000000005,-1.6525976657867432,-1.53707754611969,9.439140319824219,-18.00537109375,-45.562744140625,25.543212890625
5.0324999,0.11252748221158981,-1.4778209924697876,9.99100399017334,-8.392333984375,-22.125244140625,20.99609375
5.0374999,1.478419542312622,-1.501164436340332,10.308235168457031,5.706787109375,-2.716064453125,16.448974609375
5.0424999,2.167351007461548,-1.426345705986023,10.334571838378906,12.054443359375,3.35693359375,16.937255859375
5.0474999,2.1254525184631348,-1.1665748357772827,10.217255592346191,11.71875,3.936767578125,13.916015625
5.0524999,1.7854759693145752,-0.6290764808654785,10.109517097473145,8.270263671875,5.096435546875,2.777099609375
5.0574999,1.5089455842971802,-0.21368250250816345,10.038289070129395,4.5166015625,9.185791015625,-11.29150390625
5.062499900000001,1.3287819623947144,0.011372458189725876,9.985616683959961,6.134033203125,18.341064453125,-12.39013671875
5.0674999000000005,1.357512354850769,-0.10594342648983002,9.958083152770996,11.53564453125,23.193359375,-12.939453125
5.0724999,1.358709454536438,-0.32620999217033386,9.99339771270752,16.41845703125,31.036376953125,-23.834228515625
5.0774999,0.45489832758903503,-0.16340427100658417,9.926959037780762,1.007080078125,27.740478515625,-15.869140625
5.0824999,-0.9068039059638977,0.44831427931785583,9.750386238098145,-16.815185546875,1.068115234375,-9.002685546875
5.0874999,-2.1326351165771484,-0.26815059781074524,9.422380447387695,-27.7099609375,-33.905029296875,-7.965087890625
5.0924999,-2.759317398071289,-0.4902127981185913,9.191938400268555,-16.9677734375,-43.487548828125,-3.96728515625
5.0974999,-2.4456770420074463,-1.1222820281982422,9.238625526428223,-11.322021484375,-37.17041015625,22.15576171875
5.102499900000001,-1.237802267074585,-1.4718354940414429,9.438541412353516,-10.528564453125,-28.594970703125,26.336669921875
5.1074999000000005,0.10175357013940811,-1.4484920501708984,9.734225273132324,-7.38525390625,-20.660400390625,23.4375
5.1124999,1.0875661373138428,-1.4167689085006714,9.970054626464844,4.5166015625,-10.3759765625,19.500732421875
5.1174999,1.6053122282028198,-1.348534107208252,10.017339706420898,10.43701171875,-1.373291015625,15.44189453125
5.1224999,1.668160080909729,-0.6745663285255432,10.01075553894043,8.880615234375,6.65283203125,0.1220703125
5.1274999,1.5490485429763794,-0.30047231912612915,10.002376556396484,6.2255859375,10.6201171875,-12.359619140625
5.1324999,1.3952209949493408,-0.13347674906253815,9.982025146484375,10.101318359375,22.216796875,-13.427734375
5.1374999,1.4036006927490234,-0.3932476341724396,10.04188060760498,16.05224609375,31.097412109375,-25.634765625
5.1424999,1.1899182796478271,-0.27234044671058655,9.963470458984375,17.547607421875,38.726806640625,-26.18408203125
5.147499900000001,0.6308721303939819,-0.12928688526153564,9.850942611694336,2.5634765625,22.918701171875,-25.848388671875
5.1524999000000005,-0.8164227604866028,0.3034650683403015,9.749788284301758,-15.289306640625,-1.5869140625,-18.646240234375
5.1574999,-2.008136749267578,-0.12629413604736328,9.279327392578125,-35.09521484375,-33.935546875,-12.939453125
5.1624999,-2.7563247680664062,-0.7224503755569458,9.147047996520996,-17.059326171875,-39.61181640625,-1.556396484375
5.1674999,-2.448669672012329,-1.5526398420333862,9.027935981750488,-6.622314453125,-31.79931640625,19.22607421875
5.1724999,-1.3503297567367554,-1.9662381410598755,9.242815971374512,-5.279541015625,-23.49853515625,26.580810546875
5.1774999,-0.15143325924873352,-1.886630892753601,9.580398559570312,-6.7138671875,-20.751953125,22.369384765625
5.1824999,0.6129156351089478,-1.501164436340332,9.919178009033203,2.716064453125,-15.19775390625,19.287109375
5.187499900000001,1.0534487962722778,-1.282094955444336,10.055048942565918,9.33837890625,-8.514404296875,18.310546875
5.1924999000000005,1.6968904733657837,0.06763619929552078,9.90361499786377,5.4931640625,19.744873046875,-13.48876953125
5.1974999,1.713649868965149,-0.4866214990615845,9.90241813659668,15.44189453125,24.7802734375,-21.42333984375
5.2024999,1.4472949504852295,-0.34416648745536804,9.815628051757812,15.93017578125,29.998779296875,-28.839111328125
