# Time (seconds),Accel_X,Accel_Y,Accel_Z,Gyro_X,Gyro_Y,Gyro_Z
0.0024999,1.270722508430481,-0.6476315855979919,9.927556991577148,9.002685546875,28.38134765625,-22.308349609375
0.0074999,1.270722508430481,-0.6476315855979919,9.927556991577148,9.002685546875,28.38134765625,-22.308349609375
0.012499900000000001,0.5327098965644836,0.1885433793067932,9.876082420349121,-2.838134765625,8.148193359375,-19.927978515625
0.0174999,-1.4915876388549805,0.243011474609375,9.725846290588379,-8.087158203125,-14.83154296875,10.7421875
0.0224999,-1.7729063034057617,-0.608127236366272,9.539097785949707,-22.0947265625,-32.470703125,26.2451171875
0.0274999,-1.5831658840179443,-1.6699557304382324,9.223063468933105,-31.55517578125,-36.163330078125,21.759033203125
0.0324999,-0.7697358727455139,-2.2655134201049805,9.369708061218262,2.50244140625,-10.284423828125,27.313232421875
0.0374999,0.04489128291606903,-2.716820478439331,9.194931983947754,9.521484375,-3.96728515625,22.674560546875
0.0424999,1.0169371366500854,-2.1152772903442383,9.48882007598877,2.13623046875,-5.401611328125,10.009765625
0.0474999,1.5963339805603027,-0.7032967209815979,9.845556259155273,3.692626953125,2.044677734375,2.227783203125
0.0524999,1.877652645111084,-0.6278793811798096,9.886856079101562,-1.52587890625,7.476806640625,-22.76611328125
0.0574999,1.9674352407455444,-0.40880993008613586,9.791088104248047,10.284423828125,19.317626953125,-15.56396484375
0.0624999,2.1074960231781006,-0.9522937536239624,9.95329475402832,25.69580078125,30.792236328125,-19.53125
0.0674999,1.7028759717941284,-0.6841431260108948,9.816825866699219,21.331787109375,36.041259765625,-27.52685546875
0.0724999,1.0402805805206299,-0.43514615297317505,9.871891975402832,5.0048828125,23.834228515625,-19.378662109375
0.0774999,-0.9487023949623108,0.2717418968677521,9.683348655700684,-12.908935546875,-18.98193359375,-21.759033203125
0.0824999,-1.8255788087844849,0.9870096445083618,9.813833236694336,-8.636474609375,-17.51708984375,21.087646484375
0.0874999,-1.8483237028121948,-0.6518214344978333,9.676764488220215,-30.33447265625,-38.970947265625,27.435302734375
0.0924999,-1.4107834100723267,-1.1743559837341309,9.48762321472168,-21.636962890625,-28.167724609375,19.683837890625
0.0974999,-0.5261258482933044,-2.081159830093384,9.409811019897461,10.8642578125,-5.889892578125,30.76171875
0.1024999,0.49799394607543945,-3.0538041591644287,9.154230117797852,4.425048828125,-6.16455078125,16.90673828125
0.1074999,1.3317747116088867,-1.9662381410598755,9.319430351257324,2.777099609375,-3.326416015625,10.528564453125
0.1124999,1.7345991134643555,-0.9564836025238037,9.537302017211914,1.617431640625,3.631591796875,-4.57763671875
0.1174999,1.956661343574524,-1.2198457717895508,9.612719535827637,-0.030517578125,10.040283203125,-26.092529296875
0.1224999,2.100313425064087,-0.7775170207023621,9.715071678161621,16.387939453125,22.52197265625,-12.8173828125
0.1274999,2.1547815799713135,-1.1426327228546143,9.707290649414062,26.67236328125,34.149169921875,-23.529052734375
0.1324999,1.4688427448272705,-0.7098808288574219,9.9185791015625,12.14599609375,29.96826171875,-25.726318359375
0.1374999,-0.3363853394985199,0.5147533416748047,9.967659950256348,-10.162353515625,-11.71875,-26.519775390625
0.1424999,-1.423951506614685,0.07122749835252762,9.742006301879883,-8.72802734375,-14.678955078125,1.0986328125
0.1474999,-1.8453309535980225,-0.4118026793003082,9.601346969604492,-16.11328125,-26.0009765625,27.679443359375
0.1524999,-1.5771803855895996,-1.713649868965149,9.18355941772461,-32.65380859375,-36.895751953125,22.491455078125
0.1574999,-0.921169102191925,-2.3798365592956543,9.335591316223145,-4.5166015625,-14.2822265625,24.505615234375
0.1624999,-0.043095629662275314,-2.7898435592651367,9.133280754089355,11.29150390625,-4.94384765625,28.13720703125
0.1674999,0.8684966564178467,-2.5546131134033203,9.394248962402344,2.288818359375,-6.439208984375,11.16943359375
0.1724999,1.3646949529647827,-1.0845733880996704,9.73542308807373,4.2724609375,1.3427734375,10.3759765625
0.17749990000000002,1.7106571197509766,-0.7439981698989868,9.847352027893066,-2.227783203125,4.486083984375,-19.439697265625
0.1824999,1.875258445739746,-0.5638344883918762,9.768342971801758,7.4462890625,16.387939453125,-20.81298828125
0.1874999,2.0823569297790527,-0.8888474106788635,10.004171371459961,23.773193359375,28.86962890625,-15.350341796875
0.1924999,1.8399440050125122,-0.7236474752426147,9.806650161743164,22.64404296875,35.614013671875,-28.1982421875
0.1974999,-1.679532527923584,0.6775590777397156,9.774927139282227,-7.476806640625,-14.984130859375,20.172119140625
0.2024999,-1.742978811264038,-0.8780734539031982,9.714473724365234,-28.106689453125,-36.346435546875,26.885986328125
0.20749990000000001,-1.4113819599151611,-1.6843209266662598,9.337387084960938,-24.566650390625,-28.656005859375,20.20263671875
0.2124999,-0.6021417379379272,-2.451063871383667,9.427767753601074,10.101318359375,-6.591796875,31.494140625
0.2174999,0.35733461380004883,-3.2525229454040527,9.078812599182129,5.31005859375,-7.14111328125,18.6767578125
0.2224999,1.1659762859344482,-2.0859482288360596,9.311050415039062,3.41796875,-3.021240234375,13.24462890625
0.2274999,1.6011223793029785,-0.9295487999916077,9.660603523254395,2.044677734375,2.3193359375,2.532958984375
0.2324999,1.8962076902389526,-1.136048674583435,9.70429801940918,-1.739501953125,7.50732421875,-28.38134765625
0.2374999,2.0596120357513428,-0.7260416746139526,9.801262855529785,15.411376953125,21.759033203125,-14.22119140625
0.2424999,2.1912930011749268,-1.113303780555725,9.756970405578613,27.4658203125,33.966064453125,-21.759033203125
0.2474999,0.8846575021743774,-0.04189852997660637,9.846753120422363,-1.983642578125,12.26806640625,-19.4091796875
0.2524999,-0.16400282084941864,0.5590460896492004,9.90361499786377,-9.94873046875,-10.43701171875,-28.4423828125
0.2574999,-1.303044319152832,0.10295066982507706,9.70549488067627,-8.056640625,-13.336181640625,0.67138671875
0.2624999,-1.6861165761947632,-0.36092591285705566,9.563039779663086,-15.106201171875,-24.47509765625,28.1982421875
0.2674999,-1.4903905391693115,-1.6765397787094116,9.175179481506348,-32.2265625,-35.675048828125,22.52197265625
0.2724999,-0.8637082576751709,-2.313995838165283,9.331999778747559,-4.364013671875,-14.373779296875,24.7802734375
0.2774999,-0.055665191262960434,-2.719813108444214,9.12729549407959,11.23046875,-5.9814453125,29.541015625
0.2824999,0.8038532137870789,-2.4815900325775146,9.421183586120605,2.410888671875,-6.317138671875,12.26806640625
0.28749990000000003,1.2659341096878052,-1.0211269855499268,9.736021041870117,4.608154296875,0.91552734375,15.68603515625
0.2924999,1.6310498714447021,-0.7308300733566284,9.821015357971191,-3.021240234375,2.960205078125,-17.88330078125
0.2974999,1.8100165128707886,-0.5380968451499939,9.746794700622559,7.110595703125,14.892578125,-22.674560546875
0.3024999,2.0248961448669434,-0.8637082576751709,9.939528465270996,23.37646484375,27.557373046875,-14.556884765625
0.3074999,-0.6769605278968811,0.2106897532939911,9.803058624267578,-9.307861328125,-12.908935546875,-16.998291015625
0.3124999,-0.6769605278968811,0.2106897532939911,9.803058624267578,-9.307861328125,-12.908935546875,-16.998291015625
0.3174999,-1.5442601442337036,0.8391677141189575,9.923367500305176,-6.072998046875,-13.18359375,22.857666015625
0.3224999,-1.3281834125518799,-1.2497732639312744,9.320028305053711,-20.751953125,-24.932861328125,20.904541015625
0.3274999,-1.3281834125518799,-1.2497732639312744,9.320028305053711,-20.751953125,-24.932861328125,20.904541015625
0.3324999,-0.5680243372917175,-2.030881643295288,9.168595314025879,11.810302734375,-5.9814453125,32.958984375
0.3374999,0.35733461380004883,-2.9957449436187744,8.79809284210205,4.21142578125,-7.50732421875,17.39501953125
0.3424999,1.1300631761550903,-1.8579005002975464,9.094375610351562,3.7841796875,-1.861572265625,16.387939453125
0.34749990000000003,1.5933412313461304,-0.9127894043922424,9.364919662475586,0.8544921875,1.678466796875,1.007080078125
0.35249990000000003,1.8596961498260498,-1.2012907266616821,9.546280860900879,-0.3662109375,8.60595703125,-28.961181640625
0.3574999,-1.5364789962768555,-0.7715315222740173,9.570821762084961,-17.974853515625,-26.885986328125,27.435302734375
0.3624999,-1.4742296934127808,-1.9159599542617798,9.130288124084473,-29.876708984375,-32.65380859375,21.728515625
0.3674999,-0.8505401611328125,-2.4905683994293213,9.127894401550293,1.861572265625,-10.43701171875,28.1982421875
0.3724999,-0.1759738177061081,-2.872443437576294,8.829216957092285,8.97216796875,-6.9580078125,27.008056640625
0.3774999,0.7398083209991455,-2.139817714691162,9.214683532714844,2.593994140625,-5.126953125,13.946533203125
0.3824999,1.304241418838501,-0.6685808300971985,9.621698379516602,3.875732421875,0.640869140625,15.68603515625
0.3874999,2.0889410972595215,-0.8888474106788635,9.888651847839355,24.90234375,29.632568359375,-16.632080078125
0.3924999,1.7399860620498657,-0.5997475385665894,9.828198432922363,15.777587890625,30.09033203125,-29.937744140625
0.3974999,1.0336965322494507,-0.3100491166114807,9.934141159057617,-0.946044921875,14.34326171875,-23.773193359375
0.4024999,-0.821809709072113,0.0736217051744461,9.78869342803955,-7.4462890625,-10.68115234375,-8.48388671875
0.4074999,-1.4347254037857056,0.2693476974964142,9.682151794433594,-8.72802734375,-15.93017578125,27.252197265625
0.41249990000000003,-1.4574702978134155,-1.1288660764694214,9.264962196350098,-30.517578125,-34.393310546875,23.62060546875
0.41749990000000003,-1.0546458959579468,-1.5622166395187378,9.194931983947754,-11.932373046875,-17.76123046875,22.705078125
0.4224999,-0.4034229815006256,-2.1122844219207764,8.948328971862793,12.054443359375,-6.561279296875,34.24072265625
0.4274999,0.49619829654693604,-2.522890090942383,9.03870964050293,2.38037109375,-7.415771484375,14.678955078125
0.4324999,1.072602391242981,-1.278503656387329,9.378087997436523,5.035400390625,-0.244140625,19.71435546875
0.4374999,1.9105730056762695,-0.8804676532745361,9.761159896850586,22.94921875,32.379150390625,-26.824951171875
0.4424999,1.2725181579589844,-0.5895721912384033,9.93593692779541,4.119873046875,21.240234375,-26.67236328125
0.4474999,0.5662286877632141,0.3274070918560028,9.913790702819824,-7.171630859375,0.9765625,-26.30615234375
0.4524999,-0.45010992884635925,0.292691171169281,9.831789016723633,-9.09423828125,-11.077880859375,-21.91162109375
0.4574999,-1.347337007522583,0.7493851184844971,9.954492568969727,-4.547119140625,-10.19287109375,20.32470703125
0.4624999,-1.490989089012146,-0.6530185341835022,9.882067680358887,-25.390625,-31.158447265625,25.81787109375
0.4674999,-1.2761094570159912,-1.2360066175460815,9.476848602294922,-22.674560546875,-24.658203125,20.263671875
0.47249990000000003,-0.6775590777397156,-1.9177556037902832,9.52473258972168,9.94873046875,-7.50732421875,34.85107421875
0.47749990000000003,0.16998831927776337,-2.87064790725708,9.029731750488281,4.0283203125,-9.09423828125,21.148681640625
0.4824999,0.9169792532920837,-1.88782799243927,9.255983352661133,4.82177734375,-2.25830078125,19.95849609375
0.4874999,1.7633295059204102,-1.1959037780761719,9.677363395690918,-2.86865234375,6.256103515625,-29.84619140625
0.4924999,1.9865888357162476,-0.8224082589149475,9.791686058044434,14.16015625,20.355224609375,-15.68603515625
0.4974999,2.1481974124908447,-1.0869675874710083,9.77791976928711,25.909423828125,31.18896484375,-22.216796875
0.5024999,1.5233107805252075,-0.6841431260108948,9.867103576660156,10.162353515625,25.69580078125,-29.937744140625
0.5074999,0.8930372595787048,-0.011372458189725876,9.916783332824707,-5.0048828125,7.232666015625,-24.71923828125
0.5124999,-0.090979665517807,0.4225766062736511,9.953893661499023,-9.307861328125,-8.4228515625,-28.045654296875
0.5174999,-1.1234791278839111,0.31543606519699097,9.749189376831055,-4.2724609375,-8.72802734375,8.697509765625
0.5224999,-1.4526818990707397,-0.47884035110473633,9.610923767089844,-17.791748046875,-24.59716796875,27.9541015625
0.5274999,-1.416170358657837,-1.4730325937271118,9.048286437988281,-28.472900390625,-28.472900390625,20.69091796875
0.5324999,-0.872686505317688,-1.8680758476257324,9.322422981262207,2.44140625,-10.040283203125,30.3955078125
0.5374999,-0.20231004059314728,-2.49834942817688,8.974066734313965,6.77490234375,-9.58251953125,29.11376953125
0.5424999,0.6637924313545227,-1.9422961473464966,9.357138633728027,3.387451171875,-4.82177734375,18.402099609375
0.5474999,1.8842366933822632,-0.6117185354232788,9.679757118225098,6.77490234375,15.31982421875,-22.5830078125
0.5524999,2.0392613410949707,-0.9900023937225342,9.8970308303833,23.3154296875,27.7099609375,-17.9443359375
0.5574999,1.7130513191223145,-0.7344213724136353,9.773131370544434,17.364501953125,29.23583984375,-30.1513671875
0.5624999,-1.2282254695892334,-0.08319851011037827,9.683348655700684,-14.22119140625,-19.744873046875,28.411865234375
0.5674999000000001,-1.1162965297698975,-1.0594342947006226,9.355941772460938,-32.71484375,-27.496337890625,21.514892578125
0.5724999000000001,-0.849941611289978,-1.4107834100723267,9.263166427612305,-8.209228515625,-13.97705078125,27.984619140625
0.5774999000000001,-0.17417816817760468,-1.9375077486038208,8.85435676574707,7.38525390625,-13.824462890625,40.252685546875
0.5824999,0.4866214990615845,-2.0404584407806396,9.011775016784668,4.45556640625,-7.659912109375,27.099609375
0.5874999,1.4024035930633545,-0.49380409717559814,9.594164848327637,-1.068115234375,0.457763671875,-8.1787109375
0.5924999,1.5598224401474,-0.6919242739677429,9.684545516967773,-2.74658203125,8.36181640625,-31.18896484375
0.5974999,1.6178817749023438,-0.812831461429596,9.840767860412598,15.716552734375,21.42333984375,-17.364501953125
0.6024999,1.7058687210083008,-0.8756792545318604,9.740211486816406,25.81787109375,28.6865234375,-30.6396484375
0.6074999,1.0492589473724365,-0.7852981686592102,9.84495735168457,4.119873046875,18.280029296875,-29.083251953125
0.6124999,0.48303020000457764,0,9.883264541625977,-9.735107421875,1.03759765625,-24.169921875
0.6174999,-0.3280056416988373,0.12868833541870117,9.909601211547852,-7.38525390625,-8.1787109375,-16.021728515625
0.6224999,-1.0205284357070923,0.20051439106464386,9.807249069213867,-9.6435546875,-15.899658203125,24.2919921875
0.6274999,-1.114500880241394,-0.9475052952766418,9.485228538513184,-31.524658203125,-24.23095703125,22.705078125
0.6324999,-0.8672995567321777,-1.0552444458007812,9.333795547485352,-15.045166015625,-15.899658203125,23.13232421875
0.6374999,-0.2992752194404602,-1.8034324645996094,9.21827507019043,6.2255859375,-14.83154296875,43.548583984375
0.6424999,0.40222588181495667,-2.1057004928588867,9.047089576721191,3.23486328125,-11.444091796875,31.79931640625
0.6474999,1.3868412971496582,-0.7721300721168518,9.568427085876465,3.021240234375,-0.3662109375,7.99560546875
0.6524999,1.599326729774475,-0.6111199855804443,9.727043151855469,-6.04248046875,4.608154296875,-33.3251953125
0.6574999,1.512536883354187,-0.7170634269714355,9.715670585632324,10.284423828125,18.12744140625,-19.95849609375
0.6624999,1.7519570589065552,-0.8307880163192749,9.778518676757812,27.130126953125,27.984619140625,-28.13720703125
0.6674999,1.2419921159744263,-0.761954665184021,9.771934509277344,10.955810546875,21.942138671875,-34.85107421875
0.6724999,0.67815762758255,-0.2753331959247589,9.931148529052734,-7.62939453125,6.195068359375,-25.32958984375
0.6774999,-0.04728548228740692,0.0454898327589035,9.983222961425781,-9.1552734375,-5.584716796875,-22.796630859375
0.6824999,-0.7811083197593689,0.5979518890380859,10.005967140197754,-5.157470703125,-11.077880859375,15.13671875
0.6874999,-1.1773487329483032,-0.7182605266571045,9.715670585632324,-26.79443359375,-22.39990234375,26.67236328125
0.6924999000000001,-0.9373299479484558,-0.8343793153762817,9.445724487304688,-21.148681640625,-17.15087890625,19.22607421875
0.6974999000000001,-0.5614402890205383,-1.7310078144073486,9.457097053527832,5.615234375,-13.36669921875,41.107177734375
0.7024999000000001,0.13706804811954498,-2.3750481605529785,8.989029884338379,2.655029296875,-14.190673828125,31.31103515625
0.7074999,1.2539631128311157,-1.0043675899505615,9.455899238586426,7.32421875,1.0986328125,14.862060546875
0.7124999,1.6172832250595093,-0.6117185354232788,9.733028411865234,-5.55419921875,2.899169921875,-31.1279296875
0.7174999,1.5741876363754272,-0.6165069341659546,9.6803560256958,6.378173828125,16.021728515625,-20.69091796875
0.7224999,0.8924387097358704,-0.44831427931785583,10.014945983886719,-5.06591796875,9.765625,-28.564453125
0.7274999,0.11552023142576218,0.08140286058187485,9.97065258026123,-9.979248046875,-4.425048828125,-27.16064453125
0.7324999,-0.7960720658302307,0.8343793153762817,10.251373291015625,-3.570556640625,-8.4228515625,4.913330078125
0.7374999,-1.2737152576446533,-0.14484919607639313,9.936535835266113,-21.697998046875,-21.97265625,28.900146484375
0.7424999,-1.1061211824417114,-0.5422866940498352,9.567230224609375,-26.519775390625,-20.477294921875,17.578125
0.7474999,-0.768538773059845,-1.337161660194397,9.5624418258667,2.532958984375,-12.6953125,36.224365234375
0.7524999,0.5943605899810791,-2.165555477142334,9.09377670288086,11.138916015625,-2.99072265625,30.975341796875
0.7574999,1.0833762884140015,-1.2743138074874878,9.247604370117188,9.8876953125,0.79345703125,24.47509765625
0.7624999,1.5550340414047241,-0.7320271730422974,9.640253067016602,-4.852294921875,-0.030517578125,-23.529052734375
0.7674999,1.6250643730163574,-0.7356184720993042,9.62947940826416,2.50244140625,12.3291015625,-25.146484375
0.7724999,1.8076223134994507,-0.910993754863739,9.982025146484375,21.66748046875,25.482177734375,-20.56884765625
0.7774999,1.6400281190872192,-0.7709329724311829,9.783905029296875,20.172119140625,26.123046875,-35.125732421875
0.7824999,0.9714473485946655,-0.6733692288398743,10.016741752624512,-2.777099609375,12.20703125,-30.426025390625
0.7874999,0.3489548861980438,0.12988543510437012,9.973047256469727,-9.857177734375,-2.0751953125,-27.191162109375
0.7924999,-0.536899745464325,0.6853402256965637,9.952696800231934,-3.631591796875,-6.439208984375,-3.47900390625
0.7974999,-1.0785878896713257,0.1843535304069519,9.942521095275879,-14.495849609375,-17.63916015625,27.801513671875
0.8024999,-0.9702502489089966,-0.4776432514190674,9.460687637329102,-28.472900390625,-21.6064453125,18.280029296875
0.8074999,-0.7463923692703247,-1.0923545360565186,9.673771858215332,-1.983642578125,-12.39013671875,30.059814453125
0.8124999,0.4411316514015198,-2.190694570541382,9.264363288879395,7.4462890625,-5.950927734375,27.801513671875
0.8174999000000001,0.861314058303833,-1.370081901550293,9.346364974975586,10.955810546875,0.79345703125,27.740478515625
0.8224999000000001,1.4077905416488647,-0.7152677774429321,9.592369079589844,-2.8076171875,-0.42724609375,-16.815185546875
0.8274999000000001,1.5741876363754272,-0.8403648138046265,9.600749015808105,-0.244140625,9.94873046875,-28.01513671875
0.8324999000000001,1.7974469661712646,-0.8236053586006165,9.869498252868652,18.524169921875,24.017333984375,-17.7001953125
0.8374999,1.7549498081207275,-0.8206126093864441,9.726444244384766,22.15576171875,27.435302734375,-32.684326171875
0.8424999,1.1450269222259521,-0.729034423828125,9.967659950256348,-0.54931640625,14.434814453125,-33.203125
0.8474999,0.5392939448356628,0.12988543510437012,9.99100399017334,-9.185791015625,0.152587890625,-29.144287109375
0.8524999,-0.26336219906806946,0.1215057373046875,9.943717956542969,-5.157470703125,-5.55419921875,-12.237548828125
0.8574999,-0.9457096457481384,0.04668693244457245,9.967659950256348,-9.33837890625,-13.824462890625,25.604248046875
0.8624999,-1.0211269855499268,-0.9971849918365479,9.57441234588623,-28.9306640625,-22.76611328125,21.17919921875
0.8674999,-0.8672995567321777,-1.0779893398284912,9.63187313079834,-8.6669921875,-14.2822265625,25.421142578125
0.8724999,0.24001872539520264,-1.8620903491973877,9.288305282592773,5.0048828125,-8.7890625,29.1748046875
0.8774999,0.7433996200561523,-1.2246341705322266,9.425971984863281,11.65771484375,-0.152587890625,32.5927734375
0.8824999,1.3311761617660522,-0.5907692909240723,9.657610893249512,-0.06103515625,-0.701904296875,-5.340576171875
0.8874999,1.6208745241165161,-0.778714120388031,9.709685325622559,-3.387451171875,7.110595703125,-31.982421875
0.8924999,1.7723077535629272,-0.7829039692878723,9.767744064331055,14.312744140625,21.97265625,-17.547607421875
0.8974999,1.9171570539474487,-0.9085995554924011,9.704896926879883,25.543212890625,28.80859375,-29.6630859375
0.9024999,1.2886791229248047,-0.8032546639442444,9.802460670471191,3.692626953125,17.364501953125,-36.224365234375
0.9074999,0.6991068720817566,-0.0628477931022644,9.87967300415039,-8.758544921875,2.8076171875,-31.06689453125
0.9124999,-0.13826514780521393,0.041299980133771896,9.919178009033203,-6.7138671875,-5.126953125,-20.32470703125
0.9174999,-0.8756792545318604,0.3208230137825012,9.84495735168457,-6.622314453125,-11.077880859375,20.8740234375
0.9224999,-1.149815320968628,-0.9026140570640564,9.586383819580078,-27.923583984375,-22.308349609375,24.47509765625
0.9274999,-1.149815320968628,-0.9026140570640564,9.586383819580078,-27.923583984375,-22.308349609375,24.47509765625
0.9324999,-0.535702645778656,-1.7615338563919067,9.404424667358398,5.523681640625,-13.73291015625,43.27392578125
0.9374999,0.18794482946395874,-2.1057004928588867,9.263765335083008,3.11279296875,-11.993408203125,35.33935546875
0.9424999000000001,0.7493851184844971,-1.5795745849609375,9.497200012207031,13.092041015625,-0.6103515625,42.78564453125
0.9474999000000001,1.2844891548156738,-0.8834604024887085,9.666589736938477,3.265380859375,-0.67138671875,10.833740234375
0.9524999000000001,1.6525976657867432,-0.5722141861915588,9.783307075500488,-5.2490234375,4.2724609375,-33.172607421875
0.9574999000000001,1.613093376159668,-0.7882909178733826,9.652822494506836,8.4228515625,18.798828125,-21.78955078125
0.9624999,1.9476830959320068,-0.8601169586181641,9.824007987976074,25.299072265625,29.571533203125,-27.069091796875
0.9674999,1.4191631078720093,-0.8505401611328125,9.703699111938477,12.542724609375,22.0947265625,-39.154052734375
0.9724999,0.821809709072113,-0.41120412945747375,9.928754806518555,-7.01904296875,7.354736328125,-32.318115234375
0.9774999,-0.0017956512747332454,-0.10055647045373917,9.95209789276123,-8.9111328125,-4.33349609375,-24.658203125
0.9824999,-0.7511807680130005,0.30526071786880493,9.901819229125977,-5.218505859375,-10.040283203125,11.138916015625
0.9874999,-1.268328309059143,-0.9127894043922424,9.634865760803223,-25.87890625,-20.599365234375,27.130126953125
0.9924999,-0.6799532771110535,-1.9925743341445923,9.344569206237793,4.5166015625,-13.763427734375,41.534423828125
0.9974999,0.02454056777060032,-2.4624364376068115,8.951321601867676,3.448486328125,-14.16015625,35.919189453125
1.0024999,0.6314706802368164,-1.9638439416885376,9.32661247253418,15.411376953125,-0.3662109375,40.557861328125
1.0074999000000002,1.1869255304336548,-1.0564415454864502,9.440936088562012,6.8359375,0.274658203125,16.90673828125
1.0124999000000001,1.5819687843322754,-0.40282443165779114,9.798869132995605,-4.8828125,1.312255859375,-29.541015625
1.0174999000000002,1.6274585723876953,-0.5985504388809204,9.683348655700684,4.5166015625,15.777587890625,-23.651123046875
1.0224999000000001,1.9219454526901245,-0.7960720658302307,10.005369186401367,23.223876953125,28.472900390625,-24.4140625
1.0274999,1.6298527717590332,-0.8248024582862854,9.731232643127441,19.53125,25.81787109375,-39.1845703125
1.0324999000000001,1.0450690984725952,-0.596754789352417,10.016741752624512,-4.08935546875,10.43701171875,-34.97314453125
1.0374999,0.29149407148361206,-0.02992752194404602,9.91977596282959,-9.918212890625,-2.50244140625,-27.83203125
1.0424999000000001,-0.14484919607639313,-2.434903144836426,8.731653213500977,3.570556640625,-14.892578125,35.980224609375
1.0474999,0.4513070285320282,-2.362478494644165,9.045293807983398,11.688232421875,-2.9296875,31.829833984375
1.0524999000000002,0.921169102191925,-1.5101426839828491,9.224260330200195,10.68115234375,1.708984375,22.76611328125
1.0574999,1.4550760984420776,-0.5979518890380859,9.578003883361816,-3.936767578125,-0.48828125,-23.406982421875
1.0624999000000002,1.5843629837036133,-0.7625532150268555,9.671378135681152,0.701904296875,11.65771484375,-26.18408203125
1.0674999,1.7597382068634033,-0.7846996188163757,9.920374870300293,19.317626953125,26.580810546875,-20.721435546875
1.0724999000000002,1.7345991134643555,-0.829590916633606,9.783307075500488,24.322509765625,28.656005859375,-35.2783203125
1.0774999,1.0552444458007812,-0.7122750282287598,10.016741752624512,-0.823974609375,13.24462890625,-35.491943359375
1.0824999000000002,0.44412440061569214,0.10893617570400238,9.962273597717285,-10.3759765625,-1.312255859375,-28.25927734375
1.0874999,-0.38905778527259827,0.7679402232170105,9.927556991577148,-5.462646484375,-7.293701171875,-9.918212890625
1.0924999000000002,-1.0031704902648926,0.3998316824436188,9.956287384033203,-14.0380859375,-16.204833984375,25.115966796875
1.0974999,-0.800261914730072,-1.0109516382217407,9.57321548461914,-4.94384765625,-13.12255859375,29.11376953125
1.1024999000000002,-0.800261914730072,-1.0109516382217407,9.57321548461914,-4.94384765625,-13.12255859375,29.11376953125
1.1074999,-0.20470423996448517,-2.07397723197937,9.025542259216309,5.06591796875,-14.5263671875,39.337158203125
1.1124999000000002,0.35673606395721436,-2.342127799987793,9.113529205322266,8.23974609375,-6.500244140625,28.656005859375
1.1174999,0.7613561153411865,-1.6190788745880127,9.257779121398926,13.885498046875,2.44140625,29.23583984375
1.1224999000000002,1.3162124156951904,-0.7858967185020447,9.552865028381348,-1.251220703125,-0.67138671875,-12.969970703125
1.1274999,1.5376760959625244,-0.7882909178733826,9.6989107131958,-2.8076171875,7.8125,-30.426025390625
1.1324999000000002,1.6861165761947632,-0.7523778676986694,9.797672271728516,15.07568359375,23.681640625,-18.463134765625
1.1374999000000001,1.898003339767456,-0.829590916633606,9.77672290802002,27.28271484375,30.487060546875,-31.646728515625
1.1424999000000002,1.2515689134597778,-0.7344213724136353,9.852738380432129,4.0283203125,17.578125,-37.65869140625
1.1474999000000001,0.7116764783859253,0.04429273307323456,9.9185791015625,-9.21630859375,1.800537109375,-31.890869140625
1.1524999000000002,-0.13347674906253815,0.1454477459192276,9.93474006652832,-8.392333984375,-7.6904296875,-22.94921875
1.1574999000000001,-0.8391677141189575,0.34356793761253357,9.831789016723633,-7.62939453125,-11.41357421875,17.425537109375
1.1624999,0.05626374110579491,-2.3355438709259033,9.212289810180664,4.180908203125,-10.772705078125,27.740478515625
1.1674999000000001,0.619499683380127,-1.646013617515564,9.472060203552246,13.519287109375,1.708984375,29.937744140625
1.1724999,1.2342109680175781,-0.828393816947937,9.640851974487305,2.777099609375,0.457763671875,0.213623046875
1.1774999000000002,1.6083049774169922,-0.6302735805511475,9.813833236694336,-4.547119140625,4.241943359375,-31.768798828125
1.1824999,1.7256208658218384,-0.6506243348121643,9.75278091430664,11.1083984375,20.111083984375,-18.4326171875
1.1874999000000002,2.1152772903442383,-0.7368155717849731,9.806051254272461,26.763916015625,30.2734375,-27.008056640625
1.1924999,1.5406688451766968,-0.7571662664413452,9.786897659301758,9.796142578125,22.552490234375,-36.31591796875
1.1974999000000002,1.0636241436004639,-0.11013327538967133,9.894637107849121,-6.65283203125,6.103515625,-33.355712890625
1.2024999,-0.9469067454338074,-1.6903064250946045,9.484031677246094,5.06591796875,-10.467529296875,33.38623046875
1.2074999000000002,-0.26815059781074524,-2.5665841102600098,8.951920509338379,2.86865234375,-13.12255859375,31.036376953125
1.2124999,0.5728127360343933,-2.058414936065674,9.185355186462402,10.07080078125,-0.9765625,26.641845703125
1.2174999000000002,1.1881226301193237,-1.104325532913208,9.348160743713379,7.4462890625,2.99072265625,11.505126953125
1.2224999,1.6962919235229492,-0.7098808288574219,9.617507934570312,-3.936767578125,2.5634765625,-29.327392578125
1.2274999000000002,1.725022315979004,-0.6889315247535706,9.556455612182617,7.14111328125,15.838623046875,-20.538330078125
1.2324999,2.011129379272461,-0.8331822156906128,9.895236015319824,24.59716796875,29.144287109375,-23.162841796875
1.2374999000000002,1.6430208683013916,-0.7410054206848145,9.77013874053955,16.082763671875,26.824951171875,-34.637451171875
1.2424999,1.1192892789840698,-0.42377370595932007,9.979631423950195,-4.39453125,9.552001953125,-33.38623046875
1.2474999000000002,0.4189853072166443,0.21188685297966003,9.997588157653809,-11.16943359375,-8.1787109375,-38.726806640625
1.2524999,-1.095347285270691,-0.7691373229026794,9.346364974975586,-26.275634765625,-22.5830078125,24.10888671875
1.2574999000000002,-0.9744400978088379,-1.1432312726974487,9.583391189575195,-0.732421875,-11.65771484375,25.543212890625
1.2624999000000001,-0.3387795388698578,-2.034472942352295,9.228450775146484,4.5166015625,-12.237548828125,35.552978515625
1.2674999000000002,0.35015198588371277,-1.9434932470321655,9.362525939941406,5.035400390625,-6.256103515625,25.909423828125
1.2724999000000001,0.8457517623901367,-1.2180501222610474,9.549872398376465,9.857177734375,3.2958984375,22.15576171875
1.2774999000000002,1.3880383968353271,-0.8146271109580994,9.725846290588379,-2.105712890625,1.312255859375,-18.951416015625
1.2824999000000001,1.875258445739746,-0.9463081955909729,9.952696800231934,20.20263671875,26.30615234375,-17.9443359375
1.2874999,1.8195933103561401,-0.899621307849884,9.738415718078613,20.965576171875,29.693603515625,-30.94482421875
1.2924999000000001,1.3072341680526733,-0.667982280254364,9.906607627868652,-0.213623046875,14.923095703125,-33.355712890625
1.2974999,0.6997054219245911,0.22206220030784607,9.960477828979492,-9.307861328125,-3.509521484375,-36.651611328125
1.3024999000000002,-0.9193734526634216,0.3603273630142212,9.667786598205566,-6.500244140625,-8.941650390625,15.56396484375
1.3074999,-1.270722508430481,-0.7817068696022034,9.314043045043945,-26.153564453125,-23.681640625,28.411865234375
1.3124999000000002,-1.1252747774124146,-0.960673451423645,9.25059700012207,-10.772705078125,-16.7236328125,20.32470703125
1.3174999,-0.6308721303939819,-1.556231141090393,9.102754592895508,7.415771484375,-10.1318359375,36.9873046875
1.3224999000000002,0.1412578970193863,-1.998559832572937,9.157821655273438,3.35693359375,-10.711669921875,30.120849609375
1.3274999,0.8056488633155823,-1.2090718746185303,9.50617790222168,10.3759765625,1.861572265625,29.083251953125
1.3324999000000002,1.3174095153808594,-0.47824180126190186,9.712677955627441,1.678466796875,0.732421875,-3.11279296875
1.3374999,1.547252893447876,-0.8008604645729065,9.807847023010254,-1.953125,4.7607421875,-30.517578125
1.3424999000000002,1.768117904663086,-0.6177040338516235,9.9185791015625,13.641357421875,19.8974609375,-15.411376953125
1.3474999,1.8249802589416504,-0.8481459617614746,9.765948295593262,23.25439453125,28.778076171875,-23.98681640625
1.3524999000000002,1.40180504322052,-0.7368155717849731,9.806051254272461,3.692626953125,16.9677734375,-34.942626953125
1.3574999,0.8738836050033569,0.013168109580874443,9.82640266418457,-8.636474609375,-2.13623046875,-35.94970703125
1.3624999000000002,-1.2779051065444946,-0.6925228238105774,9.815030097961426,-18.37158203125,-19.195556640625,29.205322265625
1.3674999,-1.3389573097229004,-0.9720458984375,9.665990829467773,-16.90673828125,-22.430419921875,18.768310546875
1.3724999000000002,-1.0809820890426636,-1.6172832250595093,9.482834815979004,5.096435546875,-11.077880859375,31.982421875
1.3774999,-0.3627215623855591,-2.427121877670288,9.160215377807617,1.739501953125,-14.190673828125,36.376953125
1.3824999000000002,0.4704606235027313,-1.6962919235229492,9.261370658874512,4.913330078125,-5.889892578125,36.68212890625
1.3874999000000001,1.1593921184539795,-0.8762778043746948,9.469666481018066,2.9296875,-3.5400390625,15.289306640625
1.3924999000000002,1.656787633895874,-0.9481038451194763,9.5809965133667,-3.814697265625,0.54931640625,-28.25927734375
1.3974999000000001,1.8806453943252563,-0.7595604658126831,9.551069259643555,8.544921875,14.556884765625,-18.585205078125
1.4024999000000002,2.099714994430542,-0.900818407535553,9.715670585632324,19.53125,23.651123046875,-19.561767578125
1.4074999000000001,1.6490063667297363,-0.6865373253822327,9.732429504394531,5.462646484375,15.716552734375,-35.430908203125
1.4124999,1.0863690376281738,-0.24241292476654053,9.935338973999023,-6.40869140625,3.265380859375,-31.890869140625
1.4174999000000001,-1.1402385234832764,-0.8553285598754883,9.645041465759277,-23.74267578125,-24.169921875,18.5546875
1.4224999,-0.9624691009521484,-0.9876081943511963,9.88506031036377,1.52587890625,-12.02392578125,28.3203125
1.4274999000000002,-0.42018240690231323,-1.6112977266311646,9.518747329711914,5.279541015625,-13.031005859375,41.290283203125
1.4324999,0.090979665517807,-1.3108254671096802,9.600150108337402,1.64794921875,-12.51220703125,38.330078125
1.4374999000000002,0.6338648796081543,-0.667982280254364,9.716867446899414,2.593994140625,-9.185791015625,25.665283203125
1.4424999,1.3658920526504517,-0.5943605899810791,9.654019355773926,-3.997802734375,-4.57763671875,-15.19775390625
1.4474999000000002,1.8022353649139404,-0.9648633003234863,9.524134635925293,2.5634765625,9.368896484375,-24.10888671875
1.4524999,2.2469582557678223,-1.0923545360565186,9.73661994934082,15.899658203125,23.529052734375,-17.02880859375
1.4574999000000002,2.147000312805176,-1.169567584991455,9.588777542114258,10.589599609375,19.256591796875,-30.09033203125
1.4624999,1.4730325937271118,-0.8224082589149475,9.921571731567383,-2.777099609375,11.199951171875,-27.03857421875
1.4674999000000002,-0.545877993106842,-1.5179238319396973,9.52114200592041,6.866455078125,-12.176513671875,34.85107421875
1.4724999,-0.0071826050989329815,-1.501164436340332,9.630077362060547,2.13623046875,-9.82666015625,34.149169921875
1.4774999000000002,0.6703764796257019,-0.7655459642410278,9.65222454071045,5.4931640625,-5.096435546875,24.566650390625
1.4824999,1.3736732006072998,-0.3010708689689636,9.671976089477539,0.732421875,0.885009765625,-8.697509765625
1.4874999000000002,1.6831238269805908,-0.8182184100151062,9.655217170715332,1.40380859375,10.8642578125,-24.017333984375
1.4924999,2.1739351749420166,-0.7344213724136353,9.722254753112793,13.092041015625,21.881103515625,-20.172119140625
1.4974999000000002,2.058414936065674,-1.0444705486297607,9.61571216583252,16.29638671875,24.566650390625,-26.641845703125
1.5024999,1.5921441316604614,-0.8595184087753296,9.874286651611328,0.67138671875,15.899658203125,-37.139892578125
1.5074999000000002,0.9678560495376587,-0.19273324310779572,9.919178009033203,-3.35693359375,6.04248046875,-31.25
1.5124999000000001,-0.1149216815829277,-0.046088382601737976,9.947309494018555,-2.655029296875,1.28173828125,-16.29638671875
1.5174999000000002,-0.778714120388031,0.8439561128616333,10.183736801147461,-3.204345703125,-5.79833984375,16.448974609375
1.5224999000000001,-0.2561795711517334,-1.7896658182144165,9.520543098449707,0.823974609375,-11.962890625,31.73828125
1.5274999000000002,0.4387374520301819,-1.1276689767837524,9.52473258972168,3.143310546875,-7.232666015625,25.08544921875
1.5324999000000001,1.2437877655029297,-0.6051344871520996,9.605537414550781,0.091552734375,-3.90625,-3.143310546875
1.5374999000000003,1.7782933712005615,-0.9995791912078857,9.619902610778809,-2.166748046875,6.683349609375,-29.144287109375
1.5424999000000001,2.185307502746582,-0.8259995579719543,9.5809965133667,11.322021484375,21.30126953125,-14.617919921875
1.5474999,1.0743980407714844,-0.1825578808784485,9.831191062927246,-4.852294921875,7.14111328125,-34.088134765625
1.5524999000000002,0.1346738487482071,-0.008978256024420261,9.938929557800293,-3.662109375,2.166748046875,-19.989013671875
1.5574999,-0.8098387122154236,0.6943184733390808,10.231022834777832,-2.197265625,-5.126953125,9.796142578125
1.5624999000000002,-1.3096283674240112,-0.35075053572654724,10.071807861328125,-18.096923828125,-19.10400390625,22.613525390625
1.5674999,-1.3605051040649414,-0.706289529800415,9.755773544311523,-20.08056640625,-18.585205078125,17.486572265625
1.5724999000000002,-0.9391255974769592,-1.3658920526504517,9.68694019317627,7.171630859375,-8.36181640625,32.04345703125
1.5774999,-0.2998737692832947,-2.3337481021881104,9.1662015914917,3.90625,-12.20703125,33.538818359375
1.5824999000000002,0.44771572947502136,-1.6759412288665771,9.249998092651367,4.180908203125,-6.7138671875,28.472900390625
1.5874999,1.1528080701828003,-0.9421183466911316,9.478644371032715,2.13623046875,-4.364013671875,10.3759765625
1.5924999000000002,1.7381904125213623,-0.9977835416793823,9.561842918395996,-4.547119140625,2.349853515625,-29.022216796875
1.5974999,2.0171148777008057,-0.9014169573783875,9.482834815979004,8.60595703125,17.242431640625,-16.937255859375
1.6024999000000002,1.1965023279190063,-0.37648820877075195,9.934141159057617,-5.340576171875,6.927490234375,-33.935546875
1.6074999,1.1965023279190063,-0.37648820877075195,9.934141159057617,-5.340576171875,6.927490234375,-33.935546875
1.6124999000000002,0.25079262256622314,0.055665191262960434,10.050260543823242,-4.547119140625,1.953125,-22.125244140625
1.6174999,-0.7182605266571045,0.4273650050163269,10.098742485046387,-1.373291015625,-3.692626953125,6.072998046875
1.6224999000000002,-1.2599486112594604,-0.043095629662275314,10.153809547424316,-14.556884765625,-17.02880859375,22.491455078125
1.6274999,-1.1186907291412354,-0.5129576921463013,9.691728591918945,-23.895263671875,-20.965576171875,17.822265625
1.6324999000000002,-0.8523358106613159,-0.8870517015457153,9.912593841552734,3.60107421875,-9.307861328125,28.50341796875
1.6374999000000001,-0.20290859043598175,-1.7190368175506592,9.34397029876709,6.134033203125,-12.481689453125,36.529541015625
1.6424999000000002,0.3728969097137451,-1.5298948287963867,9.43255615234375,4.119873046875,-8.270263671875,29.96826171875
1.6474999000000001,0.8870517015457153,-0.9522937536239624,9.566631317138672,4.058837890625,-5.218505859375,19.53125
1.6524999000000002,1.5119383335113525,-0.9923965930938721,9.543886184692383,-3.875732421875,-0.030517578125,-23.98681640625
1.6574999000000001,1.7705121040344238,-1.0330979824066162,9.462483406066895,6.16455078125,14.129638671875,-19.927978515625
1.6624999000000003,0.4016273319721222,0.13946224749088287,10.063427925109863,-5.2490234375,2.410888671875,-22.5830078125
1.6674999000000001,0.4016273319721222,0.13946224749088287,10.063427925109863,-5.2490234375,2.410888671875,-22.5830078125
1.6724999,-0.4345476031303406,0.002394201699644327,10.034697532653809,-2.166748046875,-2.5634765625,-0.091552734375
1.6774999000000002,-0.9941922426223755,-0.09876082092523575,10.082581520080566,-9.521484375,-13.48876953125,22.76611328125
1.6824999,0.26096799969673157,-1.5263035297393799,9.466673851013184,3.47900390625,-10.040283203125,33.0810546875
1.6874999000000002,0.7601590156555176,-0.7003039717674255,9.534309387207031,4.364013671875,-7.598876953125,25.054931640625
1.6924999,1.4425065517425537,-0.5847837924957275,9.583391189575195,-3.35693359375,-1.708984375,-18.1884765625
1.6974999000000002,1.766920804977417,-0.8672995567321777,9.513958930969238,3.143310546875,12.115478515625,-24.47509765625
1.7024999,1.3108254671096802,-0.7326257228851318,9.95748519897461,-4.45556640625,9.46044921875,-40.130615234375
1.7074999000000002,0.596754789352417,0.07062894850969315,9.99100399017334,-5.615234375,4.302978515625,-25.146484375
1.7124999,-0.24361002445220947,-0.02753331884741783,9.960477828979492,-2.9296875,-0.946044921875,-7.843017578125
1.7174999000000002,-0.8050503134727478,0.1430535465478897,10.113107681274414,-6.04248046875,-9.674072265625,21.697998046875
1.7224999,-1.028908133506775,-0.8966285586357117,9.794678688049316,-25.848388671875,-21.05712890625,21.209716796875
1.7274999000000002,-0.727837324142456,-1.0438719987869263,9.874286651611328,-7.38525390625,-12.20703125,20.477294921875
1.7324999,-0.4279635548591614,-1.5376760959625244,9.48462963104248,10.833740234375,-11.1083984375,38.665771484375
1.7374999000000002,0.23523031175136566,-1.6585832834243774,9.479243278503418,4.058837890625,-9.552001953125,29.96826171875
1.7424999,0.7206547260284424,-0.8481459617614746,9.512762069702148,6.072998046875,-5.706787109375,27.374267578125
1.7474999000000002,1.3736732006072998,-0.5386953949928284,9.620500564575195,-1.495361328125,-1.251220703125,-12.51220703125
1.7524999,1.6903064250946045,-0.8978256583213806,9.597756385803223,1.5869140625,11.138916015625,-26.85546875
1.7574999000000002,1.8716671466827393,-1.037886381149292,9.643245697021484,14.739990234375,21.3623046875,-34.576416015625
1.7624999000000001,0.7320271730422974,0.03890577703714371,9.993996620178223,-4.791259765625,6.072998046875,-27.130126953125
1.7674999000000002,-0.12928688526153564,0.016160860657691956,9.96825885772705,-2.99072265625,0.79345703125,-10.162353515625
1.7724999000000001,-0.7727286219596863,0.5440823435783386,10.084976196289062,-3.96728515625,-7.32421875,20.01953125
1.7774999000000002,-1.0923545360565186,-0.6607996821403503,9.848548889160156,-24.871826171875,-20.843505859375,21.697998046875
1.7824999000000001,-0.8918401598930359,-0.7858967185020447,9.78869342803955,-11.993408203125,-13.00048828125,20.56884765625
1.7874999000000003,-0.5542576909065247,-1.535880446434021,9.593565940856934,11.962890625,-9.09423828125,37.261962890625
1.7924999000000001,0.09816227108240128,-1.9608511924743652,9.511565208435059,3.448486328125,-10.101318359375,26.91650390625
1.7974999,0.6200982332229614,-1.1869255304336548,9.582193374633789,6.622314453125,-4.45556640625,29.47998046875
1.8024999000000002,1.3114240169525146,-0.5859808921813965,9.732429504394531,-0.457763671875,-2.13623046875,-5.035400390625
1.8074999,1.6549919843673706,-0.9648633003234863,9.709685325622559,-1.068115234375,8.72802734375,-29.78515625
1.8124999000000002,1.9632453918457031,-0.7835025191307068,9.7605619430542,14.617919921875,22.064208984375,-14.923095703125
1.8174999,1.9590555429458618,-1.0283095836639404,9.685144424438477,17.852783203125,23.01025390625,-31.280517578125
1.8224999000000002,1.4167689085006714,-0.790086567401886,9.849146842956543,-1.28173828125,11.962890625,-42.78564453125
1.8274999,0.7948749661445618,-0.008379706181585789,9.928155899047852,-5.4931640625,6.134033203125,-27.557373046875
1.8324999000000002,-0.08738835901021957,0.026336219161748886,9.961075782775879,-3.90625,0,-12.603759765625
1.8374999,-0.7751228213310242,0.7116764783859253,10.094552993774414,-3.326416015625,-7.171630859375,17.7001953125
1.8424999000000002,-1.1390414237976074,-0.6206967830657959,9.901819229125977,-24.444580078125,-21.05712890625,21.8505859375
1.8474999,-0.945111095905304,-0.7631517648696899,9.658807754516602,-16.998291015625,-15.13671875,18.9208984375
1.8524999000000002,-0.6206967830657959,-1.7292121648788452,9.579200744628906,10.711669921875,-9.8876953125,37.78076171875
1.8574999,0.05267243832349777,-2.3475148677825928,9.269750595092773,4.08935546875,-10.772705078125,28.411865234375
1.8624999000000002,0.619499683380127,-1.6442179679870605,9.412205696105957,7.965087890625,-4.21142578125,30.21240234375
1.8674999,1.3060370683670044,-0.9038111567497253,9.636661529541016,0.762939453125,-2.62451171875,0.518798828125
1.8724999000000002,1.6843209266662598,-1.0684125423431396,9.690531730651855,-3.173828125,6.28662109375,-30.670166015625
1.8774999,2.0183119773864746,-0.9995791912078857,9.734225273132324,20.20263671875,23.8037109375,-29.449462890625
1.8824999000000002,1.50355863571167,-0.7511807680130005,9.765350341796875,1.251220703125,13.36669921875,-42.90771484375
1.8874999000000001,0.8768763542175293,-0.0454898327589035,9.929951667785645,-5.340576171875,6.866455078125,-28.62548828125
1.8924999000000002,0.043095629662275314,0.10235211998224258,10.004770278930664,-4.69970703125,-0.30517578125,-15.045166015625
1.8974999000000001,-0.6997054219245911,0.8780734539031982,10.208277702331543,-2.593994140625,-6.256103515625,13.5498046875
1.9024999000000002,-1.106719732284546,-0.5135562419891357,10.00836181640625,-22.0947265625,-19.83642578125,23.62060546875
1.9074999000000001,-0.9217676520347595,-0.7583633661270142,9.719860076904297,-18.768310546875,-16.082763671875,19.47021484375
1.9124999000000003,-0.6512228846549988,-1.7513585090637207,9.652822494506836,11.41357421875,-8.72802734375,35.980224609375
1.9174999000000001,-0.0293289702385664,-2.494758129119873,9.18355941772461,5.462646484375,-11.077880859375,29.693603515625
1.9224999,1.5304933786392212,-0.7015010714530945,9.714473724365234,2.197265625,13.427734375,-41.656494140625
1.9274999000000002,0.9313444495201111,-0.06703764945268631,9.916184425354004,-5.126953125,7.049560546875,-29.510498046875
1.9324999,0.09935937076807022,0.08619125932455063,10.026318550109863,-4.69970703125,0.3662109375,-14.617919921875
1.9374999000000002,-0.7164648771286011,0.6805518269538879,10.333374977111816,-1.8310546875,-5.462646484375,13.946533203125
1.9424999,-1.0743980407714844,-0.43993455171585083,10.120290756225586,-17.547607421875,-18.768310546875,21.240234375
1.9474999000000002,-1.035492181777954,-0.9522937536239624,9.886856079101562,-18.310546875,-16.693115234375,20.08056640625
1.9524999,-0.6602011322975159,-1.6843209266662598,9.77672290802002,8.4228515625,-8.48388671875,35.46142578125
1.9574999000000002,-0.07422025501728058,-2.492962598800659,9.29069995880127,4.608154296875,-11.41357421875,29.72412109375
1.9624999,0.5009866952896118,-1.835754156112671,9.362525939941406,5.706787109375,-5.767822265625,30.731201171875
1.9674999000000002,1.2288240194320679,-0.9391255974769592,9.536105155944824,1.190185546875,-4.180908203125,5.859375
1.9724999,1.953070044517517,-0.7739257216453552,9.474454879760742,10.19287109375,18.37158203125,-16.2353515625
1.9774999000000002,2.1571757793426514,-0.9774328470230103,9.660603523254395,19.195556640625,24.139404296875,-26.763916015625
1.9824999,1.6304513216018677,-0.8583213090896606,9.64683723449707,3.387451171875,14.16015625,-42.1142578125
1.9874999000000002,1.0749965906143188,-0.17836803197860718,9.905410766601562,-4.33349609375,8.4228515625,-32.77587890625
1.9924999,0.18734627962112427,0.02454056777060032,10.038887977600098,-4.8828125,1.03759765625,-16.510009765625
1.9974999000000002,-0.7601590156555176,0.5542576909065247,10.182539939880371,-2.0751953125,-4.791259765625,10.467529296875
2.0024999,1.1988965272903442,-0.9157821536064148,9.496601104736328,1.312255859375,-5.0048828125,11.688232421875
2.0074999,1.7256208658218384,-0.8517372608184814,9.656414031982422,4.33349609375,14.984130859375,-40.83251953125
2.0124999000000003,1.2066776752471924,-0.17657238245010376,9.94970417022705,-4.45556640625,8.819580078125,-35.21728515625
2.0174999000000002,0.2819172441959381,0.09576806426048279,10.055646896362305,-5.096435546875,1.8310546875,-18.524169921875
2.0224999,-0.6153098344802856,0.272938996553421,10.008959770202637,-2.471923828125,-3.570556640625,7.171630859375
2.0274999,-1.0773907899856567,-0.3663128614425659,10.119093894958496,-12.3291015625,-15.533447265625,21.8505859375
2.0324999000000004,-1.1019313335418701,-1.2671312093734741,9.564237594604492,-23.162841796875,-19.317626953125,21.728515625
2.0374999000000003,-0.7547720670700073,-1.7615338563919067,9.848548889160156,4.425048828125,-7.659912109375,29.9072265625
2.0424999,-0.21308395266532898,-2.380434989929199,9.30386734008789,7.62939453125,-10.92529296875,31.646728515625
2.0474999,0.40222588181495667,-1.8698714971542358,9.466673851013184,5.035400390625,-6.103515625,27.801513671875
2.0524999,1.049857497215271,-1.0313023328781128,9.57201862335205,1.983642578125,-4.180908203125,13.702392578125
2.0574999000000003,1.6801310777664185,-0.8020575642585754,9.659406661987305,6.927490234375,16.357421875,-38.39111328125
2.0624999,1.1755530834197998,-0.31543606519699097,9.964667320251465,-4.2724609375,9.002685546875,-35.70556640625
2.0674999,0.37888240814208984,0.12689268589019775,10.039485931396484,-5.462646484375,0.9765625,-21.331787109375
2.0724999,-0.48722004890441895,0.076015904545784,10.102932929992676,-3.204345703125,-3.570556640625,1.434326171875
2.0774999000000003,-0.9463081955909729,-0.35075053572654724,10.097545623779297,-9.70458984375,-13.18359375,22.5830078125
2.0824999,-0.8744821548461914,-1.2234370708465576,9.721057891845703,-22.003173828125,-19.866943359375,21.6064453125
2.0874999,-0.6925228238105774,-1.624465823173523,9.82879638671875,1.129150390625,-9.033203125,27.77099609375
2.0924999,-0.166995570063591,-2.0703859329223633,9.268553733825684,7.415771484375,-11.41357421875,34.027099609375
2.0974999000000003,0.29807811975479126,-1.725022315979004,9.407417297363281,5.0048828125,-7.14111328125,28.961181640625
2.1024999,0.8595184087753296,-0.9660604000091553,9.46487808227539,2.960205078125,-4.8828125,17.425537109375
2.1074999,1.6932991743087769,-0.7841010689735413,9.475052833557129,6.34765625,15.106201171875,-18.707275390625
2.1124999,2.057217836380005,-0.7565677165985107,9.77013874053955,16.937255859375,23.590087890625,-22.918701171875
2.1174999000000003,1.680729627609253,-0.8457517623901367,9.640851974487305,8.697509765625,16.876220703125,-36.4990234375
2.1224999,1.139639973640442,-0.6129156351089478,9.973047256469727,-3.96728515625,9.857177734375,-37.109375
2.1274999,0.48901569843292236,-0.005985504016280174,10.032303810119629,-4.791259765625,2.50244140625,-22.94921875
2.1324999,-0.42377370595932007,-0.17537526786327362,9.963470458984375,-2.74658203125,-2.716064453125,-0.518798828125
2.1374999000000003,-0.8577227592468262,-0.3776853084564209,9.981427192687988,-7.568359375,-11.77978515625,21.820068359375
2.1424999000000002,-0.9319429993629456,-1.2970588207244873,9.67077922821045,-21.881103515625,-20.81298828125,21.42333984375
2.1474999,-0.7152677774429321,-1.623268723487854,9.829395294189453,-2.593994140625,-9.70458984375,25.115966796875
2.1524999,-0.25498247146606445,-1.9405004978179932,9.445125579833984,8.1787109375,-10.650634765625,35.430908203125
2.1574999000000004,0.23523031175136566,-1.6825252771377563,9.623494148254395,4.08935546875,-8.30078125,28.839111328125
2.1624999000000003,-0.7972691655158997,-0.08978256583213806,9.944915771484375,-5.43212890625,-9.674072265625,21.8505859375
2.1674999,-0.7972691655158997,-0.08978256583213806,9.944915771484375,-5.43212890625,-9.674072265625,21.8505859375
2.1724999,-0.9696516990661621,-1.1641805171966553,9.707889556884766,-21.484375,-21.575927734375,20.904541015625
2.1774999000000004,-0.7667431235313416,-1.4652514457702637,9.727641105651855,-6.591796875,-11.444091796875,22.8271484375
2.1824999000000003,-0.40282443165779114,-1.9129672050476074,9.48462963104248,9.3994140625,-9.674072265625,36.80419921875
2.1874999,0.12749123573303223,-1.8543092012405396,9.600150108337402,3.7841796875,-9.521484375,30.120849609375
2.1924999,1.3198037147521973,-0.5907692909240723,9.683348655700684,-1.64794921875,-1.708984375,-11.5966796875
2.1974999,1.66696298122406,-0.8553285598754883,9.697115898132324,3.5400390625,12.237548828125,-24.200439453125
2.2024999000000003,2.012925148010254,-0.8050503134727478,9.755773544311523,14.22119140625,22.552490234375,-17.39501953125
2.2074999,1.913565754890442,-0.8325836658477783,9.683947563171387,12.20703125,18.585205078125,-32.623291015625
2.2124999,1.3389573097229004,-0.7158663272857666,9.925163269042969,-2.9296875,10.528564453125,-40.58837890625
2.2174999,0.7972691655158997,0.004788403399288654,9.959878921508789,-4.150390625,5.55419921875,-27.9541015625
2.2224999000000003,-0.11851298063993454,-0.1801636815071106,9.934141159057617,-2.410888671875,0.244140625,-9.552001953125
2.2274999,-0.7475894689559937,0.37648820877075195,10.105925559997559,-3.0517578125,-6.89697265625,19.927978515625
2.2324999,-1.0067617893218994,-0.7691373229026794,9.876680374145508,-19.073486328125,-21.3623046875,20.93505859375
2.2374999,-0.9103952050209045,-0.8972271084785461,9.786897659301758,-10.25390625,-13.824462890625,21.05712890625
2.2424999000000003,-0.01735796220600605,-1.9051860570907593,9.484031677246094,3.814697265625,-10.92529296875,31.55517578125
2.2474999,-0.01735796220600605,-1.9051860570907593,9.484031677246094,3.814697265625,-10.92529296875,31.55517578125
2.2524999,1.2659341096878052,-0.6590040326118469,9.68694019317627,-0.885009765625,-4.0283203125,-3.173828125
2.2574999,1.2659341096878052,-0.6590040326118469,9.68694019317627,-0.885009765625,-4.0283203125,-3.173828125
2.2624999000000003,1.6813281774520874,-1.026513934135437,9.668384552001953,1.373291015625,9.246826171875,-26.06201171875
2.2674999000000002,2.095525026321411,-0.7781155705451965,9.708487510681152,13.763427734375,22.125244140625,-15.899658203125
2.2724999,2.015319347381592,-0.9289502501487732,9.655815124511719,13.031005859375,20.294189453125,-28.717041015625
2.2774999,1.5083470344543457,-0.7457938194274902,9.821015357971191,-2.166748046875,10.009765625,-39.642333984375
2.2824999000000004,0.943913996219635,-0.07481880486011505,9.880870819091797,-3.753662109375,6.866455078125,-32.257080078125
2.2874999000000003,0.08319851011037827,-0.1538274586200714,9.934141159057617,-2.13623046875,2.9296875,-13.97705078125
2.2924999,-0.707486629486084,0.36152446269989014,10.067618370056152,-1.129150390625,-3.84521484375,15.380859375
2.2974999,-1.0348936319351196,-0.6859387755393982,10.02811336517334,-14.7705078125,-19.256591796875,20.44677734375
2.3024999000000004,-1.139639973640442,-0.9516952037811279,9.777320861816406,-15.228271484375,-17.02880859375,20.93505859375
2.3074999000000003,-0.7864952683448792,-1.6172832250595093,9.823410034179688,7.75146484375,-5.859375,31.18896484375
2.3124999,1.7974469661712646,-1.1192892789840698,9.644442558288574,-1.52587890625,5.55419921875,-27.64892578125
2.3174999,2.0697872638702393,-0.8523358106613159,9.485827445983887,9.857177734375,18.37158203125,-15.655517578125
2.3224999,1.104325532913208,-0.3992331326007843,9.8784761428833,-4.21142578125,9.033203125,-37.4755859375
2.3274999000000003,0.3357867896556854,-0.004788403399288654,9.965266227722168,-2.532958984375,3.509521484375,-14.923095703125
2.3324999,-0.5183446407318115,-0.1825578808784485,9.8784761428833,-1.220703125,-1.678466796875,3.387451171875
2.3374999,-0.9666589498519897,-0.50876784324646,9.967659950256348,-7.6904296875,-11.77978515625,20.904541015625
2.3424999,-0.9193734526634216,-0.9971849918365479,9.63187313079834,-17.2119140625,-18.85986328125,20.44677734375
2.3474999000000003,-0.7739257216453552,-1.113303780555725,9.961075782775879,0.91552734375,-7.4462890625,22.8271484375
2.3524999,0.706289529800415,-0.3878606855869293,9.725247383117676,4.364013671875,-4.7607421875,23.74267578125
2.3574999,1.423951506614685,-0.4207809567451477,9.633070945739746,-1.52587890625,0.8544921875,-17.547607421875
2.3624999,1.7363947629928589,-0.7140706777572632,9.57860279083252,3.2958984375,11.962890625,-21.484375
2.3674999000000003,1.9626468420028687,-1.0468647480010986,9.712079048156738,13.00048828125,21.42333984375,-15.472412109375
2.3724999,1.8417396545410156,-0.9151836037635803,9.603741645812988,9.735107421875,17.120361328125,-30.853271484375
2.3774999,1.2761094570159912,-0.899621307849884,9.855133056640625,-2.532958984375,10.19287109375,-41.534423828125
2.3824999,0.7236474752426147,-0.02753331884741783,9.907805442810059,-3.662109375,5.0048828125,-19.866943359375
2.3874999000000003,-0.07182604819536209,-0.2064998894929886,9.873088836669922,-2.5634765625,-0.18310546875,-6.256103515625
2.3924999000000002,-0.706289529800415,0.4794389009475708,10.170568466186523,-1.129150390625,-5.37109375,14.923095703125
2.3974999,-0.9487023949623108,-0.4159925580024719,9.995193481445312,-14.70947265625,-17.669677734375,19.4091796875
2.4024999,-0.9091981053352356,-0.5039794445037842,9.981427192687988,-10.6201171875,-14.16015625,18.6767578125
2.4074999000000004,1.766920804977417,-1.0336965322494507,9.607333183288574,-2.38037109375,4.33349609375,-27.16064453125
2.4124999000000003,1.922544002532959,-0.9127894043922424,9.446322441101074,7.781982421875,15.777587890625,-11.810302734375
2.4174999,2.076371431350708,-1.058835744857788,9.711481094360352,12.908935546875,20.904541015625,-22.979736328125
2.4224999,1.644816517829895,-0.7487865686416626,9.6618013381958,4.94384765625,13.0615234375,-35.15625
2.4274999000000004,1.0450690984725952,-0.4818331003189087,9.893440246582031,-4.08935546875,8.97216796875,-34.5458984375
2.4324999000000003,0.39564183354377747,-0.004788403399288654,9.99100399017334,-3.0517578125,3.23486328125,-12.481689453125
2.4374999,-0.4100070297718048,-0.28072014451026917,9.898826599121094,-1.708984375,-1.312255859375,-1.220703125
2.4424999,-0.7775170207023621,-0.04369417950510979,9.921571731567383,-3.60107421875,-7.598876953125,18.463134765625
2.4474999,-0.8649053573608398,-0.9900023937225342,9.807847023010254,-15.777587890625,-18.096923828125,19.073486328125
2.4524999000000003,1.270722508430481,-0.38486793637275696,9.75517463684082,0.823974609375,-1.251220703125,-4.2724609375
2.4574999,1.7028759717941284,-0.7296329736709595,9.774927139282227,-1.15966796875,7.2021484375,-24.658203125
2.4624999,1.8872294425964355,-0.7170634269714355,9.62947940826416,9.58251953125,17.333984375,-10.1318359375
2.4674999,2.032677173614502,-1.0115501880645752,9.717466354370117,12.542724609375,19.59228515625,-25.726318359375
2.4724999000000003,1.478419542312622,-0.7577648162841797,9.711481094360352,2.227783203125,11.566162109375,-36.224365234375
2.4774999,0.9929951429367065,-0.3603273630142212,9.843161582946777,-4.0283203125,7.38525390625,-26.397705078125
2.4824999,0.24600422382354736,-0.16639702022075653,9.915586471557617,-2.716064453125,1.77001953125,-9.368896484375
2.4874999,-0.5482721924781799,-0.3495534360408783,9.862914085388184,-1.28173828125,-1.800537109375,2.166748046875
2.4924999000000003,-0.851138710975647,-0.5081692934036255,9.82640266418457,-4.913330078125,-8.514404296875,18.12744140625
2.4974999,-0.646434485912323,-1.0169371366500854,9.79647445678711,-1.220703125,-8.1787109375,18.707275390625
2.5024999,-0.30466216802597046,-1.1390414237976074,9.64564037322998,4.5166015625,-9.6435546875,29.449462890625
2.5074999,0.2106897532939911,-0.9852139949798584,9.800065994262695,-0.152587890625,-12.75634765625,22.735595703125
2.5124999000000003,0.6350619792938232,-0.3728969097137451,9.825803756713867,3.692626953125,-5.401611328125,22.735595703125
2.5174999000000002,1.3521254062652588,-0.2124854028224945,9.82999324798584,0.030517578125,-0.946044921875,-8.758544921875
2.5224999,1.7082629203796387,-0.6009446382522583,9.814431190490723,-0.67138671875,8.11767578125,-21.78955078125
2.5274999,1.9129672050476074,-0.7487865686416626,9.647436141967773,9.46044921875,17.181396484375,-10.101318359375
2.5324999000000004,1.9835960865020752,-0.9612720012664795,9.692925453186035,11.505126953125,18.707275390625,-25.81787109375
2.5374999000000003,1.4401123523712158,-0.7984662652015686,9.694721221923828,1.495361328125,11.688232421875,-33.416748046875
2.5424999,0.9696516990661621,-0.3292027413845062,9.806650161743164,-4.180908203125,6.866455078125,-24.10888671875
2.5474999,0.24181437492370605,-0.1867477297782898,9.885659217834473,-2.838134765625,1.678466796875,-10.101318359375
2.5524999000000004,-0.5285200476646423,-0.3818751573562622,9.832387924194336,-0.823974609375,-1.15966796875,1.556396484375
2.5574999000000003,-0.6260837316513062,-1.0396820306777954,9.812037467956543,-1.434326171875,-7.659912109375,17.730712890625
2.5624999,0.22206220030784607,-1.0330979824066162,9.75517463684082,-0.42724609375,-12.847900390625,20.6298828125
2.5674999,0.6099228858947754,-0.436343252658844,9.809642791748047,3.631591796875,-4.5166015625,21.91162109375
2.5724999,1.30543851852417,-0.25318682193756104,9.82640266418457,0.762939453125,-0.3662109375,-6.500244140625
2.5774999000000003,1.688510775566101,-0.4812345504760742,9.839570045471191,-1.28173828125,7.049560546875,-21.514892578125
2.5824999,1.775899052619934,-0.6739677786827087,9.643245697021484,7.99560546875,15.7470703125,-9.21630859375
2.5874999,1.8818424940109253,-0.9696516990661621,9.742605209350586,11.71875,18.73779296875,-24.932861328125
2.5924999,1.3670891523361206,-0.7553706169128418,9.68694019317627,3.631591796875,12.054443359375,-30.45654296875
2.5974999000000003,0.8900445103645325,-0.535702645778656,9.829395294189453,-4.547119140625,6.89697265625,-25.665283203125
2.6024999,0.28790274262428284,-0.2256535142660141,9.904213905334473,-2.9296875,1.251220703125,-8.819580078125
2.6074999,-0.7068880796432495,-0.27712884545326233,9.917980194091797,-2.99072265625,-6.439208984375,16.357421875
2.6124999,-0.74040687084198,-0.9582792520523071,9.800065994262695,-14.70947265625,-16.9677734375,17.303466796875
2.6174999000000003,-0.5141547918319702,-0.6967126727104187,9.897629737854004,-3.35693359375,-8.6669921875,16.66259765625
2.6224999,-0.27712884545326233,-0.9068039059638977,9.815030097961426,4.69970703125,-6.65283203125,26.885986328125
2.6274999,0.24480712413787842,-1.0073603391647339,9.787496566772461,-0.946044921875,-13.671875,18.4326171875
2.6324999,0.5770025849342346,-0.5033808946609497,9.764153480529785,3.41796875,-4.302978515625,20.81298828125
2.6374999000000003,1.1887211799621582,-0.30526071786880493,9.749788284301758,2.01416015625,0.18310546875,-0.42724609375
2.6424999000000002,1.6478092670440674,-0.3603273630142212,9.727043151855469,-2.044677734375,4.974365234375,-22.27783203125
2.6474999,1.68970787525177,-0.6835445761680603,9.526528358459473,5.462646484375,13.73291015625,-8.72802734375
2.6524999,1.824381709098816,-0.8834604024887085,9.700706481933594,11.04736328125,18.646240234375,-22.5830078125
2.6574999000000004,1.4167689085006714,-0.761954665184021,9.608530044555664,7.476806640625,13.763427734375,-26.9775390625
2.6624999000000003,0.38965633511543274,-0.1562216579914093,9.90361499786377,-3.90625,1.190185546875,-9.185791015625
2.6674999,-0.31124621629714966,-0.44352585077285767,9.860519409179688,-1.251220703125,-1.007080078125,-2.288818359375
2.6724999,-0.6733692288398743,0.09636662155389786,10.113706588745117,-0.823974609375,-4.608154296875,14.404296875
2.6774999000000004,-0.7727286219596863,-0.8559271097183228,9.947309494018555,-14.2822265625,-16.357421875,16.11328125
2.6824999000000003,-0.5147533416748047,-0.5752069354057312,9.94970417022705,-7.232666015625,-11.077880859375,16.29638671875
2.6874999,-0.38965633511543274,-1.1079168319702148,9.916783332824707,5.06591796875,-4.241943359375,24.2919921875
2.6924999,0.18315643072128296,-1.4975731372833252,9.628880500793457,-0.42724609375,-14.617919921875,20.904541015625
2.6974999,0.49978959560394287,-1.1558008193969727,9.65222454071045,2.471923828125,-6.500244140625,19.53125
2.7024999000000003,1.0019733905792236,-0.7410054206848145,9.682151794433594,3.662109375,-0.30517578125,8.819580078125
2.7074999,1.0019733905792236,-0.7410054206848145,9.682151794433594,3.662109375,-0.30517578125,8.819580078125
2.7124999,1.5759832859039307,-0.48602294921875,9.654618263244629,-2.105712890625,2.349853515625,-21.820068359375
2.7174999,1.6262614727020264,-0.8134300112724304,9.593565940856934,2.777099609375,11.5966796875,-10.345458984375
2.7224999000000003,0.5871779918670654,-0.02454056777060032,9.898826599121094,-4.638671875,2.777099609375,-13.946533203125
2.7274999,-0.09157821536064148,-0.1843535304069519,9.886856079101562,-1.861572265625,-0.42724609375,-3.662109375
2.7324999,-0.656609833240509,0.2908954918384552,9.96825885772705,0.274658203125,-3.60107421875,10.772705078125
2.7374999,-0.7948749661445618,-0.50876784324646,9.962871551513672,-11.5966796875,-13.7939453125,15.045166015625
2.7424999000000003,-0.5536591410636902,-0.5231330990791321,9.819818496704102,-11.749267578125,-14.22119140625,16.937255859375
2.7474999,-0.4495113790035248,-0.9522937536239624,9.960477828979492,4.425048828125,-3.753662109375,20.5078125
2.7524999,0.08080431073904037,-1.4305355548858643,9.639056205749512,1.28173828125,-12.939453125,24.139404296875
2.7574999,0.4165911078453064,-1.2988544702529907,9.675567626953125,0.67138671875,-9.857177734375,19.561767578125
2.7624999000000003,0.778714120388031,-0.8032546639442444,9.686341285705566,4.669189453125,-1.64794921875,17.120361328125
2.7674999000000002,1.456871747970581,-0.5943605899810791,9.690531730651855,-1.28173828125,0.6103515625,-18.096923828125
2.7724999,1.7854759693145752,-0.8337807655334473,9.70429801940918,9.307861328125,16.876220703125,-12.939453125
2.7774999,1.7573440074920654,-0.8457517623901367,9.662399291992188,10.345458984375,15.533447265625,-25.634765625
2.7824999000000004,1.2090718746185303,-0.6602011322975159,9.793481826782227,0.152587890625,9.918212890625,-30.120849609375
2.7874999000000003,0.7817068696022034,-0.18495208024978638,9.816226959228516,-4.8828125,5.462646484375,-22.064208984375
2.7924999,0.07422025501728058,-0.2017114907503128,9.892841339111328,-2.01416015625,1.3427734375,-6.2255859375
2.7974999,-0.5805938839912415,-0.26336219906806946,9.980229377746582,-0.18310546875,-2.716064453125,8.209228515625
2.8024999000000004,-0.07182604819536209,-1.268328309059143,9.52473258972168,3.509521484375,-10.772705078125,25.93994140625
2.8074999000000003,0.31783026456832886,-1.036689281463623,9.57979965209961,-0.1220703125,-11.932373046875,19.683837890625
2.8124999,0.702099621295929,-0.43514615297317505,9.628880500793457,4.82177734375,-2.86865234375,21.1181640625
2.8174999,1.6531962156295776,-0.5680243372917175,9.728240013122559,-0.335693359375,9.033203125,-19.317626953125
2.8224999,1.7782933712005615,-0.7248445749282837,9.624691009521484,9.063720703125,16.998291015625,-10.284423828125
2.8274999000000003,1.7675193548202515,-1.1222820281982422,9.716867446899414,11.77978515625,17.059326171875,-25.93994140625
2.8324999,1.2623428106307983,-0.800261914730072,9.753378868103027,1.312255859375,10.25390625,-29.4189453125
2.8374999,0.7972691655158997,-0.6135141849517822,9.852140426635742,-4.547119140625,6.77490234375,-26.30615234375
2.8424999,0.18555063009262085,-0.17956513166427612,9.951498985290527,-1.861572265625,2.532958984375,-8.6669921875
2.8474999000000003,-0.5303156971931458,-0.33698388934135437,9.872490882873535,-0.457763671875,-2.3193359375,7.26318359375
2.8524999,-0.7511807680130005,-0.5554547905921936,9.96825885772705,-8.087158203125,-11.23046875,14.617919921875
2.8574999,-0.7481880187988281,-1.2030863761901855,9.68933391571045,-16.4794921875,-16.4794921875,17.486572265625
2.8624999,-0.5608417391777039,-1.193509578704834,9.873687744140625,1.708984375,-5.218505859375,18.890380859375
2.8674999000000003,-0.2059013396501541,-1.348534107208252,9.618106842041016,5.43212890625,-9.063720703125,27.2216796875
2.8724999,0.21667525172233582,-1.1683704853057861,9.670180320739746,-0.274658203125,-12.603759765625,20.3857421875
2.8774999,1.3287819623947144,-0.24839842319488525,9.746794700622559,0.79345703125,-0.457763671875,-9.09423828125
2.8824999,1.6657658815383911,-0.5398924946784973,9.77672290802002,-0.3662109375,8.7890625,-21.575927734375
2.8874999000000003,1.8058266639709473,-0.6596025824546814,9.621698379516602,9.185791015625,17.15087890625,-9.918212890625
2.8924999000000002,1.856104850769043,-1.095347285270691,9.738415718078613,12.054443359375,17.547607421875,-26.2451171875
2.8974999,1.337161660194397,-0.7643488645553589,9.737217903137207,1.40380859375,10.1318359375,-30.6396484375
2.9024999,0.8667010068893433,-0.6051344871520996,9.86351203918457,-4.5166015625,6.988525390625,-27.52685546875
2.9074999000000004,0.23582886159420013,-0.16160862147808075,9.9371337890625,-2.13623046875,2.410888671875,-8.148193359375
2.9124999000000003,-0.5153518915176392,-0.3274070918560028,9.854534149169922,-0.823974609375,-2.62451171875,7.080078125
2.9174999,-0.739209771156311,-0.7332242727279663,9.867103576660156,-7.568359375,-10.986328125,15.228271484375
2.9224999,-0.7410054206848145,-1.2623428106307983,9.59057331085205,-15.68603515625,-16.66259765625,18.096923828125
2.9274999000000004,-0.5452794432640076,-1.3766659498214722,9.761159896850586,1.129150390625,-5.615234375,19.10400390625
2.9324999000000003,-0.19393034279346466,-1.3736732006072998,9.516353607177734,4.69970703125,-9.490966796875,28.13720703125
2.9374999,0.6272808313369751,-0.38905778527259827,9.714473724365234,4.730224609375,-3.997802734375,23.773193359375
2.9424999,1.3628993034362793,-0.18375498056411743,9.75397777557373,0.48828125,0.1220703125,-10.009765625
2.9474999,1.7004817724227905,-0.48901569843292236,9.808445930480957,-0.579833984375,9.033203125,-22.186279296875
2.9524999000000003,1.84233820438385,-0.6099228858947754,9.658807754516602,9.33837890625,17.39501953125,-9.490966796875
2.9574999,1.9674352407455444,-0.8744821548461914,9.73661994934082,11.53564453125,17.822265625,-27.28271484375
2.9624999,0.9445125460624695,-0.3776853084564209,9.825204849243164,-3.72314453125,8.270263671875,-26.7333984375
2.9674999,0.22445641458034515,-0.24839842319488525,9.906009674072266,-2.685546875,1.77001953125,-5.67626953125
2.9724999000000003,-0.5746083855628967,-0.45848962664604187,9.834781646728516,-1.312255859375,-3.509521484375,5.0048828125
2.9774999,-0.8906430602073669,-0.8978256583213806,9.903017044067383,-6.561279296875,-10.101318359375,16.510009765625
2.9824999,-0.8451532125473022,-1.4736311435699463,9.656414031982422,-15.2587890625,-17.059326171875,17.88330078125
2.9874999,-0.6380547285079956,-1.4939818382263184,9.885659217834473,0.518798828125,-6.011962890625,18.707275390625
2.9924999000000003,0.2454056739807129,-1.1540051698684692,9.761159896850586,-0.48828125,-12.87841796875,18.707275390625
2.9974999,0.6368576288223267,-0.37828385829925537,9.79288387298584,4.5166015625,-3.692626953125,23.345947265625
3.0024999,1.3796586990356445,-0.14664486050605774,9.800664901733398,0.457763671875,0.152587890625,-8.758544921875
3.0074999,1.7058687210083008,-0.4572925269603729,9.801262855529785,-0.640869140625,8.72802734375,-22.3388671875
3.0124999000000003,1.8567034006118774,-0.5518634915351868,9.63187313079834,9.521484375,17.51708984375,-9.521484375
3.0174999000000002,1.9710265398025513,-0.8146271109580994,9.716269493103027,11.627197265625,17.88330078125,-26.336669921875
3.0224999,1.4107834100723267,-0.7050924301147461,9.701904296875,2.471923828125,11.444091796875,-34.66796875
3.0274999,0.9259575009346008,-0.30466216802597046,9.832986831665039,-3.753662109375,8.209228515625,-26.275634765625
3.0324999000000004,0.17477671802043915,-0.2322375625371933,9.928754806518555,-2.86865234375,1.5869140625,-5.9814453125
3.0374999000000003,-0.6332663297653198,-0.4668693244457245,9.855731010437012,-1.495361328125,-3.509521484375,3.90625
3.0424999,1.7094600200653076,-0.4315548539161682,9.804854393005371,-1.40380859375,6.988525390625,-23.0712890625
3.0474999,1.809417963027954,-0.6272808313369751,9.602544784545898,8.514404296875,16.54052734375,-8.941650390625
3.0524999000000004,1.9596540927886963,-0.9558850526809692,9.744999885559082,11.53564453125,18.310546875,-26.42822265625
3.0574999000000003,1.4215573072433472,-0.7948749661445618,9.707290649414062,3.41796875,11.260986328125,-32.2265625
3.0624999,0.9253589510917664,-0.524330198764801,9.865307807922363,-3.814697265625,7.965087890625,-27.099609375
3.0674999,0.2519897222518921,-0.2190694510936737,9.959878921508789,-2.74658203125,1.3427734375,-6.683349609375
3.0724999000000004,-0.5518634915351868,-0.444722980260849,9.868300437927246,-1.40380859375,-2.899169921875,3.021240234375
3.0774999000000003,-0.8463503122329712,-1.3329718112945557,9.724648475646973,-14.70947265625,-17.059326171875,17.2119140625
3.0824999,-0.5937620401382446,-1.192312479019165,9.7791166305542,-1.190185546875,-7.2021484375,17.669677734375
3.0874999,-0.3381809890270233,-1.391629695892334,9.68933391571045,5.279541015625,-7.598876953125,28.045654296875
3.0924999,0.18914192914962769,-1.2545616626739502,9.715670585632324,-1.03759765625,-13.092041015625,17.2119140625
3.0974999000000003,0.5333084464073181,-0.5237316489219666,9.769539833068848,3.96728515625,-4.33349609375,23.8037109375
3.1024999,1.247977614402771,-0.2298433631658554,9.791686058044434,1.251220703125,-0.274658203125,-2.593994140625
3.1074999,1.6879122257232666,-0.40880993008613586,9.821015357971191,-1.8310546875,6.195068359375,-23.5595703125
3.1124999,1.7944542169570923,-0.5674257874488831,9.601945877075195,7.99560546875,16.326904296875,-8.880615234375
3.1174999000000003,1.9955670833587646,-0.8463503122329712,9.801861763000488,11.90185546875,19.561767578125,-24.932861328125
3.1224999,1.490989089012146,-0.7781155705451965,9.701305389404297,5.035400390625,12.5732421875,-33.294677734375
3.1274999,0.9624691009521484,-0.5069721937179565,9.884461402893066,-3.23486328125,9.552001953125,-28.533935546875
3.1324999,0.28790274262428284,-0.2059013396501541,9.951498985290527,-2.9296875,1.953125,-6.439208984375
3.1374999000000003,0.23523031175136566,-1.2629413604736328,9.68933391571045,-1.373291015625,-13.336181640625,15.167236328125
3.1424999000000002,0.5506663918495178,-0.7146692276000977,9.71926212310791,3.082275390625,-4.486083984375,21.697998046875
3.1474999,1.1887211799621582,-0.41539400815963745,9.766547203063965,2.655029296875,0.213623046875,4.638671875
3.1524999,1.678335428237915,-0.3842693865299225,9.782109260559082,-2.3193359375,4.08935546875,-23.98681640625
3.1574999000000004,1.7160440683364868,-0.7146692276000977,9.59715747833252,5.0048828125,14.34326171875,-9.735107421875
3.1624999000000003,1.876455545425415,-0.9355342984199524,9.816226959228516,11.871337890625,19.775390625,-21.1181640625
3.1674999,1.5161281824111938,-0.9307458996772766,9.638457298278809,8.819580078125,14.58740234375,-29.84619140625
3.1724999,0.9241618514060974,-0.7966706156730652,9.864110946655273,-2.960205078125,10.25390625,-32.2265625
3.1774999000000004,-0.33339259028434753,-0.3884592354297638,9.82999324798584,-2.62451171875,-3.0517578125,-2.288818359375
3.1824999000000003,-0.7948749661445618,0.3776853084564209,10.1382474899292,-0.8544921875,-4.852294921875,13.641357421875
3.1874999,-0.8601169586181641,-0.5404910445213318,9.9185791015625,-14.129638671875,-16.357421875,16.082763671875
3.1924999,-0.6931213736534119,-0.36152446269989014,9.944915771484375,-7.99560546875,-11.871337890625,16.66259765625
3.1974999000000004,-0.4602852761745453,-0.7811083197593689,9.840767860412598,5.43212890625,-4.21142578125,24.84130859375
3.2024999000000003,0.09397241473197937,-1.4281413555145264,9.559449195861816,-0.762939453125,-13.97705078125,16.937255859375
3.2074999,0.47824180126190186,-1.1641805171966553,9.571419715881348,1.77001953125,-6.34765625,18.402099609375
3.2124999,1.01753568649292,-0.74040687084198,9.655815124511719,4.2724609375,-0.244140625,14.34326171875
3.2174999,1.6136919260025024,-0.5279214978218079,9.680954933166504,-2.105712890625,0.30517578125,-20.69091796875
3.2224999000000003,1.6729484796524048,-0.8948329091072083,9.654618263244629,1.190185546875,10.43701171875,-12.359619140625
3.2274999,1.800439715385437,-1.1079168319702148,9.749788284301758,10.68115234375,18.49365234375,-15.380859375
3.2324999,1.7070658206939697,-0.9804255962371826,9.682151794433594,11.749267578125,16.693115234375,-25.32958984375
3.2374999,-0.6637924313545227,0.0520738884806633,9.877877235412598,-0.1220703125,-3.326416015625,8.087158203125
3.2424999000000003,-0.8170213103294373,-0.6338648796081543,9.938929557800293,-9.6435546875,-12.39013671875,15.350341796875
3.2474999,-0.5805938839912415,-0.7709329724311829,9.733028411865234,-13.00048828125,-16.2353515625,16.754150390625
3.2524999,-0.42856210470199585,-0.8379706144332886,9.981427192687988,3.2958984375,-3.936767578125,20.050048828125
3.2574999,0.05386953800916672,-1.0103530883789062,9.700706481933594,2.01416015625,-10.43701171875,22.247314453125
3.2624999000000003,0.424970805644989,-0.7876923680305481,9.740211486816406,-0.54931640625,-9.735107421875,12.481689453125
3.2674999000000002,0.6997054219245911,-0.33279404044151306,9.719860076904297,4.82177734375,-0.213623046875,20.294189453125
3.2724999,1.323395013809204,-0.22026655077934265,9.68155288696289,-0.091552734375,0,-11.23046875
3.2774999,1.5490485429763794,-0.47644615173339844,9.706692695617676,-1.40380859375,6.988525390625,-18.4326171875
3.2824999000000004,0.8170213103294373,-0.46327802538871765,9.845556259155273,-4.82177734375,6.4697265625,-24.71923828125
3.2874999000000003,0.15981295704841614,-0.22864626348018646,9.940725326538086,-2.777099609375,0.091552734375,-4.547119140625
3.2924999,-0.5847837924957275,-0.48303020000457764,9.850942611694336,-0.946044921875,-2.8076171875,2.777099609375
3.2974999,-0.5847837924957275,-0.48303020000457764,9.850942611694336,-0.946044921875,-2.8076171875,2.777099609375
3.3024999000000004,-0.8176198601722717,-0.44352585077285767,9.86650562286377,-4.5166015625,-8.209228515625,15.045166015625
3.3074999000000003,-0.8271966576576233,-1.2234370708465576,9.725247383117676,-15.594482421875,-18.24951171875,16.4794921875
3.3124999,-0.5333084464073181,-0.973242998123169,9.768342971801758,-2.0751953125,-8.087158203125,17.15087890625
3.3174999,-0.2735375463962555,-1.1905168294906616,9.731232643127441,5.218505859375,-5.889892578125,24.627685546875
3.3224999000000004,0.2585737705230713,-1.1737574338912964,9.70549488067627,-1.373291015625,-13.153076171875,12.664794921875
3.3274999000000003,0.5291185975074768,-0.5752069354057312,9.771934509277344,3.35693359375,-3.448486328125,21.575927734375
3.3324999,1.1540051698684692,-0.23582886159420013,9.788095474243164,2.655029296875,-0.30517578125,4.08935546875
3.3374999,1.6514005661010742,-0.6230909824371338,9.604340553283691,5.523681640625,14.22119140625,-7.598876953125
3.3424999,1.8160020112991333,-0.9445125460624695,9.833584785461426,11.627197265625,18.73779296875,-21.881103515625
3.3474999000000003,1.4413094520568848,-0.8870517015457153,9.660603523254395,8.11767578125,13.427734375,-25.054931640625
3.3524999,0.8936358094215393,-0.8649053573608398,9.880271911621094,-3.692626953125,8.941650390625,-30.3955078125
3.3574999,0.4357447028160095,-0.10235211998224258,9.912593841552734,-3.2958984375,1.861572265625,-8.697509765625
3.3624999,-0.2693476974964142,-0.4279635548591614,9.836577415466309,-2.0751953125,-2.044677734375,-1.03759765625
3.3674999000000003,-0.7134721279144287,0.33099839091300964,10.023923873901367,-0.42724609375,-4.486083984375,11.77978515625
3.3724999,-0.8577227592468262,-0.4728548228740692,9.889249801635742,-13.519287109375,-16.2353515625,15.5029296875
3.3774999,-0.6440402865409851,-0.42616790533065796,9.778518676757812,-9.063720703125,-13.397216796875,18.157958984375
3.3824999,-0.4183867573738098,-0.7116764783859253,9.810839653015137,5.950927734375,-3.0517578125,20.050048828125
3.3874999000000003,0.11432313174009323,-1.4305355548858643,9.531915664672852,-0.54931640625,-11.566162109375,16.05224609375
3.3924999000000002,0.518943190574646,-1.1994950771331787,9.627084732055664,0.885009765625,-7.476806640625,17.425537109375
3.3974999,1.6376339197158813,-0.9858125448226929,9.646238327026367,10.589599609375,15.655517578125,-25.482177734375
3.4024999,1.1109095811843872,-0.8553285598754883,9.783307075500488,0.30517578125,11.627197265625,-27.557373046875
3.4074999000000004,0.6811503767967224,-0.15801730751991272,9.797672271728516,-4.486083984375,3.631591796875,-17.63916015625
3.4124999000000003,-0.016759412363171577,-0.27653029561042786,9.830592155456543,-2.13623046875,-1.129150390625,-4.0283203125
3.4174999,-0.5746083855628967,-0.3292027413845062,9.959878921508789,-0.67138671875,-2.716064453125,7.50732421875
3.4224999,-0.7422025203704834,-1.0295066833496094,9.926959037780762,-9.490966796875,-12.0849609375,13.12255859375
3.4274999000000004,-0.5704185366630554,-1.357512354850769,9.765350341796875,-13.3056640625,-15.56396484375,18.4326171875
3.4324999000000003,-0.4387374520301819,-1.4945803880691528,9.720458984375,3.2958984375,-3.875732421875,15.13671875
3.4374999,0.645237386226654,-0.11851298063993454,9.656414031982422,4.058837890625,-2.197265625,20.172119140625
3.4424999,1.2246341705322266,-0.07242459803819656,9.718064308166504,2.410888671875,0.762939453125,-5.126953125
3.4474999000000004,1.600523829460144,-0.1388636976480484,9.754576683044434,-1.922607421875,3.997802734375,-15.594482421875
3.4524999000000003,1.713649868965149,-0.67815762758255,9.602544784545898,5.43212890625,13.458251953125,-12.20703125
3.4574999,1.7920600175857544,-0.9510966539382935,9.801861763000488,12.02392578125,20.355224609375,-22.247314453125
3.4624999,1.3754688501358032,-0.8661024570465088,9.680954933166504,8.209228515625,14.2822265625,-24.627685546875
3.4674999,0.7745242714881897,-0.8439561128616333,9.893440246582031,-5.37109375,6.591796875,-26.55029296875
3.4724999000000003,0.2795230448246002,-0.1256955862045288,9.929951667785645,-3.60107421875,-0.579833984375,-4.2724609375
3.4774999,-0.4537012279033661,-0.46986207365989685,9.849745750427246,-1.068115234375,-1.983642578125,-0.732421875
3.4824999,-0.7015010714530945,0.0694318488240242,10.000580787658691,-1.800537109375,-4.852294921875,13.18359375
3.4874999,-0.7428010702133179,-0.8816647529602051,9.81024169921875,-14.556884765625,-17.730712890625,15.68603515625
3.4924999000000003,0.5081692934036255,-1.14742112159729,9.662399291992188,-0.518798828125,-7.171630859375,14.739990234375
3.4974999,0.8475474119186401,-0.707486629486084,9.715670585632324,5.7373046875,0.48828125,15.838623046875
3.5024999,1.3024457693099976,-0.49978959560394287,9.724050521850586,-1.922607421875,-0.701904296875,-16.11328125
3.5074999,1.5161281824111938,-0.6925228238105774,9.731831550598145,0.030517578125,8.148193359375,-12.725830078125
3.5124999000000003,1.6525976657867432,-1.106719732284546,9.617507934570312,9.33837890625,17.669677734375,-16.357421875
3.5174999000000002,1.713649868965149,-0.8188169598579407,9.674370765686035,13.24462890625,18.798828125,-21.728515625
3.5224999,0.657806932926178,-0.12928688526153564,9.784503936767578,-5.706787109375,3.0517578125,-12.939453125
3.5274999,0.657806932926178,-0.12928688526153564,9.784503936767578,-5.706787109375,3.0517578125,-12.939453125
3.5324999000000004,0.03292027488350868,-0.1538274586200714,9.879075050354004,-2.349853515625,-2.0751953125,-2.86865234375
3.5374999000000003,-0.641047477722168,-0.4770447015762329,9.82879638671875,0.18310546875,-1.617431640625,3.692626953125
3.5424999,-0.6434416770935059,-1.625662922859192,9.742006301879883,-12.939453125,-15.960693359375,16.17431640625
3.5474999,-0.4124012291431427,-1.6208745241165161,9.816226959228516,-0.79345703125,-6.65283203125,15.777587890625
3.5524999000000004,-0.033518824726343155,-1.1737574338912964,9.785101890563965,5.79833984375,-6.04248046875,26.2451171875
3.5574999000000003,0.3555389642715454,-1.170764684677124,9.731232643127441,-3.23486328125,-12.664794921875,3.96728515625
3.5624999,0.6260837316513062,-0.17417816817760468,9.822212219238281,2.8076171875,-1.678466796875,19.1650390625
3.5674999,1.1743559837341309,-0.11252748221158981,9.813234329223633,3.5400390625,0.3662109375,2.410888671875
3.5724999000000004,1.459265947341919,0.025737667456269264,9.843161582946777,-2.593994140625,0.91552734375,-14.95361328125
3.5774999000000003,1.6484078168869019,-0.5949591398239136,9.743204116821289,1.8310546875,10.162353515625,-10.68115234375
3.5824999,1.690904974937439,-0.8864531517028809,9.767146110534668,10.101318359375,18.5546875,-21.148681640625
3.5874999,1.5328876972198486,-0.9026140570640564,9.637859344482422,12.115478515625,17.791748046875,-19.8974609375
3.5924999,0.910993754863739,-0.9798270463943481,9.797073364257812,-3.2958984375,7.537841796875,-27.7099609375
3.5974999000000003,0.4985924959182739,-0.2406172752380371,9.78869342803955,-5.035400390625,0.396728515625,-7.6904296875
3.6024999,-0.5339069962501526,-0.27473464608192444,9.79527759552002,1.28173828125,-1.0986328125,7.9345703125
3.6074999,-0.6314706802368164,-0.8846575021743774,9.877877235412598,-7.904052734375,-11.260986328125,13.73291015625
3.6124999,-0.4920084476470947,-1.2270283699035645,9.708487510681152,-12.725830078125,-15.68603515625,16.021728515625
3.6174999000000003,-0.363918662071228,-1.3646949529647827,9.91977596282959,1.983642578125,-4.5166015625,17.27294921875
3.6224999,0.0736217051744461,-1.3682862520217896,9.765948295593262,3.96728515625,-9.063720703125,24.566650390625
3.6274999,0.37169981002807617,-1.5071499347686768,9.765948295593262,-4.058837890625,-10.040283203125,-1.922607421875
3.6324999,0.7230489253997803,-0.5351040959358215,9.803657531738281,5.2490234375,0.518798828125,21.209716796875
3.6374999000000003,1.1522095203399658,-0.5829881429672241,9.780912399291992,1.77001953125,0.274658203125,-4.39453125
3.6424999000000002,1.4359225034713745,-0.15023615956306458,9.812037467956543,-2.044677734375,1.800537109375,-11.871337890625
3.6474999,1.5682021379470825,-0.8325836658477783,9.739612579345703,1.861572265625,11.260986328125,-15.777587890625
3.6524999,1.5544354915618896,-0.8565256595611572,9.785700798034668,10.589599609375,18.98193359375,-17.15087890625
3.6574999000000004,1.380257248878479,-0.9469067454338074,9.642647743225098,11.23046875,16.448974609375,-21.1181640625
3.6624999000000003,-0.5548562407493591,0.028730420395731926,9.877877235412598,2.74658203125,-0.42724609375,8.1787109375
3.6674999,-0.5752069354057312,-0.760757565498352,9.901819229125977,-8.72802734375,-10.80322265625,12.451171875
3.6724999,-0.38067805767059326,-0.5883750915527344,9.841365814208984,-9.796142578125,-13.671875,13.97705078125
3.6774999000000004,-0.2585737705230713,-0.7422025203704834,10.047865867614746,1.922607421875,-5.67626953125,25.87890625
3.6824999000000003,0.2561795711517334,-1.2659341096878052,9.82759952545166,-0.67138671875,-12.786865234375,15.106201171875
3.6874999,0.524330198764801,-1.2342109680175781,9.780912399291992,-1.40380859375,-6.103515625,-1.373291015625
3.6924999,0.7428010702133179,-0.9014169573783875,9.75517463684082,8.148193359375,3.96728515625,18.00537109375
3.6974999000000004,1.1402385234832764,-0.5889736413955688,9.668983459472656,0.213623046875,-2.86865234375,-0.79345703125
3.7024999000000003,1.4407109022140503,-0.15921440720558167,9.77013874053955,-3.387451171875,-0.244140625,-19.256591796875
3.7074999,1.4550760984420776,-0.4866214990615845,9.786897659301758,2.197265625,14.190673828125,-13.519287109375
3.7124999,1.389235496520996,-0.9151836037635803,9.654618263244629,9.918212890625,13.36669921875,-21.392822265625
3.7174999,0.6344634294509888,-0.8643068075180054,9.761758804321289,-0.885009765625,8.575439453125,-21.6064453125
3.7224999000000003,0.3298012912273407,-0.32441434264183044,9.765350341796875,-5.401611328125,0.30517578125,-3.570556640625
3.7274999,-0.1364694982767105,-0.4040215313434601,9.856329917907715,-3.5400390625,-5.096435546875,-5.0048828125
3.7324999,-0.5392939448356628,-0.41778820753097534,10.016142845153809,2.105712890625,-0.1220703125,4.608154296875
3.7374999,-0.545877993106842,-1.1635819673538208,9.930550575256348,-6.16455078125,-8.056640625,12.603759765625
3.7424999000000003,-0.35733461380004883,-1.0833762884140015,9.961075782775879,-10.6201171875,-14.984130859375,14.312744140625
3.7474999,-0.2579752206802368,-0.9816226959228516,10.01075553894043,0.6103515625,-6.866455078125,22.796630859375
3.7524999,0.14903905987739563,-1.3108254671096802,9.761159896850586,-1.953125,-10.6201171875,11.474609375
3.7574999,0.48901569843292236,-0.7643488645553589,9.727043151855469,0.3662109375,-5.401611328125,1.40380859375
3.7624999000000003,-0.4776432514190674,-0.8391677141189575,9.870695114135742,-1.922607421875,-3.90625,12.63427734375
3.7674999000000002,-0.48303020000457764,-1.2844891548156738,9.786299705505371,-11.810302734375,-15.106201171875,11.688232421875
3.7724999,-0.35015198588371277,-0.9319429993629456,9.839570045471191,-0.701904296875,-7.537841796875,20.32470703125
3.7774999,-0.05147533491253853,-1.2168530225753784,9.740211486816406,-0.48828125,-9.27734375,19.287109375
3.7824999000000004,1.0169371366500854,-0.33698388934135437,9.809642791748047,1.434326171875,-1.861572265625,11.505126953125
3.7874999000000003,1.371279001235962,0.028730420395731926,9.847949981689453,-3.326416015625,-4.669189453125,-16.357421875
3.7924999,1.41257905960083,0.0005985504249110818,9.836577415466309,0.1220703125,10.101318359375,-15.594482421875
3.7974999,1.4413094520568848,-0.6560112833976746,9.631275177001953,6.561279296875,14.95361328125,-6.34765625
3.8024999000000004,1.4772224426269531,-1.0217255353927612,9.830592155456543,8.148193359375,12.847900390625,-18.12744140625
3.8074999000000003,0.9415197968482971,-0.8810662031173706,9.644442558288574,6.622314453125,10.833740234375,-20.660400390625
3.8124999,0.3866635859012604,-0.7846996188163757,9.889848709106445,-4.974365234375,5.67626953125,-11.8408203125
3.8174999,0.1909375786781311,-0.2819172441959381,9.851541519165039,-5.2490234375,-5.2490234375,-3.23486328125
3.8224999000000004,-0.4189853072166443,-0.5135562419891357,9.781511306762695,-0.1220703125,-1.373291015625,-4.180908203125
3.8274999000000003,-0.4710591733455658,0.0586579404771328,9.958083152770996,1.922607421875,-0.06103515625,11.77978515625
3.8324999,-0.41539400815963745,-0.8708908557891846,9.815030097961426,-11.138916015625,-13.48876953125,10.31494140625
3.8374999,0.6033388376235962,-0.9032126069068909,9.731232643127441,6.40869140625,0.54931640625,8.48388671875
3.8424999,0.8170213103294373,-1.1563993692398071,9.75278091430664,3.96728515625,0.823974609375,19.561767578125
3.8474999000000003,1.193509578704834,-0.608127236366272,9.722254753112793,-3.265380859375,-8.11767578125,-5.401611328125
3.8524999,1.2868833541870117,-0.3770867586135864,9.770736694335938,-1.922607421875,3.265380859375,-19.073486328125
3.8574999,1.4000093936920166,-0.5847837924957275,9.765948295593262,3.936767578125,15.289306640625,-8.026123046875
3.8624999,1.4221558570861816,-1.0983400344848633,9.694721221923828,7.843017578125,13.580322265625,-12.847900390625
3.8674999000000003,1.3090298175811768,-0.7260416746139526,9.66419506072998,8.758544921875,12.664794921875,-20.20263671875
3.8724999,0.5560533404350281,-0.7864952683448792,9.777320861816406,-1.46484375,8.087158203125,-18.157958984375
3.8774999,0.3794809579849243,-0.21428105235099792,9.762955665588379,-6.103515625,-1.3427734375,-3.35693359375
3.8824999,-0.09816227108240128,-0.3842693865299225,9.855133056640625,-1.922607421875,-3.5400390625,-6.256103515625
3.8874999000000003,1.036689281463623,-0.37469255924224854,9.707889556884766,-0.152587890625,-4.669189453125,5.31005859375
3.8924999000000002,1.2437877655029297,0.008978256024420261,9.774328231811523,-3.173828125,-4.058837890625,-16.448974609375
3.8974999,1.349731206893921,0.004788403399288654,9.779715538024902,0.8544921875,11.383056640625,-13.916015625
3.9024999,1.4203602075576782,-0.6931213736534119,9.643844604492188,6.53076171875,14.404296875,-8.1787109375
3.9074999000000004,1.48081374168396,-0.9870096445083618,9.837176322937012,7.965087890625,12.969970703125,-17.88330078125
3.9124999000000003,0.1430535465478897,-0.24660277366638184,9.883264541625977,-5.157470703125,-5.889892578125,-3.082275390625
3.9174999,0.1430535465478897,-0.24660277366638184,9.883264541625977,-5.157470703125,-5.889892578125,-3.082275390625
3.9224999,-0.456095427274704,-1.025316834449768,9.807847023010254,-11.23046875,-13.641357421875,9.063720703125
3.9274999000000004,-0.456095427274704,-1.025316834449768,9.807847023010254,-11.23046875,-13.641357421875,9.063720703125
3.9324999000000003,-0.48482584953308105,-0.3555389642715454,9.910798072814941,-2.50244140625,-8.453369140625,16.326904296875
3.9374999,-0.22505496442317963,-0.7823054194450378,9.876680374145508,0.18310546875,-7.080078125,25.909423828125
3.9424999,0.284311443567276,-1.43532395362854,9.749788284301758,-4.974365234375,-11.29150390625,-3.997802734375
3.9474999000000004,0.5380968451499939,-0.8038532137870789,9.784503936767578,7.01904296875,2.01416015625,8.819580078125
3.9524999000000003,0.9205705523490906,-1.1025298833847046,9.788095474243164,4.0283203125,1.007080078125,17.4560546875
3.9574999,1.3012486696243286,-0.5237316489219666,9.75397777557373,-3.143310546875,-7.6904296875,-6.195068359375
3.9624999,1.3730746507644653,-0.37828385829925537,9.780912399291992,-1.64794921875,3.326416015625,-17.608642578125
3.9674999000000004,0.28371289372444153,-0.383670836687088,9.77791976928711,-6.89697265625,-1.52587890625,-2.227783203125
3.9724999000000003,-0.0736217051744461,-0.3082534670829773,9.893440246582031,-2.593994140625,-5.523681640625,-5.06591796875
3.9774999,-0.5752069354057312,-0.5141547918319702,9.835380554199219,2.960205078125,1.52587890625,3.936767578125
3.9824999,-0.40462008118629456,-1.128267526626587,9.824007987976074,-4.57763671875,-5.401611328125,10.040283203125
3.9874999,-0.33039984107017517,-1.104325532913208,9.835380554199219,-8.697509765625,-12.451171875,10.43701171875
3.9924999000000003,-0.27712884545326233,-0.9301473498344421,9.964667320251465,0.3662109375,-5.645751953125,22.247314453125
3.9974999,0.152031809091568,-1.3545196056365967,9.850942611694336,-3.509521484375,-11.90185546875,15.68603515625
4.0024999,1.1605892181396484,-0.5135562419891357,9.72165584564209,9.979248046875,14.2822265625,-21.3623046875
4.0074999,0.3519476354122162,-1.0031704902648926,9.763554573059082,-0.579833984375,6.89697265625,-12.8173828125
4.0124999,0.21188685297966003,-0.4291606545448303,9.776124000549316,-7.537841796875,-4.150390625,-0.274658203125
4.0174999,-0.166995570063591,-0.3824737071990967,9.864110946655273,-1.251220703125,-5.157470703125,-5.0048828125
4.022499900000001,-0.5321113467216492,-0.3800795078277588,9.835979461669922,3.173828125,2.044677734375,6.500244140625
4.0274999000000005,-0.25318682193756104,-0.9481038451194763,9.835979461669922,-6.195068359375,-7.049560546875,7.171630859375
4.0324999,-0.22026655077934265,-0.5530605912208557,9.86650562286377,-5.2490234375,-8.48388671875,8.60595703125
4.0374999,-0.2651578485965729,-0.5398924946784973,10.002974510192871,0.579833984375,-4.82177734375,28.3203125
4.0424999,0.45010992884635925,-0.7481880187988281,9.856329917907715,-0.3662109375,-5.31005859375,-6.103515625
4.0474999,0.6434416770935059,-0.8702923059463501,9.751583099365234,9.002685546875,6.866455078125,16.265869140625
4.0524999,1.0666168928146362,-0.545877993106842,9.751583099365234,1.03759765625,-2.655029296875,3.143310546875
4.0574999,1.171961784362793,-0.26336219906806946,9.784503936767578,-4.57763671875,-6.317138671875,-8.11767578125
4.062499900000001,1.2982559204101562,-0.16220717132091522,9.801262855529785,-0.335693359375,5.706787109375,-13.946533203125
4.0674999000000005,1.423951506614685,-0.40880993008613586,9.779715538024902,5.218505859375,14.434814453125,-9.857177734375
4.0724999,1.2515689134597778,-1.1785458326339722,9.667786598205566,7.38525390625,14.5263671875,-13.153076171875
4.0774999,1.0947487354278564,-0.7260416746139526,9.712079048156738,6.53076171875,12.359619140625,-20.01953125
4.0824999,-0.3429693877696991,-0.2106897532939911,9.807847023010254,4.425048828125,2.044677734375,6.04248046875
4.0874999,-0.37828385829925537,-0.21128830313682556,9.932345390319824,-0.274658203125,-5.2490234375,23.37646484375
4.0924999,0.013766659423708916,-0.4082113802433014,9.839570045471191,-5.401611328125,-17.39501953125,24.0478515625
4.0974999,0.25498247146606445,-0.6745663285255432,9.873088836669922,-4.5166015625,-10.25390625,-9.002685546875
4.1024999,0.6224924325942993,-0.6093243360519409,9.829395294189453,8.72802734375,6.134033203125,21.8505859375
4.1074999000000005,1.2342109680175781,-0.8822633028030396,9.78869342803955,2.960205078125,0.640869140625,0.701904296875
4.1124999,1.2401964664459229,-0.5363011956214905,9.808445930480957,-1.953125,-2.471923828125,-10.009765625
4.1174999,1.347337007522583,-0.49559974670410156,9.77253246307373,-2.0751953125,2.777099609375,-7.50732421875
4.1224999,1.4449007511138916,-0.46507367491722107,9.723451614379883,2.50244140625,8.819580078125,-14.404296875
4.1274999,1.2755109071731567,-0.9139865040779114,9.679159164428711,7.354736328125,16.7236328125,-10.711669921875
4.1324999,1.1150994300842285,-0.922366201877594,9.740211486816406,7.598876953125,15.869140625,-18.524169921875
4.1374999,0.06524199992418289,-0.5117605924606323,9.841964721679688,-4.119873046875,-0.335693359375,-0.91552734375
4.1424999,-0.1646013706922531,-0.4794389009475708,9.836577415466309,-2.8076171875,-3.936767578125,-3.35693359375
4.147499900000001,-0.4578910768032074,-0.39624038338661194,9.821614265441895,2.74658203125,0.518798828125,2.197265625
4.1524999000000005,-0.35254621505737305,-0.7050924301147461,9.806051254272461,-1.983642578125,-2.655029296875,5.9814453125
4.1574999,-0.23942017555236816,-0.46088382601737976,9.813234329223633,-6.927490234375,-9.8876953125,8.72802734375
4.1624999,-0.11552023142576218,0.009576806798577309,9.950302124023438,-2.50244140625,-11.23046875,22.857666015625
4.1674999,0.20530278980731964,-0.557250440120697,9.893440246582031,-5.218505859375,-14.83154296875,0.213623046875
4.1724999,0.5303156971931458,-0.31184476613998413,9.86111831665039,4.791259765625,2.044677734375,10.833740234375
4.1774999,1.1342530250549316,-0.7314286231994629,9.812037467956543,5.157470703125,2.655029296875,8.544921875
4.1824999,1.2689268589019775,-0.3250128924846649,9.740809440612793,-2.166748046875,-3.90625,-9.3994140625
4.187499900000001,1.3395558595657349,-0.3429693877696991,9.740211486816406,-2.899169921875,-0.091552734375,-6.103515625
4.1924999000000005,0.2406172752380371,-0.5003881454467773,9.856928825378418,-3.448486328125,1.129150390625,-2.593994140625
4.1974999,-0.05267243832349777,-0.4710591733455658,9.802460670471191,-4.5166015625,-4.8828125,-2.838134765625
4.2024999,-0.4129997789859772,-0.46507367491722107,9.778518676757812,1.251220703125,-0.48828125,-1.556396484375
4.2074999,-0.37469255924224854,-0.5315127968788147,9.844358444213867,1.15966796875,0.762939453125,6.65283203125
4.2124999,-0.29209262132644653,-0.7709329724311829,9.802460670471191,-7.568359375,-9.063720703125,7.781982421875
4.2174999,-0.13407529890537262,-0.2998737692832947,9.914389610290527,-3.35693359375,-8.23974609375,16.387939453125
4.2224999,-0.12449848651885986,-0.40282443165779114,9.981427192687988,-1.15966796875,-7.99560546875,21.42333984375
4.2274999,0.3884592354297638,-0.6727706789970398,9.831191062927246,-4.058837890625,-14.83154296875,6.744384765625
4.2324999000000005,0.4578910768032074,-0.70090252161026,9.801861763000488,1.64794921875,-1.129150390625,6.65283203125
4.2374999,1.1839327812194824,-0.37648820877075195,9.727641105651855,-3.0517578125,-0.274658203125,-4.94384765625
4.2424999,1.247977614402771,-0.9959878921508789,9.657012939453125,6.561279296875,13.97705078125,-9.246826171875
4.2474999,1.269525408744812,-0.8816647529602051,9.7791166305542,9.21630859375,16.17431640625,-17.27294921875
4.2524999,0.7751228213310242,-0.7451952695846558,9.761159896850586,2.593994140625,7.415771484375,-15.167236328125
4.2574999,0.31842881441116333,-0.545877993106842,9.886856079101562,-5.523681640625,0.640869140625,-6.439208984375
4.2624999,0.02274491637945175,-0.25977087020874023,9.889848709106445,-2.44140625,-2.838134765625,-4.486083984375
4.2674999,-0.41359832882881165,-0.5907692909240723,9.800664901733398,1.739501953125,1.129150390625,-0.1220703125
4.272499900000001,-0.40043023228645325,-0.4429273009300232,9.889848709106445,0.030517578125,-1.40380859375,7.75146484375
4.2774999000000005,-0.4411316514015198,-0.889445960521698,9.79288387298584,-9.58251953125,-12.481689453125,12.847900390625
4.2824999,-0.1711854189634323,-0.6332663297653198,9.894637107849121,-5.18798828125,-10.498046875,14.5263671875
4.2874999,0.424970805644989,-0.9062053561210632,9.75517463684082,0.48828125,-10.467529296875,14.83154296875
4.2924999,0.5410895943641663,-1.0324994325637817,9.755773544311523,-0.6103515625,-5.523681640625,4.608154296875
4.2974999,0.9139865040779114,-0.4207809567451477,9.750386238098145,4.608154296875,1.953125,9.33837890625
4.3024999,1.1767501831054688,-0.45848962664604187,9.746794700622559,-0.8544921875,-1.3427734375,-11.90185546875
4.3074999,1.260547161102295,-0.2454056739807129,9.785700798034668,-2.25830078125,2.25830078125,-3.96728515625
4.312499900000001,1.4269442558288574,-0.6739677786827087,9.79527759552002,2.288818359375,8.544921875,-11.65771484375
4.3174999000000005,1.2527660131454468,-1.2000936269760132,9.776124000549316,8.819580078125,15.106201171875,-15.13671875
4.3224999,-0.13048399984836578,-0.2519897222518921,9.814431190490723,0.732421875,-0.396728515625,-3.90625
4.3274999,-0.5009866952896118,-0.13946224749088287,9.81263542175293,2.44140625,1.64794921875,6.34765625
4.3324999,-0.3256114423274994,-0.6667851805686951,9.817423820495605,-12.054443359375,-14.495849609375,10.528564453125
4.3374999,-0.12689268589019775,-0.7990648150444031,9.938929557800293,3.60107421875,-1.556396484375,17.4560546875
4.3424999,0.20231004059314728,-1.082777738571167,9.853337287902832,1.52587890625,-3.082275390625,10.68115234375
4.3474999,0.5141547918319702,-0.70090252161026,9.689932823181152,-0.213623046875,-13.24462890625,18.463134765625
4.352499900000001,0.6212953329086304,-0.6177040338516235,9.817423820495605,1.3427734375,-5.2490234375,12.176513671875
4.3574999000000005,1.0552444458007812,-0.19393034279346466,9.712079048156738,2.01416015625,0.244140625,-2.899169921875
4.3624999,1.3305776119232178,-0.2759317457675934,9.761159896850586,-1.068115234375,3.875732421875,-15.13671875
4.3674999,1.3736732006072998,-0.7104793787002563,9.693524360656738,2.197265625,8.97216796875,-4.94384765625
4.3724999,1.5245078802108765,-0.8984242081642151,9.806051254272461,8.331298828125,11.871337890625,-15.960693359375
4.3774999,1.1019313335418701,-0.9690531492233276,9.706093788146973,8.392333984375,14.190673828125,-18.98193359375
4.3824999,0.7936778664588928,-0.6841431260108948,9.831191062927246,-1.28173828125,7.4462890625,-9.429931640625
4.3874999,0.5345055460929871,-0.40521863102912903,9.816226959228516,-6.500244140625,-1.251220703125,-22.705078125
4.3924999,-0.46986207365989685,-0.7733271718025208,9.93593692779541,-10.1318359375,-14.373779296875,10.162353515625
4.397499900000001,-0.48901569843292236,-1.2413935661315918,9.806650161743164,-16.05224609375,-16.204833984375,12.5732421875
4.4024999000000005,1.3389573097229004,-0.3477577865123749,9.713874816894531,-0.030517578125,7.537841796875,-16.082763671875
4.4074999,1.3389573097229004,-0.3477577865123749,9.713874816894531,-0.030517578125,7.537841796875,-16.082763671875
4.4124999,1.5292962789535522,-0.8170213103294373,9.557653427124023,5.401611328125,12.481689453125,-6.378173828125
4.4174999,1.6867151260375977,-0.9385270476341248,9.764751434326172,10.1318359375,14.129638671875,-21.697998046875
4.4224999,0.9235633015632629,-0.6751648783683777,9.874286651611328,-3.570556640625,8.209228515625,-21.05712890625
4.4274999,0.9235633015632629,-0.6751648783683777,9.874286651611328,-3.570556640625,8.209228515625,-21.05712890625
4.4324999,0.5746083855628967,-0.19871874153614044,9.893440246582031,-4.241943359375,0.3662109375,-19.866943359375
4.437499900000001,-0.20470423996448517,-0.2849099934101105,9.86650562286377,1.03759765625,2.532958984375,-2.105712890625
4.4424999000000005,-0.5494692921638489,0.11611878126859665,10.040084838867188,-1.77001953125,-4.425048828125,14.6484375
4.4474999,-0.760757565498352,-0.8158242106437683,9.856928825378418,-17.27294921875,-19.04296875,10.467529296875
4.4524999,-0.5015852451324463,-0.7547720670700073,9.904812812805176,-7.99560546875,-10.1318359375,16.510009765625
4.4574999,-0.43335050344467163,-1.5436615943908691,9.73781681060791,7.4462890625,-1.220703125,20.477294921875
4.4624999,0.13168109953403473,-1.7597382068634033,9.513958930969238,2.685546875,-9.674072265625,19.8974609375
4.4674999,0.2663549482822418,-1.460463047027588,9.603142738342285,0.79345703125,-8.880615234375,26.67236328125
4.4724999,0.8541314601898193,-0.6829460263252258,9.64683723449707,1.861572265625,-4.547119140625,8.209228515625
4.477499900000001,1.4203602075576782,-0.3878606855869293,9.707290649414062,-0.640869140625,2.5634765625,-19.04296875
4.4824999000000005,1.913565754890442,-0.8236053586006165,9.79647445678711,10.19287109375,14.862060546875,-15.9912109375
4.4874999,1.5490485429763794,-0.8738836050033569,9.674370765686035,10.55908203125,15.13671875,-27.587890625
4.4924999,1.0899603366851807,-0.7410054206848145,9.923966407775879,-1.495361328125,11.505126953125,-27.52685546875
4.4974999,0.7044938206672668,-0.1538274586200714,9.864110946655273,-4.21142578125,2.86865234375,-20.69091796875
4.5024999,-0.07182604819536209,-0.16340427100658417,9.891045570373535,-1.52587890625,0.152587890625,-8.056640625
4.5074999,-0.6721721291542053,0.45489832758903503,9.992799758911133,-0.9765625,-3.997802734375,13.641357421875
4.5124999,-0.851138710975647,-0.44412440061569214,9.919178009033203,-15.380859375,-18.218994140625,12.176513671875
4.5174999,-0.6721721291542053,-0.5506663918495178,9.780912399291992,-12.8173828125,-14.312744140625,16.571044921875
4.522499900000001,-0.5309142470359802,-1.3263877630233765,9.716269493103027,6.317138671875,-3.021240234375,22.735595703125
4.5274999000000005,0.07182604819536209,-1.8177976608276367,9.503185272216797,4.241943359375,-8.72802734375,22.064208984375
4.5324999,0.272938996553421,-1.5981296300888062,9.546878814697266,1.03759765625,-9.918212890625,32.16552734375
4.5374999,0.8720879554748535,-0.851138710975647,9.680954933166504,1.373291015625,-6.256103515625,15.0146484375
4.5424999,1.6394295692443848,-0.9415197968482971,9.651026725769043,4.2724609375,14.2822265625,-12.3291015625
4.5474999,2.0805611610412598,-0.9319429993629456,9.750985145568848,11.23046875,16.90673828125,-15.350341796875
4.5524999,1.7501614093780518,-0.9498994946479797,9.586383819580078,9.979248046875,14.95361328125,-29.693603515625
4.5574999,1.2030863761901855,-0.8445546627044678,9.852140426635742,-1.52587890625,12.481689453125,-33.416748046875
4.562499900000001,0.8092401623725891,-0.09636662155389786,9.830592155456543,-2.960205078125,4.852294921875,-22.430419921875
4.5674999000000005,-0.10115502029657364,-0.2148796021938324,9.880271911621094,-2.532958984375,0.1220703125,-8.9111328125
4.5724999,-0.7637503147125244,0.49619829654693604,10.062231063842773,-1.800537109375,-5.340576171875,14.434814453125
4.5774999,-1.0169371366500854,-0.4495113790035248,9.961674690246582,-15.869140625,-19.378662109375,13.5498046875
4.5824999,-0.8254010081291199,-0.595557689666748,9.852738380432129,-12.481689453125,-13.916015625,18.096923828125
4.5874999,-0.6560112833976746,-1.3736732006072998,9.793481826782227,7.080078125,-3.23486328125,23.345947265625
4.5924999,0.023343466222286224,-1.8052281141281128,9.531316757202148,4.57763671875,-9.82666015625,25.5126953125
4.5974999,0.25977087020874023,-1.5544354915618896,9.569623947143555,0.91552734375,-10.19287109375,33.75244140625
4.602499900000001,1.6765397787094116,-1.016338586807251,9.558850288391113,7.14111328125,14.312744140625,-31.646728515625
4.6074999000000005,1.2234370708465576,-0.8601169586181641,9.853337287902832,-2.197265625,12.725830078125,-36.43798828125
4.6124999,0.7296329736709595,-0.0999579206109047,9.891644477844238,-2.62451171875,4.08935546875,-23.468017578125
4.6174999,-0.21787235140800476,-0.3776853084564209,9.85034465789795,-4.058837890625,-1.739501953125,-8.819580078125
4.6224999,-0.689530074596405,0.3669114112854004,10.089165687561035,-3.692626953125,-6.77490234375,15.899658203125
4.6274999,-0.9941922426223755,-0.8056488633155823,9.871891975402832,-17.486572265625,-20.08056640625,16.448974609375
4.6324999,-0.6596025824546814,-0.8319851160049438,9.868300437927246,-8.270263671875,-12.237548828125,19.775390625
4.6374999,-0.5159504413604736,-1.6095020771026611,9.731232643127441,7.843017578125,-3.60107421875,24.0478515625
4.6424999,0.10354922711849213,-1.7866730690002441,9.534309387207031,3.814697265625,-11.199951171875,29.84619140625
4.647499900000001,1.632246971130371,-0.9277531504631042,9.657012939453125,2.960205078125,13.18359375,-34.942626953125
4.6524999000000005,1.2425906658172607,-0.47584760189056396,9.834183692932129,-2.288818359375,10.55908203125,-34.5458984375
4.6574999,0.4902127981185913,-0.11851298063993454,9.891644477844238,-2.838134765625,1.800537109375,-22.216796875
4.6624999,-0.5333084464073181,-0.41778820753097534,9.797672271728516,-3.631591796875,-2.838134765625,-0.79345703125
4.6674999,-0.8960300087928772,-0.27054479718208313,9.869498252868652,-7.87353515625,-11.65771484375,17.76123046875
4.6724999,-1.1001356840133667,-1.2144588232040405,9.70310115814209,-17.4560546875,-20.477294921875,17.425537109375
4.6774999,-0.99479079246521,-1.346139907836914,9.797073364257812,-1.068115234375,-8.697509765625,22.64404296875
4.6824999,-0.5015852451324463,-1.6089035272598267,9.63187313079834,7.171630859375,-5.92041015625,25.634765625
4.687499900000001,1.8040310144424438,-0.628477931022644,9.710283279418945,2.716064453125,11.5966796875,-22.5830078125
4.6924999000000005,2.233790159225464,-0.6991068720817566,9.661202430725098,11.932373046875,19.95849609375,-11.90185546875
4.6974999,2.1290438175201416,-0.8194155097007751,9.636661529541016,11.444091796875,18.402099609375,-27.16064453125
4.7024999,1.5304933786392212,-0.9546879529953003,9.780912399291992,-0.946044921875,11.932373046875,-39.0625
4.7074999,1.0235211849212646,-0.2364274114370346,9.825204849243164,-1.708984375,8.026123046875,-30.3955078125
4.7124999,0.14903905987739563,-0.3100491166114807,9.891644477844238,-3.326416015625,0.640869140625,-18.798828125
4.7174999,-0.6733692288398743,0.05626374110579491,9.819818496704102,-2.44140625,-3.997802734375,7.965087890625
4.7224999,-0.9882067441940308,-0.9804255962371826,9.668384552001953,-14.95361328125,-17.578125,18.707275390625
4.727499900000001,-0.8661024570465088,-1.4736311435699463,9.827000617980957,4.69970703125,-4.852294921875,23.406982421875
4.7324999000000005,-0.21188685297966003,-1.7537527084350586,9.68694019317627,5.584716796875,-8.9111328125,28.289794921875
4.7374999,0.12210428714752197,-1.4652514457702637,9.701904296875,1.190185546875,-11.993408203125,35.919189453125
4.7424999,0.8559271097183228,-0.6619967818260193,9.78869342803955,0.946044921875,-5.9814453125,20.32470703125
4.7474999,1.5316904783248901,-0.6135141849517822,9.741408348083496,-1.03759765625,2.044677734375,-17.181396484375
4.7524999,1.857301950454712,-0.8164227604866028,9.601346969604492,7.415771484375,16.021728515625,-16.4794921875
4.7574999,2.168548107147217,-0.8409633636474609,9.775525093078613,12.939453125,20.56884765625,-17.2119140625
4.7624999,1.8070237636566162,-0.8313865661621094,9.585186958312988,6.04248046875,14.251708984375,-30.09033203125
4.7674999,1.3090298175811768,-0.7799112200737,9.84615421295166,-2.777099609375,11.383056640625,-39.36767578125
4.772499900000001,0.7781155705451965,-0.016759412363171577,9.90241813659668,-1.3427734375,5.035400390625,-26.702880859375
4.7774999000000005,-0.13527239859104156,-0.3926490843296051,9.86650562286377,-3.570556640625,-0.762939453125,-11.962890625
4.7824999,-0.7194576263427734,0.3250128924846649,10.129268646240234,-3.997802734375,-7.14111328125,15.5029296875
4.7874999,-1.0749965906143188,-0.7044938206672668,9.904213905334473,-17.02880859375,-20.69091796875,17.730712890625
4.7924999,-0.8337807655334473,-0.8493430614471436,9.909002304077148,-8.6669921875,-13.092041015625,20.416259765625
4.7974999,-0.011372458189725876,-1.834557056427002,9.564237594604492,3.84521484375,-11.53564453125,32.562255859375
4.8024999,1.9321208000183105,-0.9475052952766418,9.519944190979004,10.986328125,18.585205078125,-11.90185546875
4.8074999,2.248155355453491,-0.8834604024887085,9.75637149810791,12.359619140625,20.050048828125,-22.76611328125
4.812499900000001,1.659181833267212,-0.8355764150619507,9.671378135681152,1.708984375,12.51220703125,-34.881591796875
4.8174999000000005,1.27191960811615,-0.3363853394985199,9.804854393005371,-2.166748046875,10.040283203125,-35.46142578125
4.8224999,0.46746787428855896,0.010773907415568829,9.907805442810059,-2.166748046875,2.9296875,-24.261474609375
4.8274999,-0.5416881442070007,-0.383670836687088,9.818022727966309,-3.47900390625,-2.50244140625,-1.52587890625
4.8324999,-0.9247604012489319,-0.24121582508087158,9.910199165344238,-8.575439453125,-12.115478515625,18.035888671875
4.8374999,-1.1438298225402832,-1.1803414821624756,9.744400978088379,-17.608642578125,-20.8740234375,18.06640625
4.8424999,0.557250440120697,-0.6518214344978333,9.743802070617676,1.007080078125,-8.056640625,29.693603515625
4.8474999,1.469441294670105,-0.14903905987739563,9.660005569458008,-0.274658203125,-0.91552734375,-5.4931640625
4.852499900000001,1.8369512557983398,-0.6392518281936646,9.667187690734863,3.662109375,12.26806640625,-22.369384765625
4.8574999000000005,2.256535053253174,-0.6476315855979919,9.624691009521484,12.14599609375,19.866943359375,-12.786865234375
4.8624999,2.1068975925445557,-0.788889467716217,9.61212158203125,10.345458984375,17.76123046875,-26.79443359375
4.8674999,1.4844050407409668,-0.9217676520347595,9.848548889160156,-1.708984375,11.871337890625,-39.55078125
4.8724999,0.9828197956085205,-0.2059013396501541,9.847949981689453,-1.373291015625,7.38525390625,-30.242919921875
4.8774999,0.07541735470294952,-0.31783026456832886,9.929951667785645,-3.204345703125,1.3427734375,-18.9208984375
4.8824999,-0.8667010068893433,-1.260547161102295,9.834183692932129,5.0048828125,-4.638671875,23.834228515625
4.8874999,-0.16759411990642548,-1.6160861253738403,9.658807754516602,5.340576171875,-9.857177734375,29.78515625
4.8924999,0.1735796183347702,-1.4317326545715332,9.675567626953125,1.0986328125,-11.90185546875,36.346435546875
4.897499900000001,0.9056068062782288,-0.7248445749282837,9.752182006835938,1.15966796875,-5.035400390625,19.439697265625
4.9024999000000005,1.5682021379470825,-0.7398083209991455,9.706093788146973,-0.79345703125,2.838134765625,-17.88330078125
4.9074999,1.900996208190918,-0.9469067454338074,9.560646057128906,8.056640625,16.754150390625,-16.937255859375
4.9124999,2.1703438758850098,-0.9085995554924011,9.768941879272461,14.16015625,22.27783203125,-18.218994140625
4.9174999,1.7741034030914307,-0.8607155084609985,9.5809965133667,5.4931640625,14.190673828125,-29.815673828125
4.9224999,1.2551602125167847,-0.7386112213134766,9.828198432922363,-3.448486328125,9.8876953125,-38.9404296875
4.9274999,0.7092822790145874,0.018555063754320145,9.892841339111328,-1.495361328125,4.669189453125,-26.7333984375
4.9324999,-0.19812019169330597,-0.3770867586135864,9.834781646728516,-3.448486328125,-0.457763671875,-10.68115234375
4.937499900000001,-0.7314286231994629,-0.8984242081642151,9.817423820495605,-7.904052734375,-13.0615234375,20.294189453125
4.9424999000000005,-0.5740098357200623,-1.6514005661010742,9.678560256958008,7.843017578125,-3.814697265625,24.59716796875
4.9474999,0.0736217051744461,-1.8507179021835327,9.537302017211914,3.47900390625,-12.237548828125,32.989501953125
4.9524999,0.38307225704193115,-1.3886369466781616,9.61212158203125,0.732421875,-10.498046875,33.203125
4.9574999,1.095347285270691,-0.6985083222389221,9.65222454071045,0.457763671875,-3.082275390625,7.781982421875
4.9624999,1.5897499322891235,-1.0217255353927612,9.703699111938477,0.152587890625,7.4462890625,-23.773193359375
4.9674999,1.9961656332015991,-0.9002198576927185,9.553462982177734,11.71875,19.317626953125,-13.031005859375
4.9724999,2.250549554824829,-0.828393816947937,9.732429504394531,12.8173828125,21.148681640625,-22.216796875
4.977499900000001,1.6298527717590332,-0.8032546639442444,9.706093788146973,0.152587890625,11.41357421875,-34.66796875
4.9824999000000005,1.2425906658172607,-0.24899697303771973,9.803657531738281,-2.593994140625,8.30078125,-35.186767578125
4.9874999,0.3842693865299225,-0.005386953707784414,9.930550575256348,-1.800537109375,3.448486328125,-23.529052734375
4.9924999,-1.1204863786697388,-1.3724761009216309,9.722254753112793,-17.852783203125,-20.477294921875,18.585205078125
4.9974999,-0.9971849918365479,-1.5885528326034546,9.77013874053955,-0.396728515625,-8.026123046875,22.0947265625
5.0024999,-0.9971849918365479,-1.5885528326034546,9.77013874053955,-0.396728515625,-8.026123046875,22.0947265625
5.0074999,-0.4902127981185913,-1.8501193523406982,9.609726905822754,7.476806640625,-6.072998046875,26.611328125
5.0124999,-0.05506663769483566,-1.5550340414047241,9.639654159545898,1.983642578125,-12.603759765625,35.46142578125
5.0174999,0.5764040350914001,-0.7739257216453552,9.725247383117676,1.251220703125,-7.8125,28.4423828125
5.022499900000001,1.4586673974990845,-0.2495955228805542,9.727043151855469,-0.213623046875,-1.03759765625,-5.462646484375
5.0274999000000005,1.8160020112991333,-0.7781155705451965,9.684545516967773,3.2958984375,12.0849609375,-22.52197265625
5.0324999,2.2206220626831055,-0.6769605278968811,9.684545516967773,13.397216796875,20.99609375,-13.61083984375
5.0374999,2.0398597717285156,-0.8104372620582581,9.602544784545898,10.589599609375,17.974853515625,-25.726318359375
5.0424999,1.4383167028427124,-0.8870517015457153,9.797073364257812,-2.777099609375,9.82666015625,-38.543701171875
5.0474999,0.058059390634298325,-0.30526071786880493,9.888052940368652,-2.716064453125,1.800537109375,-16.17431640625
5.0524999,-0.7092822790145874,0.19153612852096558,9.873088836669922,-2.5634765625,-4.241943359375,10.162353515625
5.0574999,-1.025316834449768,-0.4124012291431427,9.940725326538086,-13.97705078125,-17.88330078125,17.15087890625
5.062499900000001,-0.9654618501663208,-0.8020575642585754,9.696516990661621,-15.106201171875,-17.364501953125,19.561767578125
5.0674999000000005,-0.8092401623725891,-1.324592113494873,9.858125686645508,5.645751953125,-4.058837890625,23.590087890625
5.0724999,-0.13826514780521393,-1.7184382677078247,9.650428771972656,5.31005859375,-10.009765625,29.4189453125
5.0774999,0.21188685297966003,-1.4802151918411255,9.683348655700684,0.885009765625,-12.51220703125,34.60693359375
5.0824999,0.8834604024887085,-0.7727286219596863,9.748590469360352,1.617431640625,-4.913330078125,20.20263671875
5.0874999,1.5849615335464478,-0.679354727268219,9.712677955627441,-0.54931640625,2.960205078125,-17.39501953125
5.0924999,1.8860323429107666,-0.9690531492233276,9.575610160827637,6.988525390625,16.510009765625,-18.00537109375
5.0974999,2.1589713096618652,-0.8942343592643738,9.798869132995605,14.190673828125,22.52197265625,-17.303466796875
5.102499900000001,1.777694821357727,-0.8595184087753296,9.594164848327637,6.866455078125,14.70947265625,-30.303955078125
5.1074999000000005,-0.20231004059314728,-0.34656068682670593,9.832986831665039,-3.387451171875,-0.335693359375,-11.5966796875
5.1124999,-0.6703764796257019,0.30885201692581177,10.025120735168457,-3.570556640625,-6.439208984375,16.082763671875
5.1174999,-0.9900023937225342,-0.8427590131759644,9.818621635437012,-18.402099609375,-20.93505859375,17.333984375
5.1224999,-0.690727174282074,-0.9498994946479797,9.77013874053955,-9.124755859375,-13.3056640625,19.256591796875
5.1274999,-0.5620388388633728,-1.7148469686508179,9.64923095703125,7.843017578125,-3.814697265625,25.2685546875
5.1324999,0.08200141042470932,-1.9159599542617798,9.470863342285156,3.90625,-12.420654296875,31.402587890625
5.1374999,0.32680854201316833,-1.470638394355774,9.569623947143555,1.3427734375,-10.07080078125,33.111572265625
5.1424999,0.9983820915222168,-0.7350199222564697,9.62947940826416,0.79345703125,-3.631591796875,9.674072265625
5.147499900000001,1.5496470928192139,-0.8271966576576233,9.708487510681152,-0.54931640625,5.645751953125,-22.796630859375
5.1524999000000005,1.8405425548553467,-0.9475052952766418,9.531915664672852,10.1318359375,18.463134765625,-13.885498046875
5.1574999,2.185307502746582,-0.790086567401886,9.853337287902832,13.73291015625,21.484375,-21.270751953125
5.1624999,-0.9744400978088379,-1.6633716821670532,9.743204116821289,-0.762939453125,-8.4228515625,21.636962890625
5.1674999,-0.5333084464073181,-1.9458874464035034,9.59177017211914,7.720947265625,-6.011962890625,26.824951171875
5.1724999,-0.1280897855758667,-1.646013617515564,9.64683723449707,1.983642578125,-13.0615234375,34.423828125
5.1774999,0.46148237586021423,-0.8553285598754883,9.732429504394531,1.739501953125,-8.30078125,29.60205078125
5.1824999,1.3467384576797485,-0.22924481332302094,9.744400978088379,0.274658203125,-1.8310546875,-2.166748046875
5.187499900000001,1.7848774194717407,-0.536899745464325,9.766547203063965,1.800537109375,10.31494140625,-23.37646484375
