# Time (seconds),Accel_X,Accel_Y,Accel_Z,Gyro_X,Gyro_Y,Gyro_Z
0.0024999,0.4183867573738098,-0.29209262132644653,9.970054626464844,5.584716796875,-0.030517578125,-0.30517578125
0.0074999,0.4183867573738098,-0.29209262132644653,9.970054626464844,5.584716796875,-0.030517578125,-0.30517578125
0.012499900000000001,0.4183867573738098,-0.29209262132644653,9.970054626464844,5.584716796875,-0.030517578125,-0.30517578125
0.0174999,0.31543606519699097,-0.2992752194404602,9.660603523254395,-5.218505859375,-0.518798828125,1.46484375
0.0224999,0.4908113479614258,-0.28072014451026917,9.568427085876465,0.48828125,0.18310546875,-2.410888671875
0.0274999,0.363918662071228,-0.262763649225235,9.928754806518555,5.126953125,-0.152587890625,0.244140625
0.0324999,0.2663549482822418,-0.2214636504650116,9.643844604492188,-5.828857421875,-0.823974609375,1.251220703125
0.0374999,0.4429273009300232,-0.21009120345115662,9.66958236694336,1.64794921875,0.518798828125,-2.3193359375
0.0424999,0.5171475410461426,-0.30226796865463257,9.674370765686035,2.74658203125,0.3662109375,-2.62451171875
0.0474999,0.4010287821292877,-0.2992752194404602,9.938331604003906,3.265380859375,0.030517578125,1.15966796875
0.0524999,0.35015198588371277,-0.32381579279899597,9.553462982177734,-5.79833984375,-0.1220703125,0.54931640625
0.0574999,0.5321113467216492,-0.3345896899700165,9.692925453186035,3.814697265625,1.28173828125,-2.38037109375
0.0624999,0.3405751883983612,-0.2561795711517334,9.99459457397461,1.861572265625,-0.457763671875,1.46484375
0.0674999,0.3411737382411957,-0.2711433470249176,9.612719535827637,-6.256103515625,-0.946044921875,0.274658203125
0.0724999,0.5285200476646423,-0.27234044671058655,9.855133056640625,4.364013671875,0.244140625,-2.532958984375
0.0774999,0.32680854201316833,-0.24420857429504395,10.001777648925781,0.8544921875,-0.54931640625,1.77001953125
0.0824999,0.3250128924846649,-0.2998737692832947,9.871294021606445,-0.06103515625,0.152587890625,1.922607421875
0.0874999,0.5129576921463013,-0.32860419154167175,9.884461402893066,5.706787109375,-0.1220703125,-1.77001953125
0.0924999,0.5129576921463013,-0.32860419154167175,9.884461402893066,5.706787109375,-0.1220703125,-1.77001953125
0.0974999,0.25258827209472656,-0.2346317619085312,9.943120002746582,-1.434326171875,-0.6103515625,2.166748046875
0.1024999,0.41778820753097534,-0.2849099934101105,9.626486778259277,-3.997802734375,0.42724609375,-1.129150390625
0.1074999,0.4866214990615845,-0.3076549172401428,10.014347076416016,6.65283203125,1.495361328125,-1.5869140625
0.1124999,0.2777273952960968,-0.2968810200691223,9.91738224029541,-2.3193359375,-0.3662109375,1.89208984375
0.1174999,0.5123591423034668,-0.34596213698387146,9.619303703308105,-3.265380859375,-0.762939453125,-1.64794921875
0.1224999,0.5027823448181152,-0.3321954905986786,9.964069366455078,6.4697265625,0.9765625,-1.068115234375
0.1274999,0.29867666959762573,-0.31364041566848755,9.816226959228516,-3.387451171875,0.06103515625,2.044677734375
0.1324999,0.5195417404174805,-0.3298012912273407,9.618705749511719,-1.800537109375,0.030517578125,-1.953125
0.1374999,0.4315548539161682,-0.2759317457675934,9.989806175231934,6.195068359375,0.457763671875,-0.79345703125
0.1424999,0.2735375463962555,-0.26755204796791077,9.81263542175293,-4.45556640625,-0.274658203125,1.922607421875
0.1474999,0.5195417404174805,-0.30466216802597046,9.619902610778809,-0.9765625,0.48828125,-2.044677734375
0.1524999,0.33698388934135437,-0.30885201692581177,9.649829864501953,-5.43212890625,-0.640869140625,1.739501953125
0.1574999,0.5398924946784973,-0.29867666959762573,9.533112525939941,0.1220703125,0.518798828125,-2.3193359375
0.1624999,0.41718965768814087,-0.24420857429504395,9.907206535339355,4.94384765625,0.244140625,0.18310546875
0.1674999,0.3058592677116394,-0.27413609623908997,9.626486778259277,-5.55419921875,-0.06103515625,1.46484375
0.1724999,0.46746787428855896,-0.2106897532939911,9.66958236694336,1.495361328125,0.396728515625,-2.532958984375
0.17749990000000002,0.3519476354122162,-0.1885433793067932,10.05923843383789,4.2724609375,0.244140625,0.640869140625
0.1824999,0.2735375463962555,-0.22685061395168304,9.721057891845703,-6.072998046875,0.030517578125,1.0986328125
0.1874999,0.47405192255973816,-0.2364274114370346,9.731831550598145,2.50244140625,-0.244140625,-2.349853515625
0.1924999,0.36092591285705566,-0.26156654953956604,9.986215591430664,3.265380859375,-0.030517578125,1.03759765625
0.1974999,0.3130418658256531,-0.34356793761253357,9.549872398376465,-5.92041015625,0.152587890625,0.42724609375
0.2024999,0.5129576921463013,-0.30047231912612915,9.67077922821045,4.058837890625,1.190185546875,-2.471923828125
0.20749990000000001,0.34656068682670593,-0.2555810213088989,10.033500671386719,1.03759765625,0,1.678466796875
0.2124999,0.4165911078453064,-0.2537853717803955,9.59715747833252,-5.035400390625,0.3662109375,-0.244140625
0.2174999,0.5722141861915588,-0.3016694188117981,9.821614265441895,5.4931640625,1.312255859375,-2.227783203125
0.2224999,0.34656068682670593,-0.31603461503982544,9.873088836669922,0.091552734375,-0.1220703125,1.739501953125
0.2274999,0.4225766062736511,-0.3034650683403015,9.474454879760742,-4.730224609375,0.30517578125,-0.732421875
0.2324999,0.5135562419891357,-0.36332011222839355,9.822212219238281,5.615234375,-0.18310546875,-2.044677734375
0.2374999,0.24839842319488525,-0.2885012924671173,9.898228645324707,-1.129150390625,-0.457763671875,2.105712890625
0.2424999,0.46746787428855896,-0.322618693113327,10.014347076416016,5.523681640625,-0.54931640625,-1.556396484375
0.2474999,0.24839842319488525,-0.2603694200515747,9.972448348999023,-2.349853515625,-0.701904296875,2.13623046875
0.2524999,0.31364041566848755,-0.2968810200691223,9.871891975402832,-3.143310546875,-0.42724609375,2.0751953125
0.2574999,0.5428852438926697,-0.2885012924671173,9.634267807006836,-2.532958984375,0.3662109375,-1.8310546875
0.2624999,0.45489832758903503,-0.33937808871269226,10.00836181640625,6.072998046875,0.152587890625,-1.0986328125
0.2674999,0.2801215946674347,-0.2519897222518921,9.82759952545166,-3.96728515625,-0.67138671875,1.89208984375
0.2724999,0.5063736438751221,-0.2777273952960968,9.654618263244629,-1.434326171875,0.3662109375,-2.105712890625
0.2774999,0.40880993008613586,-0.30226796865463257,10.005369186401367,5.67626953125,-0.274658203125,-0.518798828125
0.2824999,0.3076549172401428,-0.25977087020874023,9.768342971801758,-5.0048828125,-0.762939453125,1.708984375
0.28749990000000003,0.5249287486076355,-0.2801215946674347,9.638457298278809,0.152587890625,0.701904296875,-2.3193359375
0.2924999,0.40940847992897034,-0.3148375153541565,9.999382972717285,5.401611328125,0.091552734375,-0.18310546875
0.2974999,0.3082534670829773,-0.2735375463962555,9.711481094360352,-5.340576171875,-0.8544921875,1.373291015625
0.3024999,0.46327802538871765,-0.24181437492370605,9.677961349487305,0.9765625,0.091552734375,-2.5634765625
0.3074999,0.4429273009300232,-0.21308395266532898,9.706093788146973,2.13623046875,0.8544921875,-2.50244140625
0.3124999,0.3555389642715454,-0.2753331959247589,9.979631423950195,3.692626953125,-0.244140625,0.946044921875
0.3174999,0.3058592677116394,-0.24779987335205078,9.597756385803223,-5.889892578125,-0.335693359375,0.579833984375
0.3224999,0.5117605924606323,-0.3106476664543152,9.673771858215332,2.899169921875,-1.03759765625,-2.62451171875
0.3274999,0.3627215623855591,-0.3076549172401428,9.963470458984375,2.5634765625,-0.579833984375,1.434326171875
0.3324999,0.3387795388698578,-0.2717418968677521,9.609726905822754,-5.9814453125,-0.274658203125,0.18310546875
0.3374999,0.524330198764801,-0.28969839215278625,9.79647445678711,3.448486328125,-0.152587890625,-2.532958984375
0.3424999,0.33099839091300964,-0.25917232036590576,10.036493301391602,1.52587890625,0.06103515625,1.77001953125
0.34749990000000003,0.3693056106567383,-0.24480712413787842,9.609726905822754,-5.55419921875,0.30517578125,-0.030517578125
0.35249990000000003,0.5500678420066833,-0.3321954905986786,9.835979461669922,4.302978515625,-0.457763671875,-2.471923828125
0.3574999,0.3357867896556854,-0.30466216802597046,9.929352760314941,0.579833984375,0.030517578125,1.953125
0.3624999,0.5524620413780212,-0.36152446269989014,9.853935241699219,5.584716796875,1.068115234375,-1.89208984375
0.3674999,0.2992752194404602,-0.26336219906806946,9.941922187805176,-0.762939453125,-0.244140625,2.044677734375
0.3724999,0.40940847992897034,-0.22864626348018646,9.613917350769043,-4.913330078125,-1.251220703125,-1.03759765625
0.3774999,0.4908113479614258,-0.3100491166114807,10.008959770202637,5.859375,0.701904296875,-1.64794921875
0.3824999,0.24241292476654053,-0.228047713637352,9.989208221435547,-1.5869140625,0.030517578125,2.01416015625
0.3874999,0.4572925269603729,-0.2753331959247589,9.667786598205566,-3.47900390625,0,-1.40380859375
0.3924999,0.5039794445037842,-0.3579331636428833,10.02811336517334,6.134033203125,0.48828125,-1.28173828125
0.3974999,0.3016694188117981,-0.3064578175544739,9.88745403289795,-2.838134765625,-0.06103515625,2.01416015625
0.4024999,0.4692635238170624,-0.3495534360408783,10.005369186401367,6.04248046875,0.152587890625,-0.946044921875
0.4074999,0.27653029561042786,-0.2454056739807129,9.82640266418457,-3.814697265625,-0.274658203125,1.983642578125
0.41249990000000003,0.5057750940322876,-0.243011474609375,9.651625633239746,-1.861572265625,0.18310546875,-2.01416015625
0.41749990000000003,0.2992752194404602,-0.21847090125083923,9.791088104248047,-4.608154296875,-0.48828125,1.89208984375
0.4224999,0.5249287486076355,-0.25079262256622314,9.63187313079834,-1.03759765625,-0.48828125,-2.410888671875
0.4274999,0.4207809567451477,-0.3064578175544739,9.998785018920898,5.157470703125,-0.213623046875,0
0.4324999,0.32620999217033386,-0.26994624733924866,9.710283279418945,-5.31005859375,-0.67138671875,1.434326171875
0.4374999,0.5003881454467773,-0.2585737705230713,9.66419506072998,0.579833984375,0.54931640625,-2.593994140625
0.4424999,0.36810851097106934,-0.28790274262428284,10.030508041381836,4.69970703125,-0.152587890625,0.42724609375
0.4474999,0.2795230448246002,-0.2106897532939911,9.727043151855469,-5.67626953125,-0.518798828125,1.129150390625
0.4524999,0.45908817648887634,-0.20709845423698425,9.730035781860352,1.861572265625,0.518798828125,-2.44140625
0.4574999,0.3585317134857178,-0.2717418968677521,10.019734382629395,4.119873046875,0.48828125,1.007080078125
0.4624999,0.3016694188117981,-0.23523031175136566,9.62947940826416,-5.67626953125,0.42724609375,0.91552734375
0.4674999,0.50876784324646,-0.2890998423099518,9.67077922821045,3.143310546875,1.0986328125,-2.655029296875
0.47249990000000003,0.3705027103424072,-0.3232172429561615,9.942521095275879,2.9296875,-0.18310546875,1.03759765625
0.47749990000000003,0.5231330990791321,-0.2944868206977844,9.766547203063965,3.96728515625,0.701904296875,-2.5634765625
0.4824999,0.5422866940498352,-0.322618693113327,9.855731010437012,4.486083984375,0.030517578125,-2.349853515625
0.4874999,0.3423708379268646,-0.2992752194404602,9.961674690246582,0.823974609375,0.18310546875,1.8310546875
0.4924999,0.436343252658844,-0.28550854325294495,9.549872398376465,-4.974365234375,0.823974609375,-0.396728515625
0.4974999,0.5674257874488831,-0.3603273630142212,9.818022727966309,5.06591796875,0.518798828125,-1.953125
0.5024999,0.3130418658256531,-0.28730419278144836,9.890447616577148,-0.54931640625,-0.6103515625,2.01416015625
0.5074999,0.40880993008613586,-0.25498247146606445,9.559449195861816,-4.638671875,0.091552734375,-0.762939453125
0.5124999,0.4842272996902466,-0.3315969407558441,9.943717956542969,5.828857421875,0.946044921875,-1.739501953125
0.5174999,0.2346317619085312,-0.24001872539520264,9.96825885772705,-1.52587890625,-0.274658203125,1.983642578125
0.5224999,0.43275195360183716,-0.25318682193756104,9.652822494506836,-3.936767578125,0.1220703125,-1.373291015625
0.5274999,0.2890998423099518,-0.2885012924671173,9.899425506591797,-2.838134765625,-0.823974609375,1.953125
0.5324999,0.5297171473503113,-0.3064578175544739,9.631275177001953,-3.23486328125,-0.762939453125,-1.800537109375
0.5374999,0.4866214990615845,-0.37169981002807617,9.99100399017334,5.859375,-0.274658203125,-1.15966796875
0.5424999,0.29388827085494995,-0.2735375463962555,9.837176322937012,-3.47900390625,-0.48828125,2.105712890625
0.5474999,0.5195417404174805,-0.2561795711517334,9.645041465759277,-1.89208984375,0.274658203125,-1.800537109375
0.5524999,0.4225766062736511,-0.29867666959762573,10.002376556396484,5.9814453125,0.152587890625,-0.67138671875
0.5574999,0.2908954918384552,-0.21607670187950134,9.803058624267578,-4.33349609375,-0.42724609375,1.953125
0.5624999,0.2908954918384552,-0.21607670187950134,9.803058624267578,-4.33349609375,-0.42724609375,1.953125
0.5674999000000001,0.5303156971931458,-0.25079262256622314,9.62828254699707,-0.06103515625,1.77001953125,-1.922607421875
0.5724999000000001,0.42676645517349243,-0.31842881441116333,9.983820915222168,5.67626953125,0.79345703125,-0.1220703125
0.5774999000000001,0.33339259028434753,-0.272938996553421,9.711481094360352,-4.852294921875,-0.244140625,1.46484375
0.5824999,0.5123591423034668,-0.2783259451389313,9.640851974487305,-0.1220703125,-1.068115234375,-2.655029296875
0.5874999,0.2687491476535797,-0.23163901269435883,9.730634689331055,-5.615234375,-0.732421875,1.28173828125
0.5924999,0.2687491476535797,-0.23163901269435883,9.730634689331055,-5.615234375,-0.732421875,1.28173828125
0.5974999,0.44532153010368347,-0.20769700407981873,9.730634689331055,1.220703125,-0.48828125,-2.50244140625
0.6024999,0.3477577865123749,-0.27653029561042786,10.056844711303711,3.997802734375,-0.152587890625,0.54931640625
0.6074999,0.2974795699119568,-0.20889410376548767,9.673771858215332,-5.79833984375,-0.54931640625,0.91552734375
0.6124999,0.5111620426177979,-0.2693476974964142,9.700108528137207,2.716064453125,1.007080078125,-2.532958984375
0.6174999,0.39863458275794983,-0.3196259140968323,9.9586820602417,3.143310546875,-0.67138671875,1.068115234375
0.6224999,0.34656068682670593,-0.27473464608192444,9.580398559570312,-6.04248046875,-0.91552734375,0.732421875
0.6274999,0.5327098965644836,-0.29149407148361206,9.726444244384766,3.326416015625,0.06103515625,-2.777099609375
0.6324999,0.3429693877696991,-0.292691171169281,10.004770278930664,1.983642578125,-0.6103515625,1.3427734375
0.6374999,0.3381809890270233,-0.22445641458034515,9.635464668273926,-5.859375,-0.48828125,0.18310546875
0.6424999,0.5129576921463013,-0.3531447649002075,9.913191795349121,5.7373046875,1.007080078125,-1.8310546875
0.6474999,0.24779987335205078,-0.24779987335205078,9.978434562683105,-1.0986328125,-0.213623046875,1.861572265625
0.6524999,0.4058171808719635,-0.22864626348018646,9.661202430725098,-3.997802734375,0.091552734375,-1.007080078125
0.6574999,0.4812345504760742,-0.3274070918560028,10.046070098876953,6.103515625,1.129150390625,-1.40380859375
0.6624999,0.2669534981250763,-0.25498247146606445,9.951498985290527,-2.25830078125,-0.274658203125,2.0751953125
0.6674999,0.5057750940322876,-0.272938996553421,9.655217170715332,-3.570556640625,-0.8544921875,-1.678466796875
0.6724999,0.5045779943466187,-0.3776853084564209,10.007762908935547,6.317138671875,1.129150390625,-1.220703125
0.6774999,0.29628247022628784,-0.2908954918384552,9.859322547912598,-3.173828125,0.152587890625,1.922607421875
0.6824999,0.518943190574646,-0.2908954918384552,9.648633003234863,-2.044677734375,0.213623046875,-1.953125
0.6874999,0.27473464608192444,-0.24181437492370605,9.837176322937012,-3.692626953125,-0.06103515625,1.800537109375
0.6924999000000001,0.5231330990791321,-0.25677812099456787,9.650428771972656,-0.946044921875,0.701904296875,-2.166748046875
0.6974999000000001,0.4291606545448303,-0.3166331648826599,10.000580787658691,5.523681640625,0.030517578125,-0.335693359375
0.7024999000000001,0.3345896899700165,-0.2579752206802368,9.731831550598145,-4.913330078125,-0.213623046875,1.739501953125
0.7074999,0.5386953949928284,-0.272938996553421,9.627683639526367,-0.213623046875,-0.18310546875,-2.288818359375
0.7124999,0.3908534348011017,-0.3495534360408783,9.99100399017334,5.31005859375,0.79345703125,0.1220703125
0.7174999,0.29388827085494995,-0.2555810213088989,9.707889556884766,-5.18798828125,0.091552734375,1.28173828125
0.7224999,0.36750996112823486,-0.3321954905986786,9.960477828979492,2.532958984375,-0.335693359375,1.46484375
0.7274999,0.3345896899700165,-0.25258827209472656,9.612719535827637,-5.950927734375,-0.42724609375,0.335693359375
0.7324999,0.5099649429321289,-0.29209262132644653,9.825803756713867,3.84521484375,0.213623046875,-2.593994140625
0.7374999,0.3124433159828186,-0.2890998423099518,10.027515411376953,1.556396484375,-0.030517578125,1.556396484375
0.7424999,0.3687070608139038,-0.243011474609375,9.612719535827637,-5.157470703125,0.91552734375,0.030517578125
0.7474999,0.5500678420066833,-0.35494041442871094,9.824606895446777,4.486083984375,0.244140625,-2.25830078125
0.7524999,0.3411737382411957,-0.32441434264183044,9.903017044067383,0.3662109375,0.152587890625,1.8310546875
0.7574999,0.43694180250167847,-0.27473464608192444,9.526528358459473,-4.94384765625,0.67138671875,-0.457763671875
0.7624999,0.5452794432640076,-0.3734954595565796,9.860519409179688,5.706787109375,1.708984375,-2.01416015625
0.7674999,0.28550854325294495,-0.24899697303771973,9.946112632751465,-0.762939453125,-0.091552734375,1.983642578125
0.7724999,0.47225627303123474,-0.2537853717803955,9.679757118225098,-3.41796875,0.396728515625,-1.190185546875
0.7774999,0.5093663930892944,-0.375291109085083,10.032901763916016,6.103515625,0.823974609375,-1.3427734375
0.7824999,0.29867666959762573,-0.28730419278144836,9.886856079101562,-2.99072265625,-0.396728515625,1.89208984375
0.7874999,0.5201402902603149,-0.27892449498176575,9.643844604492188,-2.44140625,0.1220703125,-1.556396484375
0.7924999,0.45010992884635925,-0.375291109085083,10.023324966430664,6.103515625,0.579833984375,-0.9765625
0.7974999,0.2663549482822418,-0.2232593148946762,9.865906715393066,-3.692626953125,-0.3662109375,1.922607421875
0.8024999,0.41539400815963745,-0.31184476613998413,10.021530151367188,5.706787109375,0.823974609375,-0.3662109375
0.8074999,0.3148375153541565,-0.21787235140800476,9.777320861816406,-4.2724609375,0.42724609375,1.64794921875
0.8124999,0.5404910445213318,-0.2645592987537384,9.619902610778809,-0.091552734375,1.556396484375,-2.38037109375
0.8174999000000001,0.345363587141037,-0.2795230448246002,10.016142845153809,4.669189453125,0.3662109375,0.396728515625
0.8224999000000001,0.2669534981250763,-0.17477671802043915,9.718064308166504,-5.4931640625,0.091552734375,1.190185546875
0.8274999000000001,0.44771572947502136,-0.20769700407981873,9.725846290588379,1.983642578125,1.64794921875,-2.5634765625
0.8324999000000001,0.3579331636428833,-0.2992752194404602,10.015543937683105,4.150390625,-0.213623046875,0.8544921875
0.8374999,0.3058592677116394,-0.22625206410884857,9.637260437011719,-5.828857421875,-0.3662109375,1.007080078125
0.8424999,0.5159504413604736,-0.2992752194404602,9.686341285705566,2.38037109375,-0.3662109375,-2.777099609375
0.8474999,0.38546648621559143,-0.3280056416988373,9.961674690246582,3.143310546875,0.18310546875,0.9765625
0.8524999,0.34177228808403015,-0.2537853717803955,9.607931137084961,-5.615234375,0.579833984375,0.640869140625
0.8574999,0.5291185975074768,-0.32022446393966675,9.776124000549316,3.7841796875,0.6103515625,-2.716064453125
0.8624999,0.33279404044151306,-0.28790274262428284,10.029311180114746,2.227783203125,0.48828125,1.52587890625
0.8674999,0.3561375141143799,-0.2753331959247589,9.971850395202637,0.946044921875,-0.30517578125,1.678466796875
0.8724999,0.44532153010368347,-0.2579752206802368,9.554061889648438,-5.401611328125,-0.518798828125,-0.244140625
0.8774999,0.5764040350914001,-0.375291109085083,9.82759952545166,4.8828125,-0.79345703125,-2.227783203125
0.8824999,0.31842881441116333,-0.2669534981250763,9.910199165344238,-0.152587890625,-0.885009765625,1.922607421875
0.8874999,0.4076128304004669,-0.2693476974964142,9.57441234588623,-4.425048828125,0.42724609375,-0.762939453125
0.8924999,0.4854243993759155,-0.3429693877696991,9.947309494018555,5.79833984375,0.579833984375,-1.800537109375
0.8974999,0.22625206410884857,-0.22206220030784607,9.983820915222168,-1.312255859375,-0.274658203125,2.288818359375
0.9024999,0.414795458316803,-0.2364274114370346,9.654618263244629,-4.08935546875,-0.457763671875,-1.40380859375
0.9074999,0.4770447015762329,-0.3405751883983612,10.02452278137207,6.28662109375,0.762939453125,-1.77001953125
0.9124999,0.26994624733924866,-0.2555810213088989,9.915586471557617,-2.197265625,-0.6103515625,1.953125
0.9174999,0.5183446407318115,-0.2992752194404602,9.615114212036133,-3.204345703125,-0.67138671875,-1.739501953125
0.9224999,0.2968810200691223,-0.2621650993824005,9.822212219238281,-2.960205078125,0.457763671875,2.105712890625
0.9274999,0.5153518915176392,-0.2819172441959381,9.637260437011719,-1.89208984375,0.48828125,-2.0751953125
0.9324999,0.4129997789859772,-0.30226796865463257,9.998186111450195,6.16455078125,0.3662109375,-0.6103515625
0.9374999,0.27054479718208313,-0.21009120345115662,9.824007987976074,-4.058837890625,-0.396728515625,2.044677734375
0.9424999000000001,0.5033808946609497,-0.262763649225235,9.641449928283691,-1.434326171875,-1.617431640625,-2.471923828125
0.9474999000000001,0.41958385705947876,-0.29867666959762573,10.001178741455078,5.92041015625,0.640869140625,-0.30517578125
0.9524999000000001,0.3256114423274994,-0.26815059781074524,9.718064308166504,-4.547119140625,0.213623046875,1.77001953125
0.9574999000000001,0.5249287486076355,-0.30286651849746704,9.610923767089844,0.396728515625,0.274658203125,-2.410888671875
0.9624999,0.4016273319721222,-0.3076549172401428,9.968857765197754,5.096435546875,-0.091552734375,0.152587890625
0.9674999,0.2944868206977844,-0.2579752206802368,9.679159164428711,-5.31005859375,-0.091552734375,1.617431640625
0.9724999,0.456095427274704,-0.24779987335205078,9.691728591918945,1.52587890625,0.396728515625,-2.838134765625
0.9774999,0.35733461380004883,-0.25258827209472656,10.050858497619629,4.39453125,0,0.48828125
0.9824999,0.49380409717559814,-0.2579752206802368,9.711481094360352,2.62451171875,0.67138671875,-2.593994140625
0.9874999,0.39803603291511536,-0.2717418968677521,9.976638793945312,3.326416015625,-0.640869140625,0.732421875
0.9924999,0.34177228808403015,-0.2795230448246002,9.568427085876465,-6.011962890625,-1.03759765625,0.6103515625
0.9974999,0.5392939448356628,-0.33758243918418884,9.676166534423828,3.692626953125,0.79345703125,-2.105712890625
1.0024999,0.36092591285705566,-0.28311434388160706,9.97364616394043,2.532958984375,0.1220703125,1.312255859375
1.0074999000000002,0.34416648745536804,-0.28131869435310364,9.609128952026367,-5.79833984375,-0.396728515625,0.152587890625
1.0124999000000001,0.5267243981361389,-0.292691171169281,9.843161582946777,4.7607421875,1.373291015625,-2.13623046875
1.0174999000000002,0.3274070918560028,-0.24001872539520264,10.045472145080566,1.40380859375,0.030517578125,1.617431640625
1.0224999000000001,0.39624038338661194,-0.2621650993824005,9.610923767089844,-5.67626953125,-0.335693359375,-0.274658203125
1.0274999,0.568622887134552,-0.32860419154167175,9.853337287902832,4.94384765625,-0.67138671875,-2.197265625
1.0324999000000001,0.34835633635520935,-0.284311443567276,9.907805442810059,0.06103515625,-1.068115234375,1.678466796875
1.0374999,0.43335050344467163,-0.2974795699119568,9.530119895935059,-5.31005859375,-1.373291015625,-0.9765625
1.0424999000000001,0.4776432514190674,-0.32441434264183044,9.640253067016602,-3.265380859375,0.79345703125,-1.434326171875
1.0474999,0.5111620426177979,-0.33279404044151306,9.960477828979492,6.34765625,0.8544921875,-1.220703125
1.0524999000000002,0.314238965511322,-0.30885201692581177,9.80904483795166,-3.265380859375,-0.457763671875,2.044677734375
1.0574999,0.5374982953071594,-0.3298012912273407,9.569025993347168,-2.62451171875,-0.885009765625,-1.800537109375
1.0624999000000002,0.46327802538871765,-0.2998737692832947,9.947309494018555,5.9814453125,-0.54931640625,-1.129150390625
1.0674999,0.27413609623908997,-0.26755204796791077,9.795876502990723,-4.302978515625,-0.885009765625,1.8310546875
1.0724999000000002,0.5003881454467773,-0.2998737692832947,9.639654159545898,-1.0986328125,1.312255859375,-2.105712890625
1.0774999,0.4106055796146393,-0.24241292476654053,9.976638793945312,5.55419921875,-0.030517578125,-0.48828125
1.0824999000000002,0.43275195360183716,-0.243011474609375,9.952696800231934,5.279541015625,0.6103515625,0
1.0874999,0.3208230137825012,-0.2908954918384552,9.654019355773926,-5.462646484375,-0.457763671875,1.495361328125
1.0924999000000002,0.48243165016174316,-0.2753331959247589,9.63067626953125,0.8544921875,0.335693359375,-2.532958984375
1.0974999,0.3555389642715454,-0.2232593148946762,10.023324966430664,4.7607421875,0,0.274658203125
1.1024999000000002,0.27473464608192444,-0.25258827209472656,9.707889556884766,-5.859375,-0.579833984375,1.190185546875
1.1074999,0.46746787428855896,-0.21966800093650818,9.731831550598145,2.593994140625,1.3427734375,-2.38037109375
1.1124999000000002,0.3842693865299225,-0.21847090125083923,10.031106948852539,3.570556640625,-0.18310546875,1.007080078125
1.1174999,0.3315969407558441,-0.27712884545326233,9.62947940826416,-5.9814453125,-0.518798828125,0.946044921875
1.1224999000000002,0.5309142470359802,-0.2777273952960968,9.673771858215332,3.082275390625,0.6103515625,-2.532958984375
1.1274999,0.3842693865299225,-0.2759317457675934,9.965266227722168,2.532958984375,-0.701904296875,1.190185546875
1.1324999000000002,0.33937808871269226,-0.3214215636253357,9.583391189575195,-6.34765625,-0.946044921875,0.48828125
1.1374999000000001,0.5488707423210144,-0.25438392162323,9.864709854125977,5.06591796875,1.0986328125,-2.349853515625
1.1424999000000002,0.5488707423210144,-0.25438392162323,9.864709854125977,5.06591796875,1.0986328125,-2.349853515625
1.1474999000000001,0.35075053572654724,-0.292691171169281,9.963470458984375,0.244140625,-0.274658203125,1.800537109375
1.1524999000000002,0.444722980260849,-0.32202014327049255,9.545681953430176,-5.2490234375,0.1220703125,-0.396728515625
1.1574999000000001,0.5662286877632141,-0.33279404044151306,9.837176322937012,5.889892578125,1.190185546875,-2.105712890625
1.1624999,0.31364041566848755,-0.3292027413845062,9.903017044067383,-0.79345703125,-0.457763671875,2.01416015625
1.1674999000000001,0.40222588181495667,-0.3130418658256531,9.57201862335205,-4.69970703125,-0.79345703125,-0.823974609375
1.1724999,0.4812345504760742,-0.2777273952960968,9.958083152770996,5.79833984375,-0.18310546875,-1.89208984375
1.1774999000000002,0.23343466222286224,-0.25737667083740234,9.973047256469727,-1.739501953125,-0.457763671875,1.89208984375
1.1824999,0.41778820753097534,-0.262763649225235,9.642048835754395,-3.570556640625,0.030517578125,-1.0986328125
1.1874999000000002,0.28131869435310364,-0.31124621629714966,9.856928825378418,-2.593994140625,-0.091552734375,1.89208984375
1.1924999,0.28131869435310364,-0.31124621629714966,9.856928825378418,-2.593994140625,-0.091552734375,1.89208984375
1.1974999000000002,0.5225345492362976,-0.31603461503982544,9.565434455871582,-2.777099609375,-0.30517578125,-1.861572265625
1.2024999,0.4183867573738098,-0.28371289372444153,9.977835655212402,5.401611328125,-0.701904296875,-0.3662109375
1.2074999000000002,0.3250128924846649,-0.27054479718208313,9.720458984375,-5.096435546875,-1.068115234375,1.678466796875
1.2124999,0.5171475410461426,-0.28969839215278625,9.604340553283691,-0.274658203125,0.274658203125,-2.13623046875
1.2174999000000002,0.44532153010368347,-0.2454056739807129,9.671976089477539,1.556396484375,1.617431640625,-2.3193359375
1.2224999,0.44532153010368347,-0.2454056739807129,9.671976089477539,1.556396484375,1.617431640625,-2.3193359375
1.2274999000000002,0.345363587141037,-0.24361002445220947,10.027515411376953,4.57763671875,0.396728515625,0.457763671875
1.2324999,0.27892449498176575,-0.21847090125083923,9.697713851928711,-5.92041015625,-0.457763671875,1.220703125
1.2374999000000002,0.4854243993759155,-0.26336219906806946,9.693524360656738,2.25830078125,-0.091552734375,-2.50244140625
1.2424999,0.3944447338581085,-0.2454056739807129,9.962273597717285,3.47900390625,-0.152587890625,0.732421875
1.2474999000000002,0.34596213698387146,-0.28550854325294495,9.561244010925293,-6.011962890625,-0.762939453125,0.6103515625
1.2524999,0.5309142470359802,-0.32202014327049255,9.64923095703125,3.35693359375,-0.42724609375,-2.593994140625
1.2574999000000002,0.3645172119140625,-0.26755204796791077,9.9586820602417,2.62451171875,-0.457763671875,1.251220703125
1.2624999000000001,0.3280056416988373,-0.2968810200691223,9.599552154541016,-5.859375,-0.1220703125,0.244140625
1.2674999000000002,0.5129576921463013,-0.28311434388160706,9.825204849243164,4.2724609375,-0.274658203125,-2.50244140625
1.2724999000000001,0.31842881441116333,-0.23403321206569672,10.042478561401367,1.434326171875,-0.396728515625,1.617431640625
1.2774999000000002,0.3908534348011017,-0.2944868206977844,9.603142738342285,-4.974365234375,-1.190185546875,-0.91552734375
1.2824999000000001,0.47465047240257263,-0.2519897222518921,10.013748168945312,5.859375,0.30517578125,-1.708984375
1.2874999,0.23403321206569672,-0.2561795711517334,10.005967140197754,-2.01416015625,-0.213623046875,1.953125
1.2924999000000001,0.43993455171585083,-0.3106476664543152,9.66299819946289,-3.41796875,1.46484375,-1.129150390625
1.2974999,0.5045779943466187,-0.28790274262428284,10.02452278137207,5.950927734375,0.091552734375,-1.495361328125
1.3024999000000002,0.292691171169281,-0.35494041442871094,9.855731010437012,-3.387451171875,-0.762939453125,2.044677734375
1.3074999,0.5303156971931458,-0.3513490855693817,9.596558570861816,-2.44140625,0.823974609375,-1.678466796875
1.3124999000000002,0.4159925580024719,-0.2298433631658554,9.997588157653809,5.7373046875,-0.67138671875,-0.732421875
1.3174999,0.2819172441959381,-0.26994624733924866,9.777320861816406,-4.791259765625,-1.0986328125,1.89208984375
1.3224999000000002,0.5237316489219666,-0.2735375463962555,9.604340553283691,-0.67138671875,0.6103515625,-2.288818359375
1.3274999,0.42616790533065796,-0.24600422382354736,9.934141159057617,5.31005859375,0.274658203125,-0.30517578125
1.3324999000000002,0.3232172429561615,-0.31603461503982544,9.638457298278809,-5.31005859375,-0.457763671875,1.678466796875
1.3374999,0.5021837949752808,-0.2819172441959381,9.575011253356934,0.274658203125,0.06103515625,-2.349853515625
1.3424999000000002,0.36990416049957275,-0.2783259451389313,9.9586820602417,4.669189453125,-0.579833984375,0.1220703125
1.3474999,0.26815059781074524,-0.26575639843940735,9.70310115814209,-5.706787109375,-0.823974609375,1.495361328125
1.3524999000000002,0.44532153010368347,-0.19393034279346466,9.738415718078613,1.373291015625,0.67138671875,-2.166748046875
1.3574999,0.3531447649002075,-0.24001872539520264,10.08437728881836,3.997802734375,-0.48828125,0.701904296875
1.3624999000000002,0.3998316824436188,-0.29149407148361206,9.9586820602417,3.23486328125,-0.67138671875,0.91552734375
1.3674999,0.3555389642715454,-0.26396074891090393,9.564835548400879,-6.04248046875,-0.823974609375,0.579833984375
1.3724999000000002,0.5386953949928284,-0.3190273642539978,9.660603523254395,3.448486328125,0.79345703125,-2.471923828125
1.3774999,0.3621230125427246,-0.27712884545326233,9.96825885772705,2.44140625,-0.152587890625,1.373291015625
1.3824999000000002,0.333991140127182,-0.2645592987537384,9.613917350769043,-6.16455078125,-0.885009765625,0.152587890625
1.3874999000000001,0.5213374495506287,-0.2908954918384552,9.837176322937012,4.241943359375,-0.152587890625,-2.532958984375
1.3924999000000002,0.31783026456832886,-0.24779987335205078,10.046070098876953,1.251220703125,-0.732421875,1.739501953125
1.3974999000000001,0.39205053448677063,-0.2693476974964142,9.608530044555664,-5.767822265625,-1.251220703125,-0.152587890625
1.4024999000000002,0.5620388388633728,-0.33518823981285095,9.835979461669922,5.035400390625,0.67138671875,-2.13623046875
1.4074999000000001,0.3447650372982025,-0.29388827085494995,9.910798072814941,0.213623046875,-0.457763671875,1.922607421875
1.4124999,0.4321534037590027,-0.2908954918384552,9.528324127197266,-5.523681640625,-1.5869140625,-0.8544921875
1.4174999000000001,0.47405192255973816,-0.28790274262428284,9.628880500793457,-3.570556640625,-0.18310546875,-1.46484375
1.4224999,0.5051765441894531,-0.32860419154167175,9.983820915222168,6.134033203125,0.244140625,-1.556396484375
1.4274999000000002,0.3082534670829773,-0.2944868206977844,9.838373184204102,-2.9296875,-0.030517578125,2.197265625
1.4324999,0.5333084464073181,-0.3232172429561615,9.608530044555664,-2.25830078125,1.617431640625,-1.617431640625
1.4374999000000002,0.4620809257030487,-0.30945056676864624,9.99220085144043,6.072998046875,0.213623046875,-1.0986328125
1.4424999,0.4076128304004669,-0.25917232036590576,9.983820915222168,5.706787109375,0.18310546875,-0.42724609375
1.4474999000000002,0.42856210470199585,-0.2651578485965729,9.928754806518555,5.218505859375,-0.3662109375,-0.18310546875
1.4524999,0.32202014327049255,-0.30286651849746704,9.637260437011719,-5.615234375,-0.732421875,1.556396484375
1.4574999000000002,0.4950011968612671,-0.27892449498176575,9.587580680847168,0.48828125,-0.762939453125,-2.5634765625
1.4624999,0.3711012601852417,-0.22505496442317963,9.979032516479492,4.94384765625,0.244140625,0.213623046875
1.4674999000000002,0.272938996553421,-0.23702596127986908,9.692925453186035,-5.615234375,0.18310546875,1.251220703125
1.4724999,0.45429977774620056,-0.22445641458034515,9.709685325622559,1.89208984375,-0.518798828125,-2.38037109375
1.4774999000000002,0.3645172119140625,-0.20290859043598175,10.04068374633789,4.058837890625,-0.274658203125,0.640869140625
1.4824999,0.31364041566848755,-0.25438392162323,9.652822494506836,-5.828857421875,0.030517578125,1.190185546875
1.4874999000000002,0.5213374495506287,-0.2735375463962555,9.671976089477539,3.11279296875,0,-2.5634765625
1.4924999,0.3974374830722809,-0.26156654953956604,9.944316864013672,2.9296875,-0.3662109375,1.03759765625
1.4974999000000002,0.3429693877696991,-0.31842881441116333,9.559449195861816,-6.195068359375,-0.42724609375,0.732421875
1.5024999,0.32680854201316833,-0.25258827209472656,10.022128105163574,1.556396484375,-0.457763671875,1.190185546875
1.5074999000000002,0.33279404044151306,-0.272938996553421,9.637260437011719,-6.2255859375,-0.762939453125,0.244140625
1.5124999000000001,0.524330198764801,-0.24001872539520264,9.874286651611328,4.8828125,0.48828125,-2.105712890625
1.5174999000000002,0.33518823981285095,-0.2454056739807129,9.987412452697754,0.67138671875,-0.152587890625,1.64794921875
1.5224999000000001,0.42197805643081665,-0.3016694188117981,9.548674583435059,-5.279541015625,0.518798828125,-0.1220703125
1.5274999000000002,0.5793967843055725,-0.30047231912612915,9.780313491821289,5.035400390625,0.06103515625,-1.983642578125
1.5324999000000001,0.35075053572654724,-0.3280056416988373,9.845556259155273,-0.48828125,-0.244140625,1.77001953125
1.5374999000000003,0.4291606545448303,-0.34177228808403015,9.48882007598877,-4.608154296875,0.274658203125,-0.823974609375
1.5424999000000001,0.5111620426177979,-0.30466216802597046,9.885659217834473,5.889892578125,1.3427734375,-1.739501953125
1.5474999,0.243011474609375,-0.2908954918384552,9.952696800231934,-1.373291015625,0,2.044677734375
1.5524999000000002,0.39564183354377747,-0.2777273952960968,9.647436141967773,-3.936767578125,-0.06103515625,-1.373291015625
1.5574999,0.4812345504760742,-0.24600422382354736,10.047266960144043,6.011962890625,0.732421875,-1.739501953125
1.5624999000000002,0.26755204796791077,-0.28371289372444153,9.935338973999023,-2.349853515625,-0.213623046875,2.25830078125
1.5674999,0.5111620426177979,-0.28790274262428284,9.634267807006836,-2.777099609375,0.762939453125,-1.495361328125
1.5724999000000002,0.5219359993934631,-0.3106476664543152,9.934141159057617,6.072998046875,-0.335693359375,-1.312255859375
1.5774999,0.3166331648826599,-0.32680854201316833,9.777320861816406,-3.173828125,-0.54931640625,2.197265625
1.5824999000000002,0.5416881442070007,-0.28311434388160706,9.561244010925293,-2.044677734375,0.91552734375,-1.678466796875
1.5874999,0.4495113790035248,-0.3148375153541565,9.945513725280762,6.011962890625,0.30517578125,-1.15966796875
1.5924999000000002,0.2753331959247589,-0.24361002445220947,9.804255485534668,-4.180908203125,-0.48828125,1.922607421875
1.5974999,0.507570743560791,-0.23582886159420013,9.654618263244629,-1.0986328125,0.54931640625,-2.105712890625
1.6024999000000002,0.4189853072166443,-0.3190273642539978,10.002376556396484,5.06591796875,0.274658203125,-0.091552734375
1.6074999,0.31842881441116333,-0.26575639843940735,9.704896926879883,-5.645751953125,-0.457763671875,1.52587890625
1.6124999000000002,0.35494041442871094,-0.26396074891090393,9.998785018920898,3.84521484375,-0.701904296875,0.701904296875
1.6174999,0.30705636739730835,-0.23283611238002777,9.613917350769043,-5.950927734375,-0.823974609375,0.8544921875
1.6224999000000002,0.5165489912033081,-0.2998737692832947,9.665990829467773,2.716064453125,-0.1220703125,-2.349853515625
1.6274999,0.3878606855869293,-0.3274070918560028,9.944915771484375,3.021240234375,0.030517578125,1.129150390625
1.6324999000000002,0.3489548861980438,-0.29867666959762573,9.589376449584961,-5.79833984375,-0.42724609375,0.396728515625
1.6374999000000001,0.535702645778656,-0.3321954905986786,9.762357711791992,4.08935546875,0.3662109375,-2.471923828125
1.6424999000000002,0.3423708379268646,-0.2908954918384552,10.016142845153809,2.25830078125,0.274658203125,1.5869140625
1.6474999000000001,0.35913026332855225,-0.25438392162323,9.619303703308105,-5.401611328125,0.457763671875,-0.06103515625
1.6524999000000002,0.5506663918495178,-0.3082534670829773,9.825204849243164,4.302978515625,0.54931640625,-2.38037109375
1.6574999000000001,0.34656068682670593,-0.2801215946674347,9.964069366455078,0.91552734375,-0.091552734375,1.983642578125
1.6624999000000003,0.43993455171585083,-0.2825157940387726,9.561244010925293,-5.279541015625,-0.335693359375,-0.335693359375
1.6674999000000001,0.5823895931243896,-0.3669114112854004,9.82759952545166,4.791259765625,-0.30517578125,-2.227783203125
1.6724999,0.33279404044151306,-0.28311434388160706,9.909601211547852,-0.274658203125,-0.3662109375,2.166748046875
1.6774999000000002,0.424970805644989,-0.2561795711517334,9.564237594604492,-4.7607421875,0.396728515625,-0.640869140625
1.6824999,0.5153518915176392,-0.2902969419956207,9.639654159545898,-3.0517578125,0.732421875,-1.495361328125
1.6874999000000002,0.5171475410461426,-0.28131869435310364,9.634865760803223,-2.288818359375,-0.030517578125,-1.739501953125
1.6924999,0.5171475410461426,-0.28131869435310364,9.634865760803223,-2.288818359375,-0.030517578125,-1.739501953125
1.6974999000000002,0.4225766062736511,-0.32680854201316833,10.008959770202637,6.28662109375,0.640869140625,-0.67138671875
1.7024999,0.2651578485965729,-0.23104046285152435,9.819219589233398,-4.119873046875,-0.3662109375,1.708984375
1.7074999000000002,0.4944026470184326,-0.2663549482822418,9.633668899536133,-1.0986328125,-0.091552734375,-2.044677734375
1.7124999,0.4034229815006256,-0.2944868206977844,9.983222961425781,6.011962890625,0.732421875,-0.274658203125
1.7174999000000002,0.30466216802597046,-0.25737667083740234,9.732429504394531,-4.69970703125,-0.1220703125,1.617431640625
1.7224999,0.5141547918319702,-0.2801215946674347,9.61212158203125,-0.244140625,-0.79345703125,-2.349853515625
1.7274999000000002,0.395043283700943,-0.30945056676864624,9.95329475402832,5.340576171875,0.1220703125,0.091552734375
1.7324999,0.2974795699119568,-0.2645592987537384,9.658807754516602,-5.2490234375,-0.42724609375,1.28173828125
1.7374999000000002,0.4668693244457245,-0.2454056739807129,9.624691009521484,1.312255859375,1.068115234375,-2.349853515625
1.7424999,0.35015198588371277,-0.26815059781074524,10.004770278930664,4.547119140625,0.335693359375,0.6103515625
1.7474999000000002,0.4626794755458832,-0.23523031175136566,9.720458984375,1.983642578125,0,-2.777099609375
1.7524999,0.3663128614425659,-0.28072014451026917,9.992799758911133,3.72314453125,-0.213623046875,0.732421875
1.7574999000000002,0.3298012912273407,-0.26396074891090393,9.600749015808105,-5.859375,-0.244140625,0.79345703125
1.7624999000000001,0.38307225704193115,-0.2950853705406189,9.928155899047852,2.62451171875,-0.06103515625,1.220703125
1.7674999000000002,0.38307225704193115,-0.2950853705406189,9.928155899047852,2.62451171875,-0.06103515625,1.220703125
1.7724999000000001,0.35015198588371277,-0.2663549482822418,9.5624418258667,-5.92041015625,0.30517578125,0.396728515625
1.7774999000000002,0.5261258482933044,-0.2932897210121155,9.765350341796875,3.90625,0.18310546875,-2.288818359375
1.7824999000000001,0.32620999217033386,-0.24660277366638184,10.033500671386719,1.678466796875,-0.030517578125,1.46484375
1.7874999000000003,0.3687070608139038,-0.2519897222518921,9.634267807006836,-5.462646484375,0.579833984375,-0.06103515625
1.7924999000000001,0.5494692921638489,-0.3190273642539978,9.872490882873535,4.608154296875,0.030517578125,-2.166748046875
1.7974999,0.3411737382411957,-0.2801215946674347,9.97364616394043,0.3662109375,-0.54931640625,1.8310546875
1.8024999000000002,0.4423287510871887,-0.2861070930957794,9.583391189575195,-5.462646484375,-0.244140625,-0.335693359375
1.8074999,0.29867666959762573,-0.29807811975479126,9.847352027893066,-2.532958984375,-0.030517578125,1.89208984375
1.8124999000000002,0.5339069962501526,-0.3280056416988373,9.576807022094727,-2.777099609375,-0.18310546875,-1.5869140625
1.8174999,0.4842272996902466,-0.35434186458587646,9.938929557800293,5.859375,-0.30517578125,-1.28173828125
1.8224999000000002,0.29628247022628784,-0.25258827209472656,9.78869342803955,-3.875732421875,-0.640869140625,1.953125
1.8274999,0.5147533416748047,-0.25677812099456787,9.616909980773926,-1.8310546875,0.91552734375,-1.52587890625
1.8324999000000002,0.4213795065879822,-0.2669534981250763,9.993996620178223,5.523681640625,-0.30517578125,-0.701904296875
1.8374999,0.42676645517349243,-0.30047231912612915,10.015543937683105,5.37109375,-0.823974609375,-0.335693359375
1.8424999000000002,0.32860419154167175,-0.29149407148361206,9.706692695617676,-5.462646484375,-1.495361328125,1.5869140625
1.8474999,0.5093663930892944,-0.2902969419956207,9.618106842041016,0.3662109375,0.18310546875,-2.38037109375
1.8524999000000002,0.38307225704193115,-0.2783259451389313,9.956886291503906,5.035400390625,0.6103515625,0.06103515625
1.8574999,0.2735375463962555,-0.23762452602386475,9.653421401977539,-5.55419921875,-0.152587890625,1.312255859375
1.8624999000000002,0.444722980260849,-0.2364274114370346,9.65222454071045,1.40380859375,-0.244140625,-2.777099609375
1.8674999,0.3477577865123749,-0.24600422382354736,10.002376556396484,4.08935546875,-0.701904296875,0.3662109375
1.8724999000000002,0.2908954918384552,-0.2364274114370346,9.66299819946289,-5.92041015625,-1.0986328125,1.068115234375
1.8774999,0.5015852451324463,-0.2890998423099518,9.679757118225098,3.0517578125,1.312255859375,-2.593994140625
1.8824999000000002,0.3944447338581085,-0.28072014451026917,9.964667320251465,3.204345703125,-0.701904296875,1.03759765625
1.8874999000000001,0.353743314743042,-0.29867666959762573,9.5624418258667,-6.34765625,-0.885009765625,0.67138671875
1.8924999000000002,0.36152446269989014,-0.2555810213088989,9.973047256469727,2.74658203125,0.18310546875,1.3427734375
1.8974999000000001,0.34835633635520935,-0.2454056739807129,9.582193374633789,-5.645751953125,-0.091552734375,0.091552734375
1.9024999000000002,0.5309142470359802,-0.262763649225235,9.82640266418457,4.45556640625,0.6103515625,-2.5634765625
1.9074999000000001,0.322618693113327,-0.22266076505184174,9.983820915222168,1.312255859375,0.030517578125,1.5869140625
1.9124999000000003,0.39624038338661194,-0.27473464608192444,9.554061889648438,-5.0048828125,0.823974609375,-0.030517578125
1.9174999000000001,0.5650315880775452,-0.3489548861980438,9.773730278015137,5.645751953125,0.54931640625,-2.227783203125
1.9224999,0.34416648745536804,-0.30286651849746704,9.817423820495605,-0.1220703125,-0.1220703125,1.708984375
1.9274999000000002,0.4429273009300232,-0.30945056676864624,9.443329811096191,-4.82177734375,0.244140625,-0.457763671875
1.9324999,0.5386953949928284,-0.3250128924846649,9.81024169921875,5.859375,-0.244140625,-2.01416015625
1.9374999000000002,0.2687491476535797,-0.23163901269435883,9.901819229125977,-1.220703125,-0.457763671875,1.89208984375
1.9424999,0.41120412945747375,-0.26755204796791077,9.593565940856934,-3.875732421875,0.54931640625,-1.03759765625
1.9474999000000002,0.4794389009475708,-0.2902969419956207,10.022128105163574,6.317138671875,-0.457763671875,-1.64794921875
1.9524999,0.4926069974899292,-0.32860419154167175,9.643844604492188,-3.5400390625,-0.9765625,-1.5869140625
1.9574999000000002,0.5009866952896118,-0.31842881441116333,9.9772367477417,6.256103515625,-0.152587890625,-1.190185546875
1.9624999,0.29807811975479126,-0.31184476613998413,9.815030097961426,-3.265380859375,-0.67138671875,2.0751953125
1.9674999000000002,0.5153518915176392,-0.3321954905986786,9.570821762084961,-2.01416015625,0.79345703125,-1.861572265625
1.9724999,0.43335050344467163,-0.27054479718208313,9.948506355285645,6.28662109375,0.732421875,-0.885009765625
1.9774999000000002,0.26156654953956604,-0.27054479718208313,9.781511306762695,-4.180908203125,-0.1220703125,2.01416015625
1.9824999,0.4985924959182739,-0.29568392038345337,9.624691009521484,-1.03759765625,-0.1220703125,-1.953125
1.9874999000000002,0.4165911078453064,-0.22744916379451752,9.97364616394043,5.92041015625,-0.640869140625,-0.3662109375
1.9924999,0.32202014327049255,-0.29149407148361206,9.748590469360352,-5.035400390625,-0.885009765625,1.708984375
1.9974999000000002,0.5464765429496765,-0.31603461503982544,9.606734275817871,-0.335693359375,-0.579833984375,-2.3193359375
2.0024999,0.3100491166114807,-0.29209262132644653,9.558850288391113,-6.011962890625,-1.0986328125,0.67138671875
2.0074999,0.5135562419891357,-0.30466216802597046,9.598953247070312,3.23486328125,-0.54931640625,-2.8076171875
2.0124999000000003,0.363918662071228,-0.3100491166114807,9.895236015319824,2.899169921875,0,1.251220703125
2.0174999000000002,0.3387795388698578,-0.3100491166114807,9.534908294677734,-5.7373046875,0.48828125,0.274658203125
2.0224999,0.518943190574646,-0.28311434388160706,9.762955665588379,4.21142578125,0.335693359375,-2.593994140625
2.0274999,0.3256114423274994,-0.2579752206802368,10.029909133911133,1.5869140625,-0.335693359375,1.434326171875
2.0324999000000004,0.3621230125427246,-0.24660277366638184,9.623494148254395,-5.615234375,-0.335693359375,-0.18310546875
2.0374999000000003,0.5536591410636902,-0.29388827085494995,9.86111831665039,5.0048828125,0.701904296875,-2.197265625
2.0424999,0.3082534670829773,-0.2908954918384552,9.920374870300293,-0.48828125,0.152587890625,2.01416015625
2.0474999,0.406415730714798,-0.26755204796791077,9.573814392089844,-4.119873046875,0.8544921875,-0.946044921875
2.0524999,0.4866214990615845,-0.31603461503982544,9.94970417022705,6.134033203125,0.946044921875,-1.922607421875
2.0574999000000003,0.23403321206569672,-0.23104046285152435,9.950302124023438,-1.3427734375,-0.213623046875,1.861572265625
2.0624999,0.43993455171585083,-0.2495955228805542,9.616909980773926,-3.631591796875,0.152587890625,-1.28173828125
2.0674999,0.4991910457611084,-0.3166331648826599,9.995193481445312,6.28662109375,1.007080078125,-1.373291015625
2.0724999,0.29388827085494995,-0.27653029561042786,9.86650562286377,-2.5634765625,-0.3662109375,1.983642578125
2.0774999000000003,0.5297171473503113,-0.3124433159828186,9.598953247070312,-3.23486328125,-0.946044921875,-1.708984375
2.0824999,0.48303020000457764,-0.353743314743042,9.982624053955078,6.256103515625,0.335693359375,-1.251220703125
2.0874999,0.28371289372444153,-0.2861070930957794,9.836577415466309,-3.662109375,-0.244140625,1.89208984375
2.0924999,0.5027823448181152,-0.3058592677116394,9.671378135681152,-1.617431640625,1.007080078125,-2.0751953125
2.0974999000000003,0.40462008118629456,-0.2908954918384552,10.020931243896484,5.889892578125,-0.30517578125,-0.823974609375
2.1024999,0.2717418968677521,-0.23523031175136566,9.810839653015137,-4.669189453125,-0.823974609375,1.89208984375
2.1074999,0.5111620426177979,-0.2753331959247589,9.620500564575195,-1.068115234375,-0.030517578125,-2.197265625
2.1124999,0.4183867573738098,-0.25917232036590576,9.943120002746582,5.2490234375,-0.54931640625,-0.152587890625
2.1174999000000003,0.3208230137825012,-0.2783259451389313,9.66958236694336,-5.43212890625,-0.91552734375,1.739501953125
2.1224999,0.5057750940322876,-0.2902969419956207,9.586981773376465,0.091552734375,-0.48828125,-2.593994140625
2.1274999,0.37229835987091064,-0.2621650993824005,9.963470458984375,5.18798828125,0.701904296875,0.335693359375
2.1324999,0.2663549482822418,-0.2472013235092163,9.692327499389648,-5.401611328125,0.3662109375,1.40380859375
2.1374999000000003,0.4411316514015198,-0.23523031175136566,9.711481094360352,1.28173828125,-0.457763671875,-2.685546875
2.1424999000000002,0.3471592366695404,-0.22685061395168304,10.06582260131836,4.486083984375,0.274658203125,0.6103515625
2.1474999,0.2932897210121155,-0.243011474609375,9.694122314453125,-5.889892578125,0.30517578125,1.0986328125
2.1524999,0.5051765441894531,-0.304063618183136,9.68574333190918,2.9296875,1.15966796875,-2.86865234375
2.1574999000000004,0.3974374830722809,-0.28131869435310364,9.931148529052734,3.0517578125,-0.42724609375,0.885009765625
2.1624999000000003,0.3489548861980438,-0.32202014327049255,9.510966300964355,-6.195068359375,-0.640869140625,0.79345703125
2.1674999,0.5321113467216492,-0.3214215636253357,9.63067626953125,3.84521484375,0.8544921875,-2.685546875
2.1724999,0.34177228808403015,-0.24361002445220947,9.942521095275879,2.38037109375,0.335693359375,1.495361328125
2.1774999000000004,0.3106476664543152,-0.26396074891090393,9.55585765838623,-5.79833984375,0.885009765625,0.579833984375
2.1824999000000003,0.4944026470184326,-0.2585737705230713,9.814431190490723,4.82177734375,1.28173828125,-2.44140625
2.1874999,0.2902969419956207,-0.2406172752380371,9.987412452697754,1.0986328125,-0.091552734375,1.617431640625
2.1924999,0.3758896589279175,-0.29628247022628784,9.564835548400879,-5.37109375,0.213623046875,-0.091552734375
2.1974999,0.5596446394920349,-0.353743314743042,9.808445930480957,5.157470703125,-0.48828125,-2.288818359375
2.2024999000000003,0.34416648745536804,-0.3256114423274994,9.867103576660156,-0.274658203125,-0.396728515625,1.800537109375
2.2074999,0.44532153010368347,-0.33758243918418884,9.496002197265625,-4.7607421875,0.244140625,-0.762939453125
2.2124999,0.5404910445213318,-0.33039984107017517,9.855731010437012,5.7373046875,0.640869140625,-1.861572265625
2.2174999,0.4728548228740692,-0.33339259028434753,9.621099472045898,-2.8076171875,0.91552734375,-1.373291015625
2.2224999000000003,0.4926069974899292,-0.29807811975479126,9.970054626464844,6.16455078125,-0.30517578125,-1.190185546875
2.2274999,0.2885012924671173,-0.31603461503982544,9.819219589233398,-3.387451171875,-0.67138671875,1.922607421875
2.2324999,0.5195417404174805,-0.3250128924846649,9.602544784545898,-1.861572265625,1.129150390625,-1.617431640625
2.2374999,0.43694180250167847,-0.24181437492370605,9.989208221435547,6.134033203125,0.42724609375,-0.732421875
2.2424999000000003,0.4082113802433014,-0.24839842319488525,9.964667320251465,5.126953125,0.3662109375,0.244140625
2.2474999,0.4082113802433014,-0.24839842319488525,9.964667320251465,5.126953125,0.3662109375,0.244140625
2.2524999,0.29867666959762573,-0.3106476664543152,9.67077922821045,-5.584716796875,-0.06103515625,1.5869140625
2.2574999,0.4578910768032074,-0.24660277366638184,9.668983459472656,1.373291015625,0.457763671875,-2.50244140625
2.2624999000000003,0.33339259028434753,-0.24181437492370605,10.0580415725708,4.547119140625,0.152587890625,0.6103515625
2.2674999000000002,0.2603694200515747,-0.24480712413787842,9.750386238098145,-5.889892578125,-0.42724609375,1.03759765625
2.2724999,0.4596867263317108,-0.23822307586669922,9.745597839355469,1.678466796875,-0.274658203125,-2.8076171875
2.2774999,0.3758896589279175,-0.284311443567276,10.003573417663574,3.662109375,-0.152587890625,1.068115234375
2.2824999000000004,0.3292027413845062,-0.3082534670829773,9.576208114624023,-5.950927734375,-0.274658203125,0.9765625
2.2874999000000003,0.5309142470359802,-0.35015198588371277,9.57321548461914,2.838134765625,-0.335693359375,-2.86865234375
2.2924999,0.3758896589279175,-0.3363853394985199,9.858723640441895,2.74658203125,-0.274658203125,1.190185546875
2.2974999,0.3363853394985199,-0.314238965511322,9.49001693725586,-5.859375,-0.213623046875,0.67138671875
2.3024999000000004,0.34416648745536804,-0.272938996553421,9.955689430236816,0.579833984375,-0.30517578125,1.678466796875
2.3074999000000003,0.43335050344467163,-0.292691171169281,9.52353572845459,-5.340576171875,-0.3662109375,-0.48828125
2.3124999,0.5626373887062073,-0.3663128614425659,9.781511306762695,5.37109375,0.67138671875,-2.166748046875
2.3174999,0.30945056676864624,-0.2849099934101105,9.816226959228516,-0.579833984375,-0.335693359375,1.89208984375
2.3224999,0.40880993008613586,-0.2759317457675934,9.469067573547363,-4.8828125,0.06103515625,-0.79345703125
2.3274999000000003,0.4967968463897705,-0.3148375153541565,9.86889934539795,5.767822265625,0.244140625,-1.77001953125
2.3324999,0.2472013235092163,-0.22445641458034515,9.9000244140625,-1.800537109375,-0.18310546875,1.89208984375
2.3374999,0.4513070285320282,-0.27234044671058655,9.610923767089844,-3.631591796875,0.701904296875,-1.129150390625
2.3424999,0.5093663930892944,-0.3232172429561615,9.995792388916016,6.34765625,0.213623046875,-1.40380859375
2.3474999000000003,0.5273229479789734,-0.32441434264183044,9.552266120910645,-2.9296875,0.732421875,-1.5869140625
2.3524999,0.47405192255973816,-0.3298012912273407,9.883264541625977,5.92041015625,0.091552734375,-1.0986328125
2.3574999,0.2759317457675934,-0.2693476974964142,9.734225273132324,-3.90625,-0.6103515625,1.800537109375
2.3624999,0.4902127981185913,-0.2908954918384552,9.580398559570312,-1.953125,0.885009765625,-1.861572265625
2.3674999000000003,0.39803603291511536,-0.2603694200515747,9.958083152770996,5.92041015625,-0.54931640625,-0.6103515625
2.3724999,0.2669534981250763,-0.23523031175136566,9.782109260559082,-4.82177734375,-0.732421875,1.8310546875
2.3774999,0.5081692934036255,-0.2849099934101105,9.608530044555664,-0.457763671875,1.373291015625,-2.25830078125
2.3824999,0.4255693554878235,-0.24660277366638184,9.946112632751465,5.2490234375,-0.18310546875,-0.244140625
2.3874999000000003,0.33039984107017517,-0.29568392038345337,9.637260437011719,-5.4931640625,-0.946044921875,1.52587890625
2.3924999000000002,0.517746090888977,-0.304063618183136,9.550470352172852,0.67138671875,1.03759765625,-2.25830078125
2.3974999,0.39564183354377747,-0.2537853717803955,9.935338973999023,5.18798828125,0.762939453125,0.274658203125
2.4024999,0.2849099934101105,-0.2603694200515747,9.668384552001953,-5.645751953125,-0.06103515625,1.46484375
2.4074999000000004,0.3621230125427246,-0.19632454216480255,10.088567733764648,3.936767578125,-0.54931640625,0.640869140625
2.4124999000000003,0.3010708689689636,-0.23403321206569672,9.719860076904297,-6.195068359375,-0.396728515625,1.312255859375
2.4174999,0.5063736438751221,-0.2669534981250763,9.722254753112793,2.899169921875,0.8544921875,-2.593994140625
2.4224999,0.39863458275794983,-0.2735375463962555,9.967659950256348,3.204345703125,0,0.91552734375
2.4274999000000004,0.34835633635520935,-0.322618693113327,9.528324127197266,-5.9814453125,0.06103515625,0.79345703125
2.4324999000000003,0.5351040959358215,-0.3148375153541565,9.649829864501953,3.60107421875,1.0986328125,-2.50244140625
2.4374999,0.34596213698387146,-0.2621650993824005,9.938331604003906,2.13623046875,-0.152587890625,1.3427734375
2.4424999,0.33339259028434753,-0.2753331959247589,9.566631317138672,-6.072998046875,-0.244140625,0.18310546875
2.4474999,0.5153518915176392,-0.2585737705230713,9.837176322937012,4.39453125,0,-2.38037109375
2.4524999000000003,0.31603461503982544,-0.2472013235092163,10.015543937683105,0.91552734375,-0.396728515625,1.708984375
2.4574999,0.3944447338581085,-0.30526071786880493,9.604938507080078,-5.7373046875,-0.213623046875,-0.335693359375
2.4624999,0.5632359385490417,-0.33339259028434753,9.858723640441895,5.340576171875,0.885009765625,-2.227783203125
2.4674999,0.2801215946674347,-0.26396074891090393,9.960477828979492,-1.556396484375,-0.274658203125,2.0751953125
2.4724999000000003,0.4124012291431427,-0.27413609623908997,9.62947940826416,-4.2724609375,0.244140625,-1.15966796875
2.4774999,0.48722004890441895,-0.2388216257095337,10.020931243896484,6.134033203125,0.396728515625,-1.77001953125
2.4824999,0.25438392162323,-0.2890998423099518,9.952696800231934,-2.227783203125,-0.18310546875,2.288818359375
2.4874999,0.48303020000457764,-0.32022446393966675,9.636661529541016,-2.9296875,0.8544921875,-1.46484375
2.4924999000000003,0.5093663930892944,-0.3034650683403015,9.997588157653809,6.072998046875,0.30517578125,-1.40380859375
2.4974999,0.3010708689689636,-0.34596213698387146,9.841964721679688,-3.5400390625,-0.67138671875,2.105712890625
2.5024999,0.524330198764801,-0.3381809890270233,9.632472038269043,-2.899169921875,-0.732421875,-1.8310546875
2.5074999,0.45250412821769714,-0.28730419278144836,10.017339706420898,6.04248046875,0.3662109375,-1.03759765625
2.5124999000000003,0.2711433470249176,-0.29867666959762573,9.860519409179688,-3.997802734375,-0.335693359375,1.922607421875
2.5174999000000002,0.314238965511322,-0.2651578485965729,9.770736694335938,-4.57763671875,0.30517578125,1.89208984375
2.5224999,0.5363011956214905,-0.25977087020874023,9.617507934570312,0.06103515625,1.068115234375,-2.349853515625
2.5274999,0.4231751561164856,-0.2861070930957794,9.94970417022705,5.43212890625,0.54931640625,-0.152587890625
2.5324999000000004,0.30705636739730835,-0.27712884545326233,9.648633003234863,-5.096435546875,-0.30517578125,1.556396484375
2.5374999000000003,0.4734533727169037,-0.228047713637352,9.61571216583252,0.396728515625,-0.823974609375,-2.62451171875
2.5424999,0.3477577865123749,-0.25438392162323,9.97484302520752,4.21142578125,-1.03759765625,0.396728515625
2.5474999,0.26336219906806946,-0.18974047899246216,9.683348655700684,-6.04248046875,-1.129150390625,1.190185546875
2.5524999000000004,0.44771572947502136,-0.2172738015651703,9.717466354370117,1.678466796875,-0.335693359375,-2.471923828125
2.5574999000000003,0.3663128614425659,-0.26994624733924866,10.016142845153809,4.058837890625,0.48828125,0.8544921875
2.5624999,0.31543606519699097,-0.2669534981250763,9.64683723449707,-5.645751953125,0.1220703125,0.762939453125
2.5674999,0.5303156971931458,-0.34596213698387146,9.676764488220215,3.082275390625,0.244140625,-2.3193359375
2.5724999,0.43335050344467163,-0.2717418968677521,9.552865028381348,-5.340576171875,0.3662109375,-0.457763671875
2.5774999000000003,0.5728127360343933,-0.3531447649002075,9.821015357971191,5.859375,1.40380859375,-2.0751953125
2.5824999,0.32022446393966675,-0.28790274262428284,9.888651847839355,-0.457763671875,-0.244140625,1.953125
2.5874999,0.4034229815006256,-0.3034650683403015,9.528923034667969,-5.18798828125,-0.9765625,-0.732421875
2.5924999,0.48482584953308105,-0.3381809890270233,9.922170639038086,5.67626953125,0.091552734375,-1.861572265625
2.5974999000000003,0.22505496442317963,-0.23942017555236816,9.95329475402832,-1.64794921875,-0.274658203125,2.01416015625
2.6024999,0.2795230448246002,-0.2663549482822418,9.931148529052734,-2.50244140625,-0.457763671875,2.01416015625
2.6074999,0.524330198764801,-0.30945056676864624,9.644442558288574,-3.35693359375,-0.396728515625,-1.52587890625
2.6124999,0.5093663930892944,-0.3208230137825012,10.001178741455078,5.92041015625,-0.244140625,-1.190185546875
2.6174999000000003,0.30466216802597046,-0.28550854325294495,9.84615421295166,-3.60107421875,-0.3662109375,2.01416015625
2.6224999,0.5153518915176392,-0.30526071786880493,9.639654159545898,-1.52587890625,1.312255859375,-1.77001953125
2.6274999,0.4207809567451477,-0.26994624733924866,9.999382972717285,6.256103515625,0.54931640625,-0.91552734375
2.6324999,0.2621650993824005,-0.24779987335205078,9.812037467956543,-4.241943359375,-0.3662109375,1.861572265625
2.6374999000000003,0.4944026470184326,-0.2992752194404602,9.625887870788574,-1.15966796875,-0.3662109375,-1.953125
2.6424999000000002,0.4165911078453064,-0.2454056739807129,9.972448348999023,5.645751953125,-0.67138671875,-0.640869140625
2.6474999,0.31364041566848755,-0.29388827085494995,9.70310115814209,-5.2490234375,-1.251220703125,1.52587890625
2.6524999,0.5237316489219666,-0.3148375153541565,9.592369079589844,0.732421875,1.3427734375,-2.0751953125
2.6574999000000004,0.2992752194404602,-0.28131869435310364,9.679757118225098,-5.401611328125,-0.091552734375,1.28173828125
2.6624999000000003,0.4620809257030487,-0.24660277366638184,9.679159164428711,1.861572265625,1.739501953125,-2.44140625
2.6674999,0.3531447649002075,-0.19393034279346466,10.059837341308594,4.669189453125,0.54931640625,0.457763671875
2.6724999,0.28072014451026917,-0.2364274114370346,9.712079048156738,-5.92041015625,0.152587890625,1.03759765625
2.6774999000000004,0.4842272996902466,-0.2232593148946762,9.700706481933594,2.593994140625,0.640869140625,-2.593994140625
2.6824999000000003,0.3908534348011017,-0.23762452602386475,9.964667320251465,3.448486328125,-0.396728515625,0.946044921875
2.6874999,0.3471592366695404,-0.29867666959762573,9.546878814697266,-6.134033203125,-0.48828125,0.79345703125
2.6924999,0.5392939448356628,-0.30705636739730835,9.622296333312988,3.509521484375,0.48828125,-2.5634765625
2.6974999,0.3705027103424072,-0.2944868206977844,9.928754806518555,2.685546875,0.42724609375,1.220703125
2.7024999000000003,0.33518823981285095,-0.314238965511322,9.560646057128906,-5.706787109375,0.48828125,0.274658203125
2.7074999,0.518943190574646,-0.26396074891090393,9.79408073425293,4.364013671875,0.3662109375,-2.685546875
2.7124999,0.3824737071990967,-0.24121582508087158,9.618106842041016,-5.401611328125,0.06103515625,-0.1220703125
2.7174999,0.5638344883918762,-0.2861070930957794,9.873088836669922,5.340576171875,1.28173828125,-2.50244140625
2.7224999000000003,0.35913026332855225,-0.2861070930957794,9.93593692779541,0.6103515625,0.30517578125,1.8310546875
2.7274999,0.43993455171585083,-0.3016694188117981,9.529520988464355,-4.974365234375,0.823974609375,-0.396728515625
2.7324999,0.5530605912208557,-0.3585317134857178,9.841964721679688,5.279541015625,-0.579833984375,-2.227783203125
2.7374999,0.28790274262428284,-0.28730419278144836,9.911396026611328,-1.068115234375,-0.701904296875,1.77001953125
2.7424999000000003,0.40462008118629456,-0.27054479718208313,9.594164848327637,-4.638671875,-0.823974609375,-0.946044921875
2.7474999,0.4854243993759155,-0.2998737692832947,10.002974510192871,6.317138671875,1.3427734375,-1.5869140625
2.7524999,0.25258827209472656,-0.2298433631658554,9.978434562683105,-1.89208984375,0.030517578125,2.044677734375
2.7574999,0.46986207365989685,-0.27653029561042786,9.64564037322998,-3.448486328125,0.518798828125,-1.220703125
2.7624999000000003,0.5165489912033081,-0.3166331648826599,10.010157585144043,6.40869140625,0.457763671875,-1.28173828125
2.7674999000000002,0.31543606519699097,-0.29568392038345337,9.859322547912598,-2.899169921875,0.030517578125,2.105712890625
2.7724999,0.4770447015762329,-0.322618693113327,9.991601943969727,5.828857421875,-0.701904296875,-1.190185546875
2.7774999,0.27892449498176575,-0.28072014451026917,9.832986831665039,-3.997802734375,-1.068115234375,2.01416015625
2.7824999000000004,0.5021837949752808,-0.31124621629714966,9.664793968200684,-1.0986328125,1.89208984375,-1.953125
2.7874999000000003,0.4016273319721222,-0.2585737705230713,9.995792388916016,5.889892578125,0.06103515625,-0.518798828125
2.7924999,0.28311434388160706,-0.2759317457675934,9.79527759552002,-4.791259765625,-0.946044921875,1.8310546875
2.7974999,0.5147533416748047,-0.31124621629714966,9.615114212036133,-0.42724609375,-0.396728515625,-2.349853515625
2.8024999000000004,0.42018240690231323,-0.26755204796791077,9.973047256469727,5.523681640625,-0.396728515625,-0.213623046875
2.8074999000000003,0.32381579279899597,-0.3100491166114807,9.671378135681152,-5.401611328125,-1.007080078125,1.40380859375
2.8124999,0.497395396232605,-0.2861070930957794,9.609128952026367,0.732421875,-0.152587890625,-2.62451171875
2.8174999,0.37828385829925537,-0.21428105235099792,9.997588157653809,5.0048828125,0.67138671875,0.30517578125
2.8224999,0.28550854325294495,-0.22625206410884857,9.702502250671387,-5.67626953125,0.42724609375,1.3427734375
2.8274999000000003,0.46567222476005554,-0.19213469326496124,9.724050521850586,1.800537109375,-0.335693359375,-2.86865234375
2.8324999,0.3172317147254944,-0.2495955228805542,9.664793968200684,-6.2255859375,-0.701904296875,1.007080078125
2.8374999,0.5213374495506287,-0.2819172441959381,9.688735961914062,3.082275390625,-0.244140625,-2.62451171875
2.8424999,0.3902548849582672,-0.28371289372444153,9.961075782775879,3.0517578125,-0.030517578125,0.9765625
2.8474999000000003,0.3345896899700165,-0.3387795388698578,9.55825138092041,-5.828857421875,-0.030517578125,0.54931640625
2.8524999,0.5093663930892944,-0.3016694188117981,9.727043151855469,4.302978515625,1.52587890625,-2.38037109375
2.8574999,0.5093663930892944,-0.3016694188117981,9.727043151855469,4.302978515625,1.52587890625,-2.38037109375
2.8624999,0.31364041566848755,-0.2651578485965729,10.012551307678223,1.800537109375,-0.274658203125,1.28173828125
2.8674999000000003,0.3256114423274994,-0.2974795699119568,9.637260437011719,-5.828857421875,-0.79345703125,0.152587890625
2.8724999,0.524330198764801,-0.2454056739807129,9.87967300415039,5.035400390625,0.701904296875,-2.532958984375
2.8774999,0.3387795388698578,-0.2693476974964142,10.016741752624512,0.701904296875,0.030517578125,1.5869140625
2.8824999,0.5817909836769104,-0.29388827085494995,9.838373184204102,5.523681640625,0,-2.288818359375
2.8874999000000003,0.42616790533065796,-0.31364041566848755,9.567230224609375,-4.669189453125,-0.732421875,-0.8544921875
2.8924999000000002,0.5129576921463013,-0.30466216802597046,9.967659950256348,5.7373046875,-0.1220703125,-1.953125
2.8974999,0.24899697303771973,-0.2777273952960968,10.004770278930664,-1.495361328125,-0.48828125,1.8310546875
2.9024999,0.4273650050163269,-0.2406172752380371,9.677363395690918,-4.150390625,0.06103515625,-1.129150390625
2.9074999000000004,0.49380409717559814,-0.29149407148361206,10.04188060760498,5.79833984375,-1.007080078125,-1.678466796875
2.9124999000000003,0.2867056429386139,-0.27473464608192444,9.921571731567383,-2.593994140625,-1.068115234375,1.89208984375
2.9174999,0.5201402902603149,-0.2717418968677521,9.605537414550781,-3.41796875,-1.03759765625,-1.861572265625
2.9224999,0.4985924959182739,-0.3429693877696991,9.95329475402832,5.584716796875,-0.335693359375,-1.190185546875
2.9274999000000004,0.2902969419956207,-0.2711433470249176,9.786299705505371,-3.47900390625,-0.91552734375,2.044677734375
2.9324999000000003,0.5069721937179565,-0.2651578485965729,9.589975357055664,-2.62451171875,-0.9765625,-2.01416015625
2.9374999,0.4129997789859772,-0.31364041566848755,9.974244117736816,6.103515625,0.42724609375,-0.701904296875
2.9424999,0.2711433470249176,-0.22625206410884857,9.806650161743164,-4.21142578125,-0.274658203125,2.166748046875
2.9474999,0.3064578175544739,-0.24600422382354736,9.701305389404297,-5.31005859375,0.152587890625,1.556396484375
2.9524999000000003,0.3064578175544739,-0.24600422382354736,9.701305389404297,-5.31005859375,0.152587890625,1.556396484375
2.9574999,0.4572925269603729,-0.2124854028224945,9.676764488220215,1.28173828125,0.79345703125,-2.5634765625
2.9624999,0.3471592366695404,-0.24660277366638184,10.02571964263916,4.21142578125,-0.640869140625,0.48828125
2.9674999,0.2711433470249176,-0.17238251864910126,9.667786598205566,-6.195068359375,-1.007080078125,0.9765625
2.9724999000000003,0.47405192255973816,-0.22026655077934265,9.691728591918945,1.77001953125,-0.48828125,-2.655029296875
2.9774999,0.38067805767059326,-0.26815059781074524,9.961075782775879,3.570556640625,0.42724609375,0.946044921875
2.9824999,0.3357867896556854,-0.26336219906806946,9.598953247070312,-5.706787109375,0.579833984375,0.762939453125
2.9874999,0.5374982953071594,-0.33279404044151306,9.704896926879883,2.838134765625,-0.732421875,-2.777099609375
2.9924999000000003,0.31603461503982544,-0.2753331959247589,10.020332336425781,1.3427734375,-0.244140625,1.495361328125
2.9974999,0.3866635859012604,-0.2495955228805542,9.586383819580078,-5.43212890625,-0.091552734375,-0.213623046875
3.0024999,0.5596446394920349,-0.3405751883983612,9.823410034179688,5.0048828125,0.06103515625,-2.197265625
3.0074999,0.34835633635520935,-0.2777273952960968,9.904213905334473,0.18310546875,-0.518798828125,1.8310546875
3.0124999000000003,0.43095630407333374,-0.2944868206977844,9.535507202148438,-5.18798828125,-0.3662109375,-0.6103515625
3.0174999000000002,0.5374982953071594,-0.36750996112823486,9.8784761428833,5.767822265625,0.9765625,-1.953125
3.0224999,0.2693476974964142,-0.2753331959247589,9.949105262756348,-0.9765625,-0.396728515625,1.922607421875
3.0274999,0.4082113802433014,-0.2663549482822418,9.627084732055664,-4.57763671875,-0.762939453125,-1.03759765625
3.0324999000000004,0.48303020000457764,-0.33698388934135437,10.019135475158691,5.889892578125,-0.18310546875,-1.5869140625
3.0374999000000003,0.25258827209472656,-0.23582886159420013,9.974244117736816,-1.89208984375,-0.335693359375,2.166748046875
3.0424999,0.507570743560791,-0.34177228808403015,10.007762908935547,6.072998046875,0.213623046875,-1.373291015625
3.0474999,0.3100491166114807,-0.27653029561042786,9.8599214553833,-3.204345703125,-0.701904296875,2.25830078125
3.0524999000000004,0.5380968451499939,-0.2998737692832947,9.61571216583252,-2.593994140625,-0.06103515625,-1.739501953125
3.0574999000000003,0.4531026780605316,-0.34177228808403015,10.001178741455078,5.828857421875,-0.1220703125,-0.9765625
3.0624999,0.27234044671058655,-0.24001872539520264,9.82759952545166,-4.119873046875,-0.732421875,1.953125
3.0674999,0.5009866952896118,-0.26815059781074524,9.663596153259277,-1.861572265625,-0.48828125,-2.227783203125
3.0724999000000004,0.4034229815006256,-0.2861070930957794,10.001178741455078,5.950927734375,1.007080078125,-0.396728515625
3.0774999000000003,0.3106476664543152,-0.2555810213088989,9.77791976928711,-4.638671875,0.244140625,1.922607421875
3.0824999,0.5297171473503113,-0.30286651849746704,9.626486778259277,-0.457763671875,-0.213623046875,-2.44140625
3.0874999,0.414795458316803,-0.3214215636253357,9.985017776489258,5.401611328125,0.030517578125,0.030517578125
3.0924999,0.30466216802597046,-0.292691171169281,9.684545516967773,-5.31005859375,-0.244140625,1.495361328125
3.0974999000000003,0.4596867263317108,-0.262763649225235,9.658807754516602,1.03759765625,0.457763671875,-2.410888671875
3.1024999,0.2663549482822418,-0.1951274424791336,9.700706481933594,-5.92041015625,-0.48828125,1.190185546875
3.1074999,0.4668693244457245,-0.21607670187950134,9.72165584564209,2.349853515625,1.129150390625,-2.5634765625
3.1124999,0.3860650360584259,-0.24660277366638184,9.996989250183105,3.814697265625,0.396728515625,0.79345703125
3.1174999000000003,0.33339259028434753,-0.2364274114370346,9.617507934570312,-5.767822265625,-0.030517578125,0.67138671875
3.1224999,0.5333084464073181,-0.30945056676864624,9.677363395690918,3.11279296875,0.518798828125,-2.349853515625
3.1274999,0.3800795078277588,-0.2801215946674347,9.982025146484375,2.5634765625,-0.732421875,1.28173828125
3.1324999,0.3447650372982025,-0.2783259451389313,9.619303703308105,-6.072998046875,-1.28173828125,0.3662109375
3.1374999000000003,0.5249287486076355,-0.30226796865463257,9.806650161743164,4.21142578125,0.6103515625,-2.5634765625
3.1424999000000002,0.32680854201316833,-0.2495955228805542,10.061633110046387,1.495361328125,-0.6103515625,1.40380859375
3.1474999,0.36810851097106934,-0.2645592987537384,9.62828254699707,-5.92041015625,-0.640869140625,0.091552734375
3.1524999,0.5560533404350281,-0.3208230137825012,9.852140426635742,4.608154296875,0.274658203125,-2.13623046875
3.1574999000000004,0.3477577865123749,-0.2890998423099518,9.931747436523438,0.6103515625,0.152587890625,1.800537109375
3.1624999000000003,0.4411316514015198,-0.30526071786880493,9.519944190979004,-4.94384765625,0.701904296875,-0.518798828125
3.1674999,0.557250440120697,-0.3711012601852417,9.818621635437012,5.06591796875,-0.396728515625,-2.0751953125
3.1724999,0.2885012924671173,-0.272938996553421,9.88506031036377,-0.701904296875,-0.3662109375,1.8310546875
3.1774999000000004,0.38905778527259827,-0.26396074891090393,9.555258750915527,-4.486083984375,0.67138671875,-0.823974609375
3.1824999000000003,0.4644751250743866,-0.3016694188117981,9.960477828979492,5.9814453125,1.03759765625,-1.678466796875
3.1874999,0.2148796021938324,-0.21667525172233582,9.948506355285645,-1.922607421875,-0.396728515625,2.01416015625
3.1924999,0.43993455171585083,-0.2759317457675934,9.636063575744629,-3.997802734375,-0.213623046875,-1.373291015625
3.1974999000000004,0.48961424827575684,-0.33099839091300964,10.00836181640625,6.4697265625,0.9765625,-1.28173828125
3.2024999000000003,0.2968810200691223,-0.2902969419956207,9.870695114135742,-2.838134765625,-0.030517578125,1.922607421875
3.2074999,0.5285200476646423,-0.3196259140968323,9.621099472045898,-2.74658203125,-0.213623046875,-1.678466796875
3.2124999,0.4686649739742279,-0.3190273642539978,9.99100399017334,6.378173828125,0.732421875,-0.823974609375
3.2174999,0.27712884545326233,-0.25737667083740234,9.836577415466309,-3.72314453125,-0.091552734375,2.01416015625
3.2224999000000003,0.5081692934036255,-0.2902969419956207,9.661202430725098,-1.28173828125,0.213623046875,-1.922607421875
3.2274999,0.5363011956214905,-0.3058592677116394,9.603741645812988,-0.213623046875,0.823974609375,-2.38037109375
3.2324999,0.4387374520301819,-0.27653029561042786,9.951498985290527,5.706787109375,1.0986328125,0.030517578125
3.2374999,0.3315969407558441,-0.30705636739730835,9.650428771972656,-5.2490234375,0.335693359375,1.64794921875
3.2424999000000003,0.5003881454467773,-0.29149407148361206,9.604340553283691,0.762939453125,0.030517578125,-2.410888671875
3.2474999,0.37169981002807617,-0.24361002445220947,9.988609313964844,4.8828125,0.823974609375,0.30517578125
3.2524999,0.28131869435310364,-0.22086510062217712,9.694721221923828,-5.859375,0.274658203125,1.251220703125
3.2574999,0.4572925269603729,-0.21308395266532898,9.713275909423828,1.953125,1.251220703125,-2.655029296875
3.2624999000000003,0.36990416049957275,-0.20051439106464386,10.029909133911133,3.72314453125,0.091552734375,0.91552734375
3.2674999000000002,0.31184476613998413,-0.23582886159420013,9.626486778259277,-6.256103515625,-0.3662109375,1.03759765625
3.2724999,0.517746090888977,-0.29568392038345337,9.658209800720215,2.9296875,0,-2.685546875
3.2774999,0.32620999217033386,-0.3166331648826599,9.551069259643555,-5.950927734375,-0.091552734375,0.48828125
3.2824999000000004,0.36152446269989014,-0.2651578485965729,9.965266227722168,0.579833984375,-0.732421875,1.617431640625
3.2874999000000003,0.45489832758903503,-0.31124621629714966,9.549273490905762,-5.43212890625,-0.213623046875,-0.091552734375
3.2924999,0.5823895931243896,-0.3345896899700165,9.830592155456543,5.462646484375,1.007080078125,-2.0751953125
3.2974999,0.31783026456832886,-0.2890998423099518,9.906009674072266,-0.79345703125,-0.42724609375,1.89208984375
3.3024999000000004,0.3998316824436188,-0.30885201692581177,9.569623947143555,-4.852294921875,-0.396728515625,-0.946044921875
3.3074999000000003,0.46986207365989685,-0.2968810200691223,9.964667320251465,5.92041015625,-0.152587890625,-1.77001953125
3.3124999,0.2172738015651703,-0.2759317457675934,9.97603988647461,-1.800537109375,-0.42724609375,2.166748046875
3.3174999,0.524330198764801,-0.3357867896556854,9.61212158203125,-2.532958984375,-0.091552734375,-1.64794921875
3.3224999000000004,0.48602294921875,-0.2819172441959381,9.988011360168457,6.28662109375,0.274658203125,-1.0986328125
3.3274999000000003,0.2825157940387726,-0.3076549172401428,9.82640266418457,-3.936767578125,-0.48828125,1.89208984375
3.3324999,0.5117605924606323,-0.2950853705406189,9.652822494506836,-1.46484375,0.06103515625,-1.8310546875
3.3374999,0.4189853072166443,-0.2322375625371933,10.011953353881836,5.859375,0.54931640625,-0.67138671875
3.3424999,0.29149407148361206,-0.28131869435310364,9.800065994262695,-4.791259765625,-0.457763671875,1.8310546875
3.3474999000000003,0.5321113467216492,-0.2867056429386139,9.624691009521484,-0.91552734375,-1.03759765625,-2.44140625
3.3524999,0.4345476031303406,-0.26575639843940735,9.968857765197754,5.43212890625,0.6103515625,-0.274658203125
3.3574999,0.33279404044151306,-0.3357867896556854,9.671378135681152,-5.126953125,-0.06103515625,1.617431640625
3.3624999,0.5039794445037842,-0.2867056429386139,9.606734275817871,0.79345703125,0.8544921875,-2.349853515625
3.3674999000000003,0.26156654953956604,-0.25498247146606445,9.708487510681152,-5.584716796875,0,1.40380859375
3.3724999,0.436343252658844,-0.17956513166427612,9.749189376831055,1.312255859375,0.091552734375,-2.716064453125
3.3774999,0.3495534360408783,-0.23343466222286224,10.066421508789062,4.058837890625,0.335693359375,0.640869140625
3.3824999,0.30226796865463257,-0.19812019169330597,9.68933391571045,-5.55419921875,0.213623046875,0.946044921875
3.3874999000000003,0.5153518915176392,-0.24779987335205078,9.713874816894531,2.86865234375,1.373291015625,-2.5634765625
3.3924999000000002,0.4010287821292877,-0.3034650683403015,9.961674690246582,3.204345703125,-0.1220703125,1.0986328125
3.3974999,0.345363587141037,-0.28072014451026917,9.597756385803223,-5.767822265625,-0.091552734375,0.48828125
3.4024999,0.5261258482933044,-0.33099839091300964,9.737217903137207,3.631591796875,0.518798828125,-2.50244140625
3.4074999000000004,0.32680854201316833,-0.29628247022628784,10.016741752624512,2.13623046875,-0.152587890625,1.373291015625
3.4124999000000003,0.33997663855552673,-0.27234044671058655,9.636661529541016,-5.7373046875,-0.1220703125,-0.06103515625
3.4174999,0.5279214978218079,-0.31124621629714966,9.868300437927246,4.913330078125,0.79345703125,-2.38037109375
3.4224999,0.33698388934135437,-0.27473464608192444,10.02452278137207,1.129150390625,-0.396728515625,1.708984375
3.4274999000000004,0.5728127360343933,-0.34835633635520935,9.864110946655273,4.852294921875,-0.152587890625,-2.166748046875
3.4324999000000003,0.33279404044151306,-0.2783259451389313,9.932944297790527,-0.335693359375,-0.396728515625,1.861572265625
3.4374999,0.41778820753097534,-0.272938996553421,9.563638687133789,-4.7607421875,0.213623046875,-0.6103515625
3.4424999,0.29807811975479126,-0.28969839215278625,9.837176322937012,-3.509521484375,-0.213623046875,2.0751953125
3.4474999000000004,0.29807811975479126,-0.28969839215278625,9.837176322937012,-3.509521484375,-0.213623046875,2.0751953125
3.4524999000000003,0.42377370595932007,-0.32441434264183044,10.027515411376953,5.9814453125,0.244140625,-0.3662109375
3.4574999,0.2819172441959381,-0.25019407272338867,9.830592155456543,-4.364013671875,-0.335693359375,1.953125
3.4624999,0.5135562419891357,-0.2861070930957794,9.65222454071045,-0.823974609375,0.701904296875,-2.3193359375
3.4674999,0.4141969084739685,-0.28131869435310364,9.995193481445312,5.67626953125,0.732421875,0.030517578125
3.4724999000000003,0.31783026456832886,-0.2711433470249176,9.717466354370117,-5.18798828125,-0.091552734375,1.77001953125
3.4774999,0.497395396232605,-0.2783259451389313,9.62828254699707,-0.030517578125,-0.762939453125,-2.471923828125
3.4824999,0.3734954595565796,-0.2711433470249176,9.99339771270752,4.913330078125,-0.67138671875,0.213623046875
3.4874999,0.2783259451389313,-0.23343466222286224,9.700706481933594,-5.7373046875,-1.007080078125,1.007080078125
3.4924999000000003,0.4578910768032074,-0.228047713637352,9.716269493103027,1.495361328125,0.06103515625,-2.62451171875
3.4974999,0.3705027103424072,-0.2388216257095337,10.053851127624512,4.425048828125,0.3662109375,0.885009765625
3.5024999,0.31842881441116333,-0.22445641458034515,9.674370765686035,-6.072998046875,-0.1220703125,0.762939453125
3.5074999,0.5237316489219666,-0.292691171169281,9.68933391571045,2.227783203125,-1.03759765625,-2.716064453125
3.5124999000000003,0.5327098965644836,-0.333991140127182,9.693524360656738,3.692626953125,1.190185546875,-2.288818359375
3.5174999000000002,0.5327098965644836,-0.333991140127182,9.693524360656738,3.692626953125,1.190185546875,-2.288818359375
3.5224999,0.3429693877696991,-0.27473464608192444,9.885659217834473,-0.274658203125,-0.67138671875,1.8310546875
3.5274999,0.3429693877696991,-0.27473464608192444,9.885659217834473,-0.274658203125,-0.67138671875,1.8310546875
3.5324999000000004,0.4321534037590027,-0.28072014451026917,9.522936820983887,-5.096435546875,-1.15966796875,-0.579833984375
3.5374999000000003,0.5129576921463013,-0.31543606519699097,9.90361499786377,5.55419921875,-0.48828125,-1.8310546875
3.5424999,0.24899697303771973,-0.23523031175136566,9.95090103149414,-1.64794921875,-0.457763671875,1.983642578125
3.5474999,0.4950011968612671,-0.30526071786880493,10.023324966430664,5.767822265625,-0.030517578125,-1.434326171875
3.5524999000000004,0.28131869435310364,-0.27413609623908997,9.93474006652832,-2.655029296875,-0.335693359375,2.0751953125
3.5574999000000003,0.5207388401031494,-0.31543606519699097,9.637260437011719,-3.23486328125,0.42724609375,-1.64794921875
3.5624999,0.4926069974899292,-0.304063618183136,10.003573417663574,6.561279296875,1.03759765625,-1.129150390625
3.5674999,0.28969839215278625,-0.2849099934101105,9.84495735168457,-3.60107421875,-0.091552734375,1.953125
3.5724999000000004,0.5057750940322876,-0.31543606519699097,9.649829864501953,-1.800537109375,-0.42724609375,-2.166748046875
3.5774999000000003,0.4159925580024719,-0.2621650993824005,10.003573417663574,6.378173828125,0.48828125,-0.518798828125
3.5824999,0.26994624733924866,-0.26156654953956604,9.822811126708984,-4.45556640625,-0.091552734375,1.922607421875
3.5874999,0.5171475410461426,-0.29568392038345337,9.635464668273926,-0.579833984375,1.068115234375,-2.25830078125
3.5924999,0.4231751561164856,-0.24361002445220947,9.979631423950195,5.706787109375,0.640869140625,-0.152587890625
3.5974999000000003,0.3256114423274994,-0.30885201692581177,9.68933391571045,-5.2490234375,-0.1220703125,1.8310546875
3.6024999,0.5147533416748047,-0.30286651849746704,9.59835433959961,0.762939453125,0.885009765625,-2.5634765625
3.6074999,0.272938996553421,-0.2735375463962555,9.679159164428711,-5.859375,-0.030517578125,1.312255859375
3.6124999,0.43993455171585083,-0.2214636504650116,9.700706481933594,1.8310546875,0.335693359375,-2.50244140625
3.6174999000000003,0.34656068682670593,-0.20290859043598175,10.052056312561035,4.2724609375,0.518798828125,0.79345703125
3.6224999,0.29867666959762573,-0.24241292476654053,9.689932823181152,-5.7373046875,0.48828125,1.068115234375
3.6274999,0.5141547918319702,-0.25079262256622314,9.710882186889648,2.593994140625,-0.701904296875,-2.777099609375
3.6324999,0.40701428055763245,-0.25977087020874023,9.981427192687988,3.143310546875,-0.06103515625,0.91552734375
3.6374999000000003,0.35673606395721436,-0.3357867896556854,9.588777542114258,-5.79833984375,0.1220703125,0.67138671875
3.6424999000000002,0.536899745464325,-0.28371289372444153,9.737217903137207,3.96728515625,1.46484375,-2.50244140625
3.6474999,0.34177228808403015,-0.2885012924671173,10.029909133911133,1.64794921875,-0.457763671875,1.3427734375
3.6524999,0.3387795388698578,-0.28311434388160706,9.64803409576416,-6.16455078125,-0.701904296875,0.18310546875
3.6574999000000004,0.52552729845047,-0.25318682193756104,9.890447616577148,4.94384765625,1.89208984375,-2.38037109375
3.6624999000000003,0.33698388934135437,-0.27234044671058655,10.029909133911133,0.946044921875,0.335693359375,1.678466796875
3.6674999,0.5817909836769104,-0.32022446393966675,9.837775230407715,5.157470703125,-0.42724609375,-2.288818359375
3.6724999,0.34656068682670593,-0.2998737692832947,9.88386344909668,-0.3662109375,-0.1220703125,1.739501953125
3.6774999000000004,0.42616790533065796,-0.2777273952960968,9.517550468444824,-4.638671875,0.48828125,-0.79345703125
3.6824999000000003,0.4776432514190674,-0.3280056416988373,10.035895347595215,6.378173828125,1.28173828125,-1.3427734375
3.6874999,0.26575639843940735,-0.26336219906806946,9.930550575256348,-2.13623046875,-0.06103515625,2.13623046875
3.6924999,0.5093663930892944,-0.27473464608192444,9.642048835754395,-3.082275390625,0.823974609375,-1.64794921875
3.6974999000000004,0.497395396232605,-0.345363587141037,10.008959770202637,5.584716796875,-0.244140625,-1.068115234375
3.7024999000000003,0.2944868206977844,-0.2753331959247589,9.834781646728516,-3.47900390625,-0.54931640625,2.0751953125
3.7074999,0.5225345492362976,-0.2902969419956207,9.644442558288574,-1.708984375,0.885009765625,-1.861572265625
3.7124999,0.5171475410461426,-0.262763649225235,9.621698379516602,-1.190185546875,-0.518798828125,-2.13623046875
3.7174999,0.41539400815963745,-0.2849099934101105,9.982025146484375,5.2490234375,-0.030517578125,-0.152587890625
3.7224999000000003,0.31783026456832886,-0.25258827209472656,9.727043151855469,-5.035400390625,-0.30517578125,1.556396484375
3.7274999,0.5051765441894531,-0.25737667083740234,9.642048835754395,0.274658203125,0.701904296875,-2.38037109375
3.7324999,0.37469255924224854,-0.2890998423099518,9.997588157653809,5.096435546875,0.42724609375,0.244140625
3.7374999,0.2867056429386139,-0.22744916379451752,9.712079048156738,-5.523681640625,-0.213623046875,1.129150390625
3.7424999000000003,0.45489832758903503,-0.21009120345115662,9.692327499389648,1.373291015625,1.007080078125,-2.38037109375
3.7474999,0.3597288131713867,-0.2579752206802368,10.04068374633789,4.608154296875,0.9765625,0.79345703125
3.7524999,0.29628247022628784,-0.2041056901216507,9.666589736938477,-5.615234375,0.8544921875,1.03759765625
3.7574999,0.49619829654693604,-0.25737667083740234,9.700706481933594,2.716064453125,0.54931640625,-2.899169921875
3.7624999000000003,0.32680854201316833,-0.27054479718208313,9.586383819580078,-5.828857421875,0.244140625,0.518798828125
3.7674999000000002,0.5207388401031494,-0.3130418658256531,9.725846290588379,3.387451171875,0,-2.410888671875
3.7724999,0.3363853394985199,-0.29209262132644653,10.011354446411133,2.105712890625,-0.274658203125,1.52587890625
3.7774999,0.3423708379268646,-0.24779987335205078,9.645041465759277,-5.92041015625,-0.396728515625,0.091552734375
3.7824999000000004,0.5380968451499939,-0.3016694188117981,9.858125686645508,3.90625,-0.42724609375,-2.716064453125
3.7874999000000003,0.345363587141037,-0.25917232036590576,10.018536567687988,0.823974609375,-0.8544921875,1.5869140625
3.7924999,0.42856210470199585,-0.2603694200515747,9.589376449584961,-5.79833984375,-1.007080078125,-0.42724609375
3.7974999,0.579995334148407,-0.3411737382411957,9.829395294189453,4.8828125,0.3662109375,-2.044677734375
3.8024999000000004,0.3429693877696991,-0.2801215946674347,9.914389610290527,-0.274658203125,-0.396728515625,2.105712890625
3.8074999000000003,0.42377370595932007,-0.2735375463962555,9.549872398376465,-4.82177734375,-0.396728515625,-0.762939453125
3.8124999,0.5057750940322876,-0.34596213698387146,9.931747436523438,5.67626953125,0.274658203125,-1.678466796875
3.8174999,0.23762452602386475,-0.2454056739807129,9.968857765197754,-1.15966796875,-0.48828125,1.922607421875
3.8224999000000004,0.4991910457611084,-0.35673606395721436,9.985616683959961,5.79833984375,0.244140625,-1.129150390625
3.8274999000000003,0.29867666959762573,-0.26755204796791077,9.825803756713867,-3.23486328125,-0.274658203125,2.13623046875
3.8324999,0.52552729845047,-0.2783259451389313,9.634865760803223,-2.044677734375,0.946044921875,-1.89208984375
3.8374999,0.4297592043876648,-0.32022446393966675,10.005967140197754,5.767822265625,0.3662109375,-0.67138671875
3.8424999,0.3196259140968323,-0.262763649225235,9.744400978088379,-5.2490234375,-1.129150390625,1.64794921875
3.8474999000000003,0.5117605924606323,-0.2819172441959381,9.628880500793457,-0.18310546875,-0.762939453125,-2.410888671875
3.8524999,0.28969839215278625,-0.24839842319488525,9.698312759399414,-5.18798828125,0.518798828125,1.373291015625
3.8574999,0.45489832758903503,-0.23702596127986908,9.691129684448242,1.3427734375,0.42724609375,-2.532958984375
3.8624999,0.35673606395721436,-0.26755204796791077,10.043676376342773,4.119873046875,-0.42724609375,0.579833984375
3.8674999000000003,0.2861070930957794,-0.2017114907503128,9.687539100646973,-6.04248046875,-0.91552734375,0.9765625
3.8724999,0.48961424827575684,-0.25318682193756104,9.712079048156738,1.953125,-0.579833984375,-2.62451171875
3.8774999,0.3818751573562622,-0.2825157940387726,9.96825885772705,3.082275390625,-0.579833984375,0.91552734375
3.8824999,0.3321954905986786,-0.27712884545326233,9.593565940856934,-6.28662109375,-1.068115234375,0.701904296875
3.8874999000000003,0.5279214978218079,-0.3381809890270233,9.701305389404297,3.11279296875,-0.213623046875,-2.532958984375
3.8924999000000002,0.3495534360408783,-0.31543606519699097,9.99339771270752,2.0751953125,-0.79345703125,1.40380859375
3.8974999,0.345363587141037,-0.2783259451389313,9.631275177001953,-5.9814453125,-1.03759765625,0.1220703125
3.9024999,0.5321113467216492,-0.31364041566848755,9.84495735168457,4.150390625,-0.030517578125,-2.44140625
3.9074999000000004,0.3321954905986786,-0.2585737705230713,10.02811336517334,1.007080078125,-0.762939453125,1.739501953125
3.9124999000000003,0.5153518915176392,-0.34177228808403015,9.910199165344238,5.18798828125,-0.396728515625,-2.0751953125
3.9174999,0.24420857429504395,-0.23403321206569672,9.967659950256348,-1.40380859375,-0.48828125,1.922607421875
3.9224999,0.4776432514190674,-0.3315969407558441,10.019135475158691,5.523681640625,-0.6103515625,-1.708984375
3.9274999000000004,0.2669534981250763,-0.25498247146606445,9.941922187805176,-2.288818359375,-0.640869140625,1.953125
3.9324999000000003,0.5063736438751221,-0.2974795699119568,9.625887870788574,-3.387451171875,0.213623046875,-1.495361328125
3.9374999,0.5063736438751221,-0.37648820877075195,9.991601943969727,6.4697265625,1.617431640625,-1.0986328125
3.9424999,0.304063618183136,-0.28969839215278625,9.828198432922363,-2.9296875,0.54931640625,2.13623046875
3.9474999000000004,0.524330198764801,-0.3010708689689636,9.611522674560547,-1.89208984375,1.190185546875,-1.708984375
3.9524999000000003,0.507570743560791,-0.27054479718208313,9.671976089477539,-0.67138671875,2.0751953125,-2.13623046875
3.9574999,0.4118026793003082,-0.2950853705406189,10.022727012634277,6.103515625,1.15966796875,-0.274658203125
3.9624999,0.3172317147254944,-0.26096799969673157,9.778518676757812,-4.730224609375,0.30517578125,1.678466796875
3.9674999000000004,0.5117605924606323,-0.2735375463962555,9.639654159545898,0.42724609375,1.800537109375,-2.227783203125
3.9724999000000003,0.3860650360584259,-0.2777273952960968,10.004171371459961,5.035400390625,-0.06103515625,0.48828125
3.9774999,0.28311434388160706,-0.22685061395168304,9.690531730651855,-5.889892578125,-0.54931640625,1.40380859375
3.9824999,0.44592007994651794,-0.21308395266532898,9.687539100646973,1.28173828125,0.091552734375,-2.86865234375
3.9874999,0.3477577865123749,-0.24420857429504395,10.031704902648926,4.21142578125,-0.762939453125,0.579833984375
3.9924999000000003,0.284311443567276,-0.19572599232196808,9.672574996948242,-5.92041015625,-0.732421875,1.0986328125
3.9974999,0.4967968463897705,-0.25917232036590576,9.696516990661621,2.38037109375,0.152587890625,-2.8076171875
4.0024999,0.5440823435783386,-0.3357867896556854,9.687539100646973,3.60107421875,1.495361328125,-2.38037109375
4.0074999,0.3585317134857178,-0.2932897210121155,9.995193481445312,2.410888671875,0.640869140625,1.40380859375
4.0124999,0.33997663855552673,-0.2687491476535797,9.62947940826416,-5.7373046875,0.42724609375,0.30517578125
4.0174999,0.5279214978218079,-0.28969839215278625,9.856928825378418,4.150390625,-0.8544921875,-2.5634765625
4.022499900000001,0.32441434264183044,-0.228047713637352,10.034099578857422,1.0986328125,-0.3662109375,1.5869140625
4.0274999000000005,0.32441434264183044,-0.228047713637352,10.034099578857422,1.0986328125,-0.3662109375,1.5869140625
4.0324999,0.40462008118629456,-0.23582886159420013,9.597756385803223,-5.55419921875,-0.152587890625,-0.335693359375
4.0374999,0.5656301379203796,-0.322618693113327,9.829395294189453,5.462646484375,1.220703125,-2.197265625
4.0424999,0.33758243918418884,-0.2735375463962555,9.895236015319824,-0.091552734375,-0.6103515625,1.77001953125
4.0474999,0.42197805643081665,-0.2932897210121155,9.522936820983887,-5.4931640625,-1.190185546875,-0.8544921875
4.0524999,0.5111620426177979,-0.35913026332855225,9.888052940368652,5.67626953125,0.8544921875,-1.800537109375
4.0574999,0.24480712413787842,-0.25737667083740234,9.943120002746582,-1.0986328125,0.274658203125,1.8310546875
4.062499900000001,0.5351040959358215,-0.2890998423099518,9.635464668273926,-3.35693359375,-0.3662109375,-1.434326171875
4.0674999000000005,0.5351040959358215,-0.2890998423099518,9.635464668273926,-3.35693359375,-0.3662109375,-1.434326171875
4.0724999,0.5165489912033081,-0.33997663855552673,9.996989250183105,5.950927734375,-0.396728515625,-1.220703125
4.0774999,0.31543606519699097,-0.2795230448246002,9.843161582946777,-3.60107421875,-0.885009765625,1.8310546875
4.0824999,0.524330198764801,-0.29209262132644653,9.65222454071045,-2.197265625,0.213623046875,-1.678466796875
4.0874999,0.4165911078453064,-0.3130418658256531,10.014347076416016,5.92041015625,-0.396728515625,-0.823974609375
4.0924999,0.2717418968677521,-0.23523031175136566,9.84495735168457,-4.5166015625,-0.823974609375,1.556396484375
4.0974999,0.507570743560791,-0.2944868206977844,9.654019355773926,-1.03759765625,0.6103515625,-2.227783203125
4.1024999,0.42377370595932007,-0.2867056429386139,9.999981880187988,5.79833984375,0.48828125,-0.152587890625
4.1074999000000005,0.3292027413845062,-0.28550854325294495,9.73542308807373,-4.94384765625,-0.30517578125,1.52587890625
4.1124999,0.5201402902603149,-0.28969839215278625,9.634865760803223,-0.48828125,-1.434326171875,-2.716064453125
4.1174999,0.2777273952960968,-0.22744916379451752,9.695918083190918,-5.767822265625,-0.579833984375,1.46484375
4.1224999,0.2777273952960968,-0.22744916379451752,9.695918083190918,-5.767822265625,-0.579833984375,1.46484375
4.1274999,0.4405331015586853,-0.21787235140800476,9.695918083190918,1.64794921875,1.5869140625,-2.3193359375
4.1324999,0.34416648745536804,-0.22625206410884857,10.026318550109863,4.2724609375,0.335693359375,0.79345703125
4.1374999,0.28730419278144836,-0.23403321206569672,9.668384552001953,-5.859375,0.274658203125,0.885009765625
4.1424999,0.5111620426177979,-0.3190273642539978,9.66958236694336,3.2958984375,2.01416015625,-2.716064453125
4.147499900000001,0.4040215313434601,-0.3058592677116394,9.923367500305176,3.60107421875,0.42724609375,1.15966796875
4.1524999000000005,0.3627215623855591,-0.3250128924846649,9.52473258972168,-6.103515625,-0.18310546875,0.701904296875
4.1574999,0.5446808934211731,-0.33279404044151306,9.64683723449707,3.265380859375,-0.762939453125,-2.685546875
4.1624999,0.5147533416748047,-0.28730419278144836,9.816825866699219,5.035400390625,2.0751953125,-2.44140625
4.1674999,0.3082534670829773,-0.25079262256622314,9.981427192687988,1.0986328125,-0.396728515625,1.8310546875
4.1724999,0.5093663930892944,-0.32680854201316833,9.944915771484375,6.011962890625,1.495361328125,-2.01416015625
4.1774999,0.24480712413787842,-0.25258827209472656,9.979631423950195,-1.312255859375,0.18310546875,2.166748046875
4.1824999,0.4255693554878235,-0.2992752194404602,9.660603523254395,-4.150390625,0.67138671875,-1.007080078125
4.187499900000001,0.4944026470184326,-0.2950853705406189,10.036493301391602,6.622314453125,1.220703125,-1.64794921875
4.1924999000000005,0.28072014451026917,-0.292691171169281,9.9000244140625,-2.5634765625,0.18310546875,2.166748046875
4.1974999,0.5219359993934631,-0.33937808871269226,9.607931137084961,-2.86865234375,0.244140625,-1.312255859375
4.2024999,0.4926069974899292,-0.31364041566848755,9.965864181518555,5.9814453125,-0.213623046875,-1.251220703125
4.2074999,0.2890998423099518,-0.31364041566848755,9.821614265441895,-3.997802734375,-0.67138671875,1.8310546875
4.2124999,0.5045779943466187,-0.32620999217033386,9.655217170715332,-1.40380859375,1.312255859375,-1.861572265625
4.2174999,0.2693476974964142,-0.2693476974964142,9.832986831665039,-4.8828125,-0.762939453125,1.861572265625
4.2224999,0.5069721937179565,-0.29149407148361206,9.63067626953125,-0.42724609375,0.1220703125,-2.105712890625
4.2274999,0.4183867573738098,-0.2364274114370346,9.987412452697754,5.31005859375,-1.03759765625,-0.18310546875
4.2324999000000005,0.32680854201316833,-0.31783026456832886,9.690531730651855,-5.767822265625,-1.556396484375,1.46484375
4.2374999,0.5069721937179565,-0.27653029561042786,9.616311073303223,1.068115234375,1.556396484375,-2.62451171875
4.2424999,0.3770867586135864,-0.21547815203666687,10.00836181640625,4.486083984375,-0.42724609375,0.335693359375
4.2474999,0.27712884545326233,-0.2555810213088989,9.706093788146973,-6.16455078125,-0.640869140625,1.434326171875
4.2524999,0.4495113790035248,-0.17956513166427612,9.727043151855469,1.373291015625,-0.54931640625,-2.62451171875
4.2574999,0.35494041442871094,-0.21607670187950134,10.055048942565918,4.0283203125,0.3662109375,0.79345703125
4.2624999,0.30286651849746704,-0.2537853717803955,9.655815124511719,-5.584716796875,0.54931640625,1.220703125
4.2674999,0.5117605924606323,-0.28311434388160706,9.680954933166504,2.838134765625,-0.335693359375,-2.593994140625
4.272499900000001,0.5219359993934631,-0.31783026456832886,9.732429504394531,3.5400390625,-0.18310546875,-2.777099609375
4.2774999000000005,0.3250128924846649,-0.2849099934101105,10.007762908935547,1.5869140625,-0.823974609375,1.52587890625
4.2824999,0.34416648745536804,-0.272938996553421,9.634865760803223,-5.7373046875,-0.640869140625,0.42724609375
4.2874999,0.5422866940498352,-0.3058592677116394,9.864709854125977,4.547119140625,0.579833984375,-2.38037109375
4.2924999,0.34596213698387146,-0.2861070930957794,10.006566047668457,0.9765625,-0.701904296875,1.52587890625
4.2974999,0.4357447028160095,-0.2783259451389313,9.589376449584961,-5.55419921875,-0.48828125,-0.091552734375
4.3024999,0.5758054852485657,-0.3423708379268646,9.864110946655273,5.615234375,1.708984375,-2.0751953125
4.3074999,0.3214215636253357,-0.26396074891090393,9.9371337890625,-0.213623046875,0.48828125,1.953125
4.312499900000001,0.4118026793003082,-0.2579752206802368,9.587580680847168,-4.39453125,0.946044921875,-0.67138671875
4.3174999000000005,0.4967968463897705,-0.32022446393966675,9.978434562683105,5.828857421875,0,-1.983642578125
4.3224999,0.24361002445220947,-0.24361002445220947,10.003573417663574,-1.617431640625,-0.91552734375,1.89208984375
4.3274999,0.5051765441894531,-0.3280056416988373,9.674370765686035,-1.495361328125,0.885009765625,-2.105712890625
4.3324999,0.4076128304004669,-0.2974795699119568,10.022128105163574,6.16455078125,0.335693359375,-0.48828125
4.3374999,0.2711433470249176,-0.2585737705230713,9.814431190490723,-4.69970703125,-0.457763671875,2.01416015625
4.3424999,0.5039794445037842,-0.304063618183136,9.620500564575195,-1.129150390625,-1.0986328125,-2.44140625
4.3474999,0.4118026793003082,-0.2645592987537384,9.962871551513672,5.2490234375,-0.79345703125,-0.244140625
4.352499900000001,0.31364041566848755,-0.30047231912612915,9.661202430725098,-5.43212890625,-0.946044921875,1.556396484375
4.3574999000000005,0.49799394607543945,-0.2890998423099518,9.591172218322754,0.396728515625,0.396728515625,-2.685546875
4.3624999,0.27413609623908997,-0.23343466222286224,9.682151794433594,-6.195068359375,-1.190185546875,1.434326171875
4.3674999,0.4572925269603729,-0.23702596127986908,9.717466354370117,1.8310546875,0.67138671875,-2.62451171875
4.3724999,0.3645172119140625,-0.2256535142660141,10.049661636352539,3.84521484375,-0.335693359375,0.396728515625
4.3774999,0.3106476664543152,-0.27712884545326233,9.676166534423828,-6.16455078125,-0.579833984375,0.946044921875
4.3824999,0.5213374495506287,-0.3100491166114807,9.707290649414062,3.204345703125,0.30517578125,-2.960205078125
4.3874999,0.3878606855869293,-0.2783259451389313,9.986215591430664,3.11279296875,0.42724609375,1.068115234375
4.3924999,0.333991140127182,-0.31783026456832886,9.59835433959961,-5.706787109375,0.335693359375,0.67138671875
4.397499900000001,0.507570743560791,-0.29209262132644653,9.765948295593262,3.7841796875,0.42724609375,-2.50244140625
4.4024999000000005,0.32680854201316833,-0.2885012924671173,9.627084732055664,-5.950927734375,-0.1220703125,0
4.4074999,0.5279214978218079,-0.27892449498176575,9.86650562286377,4.7607421875,0.457763671875,-2.410888671875
4.4124999,0.3423708379268646,-0.28371289372444153,9.98681354522705,0.67138671875,-0.06103515625,2.044677734375
4.4174999,0.3357867896556854,-0.30885201692581177,9.945513725280762,-0.518798828125,-0.213623046875,2.044677734375
4.4224999,0.4165911078453064,-0.32441434264183044,9.57979965209961,-4.791259765625,-0.518798828125,-0.67138671875
4.4274999,0.4967968463897705,-0.27413609623908997,9.971850395202637,6.439208984375,1.03759765625,-1.953125
4.4324999,0.23163901269435883,-0.2801215946674347,9.982624053955078,-1.678466796875,-0.396728515625,1.922607421875
4.437499900000001,0.4231751561164856,-0.29568392038345337,9.660603523254395,-3.7841796875,-0.1220703125,-1.129150390625
4.4424999000000005,0.49619829654693604,-0.27234044671058655,10.020332336425781,6.04248046875,0.8544921875,-1.495361328125
4.4474999,0.28969839215278625,-0.32202014327049255,9.896432876586914,-3.021240234375,-0.091552734375,1.922607421875
4.4524999,0.5321113467216492,-0.3082534670829773,9.604938507080078,-2.9296875,-0.213623046875,-1.617431640625
4.4574999,0.49559974670410156,-0.31783026456832886,9.965266227722168,5.55419921875,-1.03759765625,-1.0986328125
4.4624999,0.2974795699119568,-0.3172317147254944,9.818022727966309,-4.08935546875,-1.0986328125,1.678466796875
4.4674999,0.5153518915176392,-0.28550854325294495,9.64683723449707,-1.89208984375,0,-2.105712890625
4.4724999,0.5219359993934631,-0.28371289372444153,9.643844604492188,-0.457763671875,1.617431640625,-2.227783203125
4.477499900000001,0.41120412945747375,-0.31124621629714966,9.983820915222168,5.43212890625,0.274658203125,-0.244140625
4.4824999000000005,0.4854243993759155,-0.2795230448246002,9.641449928283691,0.091552734375,0.213623046875,-2.38037109375
4.4874999,0.3579331636428833,-0.2867056429386139,10.014945983886719,4.82177734375,-0.274658203125,0.396728515625
4.4924999,0.2585737705230713,-0.228047713637352,9.708487510681152,-5.7373046875,-0.9765625,1.3427734375
4.4974999,0.43754035234451294,-0.2106897532939911,9.706692695617676,1.373291015625,-0.457763671875,-2.838134765625
4.5024999,0.353743314743042,-0.2346317619085312,10.017938613891602,4.486083984375,0.579833984375,0.79345703125
4.5074999,0.2998737692832947,-0.20051439106464386,9.640253067016602,-5.67626953125,0.48828125,1.190185546875
4.5124999,0.5135562419891357,-0.27234044671058655,9.663596153259277,1.739501953125,-0.79345703125,-2.777099609375
4.5174999,0.3968389332294464,-0.2861070930957794,9.934141159057617,2.777099609375,-0.885009765625,1.15966796875
4.522499900000001,0.5267243981361389,-0.3477577865123749,9.713874816894531,3.448486328125,0.030517578125,-2.5634765625
4.5274999000000005,0.3321954905986786,-0.28790274262428284,10.01075553894043,2.25830078125,0.152587890625,1.46484375
4.5324999,0.34177228808403015,-0.27653029561042786,9.64683723449707,-5.767822265625,0.3662109375,0.213623046875
4.5374999,0.5333084464073181,-0.2932897210121155,9.862914085388184,4.45556640625,0.54931640625,-2.410888671875
4.5424999,0.3423708379268646,-0.2346317619085312,10.02811336517334,1.129150390625,0.030517578125,1.800537109375
4.5474999,0.42616790533065796,-0.25258827209472656,9.581595420837402,-5.43212890625,0.244140625,-0.06103515625
4.5524999,0.5740098357200623,-0.3321954905986786,9.82999324798584,5.645751953125,0.8544921875,-2.3193359375
4.5574999,0.3315969407558441,-0.27413609623908997,9.90241813659668,-0.06103515625,-0.640869140625,1.800537109375
4.562499900000001,0.4124012291431427,-0.2902969419956207,9.55825138092041,-4.8828125,-0.518798828125,-0.579833984375
4.5674999000000005,0.4991910457611084,-0.33099839091300964,9.930550575256348,5.584716796875,-0.457763671875,-2.349853515625
4.5724999,0.23702596127986908,-0.228047713637352,9.975440979003906,-1.64794921875,-1.129150390625,1.89208984375
4.5774999,0.4231751561164856,-0.2561795711517334,9.638457298278809,-4.364013671875,-0.701904296875,-0.91552734375
4.5824999,0.5063736438751221,-0.3208230137825012,9.640851974487305,-2.50244140625,-0.640869140625,-1.678466796875
4.5874999,0.40940847992897034,-0.28371289372444153,10.00716495513916,5.615234375,-0.6103515625,-0.946044921875
4.5924999,0.2585737705230713,-0.2669534981250763,9.813234329223633,-4.57763671875,-0.9765625,1.5869140625
4.5974999,0.49799394607543945,-0.3172317147254944,9.621698379516602,-1.007080078125,-0.885009765625,-2.105712890625
4.602499900000001,0.41958385705947876,-0.2759317457675934,9.964069366455078,6.011962890625,0.701904296875,-0.18310546875
4.6074999000000005,0.3274070918560028,-0.30885201692581177,9.677363395690918,-5.096435546875,-0.030517578125,1.46484375
4.6124999,0.3274070918560028,-0.30885201692581177,9.677363395690918,-5.096435546875,-0.030517578125,1.46484375
4.6174999,0.5237316489219666,-0.2998737692832947,9.578003883361816,-0.274658203125,-1.52587890625,-2.655029296875
4.6224999,0.49978959560394287,-0.25258827209472656,9.712079048156738,2.716064453125,0.8544921875,-2.716064453125
4.6274999,0.49978959560394287,-0.25258827209472656,9.712079048156738,2.716064453125,0.8544921875,-2.716064453125
4.6324999,0.38726213574409485,-0.2579752206802368,9.97065258026123,3.021240234375,-0.42724609375,1.190185546875
4.6374999,0.34177228808403015,-0.3166331648826599,9.5809965133667,-6.34765625,-1.03759765625,0.54931640625
4.6424999,0.5303156971931458,-0.24660277366638184,9.872490882873535,4.21142578125,-0.6103515625,-2.44140625
4.647499900000001,0.3315969407558441,-0.2537853717803955,10.041281700134277,0.762939453125,-0.213623046875,1.8310546875
4.6524999000000005,0.33099839091300964,-0.3256114423274994,9.910798072814941,-0.18310546875,0,1.983642578125
4.6574999,0.40222588181495667,-0.33518823981285095,9.530718803405762,-4.69970703125,0.518798828125,-0.67138671875
4.6624999,0.4842272996902466,-0.2944868206977844,9.9185791015625,6.072998046875,1.52587890625,-1.739501953125
4.6674999,0.22086510062217712,-0.28730419278144836,9.972448348999023,-1.739501953125,-0.152587890625,1.922607421875
4.6724999,0.38546648621559143,-0.2693476974964142,9.643245697021484,-4.45556640625,-1.3427734375,-1.0986328125
4.6774999,0.47824180126190186,-0.27054479718208313,10.032303810119629,5.767822265625,-0.823974609375,-1.708984375
4.6824999,0.272938996553421,-0.29209262132644653,9.926959037780762,-2.74658203125,-0.67138671875,1.953125
4.687499900000001,0.5201402902603149,-0.28131869435310364,9.62947940826416,-3.143310546875,-0.244140625,-1.46484375
4.6924999000000005,0.518943190574646,-0.32620999217033386,9.96945571899414,6.591796875,1.251220703125,-1.3427734375
4.6974999,0.32022446393966675,-0.29807811975479126,9.800664901733398,-3.11279296875,0.3662109375,1.922607421875
4.7024999,0.5410895943641663,-0.2908954918384552,9.589376449584961,-1.800537109375,1.251220703125,-1.434326171875
4.7074999,0.52552729845047,-0.26336219906806946,9.603142738342285,-1.220703125,-0.18310546875,-1.861572265625
4.7124999,0.4273650050163269,-0.26994624733924866,9.952696800231934,5.7373046875,1.007080078125,-0.18310546875
4.7174999,0.33099839091300964,-0.25079262256622314,9.717466354370117,-4.8828125,-0.274658203125,1.434326171875
4.7224999,0.5123591423034668,-0.2783259451389313,9.616311073303223,0.244140625,1.312255859375,-2.0751953125
4.727499900000001,0.383670836687088,-0.2795230448246002,9.983222961425781,5.18798828125,0.457763671875,0.3662109375
4.7324999000000005,0.2777273952960968,-0.2669534981250763,9.685144424438477,-5.462646484375,-0.30517578125,1.068115234375
4.7374999,0.43993455171585083,-0.2388216257095337,9.68933391571045,1.5869140625,1.52587890625,-2.3193359375
4.7424999,0.35075053572654724,-0.23343466222286224,10.040084838867188,4.180908203125,-0.3662109375,0.48828125
4.7474999,0.2867056429386139,-0.19452889263629913,9.691129684448242,-6.317138671875,-0.701904296875,0.701904296875
4.7524999,0.5003881454467773,-0.23942017555236816,9.695918083190918,2.3193359375,-0.30517578125,-2.471923828125
4.7574999,0.3357867896556854,-0.2783259451389313,9.597756385803223,-5.950927734375,-0.42724609375,0.335693359375
4.7624999,0.5195417404174805,-0.284311443567276,9.838972091674805,4.21142578125,0.06103515625,-2.105712890625
4.7674999,0.32022446393966675,-0.23942017555236816,10.031106948852539,1.068115234375,-0.457763671875,1.739501953125
4.772499900000001,0.39564183354377747,-0.26156654953956604,9.601945877075195,-5.79833984375,-1.129150390625,-0.3662109375
4.7774999000000005,0.5704185366630554,-0.3256114423274994,9.84256362915039,5.279541015625,0.762939453125,-1.953125
4.7824999,0.3447650372982025,-0.2711433470249176,9.905410766601562,-0.1220703125,-0.30517578125,1.922607421875
4.7874999,0.43095630407333374,-0.29807811975479126,9.526528358459473,-5.615234375,-1.129150390625,-0.732421875
4.7924999,0.5249287486076355,-0.3196259140968323,9.88625717163086,5.79833984375,0.79345703125,-1.8310546875
4.7974999,0.2513911724090576,-0.2388216257095337,9.953893661499023,-1.15966796875,0.091552734375,2.01416015625
4.8024999,0.497395396232605,-0.3190273642539978,9.624691009521484,-3.326416015625,0.274658203125,-1.434326171875
4.8074999,0.5009866952896118,-0.30945056676864624,9.962871551513672,6.04248046875,-0.3662109375,-1.03759765625
4.812499900000001,0.29149407148361206,-0.3208230137825012,9.79647445678711,-3.570556640625,-0.823974609375,2.197265625
4.8174999000000005,0.5201402902603149,-0.35075053572654724,9.584588050842285,-2.38037109375,0.152587890625,-2.166748046875
4.8224999,0.44173020124435425,-0.28790274262428284,9.961674690246582,6.40869140625,1.556396484375,-0.6103515625
4.8274999,0.28311434388160706,-0.28131869435310364,9.79527759552002,-4.150390625,0.396728515625,2.0751953125
4.8324999,0.5249287486076355,-0.2902969419956207,9.638457298278809,-1.0986328125,0.91552734375,-2.105712890625
4.8374999,0.43514615297317505,-0.2148796021938324,9.988011360168457,5.462646484375,-0.213623046875,-0.396728515625
4.8424999,0.3298012912273407,-0.2890998423099518,9.719860076904297,-5.401611328125,-0.701904296875,1.8310546875
4.8474999,0.5392939448356628,-0.2944868206977844,9.59715747833252,0.18310546875,-0.091552734375,-2.593994140625
4.852499900000001,0.4884171485900879,-0.21607670187950134,9.720458984375,2.838134765625,1.434326171875,-2.74658203125
4.8574999000000005,0.3866635859012604,-0.2651578485965729,9.981427192687988,3.387451171875,0.579833984375,0.885009765625
4.8624999,0.33698388934135437,-0.3345896899700165,9.580398559570312,-5.828857421875,0.274658203125,0.9765625
4.8674999,0.5285200476646423,-0.314238965511322,9.687539100646973,3.662109375,1.129150390625,-2.471923828125
4.8724999,0.3555389642715454,-0.3124433159828186,9.99459457397461,1.953125,-0.54931640625,1.220703125
4.8774999,0.32860419154167175,-0.2885012924671173,9.634865760803223,-6.195068359375,-1.007080078125,0.42724609375
4.8824999,0.35254621505737305,-0.3010708689689636,9.881468772888184,0.30517578125,0.244140625,1.678466796875
4.8874999,0.4315548539161682,-0.28131869435310364,9.497200012207031,-5.06591796875,0.42724609375,-0.396728515625
4.8924999,0.5297171473503113,-0.3471592366695404,9.82999324798584,5.706787109375,1.251220703125,-1.861572265625
4.897499900000001,0.25258827209472656,-0.24839842319488525,9.916783332824707,-0.762939453125,-0.1220703125,2.01416015625
4.9024999000000005,0.38307225704193115,-0.25737667083740234,9.61212158203125,-4.058837890625,0.3662109375,-1.03759765625
4.9074999,0.4668693244457245,-0.3208230137825012,10.014347076416016,5.67626953125,-0.6103515625,-1.953125
4.9124999,0.24241292476654053,-0.2579752206802368,9.9772367477417,-2.105712890625,-0.518798828125,2.166748046875
4.9174999,0.4878185987472534,-0.284311443567276,9.654019355773926,-2.960205078125,1.861572265625,-1.495361328125
4.9224999,0.5147533416748047,-0.3579331636428833,10.012551307678223,6.103515625,0.3662109375,-1.251220703125
4.9274999,0.3232172429561615,-0.30047231912612915,9.853935241699219,-2.86865234375,-0.213623046875,2.227783203125
4.9324999,0.5482721924781799,-0.3208230137825012,9.625288963317871,-2.38037109375,1.251220703125,-1.800537109375
4.937499900000001,0.2867056429386139,-0.24899697303771973,9.823410034179688,-4.425048828125,-1.15966796875,2.01416015625
4.9424999000000005,0.5105634927749634,-0.2663549482822418,9.648633003234863,-1.953125,-0.885009765625,-2.197265625
4.9474999,0.41539400815963745,-0.2663549482822418,9.989806175231934,5.4931640625,-0.8544921875,-0.457763671875
4.9524999,0.3166331648826599,-0.24420857429504395,9.766547203063965,-4.94384765625,-0.885009765625,1.861572265625
4.9574999,0.5297171473503113,-0.28790274262428284,9.625288963317871,0.30517578125,0.91552734375,-2.25830078125
4.9624999,0.47405192255973816,-0.2454056739807129,9.66299819946289,1.007080078125,-0.579833984375,-2.593994140625
4.9674999,0.35913026332855225,-0.22086510062217712,10.020332336425781,4.425048828125,-0.3662109375,0.457763671875
4.9724999,0.27473464608192444,-0.20051439106464386,9.699509620666504,-5.889892578125,-0.885009765625,1.190185546875
4.977499900000001,0.4728548228740692,-0.2346317619085312,9.699509620666504,1.800537109375,-0.54931640625,-2.74658203125
4.9824999000000005,0.3860650360584259,-0.23283611238002777,9.989208221435547,3.7841796875,0.67138671875,1.007080078125
4.9874999,0.3645172119140625,-0.2711433470249176,9.972448348999023,2.716064453125,0.091552734375,1.251220703125
4.9924999,0.3357867896556854,-0.28730419278144836,9.605537414550781,-5.523681640625,0.640869140625,0.335693359375
4.9974999,0.5219359993934631,-0.2777273952960968,9.830592155456543,4.241943359375,0.030517578125,-2.62451171875
5.0024999,0.3274070918560028,-0.22385786473751068,10.051457405090332,1.251220703125,-0.396728515625,1.495361328125
5.0074999,0.38486793637275696,-0.2735375463962555,9.616909980773926,-5.43212890625,0.1220703125,-0.1220703125
5.0124999,0.5680243372917175,-0.30705636739730835,9.82879638671875,5.37109375,1.434326171875,-2.13623046875
5.0174999,0.3531447649002075,-0.3082534670829773,9.892242431640625,0.18310546875,-0.152587890625,1.708984375
5.022499900000001,0.43933600187301636,-0.3321954905986786,9.484031677246094,-5.157470703125,-0.3662109375,-0.579833984375
5.0274999000000005,0.5422866940498352,-0.3489548861980438,9.829395294189453,5.859375,0.9765625,-1.953125
5.0324999,0.2687491476535797,-0.2753331959247589,9.909002304077148,-1.03759765625,0.091552734375,1.953125
5.0374999,0.3932476341724396,-0.2890998423099518,9.607333183288574,-4.57763671875,0.6103515625,-1.03759765625
5.0424999,0.5273229479789734,-0.3292027413845062,9.632472038269043,-2.288818359375,0.91552734375,-1.64794921875
5.0474999,0.44831427931785583,-0.26336219906806946,9.999382972717285,5.859375,0.030517578125,-1.068115234375
5.0524999,0.26994624733924866,-0.2777273952960968,9.832387924194336,-4.364013671875,-1.03759765625,1.861572265625
5.0574999,0.5051765441894531,-0.30466216802597046,9.646238327026367,-1.0986328125,0.1220703125,-2.01416015625
5.062499900000001,0.4213795065879822,-0.22385786473751068,9.989806175231934,5.7373046875,-0.274658203125,-0.48828125
5.0674999000000005,0.3208230137825012,-0.3064578175544739,9.736021041870117,-5.096435546875,-0.30517578125,1.89208984375
5.0724999,0.5404910445213318,-0.28730419278144836,9.586981773376465,0.42724609375,1.220703125,-2.50244140625
5.0774999,0.4255693554878235,-0.24600422382354736,9.961674690246582,5.126953125,0.213623046875,-0.152587890625
5.0824999,0.4734533727169037,-0.24001872539520264,9.662399291992188,0.9765625,-0.823974609375,-2.685546875
5.0874999,0.3495534360408783,-0.21966800093650818,10.058639526367188,4.180908203125,0.06103515625,0.213623046875
5.0924999,0.2693476974964142,-0.2322375625371933,9.728240013122559,-6.011962890625,-0.335693359375,1.251220703125
5.0974999,0.4668693244457245,-0.20470423996448517,9.742006301879883,2.01416015625,-0.823974609375,-2.471923828125
5.102499900000001,0.3758896589279175,-0.23942017555236816,9.992799758911133,3.448486328125,0.335693359375,0.885009765625
5.1074999000000005,0.3256114423274994,-0.27712884545326233,9.576807022094727,-5.950927734375,0.457763671875,0.946044921875
5.1124999,0.5279214978218079,-0.3106476664543152,9.627084732055664,2.86865234375,-0.274658203125,-2.777099609375
5.1174999,0.3669114112854004,-0.3064578175544739,9.926959037780762,2.532958984375,-0.06103515625,1.15966796875
5.1224999,0.3363853394985199,-0.3076549172401428,9.569623947143555,-5.79833984375,0.091552734375,0.274658203125
5.1274999,0.517746090888977,-0.3034650683403015,9.800065994262695,4.486083984375,1.068115234375,-2.593994140625
5.1324999,0.3166331648826599,-0.26336219906806946,10.041281700134277,1.52587890625,0.06103515625,1.373291015625
5.1374999,0.3728969097137451,-0.26575639843940735,9.638457298278809,-5.645751953125,-0.152587890625,-0.152587890625
5.1424999,0.5392939448356628,-0.33698388934135437,9.871294021606445,5.523681640625,0.579833984375,-1.983642578125
5.147499900000001,0.5392939448356628,-0.33698388934135437,9.871294021606445,5.523681640625,0.579833984375,-1.983642578125
5.1524999000000005,0.2795230448246002,-0.2388216257095337,9.9401273727417,-1.0986328125,-0.8544921875,1.708984375
5.1574999,0.4034229815006256,-0.24839842319488525,9.606734275817871,-4.8828125,-1.129150390625,-1.03759765625
5.1624999,0.48303020000457764,-0.31184476613998413,10.007762908935547,6.011962890625,0.54931640625,-1.800537109375
5.1674999,0.2513911724090576,-0.24899697303771973,9.971850395202637,-2.13623046875,-0.457763671875,2.01416015625
5.1724999,0.4800374507904053,-0.3064578175544739,9.655217170715332,-3.60107421875,-0.1220703125,-1.251220703125
5.1774999,0.5117605924606323,-0.33997663855552673,10.007762908935547,6.103515625,0.06103515625,-1.28173828125
5.1824999,0.3106476664543152,-0.3016694188117981,9.858125686645508,-3.387451171875,-0.579833984375,2.105712890625
5.187499900000001,0.5309142470359802,-0.31543606519699097,9.607931137084961,-2.50244140625,0.30517578125,-1.678466796875
5.1924999000000005,0.2651578485965729,-0.2783259451389313,9.818022727966309,-4.08935546875,-1.28173828125,1.739501953125
5.1974999,0.2651578485965729,-0.2783259451389313,9.818022727966309,-4.08935546875,-1.28173828125,1.739501953125
5.2024999,0.4950011968612671,-0.31783026456832886,9.651026725769043,-1.40380859375,-0.54931640625,-1.953125
5.2074999,0.4040215313434601,-0.2890998423099518,9.985616683959961,5.767822265625,0.244140625,-0.457763671875
5.2124999,0.3076549172401428,-0.28969839215278625,9.765350341796875,-4.94384765625,-0.579833984375,1.52587890625
5.2174999,0.5285200476646423,-0.31783026456832886,9.608530044555664,0.030517578125,1.64794921875,-2.25830078125
5.2224999,0.42018240690231323,-0.2819172441959381,9.965864181518555,5.43212890625,0.457763671875,0.06103515625
5.227499900000001,0.31124621629714966,-0.2890998423099518,9.673771858215332,-5.55419921875,-0.274658203125,1.495361328125
5.2324999000000005,0.46806642413139343,-0.26336219906806946,9.641449928283691,1.129150390625,1.251220703125,-2.227783203125
5.2374999,0.34177228808403015,-0.21667525172233582,10.013748168945312,4.486083984375,-0.457763671875,0.48828125
5.2424999,0.25977087020874023,-0.2172738015651703,9.6989107131958,-6.103515625,-1.03759765625,0.8544921875
5.2474999,0.4531026780605316,-0.24121582508087158,9.696516990661621,2.716064453125,0.946044921875,-2.471923828125
5.2524999,0.36990416049957275,-0.22625206410884857,9.993996620178223,3.875732421875,-0.48828125,1.0986328125
