# Time (seconds),Accel_X,Accel_Y,Accel_Z,Gyro_X,Gyro_Y,Gyro_Z
0.0024999,-0.5578489899635315,0.6266822814941406,10.307038307189941,-26.79443359375,-2.01416015625,-75.98876953125
0.0074999,-2.0027496814727783,0.6147112846374512,9.97065258026123,-30.82275390625,-12.969970703125,-42.999267578125
0.012499900000000001,-2.0027496814727783,0.6147112846374512,9.97065258026123,-30.82275390625,-12.969970703125,-42.999267578125
0.0174999,-2.4672248363494873,0.04908113554120064,10.110713958740234,-19.500732421875,-33.172607421875,32.1044921875
0.0224999,-1.7310078144073486,-0.7637503147125244,9.72285270690918,-15.5029296875,-37.689208984375,61.95068359375
0.0274999,-0.5039794445037842,-1.9003976583480835,9.145252227783203,-7.26318359375,-25.57373046875,55.572509765625
0.0324999,0.6829460263252258,-2.62823486328125,8.948927879333496,32.135009765625,-21.728515625,82.855224609375
0.0374999,1.004966139793396,-2.8371291160583496,8.836400032043457,46.44775390625,-4.730224609375,82.977294921875
0.0424999,1.194706678390503,-1.8052281141281128,9.083003044128418,19.683837890625,12.20703125,41.229248046875
0.0474999,1.5580267906188965,-0.4902127981185913,9.700706481933594,0.823974609375,4.69970703125,-18.341064453125
0.0524999,2.078765630722046,0.43275195360183716,10.18493366241455,-0.396728515625,25.543212890625,-50.10986328125
0.0574999,2.646191358566284,0.8732850551605225,10.28249740600586,9.21630859375,43.731689453125,-40.46630859375
0.0624999,2.4899697303771973,0.2998737692832947,10.247182846069336,9.368896484375,38.848876953125,-54.99267578125
0.0674999,1.3335703611373901,0.6087257862091064,10.294468879699707,-9.27734375,13.946533203125,-74.432373046875
0.0724999,-0.4291606545448303,0.38546648621559143,10.304644584655762,-28.472900390625,-1.953125,-75.286865234375
0.0774999,-2.0236990451812744,0.7374141216278076,9.935338973999023,-32.440185546875,-12.39013671875,-45.928955078125
0.0824999,-2.5923218727111816,0.3513490855693817,9.963470458984375,-20.782470703125,-32.806396484375,26.153564453125
0.0874999,0.5566518902778625,-2.475006103515625,8.88907241821289,29.571533203125,-22.5830078125,81.97021484375
0.0924999,0.5566518902778625,-2.475006103515625,8.88907241821289,29.571533203125,-22.5830078125,81.97021484375
0.0974999,1.0169371366500854,-2.824559450149536,8.827422142028809,48.065185546875,-6.4697265625,88.897705078125
0.1024999,1.2874820232391357,-1.9434932470321655,9.065644264221191,22.247314453125,13.12255859375,49.468994140625
0.1074999,1.647210717201233,-0.6290764808654785,9.707889556884766,1.953125,4.913330078125,-11.962890625
0.1124999,2.1721394062042236,0.3058592677116394,10.212467193603516,-0.9765625,22.8271484375,-50.47607421875
0.1174999,2.800018787384033,0.800261914730072,10.32978343963623,9.307861328125,45.5322265625,-41.68701171875
0.1224999,2.695871114730835,0.26815059781074524,10.314221382141113,10.92529296875,41.56494140625,-52.520751953125
0.1274999,1.6585832834243774,0.5045779943466187,10.338761329650879,-6.2255859375,16.693115234375,-74.554443359375
0.1324999,-0.1867477297782898,0.2561795711517334,10.301053047180176,-27.923583984375,-1.739501953125,-78.55224609375
0.1374999,-1.9261353015899658,0.5518634915351868,9.947309494018555,-32.196044921875,-10.894775390625,-54.473876953125
0.1424999,-2.690484046936035,0.1999158412218094,9.84256362915039,-21.331787109375,-29.23583984375,17.425537109375
0.1474999,0.8906430602073669,-2.718017578125,8.883087158203125,45.562744140625,-8.941650390625,86.273193359375
0.1524999,1.280897855758667,-1.9057846069335938,9.057265281677246,23.223876953125,11.3525390625,51.422119140625
0.1574999,1.670554280281067,-0.5931634902954102,9.6618013381958,2.74658203125,5.096435546875,-6.072998046875
0.1624999,2.182314872741699,0.30945056676864624,10.133459091186523,-2.044677734375,19.34814453125,-48.15673828125
0.1674999,2.8107926845550537,0.7918822169303894,10.29865837097168,8.209228515625,43.975830078125,-42.41943359375
0.1724999,2.7036523818969727,0.3489548861980438,10.31362247467041,11.23046875,41.748046875,-48.553466796875
0.17749990000000002,1.809417963027954,0.5752069354057312,10.333374977111816,-4.150390625,19.775390625,-72.479248046875
0.1824999,-0.020949264988303185,0.3585317134857178,10.3363676071167,-27.740478515625,-0.701904296875,-79.04052734375
0.1874999,-1.7609353065490723,0.646434485912323,10.037092208862305,-33.355712890625,-9.6435546875,-61.126708984375
0.1924999,-2.609679937362671,0.262763649225235,9.804255485534668,-24.688720703125,-26.3671875,7.75146484375
0.1974999,-1.2425906658172607,-1.5999252796173096,9.053074836730957,-12.908935546875,-30.487060546875,54.38232421875
0.2024999,0.2124854028224945,-2.5073277950286865,8.82323169708252,19.53125,-22.003173828125,71.96044921875
0.20749990000000001,0.9187749028205872,-2.868253707885742,8.861538887023926,49.591064453125,-12.176513671875,90.301513671875
0.2124999,1.3108254671096802,-2.208651065826416,8.918401718139648,28.86962890625,11.1083984375,58.624267578125
0.2174999,1.61069917678833,-0.8212111592292786,9.600150108337402,4.8828125,7.049560546875,1.373291015625
0.2224999,2.049436569213867,0.1825578808784485,10.125079154968262,-2.3193359375,15.777587890625,-46.661376953125
0.2274999,2.6342203617095947,0.7954735159873962,10.330381393432617,6.77490234375,42.510986328125,-44.464111328125
0.2324999,2.6833014488220215,0.5578489899635315,10.356718063354492,12.237548828125,43.3349609375,-45.8984375
0.2374999,1.944091796875,0.6847416758537292,10.367491722106934,-0.06103515625,24.017333984375,-72.1435546875
0.2424999,-2.5480291843414307,0.2148796021938324,9.795876502990723,-25.909423828125,-22.4609375,-5.645751953125
0.2474999,0.7906851172447205,-2.761113166809082,8.901042938232422,46.5087890625,-14.95361328125,87.554931640625
0.2524999,1.2994530200958252,-2.343923568725586,8.892065048217773,32.470703125,8.48388671875,63.018798828125
0.2574999,1.6160861253738403,-1.0055646896362305,9.516951560974121,7.38525390625,8.758544921875,9.490966796875
0.2624999,2.0416555404663086,0.01735796220600605,10.043676376342773,-2.38037109375,12.176513671875,-42.694091796875
0.2674999,2.6611552238464355,0.6518214344978333,10.3734769821167,5.340576171875,39.85595703125,-45.257568359375
0.2724999,2.7311856746673584,0.6254851818084717,10.342951774597168,12.786865234375,43.8232421875,-41.80908203125
0.2774999,2.1493945121765137,0.6829460263252258,10.427347183227539,3.570556640625,27.64892578125,-69.27490234375
0.2824999,0.4794389009475708,0.5183446407318115,10.362105369567871,-24.4140625,1.5869140625,-81.72607421875
0.28749990000000003,-1.3628993034362793,0.7703344225883484,10.237606048583984,-31.55517578125,-6.805419921875,-74.005126953125
0.2924999,-2.5294740200042725,0.3711012601852417,9.805453300476074,-28.228759765625,-20.111083984375,-18.1884765625
0.2974999,-1.8022353649139404,-1.193509578704834,9.209895133972168,-14.129638671875,-36.2548828125,58.013916015625
0.3024999,-0.2950853705406189,-2.1595699787139893,8.865130424499512,6.744384765625,-22.796630859375,59.783935546875
0.3074999,0.6751648783683777,-2.7335798740386963,8.951920509338379,43.975830078125,-17.974853515625,88.92822265625
0.3124999,1.224035620689392,-2.5504233837127686,8.886079788208008,35.980224609375,6.744384765625,74.127197265625
0.3174999,1.5514427423477173,-1.313219666481018,9.428366661071777,10.68115234375,11.53564453125,24.658203125
0.3224999,2.9245173931121826,0.5949591398239136,10.262146949768066,13.24462890625,47.4853515625,-40.557861328125
0.3274999,2.4857800006866455,0.3902548849582672,10.010157585144043,8.85009765625,34.0576171875,-65.185546875
0.3324999,0.9894038438796997,0.49380409717559814,10.062829971313477,-19.805908203125,3.143310546875,-82.794189453125
0.3374999,-0.8834604024887085,0.5404910445213318,9.905410766601562,-30.120849609375,-4.364013671875,-77.57568359375
0.3424999,-2.3523032665252686,0.41958385705947876,9.644442558288574,-29.9072265625,-16.05224609375,-34.7900390625
0.34749990000000003,-2.2607250213623047,-1.0749965906143188,9.519346237182617,-12.298583984375,-39.36767578125,60.24169921875
0.35249990000000003,-0.8158242106437683,-2.007538080215454,9.1446533203125,-1.617431640625,-24.383544921875,50.96435546875
0.3574999,0.3585317134857178,-2.633023262023926,9.18355941772461,35.430908203125,-18.829345703125,78.460693359375
0.3624999,1.0851719379425049,-2.5761611461639404,9.074623107910156,37.78076171875,1.495361328125,73.6083984375
0.3674999,1.5538369417190552,-1.469441294670105,9.43494987487793,13.7939453125,12.298583984375,32.470703125
0.3724999,2.0667946338653564,-0.284311443567276,9.88745403289795,0,6.34765625,-24.0478515625
0.3774999,2.5779566764831543,0.43335050344467163,10.23880386352539,2.8076171875,31.73828125,-46.142578125
0.3824999,3.00711727142334,0.6985083222389221,10.232817649841309,12.847900390625,46.966552734375,-37.59765625
0.3874999,2.6653449535369873,-0.055665191262960434,10.148422241210938,11.810302734375,39.581298828125,-58.59375
0.3924999,1.4742296934127808,0.3866635859012604,10.182539939880371,-10.162353515625,9.429931640625,-81.23779296875
0.3974999,-0.3711012601852417,0.03890577703714371,10.089165687561035,-31.097412109375,-5.584716796875,-78.91845703125
0.4024999,-2.057217836380005,0.3645172119140625,9.716867446899414,-31.097412109375,-11.505126953125,-49.102783203125
0.4074999,-2.6874914169311523,-0.6919242739677429,9.383475303649902,-10.3759765625,-43.304443359375,59.783935546875
0.41249990000000003,-1.521515130996704,-1.6944962739944458,8.918999671936035,-8.6669921875,-29.60205078125,45.562744140625
0.41749990000000003,-0.10714052617549896,-2.294243812561035,9.057863235473633,24.35302734375,-21.331787109375,67.626953125
0.4224999,0.702099621295929,-2.535459518432617,9.079411506652832,38.9404296875,-6.622314453125,79.345703125
0.4274999,1.3210008144378662,-1.7387889623641968,9.345168113708496,19.04296875,11.444091796875,49.407958984375
0.4324999,1.9015947580337524,-0.5045779943466187,9.82640266418457,2.838134765625,4.608154296875,-2.471923828125
0.4374999,2.5312697887420654,0.23822307586669922,10.174758911132812,-0.457763671875,19.378662109375,-42.755126953125
0.4424999,3.135805606842041,0.6703764796257019,10.259753227233887,10.009765625,44.403076171875,-37.750244140625
0.4474999,2.9921536445617676,0.10833762586116791,10.214861869812012,13.24462890625,43.76220703125,-45.166015625
0.4524999,2.1086931228637695,0.44532153010368347,10.14782428741455,2.899169921875,21.881103515625,-69.64111328125
0.4574999,0.19033902883529663,0.05686229094862938,10.1568021774292,-28.350830078125,-5.4931640625,-74.066162109375
0.4624999,-1.6268600225448608,0.3968389332294464,9.838373184204102,-30.09033203125,-7.01904296875,-56.671142578125
0.4674999,-2.9741971492767334,-0.6380547285079956,9.531316757202148,-9.765625,-41.9921875,53.7109375
0.47249990000000003,-2.0219032764434814,-1.3940238952636719,8.96269416809082,-11.71875,-33.843994140625,46.417236328125
0.47749990000000003,-0.5692214369773865,-2.126051187515259,9.047089576721191,12.14599609375,-22.8271484375,55.6640625
0.4824999,3.22678542137146,0.3034650683403015,10.175955772399902,13.458251953125,45.59326171875,-36.529541015625
0.4874999,2.6348190307617188,-0.14604631066322327,10.065223693847656,8.514404296875,32.470703125,-58.28857421875
0.4924999,0.8816647529602051,0.20111294090747833,10.018536567687988,-18.00537109375,1.129150390625,-70.709228515625
0.4974999,-3.022081136703491,-0.2041056901216507,9.621099472045898,-12.420654296875,-38.238525390625,41.748046875
0.5024999,-2.3708581924438477,-0.983418345451355,9.14225959777832,-11.260986328125,-37.078857421875,50.323486328125
0.5074999,-1.0247182846069336,-1.7764976024627686,9.011775016784668,0.1220703125,-24.84130859375,45.41015625
0.5124999,0.13108254969120026,-2.298433542251587,9.174580574035645,31.8603515625,-20.294189453125,77.178955078125
0.5174999,0.8684966564178467,-2.257133722305298,9.180566787719727,30.029296875,0.3662109375,74.5849609375
0.5224999,1.4191631078720093,-1.27191960811615,9.584588050842285,11.810302734375,9.857177734375,40.557861328125
0.5274999,2.0901381969451904,-0.2801215946674347,9.916184425354004,-0.30517578125,3.387451171875,-13.397216796875
0.5324999,2.782062292098999,0.30945056676864624,10.143633842468262,1.861572265625,27.801513671875,-44.12841796875
0.5374999,3.2387564182281494,0.5021837949752808,10.117298126220703,12.054443359375,45.5322265625,-35.0341796875
0.5424999,2.84790301322937,-0.13048399984836578,10.065223693847656,10.19287109375,38.57421875,-48.126220703125
0.5474999,-2.0608091354370117,0.3824737071990967,9.668384552001953,-31.005859375,-10.92529296875,-39.154052734375
0.5524999,-2.0608091354370117,0.3824737071990967,9.668384552001953,-31.005859375,-10.92529296875,-39.154052734375
0.5574999,-2.8592753410339355,-0.0736217051744461,9.617507934570312,-19.8974609375,-31.3720703125,22.613525390625
0.5624999,-2.5959131717681885,-0.7906851172447205,9.362525939941406,-11.566162109375,-40.0390625,53.680419921875
0.5674999000000001,-1.3742717504501343,-1.7489643096923828,8.96149730682373,-8.880615234375,-28.961181640625,44.952392578125
0.5724999000000001,-0.018555063754320145,-2.342127799987793,9.033323287963867,23.86474609375,-22.735595703125,70.465087890625
0.5774999000000001,0.7487865686416626,-2.5288755893707275,9.049484252929688,38.87939453125,-8.514404296875,84.442138671875
0.5824999,1.2976573705673218,-1.7531541585922241,9.304466247558594,19.47021484375,11.444091796875,55.35888671875
0.5874999,1.8058266639709473,-0.52552729845047,9.801861763000488,3.23486328125,4.730224609375,3.631591796875
0.5924999,2.434903144836426,0.17836803197860718,10.127472877502441,-1.251220703125,16.998291015625,-42.327880859375
0.5974999,3.0406360626220703,0.5704185366630554,10.224438667297363,9.063720703125,43.45703125,-39.9169921875
0.6024999,2.935291290283203,0.22206220030784607,10.16877269744873,12.6953125,42.236328125,-39.6728515625
0.6074999,-1.6316484212875366,0.6548141837120056,10.034099578857422,-30.059814453125,-7.598876953125,-56.09130859375
0.6124999,-1.6316484212875366,0.6548141837120056,10.034099578857422,-30.059814453125,-7.598876953125,-56.09130859375
0.6174999,-2.6605565547943115,0.1843535304069519,9.77253246307373,-23.98681640625,-23.895263671875,1.708984375
0.6224999,-2.7467479705810547,-0.5339069962501526,9.703699111938477,-12.51220703125,-40.374755859375,53.16162109375
0.6274999,-1.7435773611068726,-1.368884801864624,9.109338760375977,-12.3291015625,-32.5927734375,48.64501953125
0.6324999,-0.32441434264183044,-2.2463598251342773,9.017760276794434,13.427734375,-22.88818359375,60.05859375
0.6374999,0.5339069962501526,-2.543240785598755,9.026140213012695,40.618896484375,-15.31982421875,85.418701171875
0.6424999,1.159990668296814,-2.1697452068328857,9.108141899108887,26.519775390625,8.270263671875,65.4296875
0.6474999,1.6292542219161987,-0.9445125460624695,9.646238327026367,6.927490234375,7.843017578125,19.012451171875
0.6524999,2.2391772270202637,-0.06524199992418289,10.013150215148926,-2.0751953125,9.21630859375,-35.003662109375
0.6574999,2.873640537261963,0.3998316824436188,10.260351181030273,5.523681640625,38.75732421875,-43.853759765625
0.6624999,3.001131772994995,0.3944447338581085,10.15021800994873,13.336181640625,43.76220703125,-36.0107421875
0.6674999,0.35494041442871094,-2.586336374282837,9.208099365234375,37.506103515625,-19.683837890625,84.259033203125
0.6724999,1.0869675874710083,-2.4414870738983154,9.083003044128418,32.8369140625,3.509521484375,74.5849609375
0.6774999,1.592742681503296,-1.2976573705673218,9.48882007598877,11.383056640625,10.894775390625,31.982421875
0.6824999,2.163161277770996,-0.2256535142660141,9.874286651611328,-1.373291015625,5.4931640625,-25.421142578125
0.6874999,2.6874914169311523,0.35254621505737305,10.168174743652344,2.62451171875,32.8369140625,-46.5087890625
0.6924999000000001,3.046621561050415,0.5722141861915588,10.142436981201172,12.5732421875,44.952392578125,-35.858154296875
0.6974999000000001,1.127070426940918,0.46088382601737976,10.169970512390137,-14.34326171875,7.476806640625,-73.944091796875
0.7024999000000001,-0.7350199222564697,0.37229835987091064,10.229825019836426,-29.083251953125,-4.33349609375,-70.281982421875
0.7074999,-2.2194249629974365,0.568622887134552,9.819219589233398,-30.120849609375,-14.16015625,-33.38623046875
0.7124999,-2.758718967437744,0.14844051003456116,9.923367500305176,-17.303466796875,-35.2783203125,36.102294921875
0.7174999,-2.0691888332366943,-0.6703764796257019,9.476250648498535,-14.068603515625,-38.665771484375,56.15234375
0.7224999,0.45429977774620056,-2.4384944438934326,9.031527519226074,33.203125,-21.54541015625,80.13916015625
0.7274999,0.9828197956085205,-2.61087703704834,8.956110000610352,39.55078125,-1.983642578125,81.11572265625
0.7324999,1.3425486087799072,-1.63344407081604,9.318233489990234,15.960693359375,12.6953125,42.266845703125
0.7374999,1.8183962106704712,-0.4225766062736511,9.837176322937012,0.518798828125,4.82177734375,-15.5029296875
0.7424999,2.385822057723999,0.3381809890270233,10.199298858642578,0.579833984375,26.458740234375,-47.576904296875
0.7474999,2.9215245246887207,0.690727174282074,10.251971244812012,11.199951171875,45.074462890625,-37.65869140625
0.7524999,-0.3770867586135864,0.35254621505737305,10.228628158569336,-28.106689453125,-3.7841796875,-75.0732421875
0.7574999,-2.033275842666626,0.7284358739852905,9.840168952941895,-30.426025390625,-11.322021484375,-47.30224609375
0.7624999,-2.762908697128296,0.3585317134857178,9.776124000549316,-19.1650390625,-30.548095703125,23.4375
0.7674999,-2.455253839492798,-0.4034229815006256,9.5007905960083,-13.275146484375,-41.168212890625,58.16650390625
0.7724999,-1.2270283699035645,-1.547252893447876,8.989628791809082,-9.6435546875,-28.25927734375,47.271728515625
0.7774999,0.1364694982767105,-2.3032219409942627,8.988431930541992,25.421142578125,-22.0947265625,72.93701171875
0.7824999,0.8565256595611572,-2.6378116607666016,8.971672058105469,41.68701171875,-7.476806640625,84.869384765625
0.7874999,1.3449428081512451,-1.8626888990402222,9.204508781433105,20.294189453125,12.3291015625,52.093505859375
0.7924999,1.8201918601989746,-0.5907692909240723,9.77253246307373,2.685546875,5.43212890625,-3.173828125
0.7974999,2.3720552921295166,0.20889410376548767,10.15021800994873,-1.251220703125,19.378662109375,-45.47119140625
0.8024999,2.917933225631714,0.6524199843406677,10.284293174743652,8.941650390625,43.426513671875,-39.886474609375
0.8074999,-0.02753331884741783,0.26755204796791077,10.254964828491211,-26.91650390625,-2.471923828125,-75.103759765625
0.8124999,-1.7489643096923828,0.5871779918670654,9.95329475402832,-30.57861328125,-9.124755859375,-55.60302734375
0.8174999000000001,-2.6437971591949463,0.13587094843387604,9.721057891845703,-22.0947265625,-25.81787109375,9.185791015625
0.8224999000000001,-2.580949544906616,-0.6123170852661133,9.603142738342285,-12.237548828125,-41.32080078125,57.159423828125
0.8274999000000001,-1.5083470344543457,-1.5526398420333862,9.062651634216309,-11.505126953125,-30.670166015625,48.675537109375
0.8324999000000001,-0.08080431073904037,-2.338536500930786,8.999804496765137,18.61572265625,-22.03369140625,66.10107421875
0.8374999,0.690727174282074,-2.625840663909912,9.031527519226074,42.48046875,-11.749267578125,86.42578125
0.8424999,1.2641384601593018,-2.0183119773864746,9.141061782836914,24.23095703125,11.138916015625,59.722900390625
0.8474999,1.7220295667648315,-0.7284358739852905,9.695320129394531,4.82177734375,7.232666015625,8.514404296875
0.8524999,2.2864625453948975,0.12090718746185303,10.08198356628418,-2.0751953125,13.73291015625,-41.44287109375
0.8574999,2.912546396255493,0.6500257849693298,10.267534255981445,7.110595703125,41.656494140625,-42.29736328125
0.8624999,2.894589900970459,0.39624038338661194,10.22144603729248,12.908935546875,43.0908203125,-41.839599609375
0.8674999,2.161964178085327,0.5524620413780212,10.216657638549805,3.265380859375,25.054931640625,-68.54248046875
0.8724999,0.35075053572654724,0.3705027103424072,10.198700904846191,-25.32958984375,-2.13623046875,-75.958251953125
0.8774999,-1.4724340438842773,0.6147112846374512,10.010157585144043,-30.76171875,-6.77490234375,-61.798095703125
0.8824999,-0.32381579279899597,-2.229001760482788,8.936357498168945,10.55908203125,-22.4609375,59.4482421875
0.8874999,0.6212953329086304,-2.5953147411346436,8.988431930541992,41.748046875,-16.204833984375,87.738037109375
0.8924999,1.2198457717895508,-2.295440912246704,9.03511905670166,29.144287109375,8.209228515625,68.511962890625
0.8974999,1.6298527717590332,-1.0672154426574707,9.600150108337402,7.843017578125,9.3994140625,19.927978515625
0.9024999,2.1727380752563477,-0.10893617570400238,10.011354446411133,-2.0751953125,8.941650390625,-35.491943359375
0.9074999,-1.125873327255249,0.6338648796081543,9.953893661499023,-30.21240234375,-5.462646484375,-69.3359375
0.9124999,-2.4378957748413086,0.3968389332294464,9.638457298278809,-28.25927734375,-17.27294921875,-21.514892578125
0.9174999,-2.806602954864502,-0.21009120345115662,9.848548889160156,-13.916015625,-38.848876953125,46.844482421875
0.9224999,-2.1380221843719482,-1.2054805755615234,9.425971984863281,-13.12255859375,-36.651611328125,54.962158203125
0.9274999,-0.6314706802368164,-2.0823569297790527,9.08719253540039,2.655029296875,-23.13232421875,52.91748046875
0.9324999,0.38965633511543274,-2.670133352279663,9.188347816467285,38.665771484375,-19.073486328125,84.47265625
0.9374999,1.1192892789840698,-2.497152328491211,9.063250541687012,34.332275390625,4.302978515625,74.310302734375
0.9424999000000001,1.5957354307174683,-1.30543851852417,9.496002197265625,11.1083984375,11.810302734375,30.029296875
0.9474999000000001,2.1278467178344727,-0.19393034279346466,9.914987564086914,-1.251220703125,6.2255859375,-27.374267578125
0.9524999000000001,1.1001356840133667,0.31842881441116333,10.11430549621582,-15.07568359375,4.8828125,-78.30810546875
0.9574999000000001,-0.730231523513794,0.08978256583213806,10.112509727478027,-29.9072265625,-4.730224609375,-73.028564453125
0.9624999,-2.2637176513671875,0.345363587141037,9.64923095703125,-29.998779296875,-13.885498046875,-34.85107421875
0.9674999,-2.83174204826355,0.01496376097202301,9.773131370544434,-16.326904296875,-35.430908203125,35.797119140625
0.9724999,-2.166153907775879,-0.7122750282287598,9.351153373718262,-12.63427734375,-39.48974609375,56.94580078125
0.9774999,-0.889445960521698,-1.7286136150360107,8.977059364318848,-4.425048828125,-25.360107421875,48.4619140625
0.9824999,0.43514615297317505,-2.366069793701172,9.05247688293457,32.379150390625,-21.026611328125,79.681396484375
0.9874999,1.016338586807251,-2.5312697887420654,9.03631591796875,38.39111328125,-1.007080078125,81.23779296875
0.9924999,1.4024035930633545,-1.5783774852752686,9.381080627441406,15.31982421875,12.908935546875,41.68701171875
0.9974999,1.8854337930679321,-0.40521863102912903,9.871294021606445,0.30517578125,4.669189453125,-15.960693359375
1.0024999,-2.492962598800659,-0.7320271730422974,9.428964614868164,-11.3525390625,-41.290283203125,58.624267578125
1.0074999000000002,-1.2814964056015015,-1.7525556087493896,8.929773330688477,-9.185791015625,-28.4423828125,47.637939453125
1.0124999000000001,0.0933738648891449,-2.3774423599243164,8.987235069274902,23.98681640625,-21.636962890625,71.47216796875
1.0174999000000002,0.8415619134902954,-2.5983073711395264,9.030330657958984,41.259765625,-7.049560546875,85.26611328125
1.0224999000000001,1.3539210557937622,-1.7866730690002441,9.245808601379395,20.233154296875,12.39013671875,52.520751953125
1.0274999,1.8171991109848022,-0.5069721937179565,9.815030097961426,2.838134765625,5.523681640625,-2.166748046875
1.0324999000000001,2.9005753993988037,0.6727706789970398,10.284293174743652,9.368896484375,43.64013671875,-39.6728515625
1.0374999,2.7712883949279785,0.23403321206569672,10.232219696044922,12.6953125,42.41943359375,-46.0205078125
1.0424999000000001,1.8860323429107666,0.49978959560394287,10.165182113647461,0.06103515625,19.95849609375,-73.3642578125
1.0474999,0.08140286058187485,0.21308395266532898,10.16877269744873,-28.50341796875,-4.669189453125,-78.521728515625
1.0524999000000002,-1.66696298122406,0.5063736438751221,9.854534149169922,-31.097412109375,-7.293701171875,-60.211181640625
1.0574999,-2.675520420074463,0.020350715145468712,9.55825138092041,-24.627685546875,-23.956298828125,0.8544921875
1.0624999000000002,-2.722805976867676,-0.6727706789970398,9.560047149658203,-11.566162109375,-41.93115234375,55.60302734375
1.0674999,-1.6837223768234253,-1.5424644947052002,8.977059364318848,-12.481689453125,-32.65380859375,50.23193359375
1.0724999000000002,-0.16220717132091522,-2.3349452018737793,8.930971145629883,13.61083984375,-21.942138671875,62.896728515625
1.0774999,-0.16220717132091522,-2.3349452018737793,8.930971145629883,13.61083984375,-21.942138671875,62.896728515625
1.0824999000000002,0.7158663272857666,-2.629431962966919,9.011177062988281,42.66357421875,-13.275146484375,88.165283203125
1.0874999,1.3395558595657349,-2.16495680809021,9.0859956741333,27.28271484375,10.467529296875,64.75830078125
1.0924999000000002,2.24935245513916,0.0077811554074287415,10.071807861328125,-1.861572265625,11.65771484375,-38.604736328125
1.0974999,2.8622682094573975,0.536899745464325,10.310629844665527,6.7138671875,40.34423828125,-43.548583984375
1.1024999000000002,2.898181200027466,0.44412440061569214,10.22503662109375,13.885498046875,44.49462890625,-39.764404296875
1.1074999,2.2906525135040283,0.42616790533065796,10.046070098876953,5.55419921875,28.38134765625,-67.93212890625
1.1124999000000002,0.5770025849342346,0.4321534037590027,10.04068374633789,-23.3154296875,-1.46484375,-80.6884765625
1.1174999,-1.2677297592163086,0.5363011956214905,9.881468772888184,-30.70068359375,-5.37109375,-70.3125
1.1224999000000002,-2.56000018119812,0.2256535142660141,9.551069259643555,-28.350830078125,-18.096923828125,-20.81298828125
1.1274999,-2.8784289360046387,-0.38905778527259827,9.749189376831055,-13.18359375,-39.306640625,47.271728515625
1.1324999000000002,-2.1314380168914795,-1.3281834125518799,9.334992408752441,-12.451171875,-36.712646484375,55.11474609375
1.1374999000000001,-0.595557689666748,-2.164358377456665,9.044096946716309,3.2958984375,-22.88818359375,53.375244140625
1.1424999000000002,0.45190557837486267,-2.6827030181884766,9.172784805297852,38.9404296875,-18.6767578125,84.442138671875
1.1474999000000001,1.1689690351486206,-2.4863784313201904,9.079411506652832,34.3017578125,5.157470703125,73.79150390625
1.1524999000000002,2.1068975925445557,-0.17537526786327362,9.928754806518555,-1.220703125,5.859375,-26.885986328125
1.1574999000000001,2.586935043334961,0.44173020124435425,10.227431297302246,3.143310546875,33.233642578125,-45.83740234375
1.1624999,2.9448680877685547,0.6260837316513062,10.199298858642578,12.87841796875,45.2880859375,-37.17041015625
1.1674999000000001,2.4690206050872803,-0.08319851011037827,10.087968826293945,9.307861328125,35.247802734375,-59.26513671875
1.1724999,1.12467622756958,0.3968389332294464,10.163386344909668,-14.312744140625,4.94384765625,-78.521728515625
1.1774999000000002,-0.6979097723960876,0.17298106849193573,10.117298126220703,-30.517578125,-4.638671875,-73.333740234375
1.1824999,-2.23199462890625,0.4770447015762329,9.749788284301758,-30.94482421875,-13.336181640625,-38.02490234375
1.1874999000000002,-2.8119897842407227,0.09876082092523575,9.82879638671875,-17.02880859375,-34.759521484375,31.55517578125
1.1924999,-2.182913303375244,-0.6206967830657959,9.422380447387695,-11.962890625,-40.191650390625,57.708740234375
1.1974999000000002,-0.9397241473197937,-1.7220295667648315,8.982446670532227,-5.4931640625,-26.092529296875,49.072265625
1.2024999,2.3576900959014893,0.3381809890270233,10.201693534851074,0,23.4375,-45.95947265625
1.2074999000000002,2.3576900959014893,0.3381809890270233,10.201693534851074,0,23.4375,-45.95947265625
1.2124999,2.9448680877685547,0.7098808288574219,10.256759643554688,10.8642578125,45.34912109375,-38.665771484375
1.2174999000000002,2.7018566131591797,0.14065934717655182,10.210671424865723,11.65771484375,40.802001953125,-49.102783203125
1.2224999,1.7142484188079834,0.5183446407318115,10.185532569885254,-3.72314453125,15.56396484375,-74.066162109375
1.2274999000000002,-0.19153612852096558,0.14903905987739563,10.159195899963379,-29.4189453125,-4.913330078125,-76.080322265625
1.2324999,-1.8782511949539185,0.456095427274704,9.79647445678711,-31.341552734375,-8.941650390625,-54.443359375
1.2374999000000002,-2.7317841053009033,-0.08200141042470932,9.59177017211914,-21.728515625,-27.03857421875,10.009765625
1.2424999,-2.5935189723968506,-0.8020575642585754,9.459490776062012,-10.650634765625,-41.56494140625,57.4951171875
1.2474999000000002,-1.4401123523712158,-1.7304092645645142,8.9680814743042,-10.31494140625,-30.45654296875,49.072265625
1.2524999,-0.014365210197865963,-2.4169466495513916,8.993818283081055,19.561767578125,-22.3388671875,67.138671875
1.2574999000000002,0.7625532150268555,-2.6144683361053467,9.041702270507812,41.473388671875,-11.29150390625,86.395263671875
1.2624999000000001,2.300827741622925,0.16759411990642548,10.124480247497559,-1.922607421875,13.73291015625,-40.1611328125
1.2674999000000002,2.9478609561920166,0.6470330357551575,10.287884712219238,7.843017578125,42.1142578125,-42.266845703125
1.2724999000000001,2.9305028915405273,0.3597288131713867,10.204087257385254,13.458251953125,44.00634765625,-41.046142578125
1.2774999000000002,2.2236149311065674,0.47584760189056396,10.004171371459961,4.39453125,25.421142578125,-67.901611328125
1.2824999000000001,-1.4449007511138916,0.5440823435783386,9.807847023010254,-30.70068359375,-5.4931640625,-64.483642578125
1.2874999,-2.648585557937622,0.1628057211637497,9.513958930969238,-26.458740234375,-20.355224609375,-12.176513671875
1.2924999000000001,-2.873042106628418,-0.47405192255973816,9.6989107131958,-11.322021484375,-40.435791015625,49.9267578125
1.2974999,-1.965639591217041,-1.3628993034362793,9.25299072265625,-11.932373046875,-35.125732421875,52.18505859375
1.3024999000000002,-0.4866214990615845,-2.1715409755706787,9.096170425415039,7.080078125,-22.94921875,55.419921875
1.3074999,3.0759506225585938,0.5051765441894531,10.129268646240234,13.275146484375,46.08154296875,-36.651611328125
1.3124999000000002,2.538452386856079,-0.20769700407981873,10.022727012634277,8.819580078125,34.637451171875,-57.342529296875
1.3174999,1.0779893398284912,0.36990416049957275,10.092757225036621,-15.045166015625,4.21142578125,-74.920654296875
1.3224999000000002,-0.7912836670875549,0.1693897694349289,10.056844711303711,-30.029296875,-4.150390625,-69.366455078125
1.3274999,-2.2846670150756836,0.4878185987472534,9.679159164428711,-29.876708984375,-13.641357421875,-33.294677734375
1.3324999000000002,-2.8155810832977295,0.13347674906253815,9.809642791748047,-15.533447265625,-35.064697265625,34.515380859375
1.3374999,-2.1104888916015625,-0.6141127347946167,9.382277488708496,-11.3525390625,-38.726806640625,56.33544921875
1.3424999000000002,-0.8864531517028809,-1.680729627609253,9.011775016784668,-4.119873046875,-25.482177734375,48.065185546875
1.3474999,0.9169792532920837,-2.478597402572632,9.063250541687012,37.109375,-1.8310546875,81.35986328125
1.3524999000000002,1.2958617210388184,-1.5544354915618896,9.399636268615723,14.95361328125,12.603759765625,44.98291015625
1.3574999,1.801636815071106,-0.38905778527259827,9.858723640441895,0.274658203125,3.387451171875,-11.016845703125
1.3624999000000002,3.0154969692230225,0.6057330369949341,10.178350448608398,11.688232421875,45.83740234375,-37.445068359375
1.3674999,2.73537540435791,0.016160860657691956,10.138845443725586,11.71875,40.6494140625,-49.49951171875
1.3724999000000002,1.7058687210083008,0.45190557837486267,10.143035888671875,-3.997802734375,14.892578125,-74.951171875
1.3774999,-0.21009120345115662,0.08858546614646912,10.140042304992676,-29.1748046875,-5.2490234375,-75.897216796875
1.3824999000000002,-1.878849744796753,0.40880993008613586,9.77013874053955,-29.78515625,-8.7890625,-52.18505859375
1.3874999000000001,-2.737769603729248,-0.11013327538967133,9.587580680847168,-19.53125,-27.008056640625,12.8173828125
1.3924999000000002,-2.626439332962036,-0.7948749661445618,9.44752025604248,-9.6435546875,-40.52734375,57.159423828125
1.3974999000000001,-1.5173252820968628,-1.6759412288665771,8.975862503051758,-9.735107421875,-30.029296875,46.5087890625
1.4024999000000002,1.7447744607925415,-0.5554547905921936,9.78989028930664,3.814697265625,5.18798828125,9.490966796875
1.4074999000000001,2.383427858352661,0.15682020783424377,10.093356132507324,-1.708984375,13.702392578125,-39.276123046875
1.4124999,3.0328550338745117,0.606930136680603,10.217854499816895,8.4228515625,42.48046875,-40.435791015625
1.4174999000000001,2.999934673309326,0.2322375625371933,10.146028518676758,13.48876953125,44.12841796875,-40.496826171875
1.4224999,2.2391772270202637,0.27653029561042786,9.87967300415039,4.852294921875,25.5126953125,-66.650390625
1.4274999000000002,0.4058171808719635,0.2106897532939911,9.938331604003906,-24.749755859375,-4.08935546875,-75.68359375
1.4324999,-1.4389152526855469,0.2932897210121155,9.678560256958008,-30.059814453125,-5.18798828125,-61.03515625
1.4374999000000002,-2.646790027618408,-0.011971008032560349,9.40023422241211,-26.123046875,-19.95849609375,-10.345458984375
1.4424999,-2.913144826889038,-0.5919663906097412,9.643245697021484,-10.833740234375,-39.48974609375,48.919677734375
1.4474999000000002,-2.0428526401519775,-1.413776159286499,9.236231803894043,-11.810302734375,-34.66796875,50.445556640625
1.4524999,0.40880993008613586,-2.5037364959716797,9.257779121398926,37.109375,-18.280029296875,84.89990234375
1.4574999000000002,1.1025298833847046,-2.229001760482788,9.235034942626953,28.289794921875,6.011962890625,72.296142578125
1.4624999,1.580173134803772,-1.0696096420288086,9.637260437011719,8.697509765625,9.33837890625,29.510498046875
1.4674999000000002,2.1930887699127197,-0.12270283699035645,9.95090103149414,-1.8310546875,5.7373046875,-26.214599609375
1.4724999,2.7557260990142822,0.3603273630142212,10.16637897491455,4.180908203125,34.97314453125,-44.891357421875
1.4774999000000002,3.0795419216156006,0.4531026780605316,10.10173511505127,13.61083984375,45.5322265625,-35.797119140625
1.4824999,2.5091233253479004,-0.2256535142660141,10.018536567687988,8.4228515625,34.3017578125,-57.464599609375
1.4874999000000002,1.0684125423431396,0.3166331648826599,10.109517097473145,-14.5263671875,4.302978515625,-75.50048828125
1.4924999,-0.7870938181877136,0.11671733111143112,10.066421508789062,-29.4189453125,-4.486083984375,-68.66455078125
1.4974999000000002,-2.254140853881836,0.38905778527259827,9.692327499389648,-28.99169921875,-13.7939453125,-32.40966796875
1.5024999,-2.8006174564361572,0.03711012750864029,9.786897659301758,-14.678955078125,-34.271240234375,34.36279296875
1.5074999000000002,-2.144007682800293,-0.6787561774253845,9.345168113708496,-10.80322265625,-38.116455078125,55.511474609375
1.5124999000000001,0.3016694188117981,-2.270900249481201,9.135076522827148,30.609130859375,-21.42333984375,76.690673828125
1.5174999000000002,0.838569164276123,-2.4157495498657227,9.115922927856445,34.66796875,-1.861572265625,80.169677734375
1.5224999000000001,1.8309657573699951,-0.3495534360408783,9.88386344909668,0.42724609375,3.631591796875,-9.33837890625
1.5274999000000002,2.4893712997436523,0.3076549172401428,10.152013778686523,0.579833984375,24.5361328125,-44.12841796875
1.5324999000000001,3.051409959793091,0.5961562395095825,10.161590576171875,11.627197265625,44.98291015625,-36.62109375
1.5374999000000003,2.7521347999572754,0.015562310814857483,10.111910820007324,11.322021484375,39.947509765625,-48.431396484375
1.5424999000000001,1.7118542194366455,0.5285200476646423,10.134655952453613,-3.11279296875,14.7705078125,-72.479248046875
1.5474999,-0.20470423996448517,0.13168109953403473,10.137049674987793,-29.022216796875,-5.92041015625,-71.868896484375
1.5524999000000002,-1.856104850769043,0.4920084476470947,9.779715538024902,-29.296875,-8.1787109375,-48.187255859375
1.5574999,-2.7078421115875244,-0.07721300423145294,9.604938507080078,-19.622802734375,-27.008056640625,13.5498046875
1.5624999000000002,-2.6156654357910156,-0.7858967185020447,9.442731857299805,-9.185791015625,-39.947509765625,55.267333984375
1.5674999,0.6254851818084717,-2.4594438076019287,9.133280754089355,37.261962890625,-10.833740234375,84.503173828125
1.5724999000000002,1.2497732639312744,-1.8022353649139404,9.332598686218262,20.5078125,10.589599609375,59.5703125
1.5774999,1.7866730690002441,-0.5704185366630554,9.78869342803955,3.90625,5.950927734375,10.162353515625
1.5824999000000002,2.425924777984619,0.13347674906253815,10.087968826293945,-1.52587890625,14.16015625,-38.330078125
1.5874999,3.090315818786621,0.5764040350914001,10.229825019836426,8.544921875,42.05322265625,-40.740966796875
1.5924999000000002,3.00711727142334,0.23942017555236816,10.148422241210938,13.3056640625,43.426513671875,-40.283203125
1.5974999,2.2457611560821533,0.2867056429386139,9.92097282409668,4.547119140625,25.360107421875,-66.46728515625
1.6024999000000002,-2.6378116607666016,0.018555063754320145,9.444527626037598,-25.08544921875,-19.83642578125,-9.46044921875
1.6074999,-2.9083564281463623,-0.5734112858772278,9.695320129394531,-10.162353515625,-39.276123046875,49.285888671875
1.6124999000000002,0.38546648621559143,-2.4684219360351562,9.297882080078125,36.0107421875,-17.913818359375,83.55712890625
1.6174999,1.1121066808700562,-2.1936872005462646,9.269750595092773,27.4658203125,6.103515625,71.044921875
1.6224999000000002,1.622071623802185,-1.0558429956436157,9.654019355773926,8.453369140625,9.735107421875,28.80859375
1.6274999,2.25473952293396,-0.13407529890537262,9.946112632751465,-1.617431640625,6.561279296875,-26.214599609375
1.6324999000000002,2.8119897842407227,0.3381809890270233,10.15141487121582,4.7607421875,35.33935546875,-44.61669921875
1.6374999000000001,3.1046810150146484,0.4279635548591614,10.08198356628418,13.763427734375,45.379638671875,-36.376953125
1.6424999000000002,2.515108823776245,-0.26156654953956604,9.990405082702637,8.575439453125,34.149169921875,-58.59375
1.6474999000000001,1.0618284940719604,0.2454056739807129,10.050858497619629,-14.617919921875,2.99072265625,-76.263427734375
1.6524999000000002,-0.8092401623725891,-0.012569558806717396,9.971850395202637,-30.120849609375,-5.279541015625,-68.084716796875
1.6574999000000001,-2.2876596450805664,0.21128830313682556,9.560646057128906,-28.74755859375,-13.580322265625,-31.219482421875
1.6624999000000003,-2.855085611343384,-0.12210428714752197,9.672574996948242,-14.373779296875,-34.759521484375,34.759521484375
1.6674999000000001,-2.190694570541382,-0.7805097699165344,9.253589630126953,-10.650634765625,-38.2080078125,54.656982421875
1.6724999,-0.9900023937225342,-1.7244237661361694,8.988431930541992,-3.753662109375,-25.390625,45.684814453125
1.6774999000000002,0.3076549172401428,-2.2230162620544434,9.138668060302734,30.1513671875,-21.636962890625,77.056884765625
1.6824999,1.3341689109802246,-1.4299370050430298,9.481039047241211,14.007568359375,12.298583984375,44.403076171875
1.6874999000000002,1.878849744796753,-0.3166331648826599,9.883264541625977,0.48828125,4.2724609375,-10.1318359375
1.6924999,2.519298791885376,0.2998737692832947,10.154407501220703,1.03759765625,25.5126953125,-44.677734375
1.6974999000000002,3.0544028282165527,0.5710170865058899,10.181941032409668,11.993408203125,45.22705078125,-37.017822265625
1.7024999,2.7287914752960205,-0.004788403399288654,10.128071784973145,11.3525390625,39.85595703125,-48.919677734375
1.7074999000000002,1.6651673316955566,0.5201402902603149,10.154407501220703,-3.96728515625,14.190673828125,-73.944091796875
1.7124999,-0.26336219906806946,0.14006079733371735,10.136451721191406,-29.1748046875,-5.92041015625,-73.486328125
1.7174999000000002,-1.522712230682373,-1.6968904733657837,8.959701538085938,-9.46044921875,-29.571533203125,45.196533203125
1.7224999,-0.1604115068912506,-2.294243812561035,9.0859956741333,19.95849609375,-22.308349609375,65.24658203125
1.7274999000000002,0.641047477722168,-2.4618380069732666,9.12849235534668,37.078857421875,-10.986328125,84.28955078125
1.7324999,1.2575544118881226,-1.7830817699432373,9.350554466247559,19.775390625,11.077880859375,58.685302734375
1.7374999000000002,1.8040310144424438,-0.5398924946784973,9.806650161743164,3.631591796875,6.072998046875,9.70458984375
1.7424999,2.4420857429504395,0.1412578970193863,10.078392028808594,-1.64794921875,14.373779296875,-38.665771484375
1.7474999000000002,3.0807390213012695,0.5632359385490417,10.200496673583984,8.636474609375,42.388916015625,-41.046142578125
1.7524999,2.999934673309326,0.1843535304069519,10.123882293701172,13.397216796875,43.9453125,-41.1376953125
1.7574999000000002,2.214038133621216,0.25977087020874023,9.879075050354004,4.5166015625,25.146484375,-67.07763671875
1.7624999000000001,-2.6821043491363525,-0.02274491637945175,9.403825759887695,-25.634765625,-20.721435546875,-8.514404296875
1.7674999000000002,-2.9095535278320312,-0.6272808313369751,9.643245697021484,-10.6201171875,-40.069580078125,49.774169921875
1.7724999000000001,-1.9776105880737305,-1.4395138025283813,9.218873977661133,-11.65771484375,-34.149169921875,49.98779296875
1.7774999000000002,-0.5099649429321289,-2.185906171798706,9.133280754089355,7.843017578125,-22.76611328125,54.779052734375
1.7824999000000001,0.47165772318840027,-2.477998733520508,9.248801231384277,37.445068359375,-17.9443359375,85.38818359375
1.7874999000000003,1.136048674583435,-2.186504602432251,9.228450775146484,27.618408203125,6.591796875,71.014404296875
1.7924999000000001,1.5807716846466064,-1.0157400369644165,9.652822494506836,7.904052734375,9.613037109375,27.9541015625
1.7974999,2.182314872741699,-0.09816227108240128,9.960477828979492,-2.105712890625,6.04248046875,-27.008056640625
1.8024999000000002,2.7275943756103516,0.35494041442871094,10.190919876098633,4.2724609375,35.491943359375,-45.2880859375
1.8074999,3.0418331623077393,0.44352585077285767,10.110713958740234,13.641357421875,45.47119140625,-36.4990234375
1.8124999000000002,2.4684219360351562,-0.24600422382354736,10.023324966430664,8.026123046875,34.11865234375,-58.868408203125
1.8174999,0.9989806413650513,0.36152446269989014,10.087369918823242,-15.533447265625,3.509521484375,-75.8056640625
1.8224999000000002,-2.102707624435425,-0.6332663297653198,9.339780807495117,-11.16943359375,-37.78076171875,55.694580078125
1.8274999,-0.8672995567321777,-1.6729484796524048,9.027337074279785,-2.777099609375,-24.84130859375,47.4853515625
1.8324999000000002,0.3776853084564209,-2.2870612144470215,9.10993766784668,31.8603515625,-21.575927734375,78.55224609375
1.8374999,0.9271546006202698,-2.4175450801849365,9.09257984161377,35.46142578125,-1.495361328125,79.071044921875
1.8424999000000002,1.3210008144378662,-1.4814122915267944,9.460089683532715,13.641357421875,12.3291015625,42.083740234375
1.8474999,1.8465280532836914,-0.3489548861980438,9.890447616577148,-0.06103515625,3.875732421875,-12.0849609375
1.8524999000000002,2.448669672012329,0.3010708689689636,10.168174743652344,0.67138671875,25.726318359375,-45.34912109375
1.8574999,3.004723072052002,0.586579442024231,10.193912506103516,11.871337890625,44.952392578125,-37.78076171875
1.8624999000000002,2.6647465229034424,-0.0011971008498221636,10.15141487121582,11.077880859375,39.520263671875,-50.445556640625
1.8674999,1.6047136783599854,0.4866214990615845,10.147225379943848,-5.462646484375,13.214111328125,-74.40185546875
1.8724999000000002,-2.7335798740386963,-0.033518824726343155,9.637859344482422,-19.6533203125,-28.350830078125,16.6015625
1.8774999,-2.7335798740386963,-0.033518824726343155,9.637859344482422,-19.6533203125,-28.350830078125,16.6015625
1.8824999000000002,-2.522291421890259,-0.7511807680130005,9.453505516052246,-10.68115234375,-40.58837890625,57.037353515625
1.8874999000000001,-1.3365631103515625,-1.7154455184936523,8.989029884338379,-9.613037109375,-29.052734375,46.7529296875
1.8924999000000002,0.030526071786880493,-2.337339401245117,9.05487060546875,21.8505859375,-22.186279296875,69.366455078125
1.8974999000000001,0.7817068696022034,-2.5312697887420654,9.08719253540039,39.886474609375,-9.552001953125,86.36474609375
1.9024999000000002,1.3000515699386597,-1.799242615699768,9.287707328796387,20.6298828125,12.3291015625,57.31201171875
1.9074999000000001,1.7561469078063965,-0.5021837949752808,9.814431190490723,3.387451171875,5.584716796875,6.072998046875
1.9124999000000003,2.318784236907959,0.2124854028224945,10.126874923706055,-1.678466796875,15.350341796875,-40.985107421875
1.9174999000000001,2.934094190597534,0.645237386226654,10.25855541229248,8.48388671875,42.572021484375,-41.44287109375
1.9224999,2.8574798107147217,0.2801215946674347,10.177751541137695,13.18359375,43.182373046875,-42.29736328125
1.9274999000000002,2.0895395278930664,0.4315548539161682,10.102932929992676,2.74658203125,23.651123046875,-69.39697265625
1.9324999,-1.5065513849258423,0.5392939448356628,9.914987564086914,-30.120849609375,-5.9814453125,-61.58447265625
1.9374999000000002,-2.632424831390381,0.14425064623355865,9.601346969604492,-24.627685546875,-21.05712890625,-6.500244140625
1.9424999,-2.780266761779785,-0.4991910457611084,9.68694019317627,-10.772705078125,-40.22216796875,52.642822265625
1.9474999000000002,-1.7926585674285889,-1.3395558595657349,9.114127159118652,-11.993408203125,-33.721923828125,51.025390625
1.9524999,-0.34596213698387146,-2.1799206733703613,9.041702270507812,9.82666015625,-22.491455078125,58.013916015625
1.9574999000000002,0.5895721912384033,-2.5025393962860107,9.099761962890625,39.794921875,-16.66259765625,87.09716796875
1.9624999,1.1988965272903442,-2.214038133621216,9.150638580322266,28.045654296875,8.48388671875,69.244384765625
1.9674999000000002,1.61069917678833,-1.0283095836639404,9.667786598205566,7.476806640625,9.613037109375,23.49853515625
1.9724999,2.1721394062042236,-0.10235211998224258,10.017339706420898,-1.953125,7.965087890625,-31.25
1.9774999000000002,2.700061082839966,0.35913026332855225,10.263343811035156,5.157470703125,37.506103515625,-45.2880859375
1.9824999,2.956240653991699,0.45010992884635925,10.152612686157227,13.916015625,45.71533203125,-38.0859375
1.9874999000000002,2.360084295272827,-0.12509703636169434,10.098742485046387,7.354736328125,31.707763671875,-62.8662109375
1.9924999,-2.807800054550171,-0.058059390634298325,9.729436874389648,-14.09912109375,-37.139892578125,39.6728515625
1.9974999000000002,-2.1380221843719482,-0.9145850539207458,9.258976936340332,-11.749267578125,-38.2080078125,56.243896484375
2.0024999,-0.7589619159698486,-1.8148049116134644,8.979453086853027,-1.5869140625,-24.444580078125,50.201416015625
2.0074999,0.3824737071990967,-2.43011474609375,9.097966194152832,34.515380859375,-21.514892578125,83.282470703125
2.0124999000000003,0.99479079246521,-2.412158250808716,9.067440032958984,35.64453125,0.9765625,81.72607421875
2.0174999000000002,1.390432596206665,-1.3970166444778442,9.479243278503418,13.18359375,12.939453125,42.633056640625
2.0224999,1.8997989892959595,-0.25318682193756104,9.912593841552734,-0.42724609375,3.60107421875,-14.373779296875
2.0274999,2.492363929748535,0.3944447338581085,10.199897766113281,0.9765625,27.252197265625,-46.539306640625
2.0324999000000004,3.00053334236145,0.6584054827690125,10.20887565612793,12.054443359375,45.95947265625,-38.055419921875
2.0374999000000003,2.6366145610809326,0.04668693244457245,10.150816917419434,10.25390625,38.9404296875,-51.81884765625
2.0424999,-2.012925148010254,0.49799394607543945,9.841964721679688,-30.6396484375,-10.3759765625,-48.4619140625
2.0474999,-2.741360902786255,-0.0071826050989329815,9.694721221923828,-19.439697265625,-29.388427734375,18.585205078125
2.0524999,-2.426523447036743,-0.7571662664413452,9.469666481018066,-10.986328125,-40.4052734375,58.074951171875
2.0574999000000003,-1.1839327812194824,-1.7896658182144165,8.969876289367676,-9.124755859375,-28.076171875,48.309326171875
2.0624999,0.16759411990642548,-2.407968282699585,9.011177062988281,23.773193359375,-22.27783203125,72.296142578125
2.0674999,0.8643068075180054,-2.607884168624878,9.03870964050293,41.229248046875,-8.514404296875,86.944580078125
2.0724999,1.3251906633377075,-1.8213889598846436,9.253589630126953,20.3857421875,13.12255859375,55.419921875
2.0774999000000003,1.7459715604782104,-0.5027823448181152,9.792284965515137,2.960205078125,5.67626953125,2.655029296875
2.0824999,2.2888567447662354,0.23762452602386475,10.146626472473145,-1.312255859375,17.2119140625,-42.90771484375
2.0874999,2.896984100341797,0.6607996821403503,10.257957458496094,8.85009765625,43.426513671875,-41.3818359375
2.0924999,2.7940332889556885,0.33039984107017517,10.186729431152344,13.214111328125,42.938232421875,-43.365478515625
2.0974999000000003,0.16400282084941864,0.38965633511543274,10.192715644836426,-27.618408203125,-4.425048828125,-79.864501953125
2.1024999,-1.5909470319747925,0.6500257849693298,9.996989250183105,-30.853271484375,-6.77490234375,-64.208984375
2.1074999,-2.6575639247894287,0.1562216579914093,9.679159164428711,-24.96337890625,-21.91162109375,-6.317138671875
2.1124999,-2.73537540435791,-0.5213374495506287,9.692327499389648,-12.02392578125,-40.802001953125,53.802490234375
2.1174999000000003,-1.7016788721084595,-1.380257248878479,9.085396766662598,-12.847900390625,-33.26416015625,51.81884765625
2.1224999,-0.21128830313682556,-2.2361843585968018,8.974664688110352,10.498046875,-22.247314453125,60.394287109375
2.1274999,0.6973112225532532,-2.564788579940796,9.01895809173584,41.961669921875,-16.54052734375,88.623046875
2.1324999,1.2611457109451294,-2.254140853881836,9.077016830444336,29.571533203125,9.09423828125,69.183349609375
2.1374999000000003,1.6154875755310059,-1.027711033821106,9.62947940826416,7.720947265625,9.857177734375,21.820068359375
2.1424999000000002,2.099116325378418,-0.06404489278793335,10.033500671386719,-1.953125,8.148193359375,-32.958984375
2.1474999,2.5719711780548096,0.40940847992897034,10.290877342224121,4.94384765625,36.92626953125,-45.196533203125
2.1524999,-1.0055646896362305,0.4626794755458832,10.04188060760498,-29.693603515625,-4.8828125,-70.220947265625
2.1574999000000004,-2.3086090087890625,0.5297171473503113,9.723451614379883,-28.076171875,-16.17431640625,-27.557373046875
2.1624999000000003,-2.0404584407806396,-0.900818407535553,9.424775123596191,-11.932373046875,-37.29248046875,55.938720703125
2.1674999,-0.6751648783683777,-1.833359956741333,9.085396766662598,-0.274658203125,-23.92578125,50.811767578125
2.1724999,0.4106055796146393,-2.4875755310058594,9.161413192749023,34.97314453125,-21.270751953125,83.343505859375
2.1774999000000004,1.0091559886932373,-2.454056739807129,9.07222843170166,34.912109375,1.678466796875,80.596923828125
2.1824999000000003,1.4113819599151611,-1.4155718088150024,9.476848602294922,12.87841796875,12.725830078125,41.534423828125
2.1874999,1.9249382019042969,-0.2693476974964142,9.889249801635742,-0.54931640625,3.631591796875,-15.44189453125
2.1924999,2.5031378269195557,0.3932476341724396,10.183736801147461,1.40380859375,27.40478515625,-46.356201171875
2.1974999,2.580949544906616,0.03232172131538391,10.133459091186523,10.07080078125,38.14697265625,-52.337646484375
2.2024999000000003,1.4215573072433472,0.5548562407493591,10.198101997375488,-7.87353515625,10.345458984375,-75.225830078125
2.2074999,-0.49978959560394287,0.2082955539226532,10.166977882385254,-29.632568359375,-4.94384765625,-72.8759765625
2.2124999,-2.0404584407806396,0.5339069962501526,9.820416450500488,-30.059814453125,-10.7421875,-45.0439453125
2.2174999,-2.734178304672241,0.02214636653661728,9.71926212310791,-18.798828125,-30.21240234375,20.477294921875
2.2224999000000003,-2.388814687728882,-0.7320271730422974,9.472060203552246,-10.589599609375,-39.73388671875,57.159423828125
2.2274999,-1.138442873954773,-1.7561469078063965,9.001001358032227,-8.575439453125,-27.83203125,47.8515625
2.2324999,0.17836803197860718,-2.3582887649536133,9.078214645385742,24.47509765625,-22.674560546875,73.3642578125
2.2374999,0.8415619134902954,-2.5480291843414307,9.067440032958984,39.6728515625,-7.659912109375,87.738037109375
2.2424999000000003,1.2898762226104736,-1.7513585090637207,9.317035675048828,19.47021484375,13.0615234375,57.098388671875
2.2474999,1.7322049140930176,-0.4531026780605316,9.821614265441895,2.777099609375,4.791259765625,3.7841796875
2.2524999,2.3074119091033936,0.2454056739807129,10.137648582458496,-1.28173828125,17.02880859375,-42.41943359375
2.2574999,2.824559450149536,0.2663549482822418,10.160991668701172,12.87841796875,42.724609375,-43.45703125
2.2624999000000003,2.009932279586792,0.45429977774620056,10.122684478759766,1.15966796875,21.17919921875,-71.319580078125
2.2674999000000002,0.15502455830574036,0.2759317457675934,10.143035888671875,-26.79443359375,-4.57763671875,-77.63671875
2.2724999,-1.5795745849609375,0.5033808946609497,9.928155899047852,-29.78515625,-6.683349609375,-60.028076171875
2.2774999,-2.631826162338257,0.020949264988303185,9.633668899536133,-23.712158203125,-22.674560546875,-3.509521484375
2.2824999000000004,-2.7234044075012207,-0.6093243360519409,9.666589736938477,-10.711669921875,-39.947509765625,53.3447265625
2.2874999000000003,-1.702277421951294,-1.4131776094436646,9.070432662963867,-11.962890625,-32.745361328125,50.872802734375
2.2924999,-0.26755204796791077,-2.2014684677124023,9.045892715454102,11.41357421875,-22.52197265625,60.302734375
2.2974999,0.618302583694458,-2.4660277366638184,9.049484252929688,39.6728515625,-16.143798828125,88.470458984375
2.3024999000000004,1.202487826347351,-2.1320366859436035,9.154230117797852,27.130126953125,9.368896484375,70.465087890625
2.3074999000000003,1.63344407081604,-0.9427168965339661,9.670180320739746,7.26318359375,9.1552734375,23.529052734375
2.3124999,1.63344407081604,-0.9427168965339661,9.670180320739746,7.26318359375,9.1552734375,23.529052734375
2.3174999,2.936488389968872,0.46327802538871765,10.155006408691406,13.702392578125,45.22705078125,-37.994384765625
2.3224999,0.7655459642410278,0.5249287486076355,10.102334022521973,-19.622802734375,-0.091552734375,-79.1015625
2.3274999000000003,-1.0594342947006226,0.48602294921875,10.017938613891602,-30.09033203125,-4.69970703125,-69.9462890625
2.3324999,-2.3570916652679443,0.5327098965644836,9.710283279418945,-28.594970703125,-16.05224609375,-27.64892578125
2.3374999,-2.7305870056152344,0.02693476900458336,9.876680374145508,-13.946533203125,-36.651611328125,40.4052734375
2.3424999,-2.0171148777008057,-0.9181763529777527,9.412205696105957,-11.8408203125,-37.261962890625,56.5185546875
2.3474999000000003,-0.645237386226654,-1.8519150018692017,9.07103157043457,-0.3662109375,-23.956298828125,51.69677734375
2.3524999,0.4495113790035248,-2.495955228805542,9.138668060302734,35.308837890625,-21.575927734375,83.831787109375
2.3574999,1.0211269855499268,-2.4624364376068115,9.065644264221191,35.400390625,1.64794921875,81.48193359375
2.3624999,1.4173674583435059,-1.4311341047286987,9.459490776062012,12.939453125,12.542724609375,41.68701171875
2.3674999000000003,2.496553897857666,0.37229835987091064,10.18912410736084,1.28173828125,28.350830078125,-46.875
2.3724999,2.978386878967285,0.6416460275650024,10.190919876098633,12.054443359375,45.83740234375,-37.750244140625
2.3774999,2.5677812099456787,0.05147533491253853,10.163984298706055,9.857177734375,37.78076171875,-52.8564453125
2.3824999,1.4191631078720093,0.4920084476470947,10.215459823608398,-8.758544921875,10.162353515625,-76.751708984375
2.3874999000000003,-0.4926069974899292,0.19692309200763702,10.192715644836426,-29.632568359375,-4.69970703125,-75.286865234375
2.3924999000000002,-2.033275842666626,0.4489128291606903,9.86111831665039,-30.09033203125,-11.04736328125,-47.8515625
2.3974999,-2.7108349800109863,-0.03232172131538391,9.739013671875,-18.646240234375,-29.47998046875,19.622802734375
2.4024999,-1.138442873954773,-1.7621324062347412,9.027337074279785,-8.392333984375,-27.862548828125,48.88916015625
2.4074999000000004,0.1735796183347702,-2.3535003662109375,9.06863784790039,24.35302734375,-22.88818359375,72.8759765625
2.4124999000000003,0.8367735147476196,-2.53725528717041,9.06983470916748,40.130615234375,-8.4228515625,87.493896484375
2.4174999,1.2856862545013428,-1.7393875122070312,9.297284126281738,19.866943359375,12.725830078125,56.82373046875
2.4224999,2.911349296569824,0.6817489266395569,10.256759643554688,8.6669921875,43.3349609375,-41.6259765625
2.4274999000000004,2.7730841636657715,0.3321954905986786,10.183736801147461,12.63427734375,42.205810546875,-43.121337890625
2.4324999000000003,1.9572598934173584,0.5638344883918762,10.207080841064453,0.457763671875,21.240234375,-71.2890625
2.4374999,0.09876082092523575,0.39564183354377747,10.225635528564453,-26.91650390625,-4.21142578125,-77.63671875
2.4424999,-1.6238672733306885,0.6625953316688538,10.038289070129395,-30.2734375,-7.14111328125,-61.553955078125
2.4474999,-2.6210522651672363,0.1430535465478897,9.744400978088379,-24.2919921875,-22.613525390625,-4.302978515625
2.4524999000000003,-2.6629507541656494,-0.5518634915351868,9.727641105651855,-11.322021484375,-40.10009765625,53.924560546875
2.4574999,-1.6112977266311646,-1.4012064933776855,9.11113452911377,-11.71875,-33.111572265625,52.3681640625
2.4624999,-0.19273324310779572,-2.2415714263916016,9.030928611755371,11.71875,-22.88818359375,62.01171875
2.4674999,0.6554127335548401,-2.520495891571045,9.029731750488281,40.802001953125,-16.66259765625,90.4541015625
2.4724999000000003,1.1869255304336548,-2.1775264739990234,9.11113452911377,27.923583984375,9.490966796875,72.540283203125
2.4774999,2.122459888458252,-0.046088382601737976,10.003573417663574,-2.349853515625,8.056640625,-31.951904296875
2.4824999,2.646790027618408,0.38546648621559143,10.253767013549805,4.69970703125,37.7197265625,-46.69189453125
2.4874999,2.9161376953125,0.5039794445037842,10.142436981201172,13.641357421875,45.257568359375,-38.02490234375
2.4924999000000003,2.228403329849243,0.1173158809542656,9.931148529052734,5.584716796875,30.6396484375,-62.3779296875
2.4974999,0.768538773059845,0.5303156971931458,10.068815231323242,-19.22607421875,1.52587890625,-78.125
2.5024999,-1.0558429956436157,0.4710591733455658,9.974244117736816,-29.72412109375,-5.0048828125,-70.709228515625
2.5074999,-2.3133974075317383,0.45429977774620056,9.767146110534668,-28.3203125,-16.265869140625,-28.1982421875
2.5124999000000003,-2.6617536544799805,-0.07062894850969315,9.985616683959961,-14.068603515625,-36.224365234375,41.229248046875
2.5174999000000002,-1.9249382019042969,-1.0043675899505615,9.531915664672852,-12.02392578125,-36.956787109375,57.586669921875
2.5224999,-0.5704185366630554,-1.911171555519104,9.148842811584473,-0.152587890625,-24.0478515625,53.009033203125
2.5274999,0.48961424827575684,-2.544437885284424,9.186552047729492,36.102294921875,-21.209716796875,84.503173828125
2.5324999000000004,1.0259153842926025,-2.472013235092163,9.091382026672363,36.19384765625,1.953125,80.963134765625
2.5374999000000003,2.932298421859741,0.7032967209815979,10.222043991088867,11.932373046875,45.745849609375,-38.177490234375
2.5424999,2.538452386856079,0.0999579206109047,10.17416000366211,9.3994140625,37.139892578125,-53.680419921875
2.5474999,1.3850456476211548,0.5069721937179565,10.219051361083984,-9.58251953125,9.796142578125,-77.69775390625
2.5524999000000004,-0.5093663930892944,0.25019407272338867,10.187328338623047,-30.120849609375,-4.791259765625,-76.35498046875
2.5574999000000003,-2.0458452701568604,0.4950011968612671,9.84376049041748,-30.853271484375,-11.199951171875,-48.614501953125
2.5624999,-1.0414776802062988,-1.765723705291748,8.992621421813965,-8.880615234375,-27.77099609375,50.506591796875
2.5674999,0.2861070930957794,-2.409764051437378,9.001001358032227,25.32958984375,-22.613525390625,75.347900390625
2.5724999,1.3335703611373901,-1.8171991109848022,9.229647636413574,20.843505859375,13.48876953125,55.755615234375
2.5774999000000003,1.7286136150360107,-0.49978959560394287,9.798869132995605,2.716064453125,5.645751953125,0.457763671875
2.5824999,2.2409727573394775,0.27413609623908997,10.15021800994873,-1.46484375,18.1884765625,-44.158935546875
2.5874999,2.853888511657715,0.6859387755393982,10.260950088500977,8.7890625,43.670654296875,-41.8701171875
2.5924999,2.7263972759246826,0.3555389642715454,10.199298858642578,12.725830078125,42.205810546875,-44.097900390625
2.5974999000000003,1.889025092124939,0.6248866319656372,10.231022834777832,-0.54931640625,20.294189453125,-73.760986328125
2.6024999,0.07481880486011505,0.4537012279033661,10.259154319763184,-27.4658203125,-3.96728515625,-80.62744140625
2.6074999,-1.6663644313812256,0.7553706169128418,10.064026832580566,-30.57861328125,-7.537841796875,-64.727783203125
2.6124999,-2.6390087604522705,0.23104046285152435,9.785101890563965,-24.23095703125,-22.52197265625,-4.8828125
2.6174999000000003,-2.652176856994629,-0.5027823448181152,9.747992515563965,-11.688232421875,-40.83251953125,55.48095703125
2.6224999,-1.5975310802459717,-1.3856441974639893,9.119514465332031,-12.14599609375,-33.172607421875,53.131103515625
2.6274999,-0.14484919607639313,-2.2649147510528564,9.012971878051758,12.359619140625,-22.4609375,62.774658203125
2.6324999,1.602918028831482,-0.9510966539382935,9.658807754516602,7.14111328125,9.246826171875,21.759033203125
2.6374999000000003,2.1122844219207764,-0.011372458189725876,10.046070098876953,-2.197265625,8.60595703125,-33.50830078125
2.6424999000000002,2.628833532333374,0.4381389021873474,10.300454139709473,5.035400390625,37.872314453125,-46.142578125
2.6474999,2.8814218044281006,0.52552729845047,10.17416000366211,13.73291015625,45.34912109375,-38.665771484375
2.6524999,2.210446834564209,0.11791443079710007,9.943120002746582,5.828857421875,29.937744140625,-64.3310546875
2.6574999000000004,0.7493851184844971,0.507570743560791,10.058639526367188,-19.95849609375,0.30517578125,-79.833984375
2.6624999000000003,-1.0672154426574707,0.4471171796321869,9.932345390319824,-30.029296875,-5.035400390625,-71.59423828125
2.6674999,-2.3319525718688965,0.43275195360183716,9.731831550598145,-28.38134765625,-16.510009765625,-28.289794921875
2.6724999,-2.6821043491363525,-0.07302315533161163,9.955689430236816,-14.007568359375,-36.956787109375,41.595458984375
2.6774999000000004,-1.9488801956176758,-1.01753568649292,9.528923034667969,-12.176513671875,-37.200927734375,57.403564453125
2.6824999000000003,-0.5650315880775452,-1.8974047899246216,9.150638580322266,-0.457763671875,-23.86474609375,53.009033203125
2.6874999,1.0576386451721191,-2.456450939178467,9.097368240356445,36.346435546875,2.593994140625,82.305908203125
2.6924999,1.4209587574005127,-1.3910311460494995,9.46727180480957,13.0615234375,13.092041015625,40.435791015625
2.6974999,1.889025092124939,-0.21428105235099792,9.910199165344238,-0.762939453125,4.302978515625,-17.51708984375
2.7024999000000003,2.4426841735839844,0.4423287510871887,10.20528507232666,1.28173828125,28.564453125,-47.7294921875
2.7074999,2.9454667568206787,0.6997054219245911,10.20648193359375,12.115478515625,46.112060546875,-38.63525390625
2.7124999,2.5450363159179688,0.11133038252592087,10.173561096191406,9.307861328125,37.353515625,-53.741455078125
2.7174999,1.3988122940063477,0.5195417404174805,10.239401817321777,-10.162353515625,9.857177734375,-78.79638671875
2.7224999000000003,-2.275090217590332,-0.679354727268219,9.57321548461914,-11.810302734375,-40.52734375,60.48583984375
2.7274999,-0.9810241460800171,-1.7675193548202515,9.024943351745605,-8.941650390625,-27.496337890625,51.26953125
2.7324999,2.761113166809082,0.730231523513794,10.29746150970459,8.758544921875,43.243408203125,-41.748046875
2.7374999,2.6204538345336914,0.41778820753097534,10.229227066040039,13.00048828125,42.17529296875,-44.891357421875
2.7424999000000003,1.834557056427002,0.6536170840263367,10.264541625976562,-0.6103515625,19.805908203125,-75.286865234375
2.7474999,0.040701430290937424,0.46986207365989685,10.274118423461914,-28.045654296875,-4.852294921875,-82.489013671875
2.7524999,-1.688510775566101,0.7439981698989868,10.10053825378418,-30.731201171875,-7.568359375,-66.46728515625
2.7574999,-2.6641478538513184,0.22445641458034515,9.803058624267578,-24.688720703125,-22.491455078125,-7.293701171875
2.7624999000000003,-2.676118850708008,-0.4991910457611084,9.782708168029785,-12.02392578125,-41.229248046875,54.74853515625
2.7674999000000002,-1.5807716846466064,-1.3581109046936035,9.138668060302734,-12.664794921875,-33.50830078125,53.955078125
2.7724999,1.6047136783599854,-1.028908133506775,9.61571216583252,7.965087890625,10.3759765625,23.895263671875
2.7774999,2.0715830326080322,-0.04728548228740692,10.021530151367188,-2.166748046875,7.904052734375,-32.562255859375
2.7824999000000004,2.5534160137176514,0.45010992884635925,10.298060417175293,4.45556640625,36.80419921875,-46.81396484375
2.7874999000000003,2.828150749206543,0.5776011347770691,10.187328338623047,13.48876953125,45.0439453125,-38.543701171875
2.7924999,2.182314872741699,0.19931729137897491,10.037690162658691,5.828857421875,30.45654296875,-63.140869140625
2.7974999,0.7643488645553589,0.6039373874664307,10.128670692443848,-19.378662109375,0.946044921875,-79.52880859375
2.8024999000000004,-1.8938134908676147,-0.9295487999916077,9.475651741027832,-12.02392578125,-37.506103515625,58.685302734375
2.8074999000000003,0.557250440120697,-2.536656618118286,9.125499725341797,35.491943359375,-21.697998046875,84.869384765625
2.8124999,1.0384849309921265,-2.5109190940856934,9.063849449157715,37.2314453125,1.46484375,83.251953125
2.8174999,1.3401544094085693,-1.4628572463989258,9.44752025604248,13.885498046875,13.641357421875,43.243408203125
2.8224999,1.7950527667999268,-0.2406172752380371,9.904812812805176,-0.396728515625,3.72314453125,-14.09912109375
2.8274999000000003,2.369062662124634,0.4465186297893524,10.202890396118164,0.54931640625,26.702880859375,-47.454833984375
2.8324999,2.917933225631714,0.7242460250854492,10.20767879486084,11.810302734375,45.989990234375,-39.00146484375
2.8374999,2.557007312774658,0.13168109953403473,10.165780067443848,10.19287109375,38.26904296875,-51.8798828125
2.8424999,1.4832079410552979,0.5823895931243896,10.226832389831543,-7.8125,11.199951171875,-77.117919921875
2.8474999000000003,-0.4537012279033661,0.30047231912612915,10.213066101074219,-29.815673828125,-5.126953125,-77.239990234375
2.8524999,-2.0248961448669434,0.5949591398239136,9.914987564086914,-30.57861328125,-10.8642578125,-52.1240234375
2.8574999,-2.7257986068725586,0.08858546614646912,9.764153480529785,-19.439697265625,-28.961181640625,15.411376953125
2.8624999,-2.407968282699585,-0.6889315247535706,9.567828178405762,-10.650634765625,-40.771484375,59.234619140625
2.8674999000000003,-1.1569979190826416,-1.7076643705368042,9.05606746673584,-8.819580078125,-28.99169921875,50.811767578125
2.8724999,0.1909375786781311,-2.3738510608673096,9.077016830444336,23.223876953125,-22.857666015625,73.2421875
2.8774999,0.8696937561035156,-2.586336374282837,9.07222843170166,41.6259765625,-9.002685546875,90.423583984375
2.8824999,1.7064672708511353,-0.5279214978218079,9.792284965515137,3.570556640625,6.16455078125,8.4228515625
2.8874999000000003,2.252943754196167,0.243011474609375,10.120290756225586,-1.77001953125,15.31982421875,-41.717529296875
2.8924999000000002,2.252943754196167,0.243011474609375,10.120290756225586,-1.77001953125,15.31982421875,-41.717529296875
2.8974999,2.965817451477051,0.6530185341835022,10.271124839782715,8.30078125,43.731689453125,-43.731689453125
2.9024999,2.8826189041137695,0.38067805767059326,10.14902114868164,13.671875,44.25048828125,-42.48046875
2.9074999000000004,2.163161277770996,0.547075092792511,10.114903450012207,1.800537109375,22.705078125,-71.990966796875
2.9124999000000003,0.27473464608192444,0.47584760189056396,10.1382474899292,-26.611328125,-4.180908203125,-81.48193359375
2.9174999,-1.5502456426620483,0.6853402256965637,10.00836181640625,-30.670166015625,-6.53076171875,-68.17626953125
2.9224999,-2.6874914169311523,0.20051439106464386,9.715670585632324,-25.20751953125,-20.172119140625,-14.617919921875
2.9274999000000004,0.5931634902954102,-2.5504233837127686,9.185355186462402,39.886474609375,-18.310546875,88.653564453125
2.9324999000000003,0.5931634902954102,-2.5504233837127686,9.185355186462402,39.886474609375,-18.310546875,88.653564453125
2.9374999,1.1593921184539795,-2.2685060501098633,9.132682800292969,30.57861328125,8.026123046875,75.286865234375
2.9424999,1.535880446434021,-1.0809820890426636,9.592369079589844,8.819580078125,10.955810546875,30.548095703125
2.9474999,2.057217836380005,-0.06464344263076782,9.94970417022705,-1.953125,5.767822265625,-26.79443359375
2.9524999000000003,2.5983073711395264,0.44352585077285767,10.222043991088867,3.753662109375,34.637451171875,-47.088623046875
2.9574999,2.93888258934021,0.5710170865058899,10.144830703735352,13.763427734375,46.478271484375,-37.65869140625
2.9624999,2.4019827842712402,-0.076015904545784,10.072406768798828,7.32421875,33.26416015625,-59.75341796875
2.9674999,0.9906009435653687,0.4106055796146393,10.146028518676758,-15.68603515625,3.509521484375,-79.4677734375
2.9724999000000003,-0.8361749649047852,0.23403321206569672,10.103530883789062,-30.609130859375,-5.126953125,-73.883056640625
2.9774999,-0.8038532137870789,-1.7561469078063965,9.005789756774902,-4.8828125,-26.06201171875,50.84228515625
2.9824999,-0.8038532137870789,-1.7561469078063965,9.005789756774902,-4.8828125,-26.06201171875,50.84228515625
2.9874999,0.47824180126190186,-2.3564929962158203,9.094375610351562,31.036376953125,-22.796630859375,80.56640625
2.9924999000000003,0.9355342984199524,-2.5025393962860107,9.047089576721191,39.276123046875,-2.8076171875,87.34130859375
2.9974999,1.2635399103164673,-1.5897499322891235,9.373299598693848,16.448974609375,14.22119140625,52.337646484375
3.0024999,1.701080322265625,-0.3166331648826599,9.876680374145508,0.9765625,3.41796875,-3.387451171875
3.0074999,2.2804770469665527,0.36810851097106934,10.16637897491455,-0.946044921875,20.751953125,-45.47119140625
3.0124999000000003,2.8652608394622803,0.6602011322975159,10.214861869812012,10.162353515625,45.41015625,-40.924072265625
3.0174999000000002,2.700061082839966,0.21009120345115662,10.15141487121582,11.77978515625,40.771484375,-46.295166015625
3.0224999,1.7154455184936523,0.5027823448181152,10.212467193603516,-2.960205078125,17.242431640625,-73.760986328125
3.0274999,-0.10594342648983002,0.29149407148361206,10.230423927307129,-28.472900390625,-4.0283203125,-76.904296875
3.0324999000000004,-2.6426000595092773,0.076015904545784,9.739612579345703,-22.52197265625,-24.566650390625,2.01416015625
3.0374999000000003,-2.5474305152893066,-0.6530185341835022,9.655217170715332,-11.138916015625,-40.6494140625,56.57958984375
3.0424999,-1.4514847993850708,-1.5340847969055176,9.07641887664795,-11.41357421875,-31.646728515625,51.910400390625
3.0474999,-0.013168109580874443,-2.3104045391082764,9.032125473022461,15.625,-23.040771484375,65.887451171875
3.0524999000000004,0.7344213724136353,-2.5516204833984375,9.050681114196777,42.17529296875,-14.83154296875,91.12548828125
3.0574999000000003,1.2336124181747437,-2.053027868270874,9.154829025268555,26.2451171875,11.5966796875,69.366455078125
3.0624999,1.614290475845337,-0.7535749673843384,9.72165584564209,6.04248046875,8.1787109375,20.20263671875
3.0674999,2.126051187515259,0.1149216815829277,10.050858497619629,-2.62451171875,8.758544921875,-34.85107421875
3.0724999000000004,2.648585557937622,0.48901569843292236,10.275315284729004,5.31005859375,39.0625,-46.112060546875
3.0774999000000003,2.8634653091430664,0.5153518915176392,10.123882293701172,13.61083984375,44.830322265625,-38.421630859375
3.0824999,2.1529858112335205,0.2388216257095337,9.906009674072266,4.33349609375,28.533935546875,-64.422607421875
3.0874999,0.6458359360694885,0.5428852438926697,10.036493301391602,-20.904541015625,0.701904296875,-78.521728515625
3.0924999,-2.3469161987304688,0.40521863102912903,9.774328231811523,-28.656005859375,-17.303466796875,-27.130126953125
3.0974999000000003,-2.625840663909912,-0.181959331035614,9.988609313964844,-14.34326171875,-36.92626953125,42.083740234375
3.1024999,-1.8297686576843262,-1.1629834175109863,9.567230224609375,-12.5732421875,-36.68212890625,57.7392578125
3.1074999,-0.44592007994651794,-2.030282974243164,9.156624794006348,0.518798828125,-23.74267578125,54.8095703125
3.1124999,0.5931634902954102,-2.647987127304077,9.173982620239258,37.353515625,-21.91162109375,86.822509765625
3.1174999000000003,1.0869675874710083,-2.5270798206329346,9.051279067993164,37.353515625,2.685546875,82.550048828125
3.1224999,2.3684639930725098,0.4842272996902466,10.213066101074219,0.762939453125,27.40478515625,-47.760009765625
3.1274999,2.874239206314087,0.7439981698989868,10.218452453613281,11.627197265625,45.440673828125,-39.093017578125
3.1324999,2.4845829010009766,0.15023615956306458,10.183736801147461,9.124755859375,37.200927734375,-53.1005859375
3.1374999000000003,1.3760673999786377,0.5237316489219666,10.25735855102539,-9.490966796875,10.528564453125,-77.08740234375
3.1424999000000002,-2.233191728591919,-0.6955155730247498,9.582792282104492,-12.3291015625,-39.642333984375,59.26513671875
3.1474999,-0.9546879529953003,-1.7322049140930176,9.050082206726074,-9.3994140625,-27.862548828125,51.788330078125
3.1524999,0.363918662071228,-2.4199392795562744,8.982446670532227,24.383544921875,-22.735595703125,75.042724609375
3.1574999000000004,0.973242998123169,-2.650381326675415,8.996811866760254,44.3115234375,-8.819580078125,90.27099609375
3.1624999000000003,1.3114240169525146,-1.8914192914962769,9.175179481506348,22.674560546875,14.373779296875,58.319091796875
3.1674999,1.6388310194015503,-0.5386953949928284,9.768342971801758,3.35693359375,6.04248046875,4.0283203125
3.1724999,2.097320795059204,0.26575639843940735,10.165182113647461,-2.166748046875,15.716552734375,-43.45703125
3.1774999000000004,2.7712883949279785,0.6955155730247498,10.28130054473877,7.537841796875,42.78564453125,-43.212890625
3.1824999000000003,2.6593594551086426,0.44173020124435425,10.211270332336426,12.75634765625,42.266845703125,-43.060302734375
3.1874999,1.9740192890167236,0.5859808921813965,10.24538803100586,0.335693359375,21.97265625,-72.1435546875
3.1924999,-1.5598224401474,-1.3533225059509277,9.244611740112305,-12.725830078125,-33.721923828125,55.5419921875
3.1974999000000004,-0.09935937076807022,-2.2373814582824707,8.993220329284668,8.9111328125,-22.3388671875,61.82861328125
3.2024999000000003,0.7823054194450378,-2.60548996925354,9.038111686706543,42.66357421875,-18.341064453125,90.972900390625
3.2074999,1.2515689134597778,-2.313995838165283,9.008183479309082,32.562255859375,8.97216796875,74.066162109375
3.2124999,1.5436615943908691,-1.07379949092865,9.535507202148438,8.97216796875,11.199951171875,25.970458984375
3.2174999,1.9674352407455444,-0.04489128291606903,9.980229377746582,-2.349853515625,7.232666015625,-31.402587890625
3.2224999000000003,2.4384944438934326,0.49799394607543945,10.271124839782715,3.60107421875,35.552978515625,-47.515869140625
3.2274999,2.740163803100586,0.6518214344978333,10.217854499816895,13.153076171875,44.921875,-38.299560546875
3.2324999,2.1769278049468994,0.22685061395168304,10.15021800994873,5.767822265625,31.3720703125,-62.225341796875
3.2374999,-2.2415714263916016,0.5638344883918762,9.882665634155273,-30.242919921875,-15.31982421875,-38.238525390625
3.2424999000000003,-2.5929205417633057,0.038307227194309235,9.964069366455078,-16.265869140625,-34.72900390625,34.820556640625
3.2474999,-1.7585411071777344,-0.8325836658477783,9.545083999633789,-12.6953125,-38.4521484375,60.455322265625
3.2524999,-0.4878185987472534,-1.8794482946395874,9.046490669250488,-3.90625,-24.59716796875,54.26025390625
3.2574999,0.7296329736709595,-2.540846586227417,9.031527519226074,34.698486328125,-22.64404296875,85.113525390625
3.2624999000000003,1.072602391242981,-2.6360161304473877,8.959701538085938,42.144775390625,-0.823974609375,87.310791015625
3.2674999000000002,1.258152961730957,-1.6250643730163574,9.291297912597656,16.41845703125,14.58740234375,47.42431640625
3.2724999,1.6047136783599854,-0.30705636739730835,9.852738380432129,0.152587890625,4.0283203125,-11.23046875
3.2774999,2.121861219406128,0.4626794755458832,10.226832389831543,-0.67138671875,23.773193359375,-48.15673828125
3.2824999000000004,-2.581547975540161,0.23044191300868988,9.813833236694336,-21.697998046875,-26.611328125,8.6669921875
3.2874999000000003,-2.29484224319458,-0.5973533391952515,9.662399291992188,-12.054443359375,-40.58837890625,59.38720703125
3.2924999,-1.0899603366851807,-1.622071623802185,9.090185165405273,-10.498046875,-29.35791015625,53.863525390625
3.2974999,0.304063618183136,-2.4199392795562744,8.979453086853027,20.81298828125,-22.64404296875,72.845458984375
3.3024999000000004,0.9343371987342834,-2.698265314102173,8.986037254333496,45.440673828125,-11.627197265625,92.803955078125
3.3074999000000003,1.3114240169525146,-2.0470423698425293,9.103952407836914,25.726318359375,13.916015625,64.51416015625
3.3124999,1.6190788745880127,-0.6883329749107361,9.699509620666504,4.69970703125,7.50732421875,10.345458984375
3.3174999,2.0632033348083496,0.18974047899246216,10.110713958740234,-2.50244140625,13.031005859375,-42.083740234375
3.3224999000000004,2.6635494232177734,0.6392518281936646,10.320206642150879,6.622314453125,41.717529296875,-45.257568359375
3.3274999000000003,2.030282974243164,0.5985504388809204,10.222043991088867,1.708984375,24.200439453125,-70.648193359375
3.3324999,0.3208230137825012,0.5925649404525757,10.193313598632812,-25.238037109375,-1.434326171875,-81.6650390625
3.3374999,-1.4053963422775269,0.8182184100151062,10.11669921875,-31.402587890625,-6.744384765625,-71.258544921875
3.3424999,-2.5055320262908936,0.345363587141037,9.79408073425293,-27.03857421875,-19.134521484375,-20.599365234375
3.3474999000000003,-2.604292869567871,-0.33937808871269226,9.84256362915039,-13.0615234375,-38.818359375,49.31640625
3.3524999,-1.688510775566101,-1.334767460823059,9.35893440246582,-12.63427734375,-35.003662109375,58.135986328125
3.3574999,-0.17298106849193573,-2.204461097717285,9.02015495300293,5.31005859375,-22.430419921875,59.6923828125
3.3624999,0.7284358739852905,-2.69646954536438,9.065644264221191,41.534423828125,-19.622802734375,90.33203125
3.3674999000000003,1.2509703636169434,-2.4624364376068115,9.008183479309082,35.675048828125,7.2021484375,78.06396484375
3.3724999,1.5394717454910278,-1.2156559228897095,9.478046417236328,10.589599609375,12.481689453125,30.94482421875
3.3774999,1.9410990476608276,-0.08978256583213806,9.942521095275879,-1.739501953125,6.195068359375,-27.984619140625
3.3824999,2.4001872539520264,0.5327098965644836,10.270526885986328,2.716064453125,33.233642578125,-48.431396484375
3.3874999000000003,0.9864110946655273,0.47405192255973816,10.214861869812012,-15.93017578125,5.035400390625,-81.97021484375
3.3924999000000002,-0.761954665184021,0.28790274262428284,10.18792724609375,-30.76171875,-4.730224609375,-78.826904296875
3.3974999,-2.2200236320495605,0.47405192255973816,9.855133056640625,-30.8837890625,-13.641357421875,-46.2646484375
3.4024999,-2.651578426361084,0.06823474913835526,9.869498252868652,-17.4560546875,-32.562255859375,28.3203125
3.4074999000000004,-1.968033790588379,-0.7134721279144287,9.536105155944824,-12.3291015625,-39.642333984375,61.46240234375
3.4124999000000003,-0.6673837304115295,-1.7932571172714233,9.00399398803711,-6.256103515625,-25.421142578125,53.253173828125
3.4174999,0.6428431272506714,-2.4648306369781494,9.00160026550293,31.097412109375,-22.247314453125,81.60400390625
3.4224999,1.0869675874710083,-2.6659436225891113,8.950124740600586,44.00634765625,-3.753662109375,88.775634765625
3.4274999000000004,1.346139907836914,-1.7322049140930176,9.239224433898926,18.85986328125,14.739990234375,50.994873046875
3.4324999000000003,1.6561890840530396,-0.3932476341724396,9.838972091674805,1.220703125,4.669189453125,-6.4697265625
3.4374999,2.1140801906585693,0.3974374830722809,10.232817649841309,-1.40380859375,20.6298828125,-47.119140625
3.4424999,-0.1801636815071106,0.40701428055763245,10.2962646484375,-28.6865234375,-3.7841796875,-79.16259765625
3.4474999000000004,-1.8171991109848022,0.6913257241249084,10.107122421264648,-31.341552734375,-9.765625,-61.34033203125
3.4524999000000003,-2.5743653774261475,0.17657238245010376,9.786897659301758,-22.735595703125,-24.932861328125,1.617431640625
3.4574999,-2.4007856845855713,-0.6206967830657959,9.677961349487305,-11.8408203125,-40.95458984375,57.67822265625
3.4624999,-1.235408067703247,-1.5436615943908691,9.043498039245605,-11.3525390625,-30.975341796875,54.13818359375
3.4674999,0.19632454216480255,-2.3948001861572266,8.971074104309082,16.845703125,-22.52197265625,69.244384765625
3.4724999000000003,0.8774749040603638,-2.668337821960449,8.969876289367676,44.891357421875,-14.0380859375,94.42138671875
3.4774999,1.2856862545013428,-2.1529858112335205,9.090185165405273,28.3203125,12.969970703125,71.10595703125
3.4824999,1.5723919868469238,-0.8170213103294373,9.673172950744629,6.28662109375,8.819580078125,19.317626953125
3.4874999,2.029684543609619,0.11252748221158981,10.078990936279297,-2.838134765625,9.368896484375,-37.322998046875
3.4924999000000003,2.094926595687866,0.2777273952960968,9.915586471557617,4.39453125,27.496337890625,-66.89453125
3.4974999,2.094926595687866,0.2777273952960968,9.915586471557617,4.39453125,27.496337890625,-66.89453125
3.5024999,0.536899745464325,0.4770447015762329,10.04307746887207,-21.942138671875,-0.885009765625,-79.925537109375
3.5074999,-1.2503718137741089,0.5015852451324463,9.898228645324707,-30.853271484375,-5.79833984375,-70.159912109375
3.5124999000000003,-2.4343044757843018,0.31842881441116333,9.724050521850586,-28.6865234375,-17.913818359375,-26.42822265625
3.5174999000000002,-2.6617536544799805,-0.25498247146606445,9.962871551513672,-13.946533203125,-38.14697265625,42.90771484375
3.5224999,-0.38726213574409485,-2.075772762298584,9.135675430297852,1.40380859375,-24.4140625,57.31201171875
3.5274999,-0.38726213574409485,-2.075772762298584,9.135675430297852,1.40380859375,-24.4140625,57.31201171875
3.5324999000000004,0.6129156351089478,-2.689286947250366,9.163806915283203,39.12353515625,-22.88818359375,90.88134765625
3.5374999000000003,1.0504560470581055,-2.522890090942383,9.051279067993164,37.17041015625,3.631591796875,88.0126953125
3.5424999,1.3072341680526733,-1.3730746507644653,9.47146224975586,12.939453125,13.61083984375,46.783447265625
3.5474999,1.4688427448272705,0.4920084476470947,10.211270332336426,-8.9111328125,10.955810546875,-73.42529296875
3.5524999000000004,1.4688427448272705,0.4920084476470947,10.211270332336426,-8.9111328125,10.955810546875,-73.42529296875
3.5574999000000003,-0.4908113479614258,0.20290859043598175,10.211270332336426,-29.11376953125,-3.35693359375,-72.479248046875
3.5624999,-2.036867141723633,0.4423287510871887,9.892242431640625,-31.1279296875,-11.505126953125,-47.882080078125
3.5674999,-2.647388458251953,-0.04189852997660637,9.784503936767578,-19.866943359375,-29.4189453125,17.242431640625
3.5724999000000004,-2.2194249629974365,-0.7870938181877136,9.544485092163086,-11.505126953125,-38.87939453125,58.59375
3.5774999000000003,-0.9427168965339661,-1.7723077535629272,9.026739120483398,-8.72802734375,-27.923583984375,53.03955078125
3.5824999,0.3531447649002075,-2.434903144836426,8.999804496765137,25.08544921875,-23.712158203125,76.7822265625
3.5874999,0.9217676520347595,-2.6204538345336914,8.974664688110352,43.5791015625,-8.85009765625,92.803955078125
3.5924999,1.236605167388916,-1.8441338539123535,9.194931983947754,22.3388671875,14.95361328125,62.31689453125
3.5974999000000003,2.8197710514068604,0.44532153010368347,10.178948402404785,13.427734375,44.281005859375,-43.02978515625
3.6024999,-1.5245078802108765,0.706289529800415,10.199897766113281,-32.257080078125,-7.080078125,-72.08251953125
3.6074999,-2.6192567348480225,0.20889410376548767,9.832387924194336,-27.64892578125,-19.866943359375,-19.34814453125
3.6124999,-2.652775526046753,-0.48063600063323975,9.821614265441895,-13.916015625,-38.909912109375,50.048828125
3.6174999000000003,-1.6478092670440674,-1.414973258972168,9.294889450073242,-13.36669921875,-34.423828125,58.929443359375
3.6224999,-0.08559270948171616,-2.275688648223877,8.920196533203125,5.523681640625,-22.15576171875,61.492919921875
3.6274999,0.8319851160049438,-2.7449522018432617,8.955511093139648,43.609619140625,-19.744873046875,91.00341796875
3.6324999,1.3174095153808594,-2.472611904144287,8.920795440673828,38.4521484375,7.26318359375,76.568603515625
3.6374999000000003,1.8818424940109253,-0.03651157766580582,9.972448348999023,-1.983642578125,7.080078125,-30.45654296875
3.6424999000000002,2.299032211303711,0.6087257862091064,10.319009780883789,2.86865234375,34.210205078125,-48.065185546875
3.6474999,2.6593594551086426,0.7984662652015686,10.290877342224121,13.153076171875,45.684814453125,-39.36767578125
3.6524999,2.2391772270202637,0.1951274424791336,10.269330024719238,6.9580078125,33.538818359375,-62.774658203125
3.6574999000000004,0.973242998123169,0.5327098965644836,10.2561616897583,-16.54052734375,5.035400390625,-85.113525390625
3.6624999000000003,-0.7529764175415039,0.35015198588371277,10.254365921020508,-31.097412109375,-4.669189453125,-82.6416015625
3.6674999,-2.208052635192871,0.46986207365989685,9.891644477844238,-31.829833984375,-14.34326171875,-50.811767578125
3.6724999,-2.654571056365967,-0.01975216343998909,9.836577415466309,-18.61572265625,-31.79931640625,25.0244140625
3.6774999000000004,-2.0009541511535645,-0.7745242714881897,9.53969669342041,-13.24462890625,-40.6494140625,63.1103515625
3.6824999000000003,-0.6949170231819153,-1.8644845485687256,8.974066734313965,-7.720947265625,-26.55029296875,55.572509765625
3.6874999,0.619499683380127,-2.536058187484741,8.893261909484863,29.937744140625,-23.345947265625,81.9091796875
3.6924999,1.0582371950149536,-2.762908697128296,8.892065048217773,48.004150390625,-5.67626953125,91.6748046875
3.6974999000000004,1.2671312093734741,-1.8596961498260498,9.119514465332031,21.942138671875,15.625,55.0537109375
3.7024999000000003,1.534683346748352,-0.4836287498474121,9.794678688049316,2.105712890625,5.401611328125,-2.288818359375
3.7074999,1.999756932258606,0.3603273630142212,10.226832389831543,-1.46484375,18.24951171875,-46.2646484375
3.7124999,2.5983073711395264,0.7918822169303894,10.321403503417969,9.033203125,44.769287109375,-43.0908203125
3.7174999,2.5959131717681885,0.3603273630142212,10.260351181030273,12.603759765625,42.999267578125,-49.102783203125
3.7224999000000003,1.8698714971542358,0.5105634927749634,10.208277702331543,-0.06103515625,19.71435546875,-76.66015625
3.7274999,0.12928688526153564,0.23283611238002777,10.234015464782715,-28.533935546875,-4.730224609375,-81.695556640625
3.7324999,-1.5508441925048828,0.4572925269603729,10.02452278137207,-30.853271484375,-7.080078125,-66.131591796875
3.7374999,-2.5755624771118164,-0.011971008032560349,9.730035781860352,-24.35302734375,-22.27783203125,-9.521484375
3.7424999000000003,-2.6342203617095947,-0.628477931022644,9.746794700622559,-11.260986328125,-41.259765625,54.01611328125
3.7474999,-1.5885528326034546,-1.3724761009216309,9.17697525024414,-12.542724609375,-34.48486328125,55.694580078125
3.7524999,-0.18495208024978638,-2.185906171798706,9.03751277923584,10.162353515625,-24.017333984375,63.079833984375
3.7574999,1.3874398469924927,-0.99479079246521,9.602544784545898,8.4228515625,10.284423828125,33.02001953125
3.7624999000000003,2.5797524452209473,0.4944026470184326,10.231022834777832,2.838134765625,34.60693359375,-48.4619140625
3.7674999000000002,3.0160956382751465,0.5488707423210144,10.157999038696289,13.275146484375,48.126220703125,-40.069580078125
3.7724999,2.541445016860962,-0.09457096457481384,10.061633110046387,6.988525390625,34.72900390625,-58.746337890625
3.7774999,1.1001356840133667,0.37828385829925537,10.24119758605957,-16.632080078125,4.8828125,-77.2705078125
3.7824999000000004,-0.7727286219596863,0.2669534981250763,10.227431297302246,-31.6162109375,-3.7841796875,-74.40185546875
3.7874999000000003,-2.2864625453948975,0.49320554733276367,9.982624053955078,-32.928466796875,-13.885498046875,-44.708251953125
3.7924999,-2.7240030765533447,0.09576806426048279,9.97364616394043,-19.195556640625,-32.71484375,25.634765625
3.7974999,-2.0201077461242676,-0.6883329749107361,9.602544784545898,-13.12255859375,-39.73388671875,60.943603515625
3.8024999000000004,-0.6643909811973572,-1.790264368057251,9.02135181427002,-7.75146484375,-26.519775390625,55.17578125
3.8074999000000003,1.2575544118881226,-1.86508309841156,9.122507095336914,21.759033203125,15.594482421875,56.915283203125
3.8124999,1.5185223817825317,-0.4967968463897705,9.802460670471191,1.983642578125,4.82177734375,-0.48828125
3.8174999,1.9961656332015991,0.35075053572654724,10.216657638549805,-2.197265625,17.08984375,-45.806884765625
3.8224999000000004,2.735974073410034,0.7308300733566284,10.339958190917969,8.392333984375,45.196533203125,-44.0673828125
3.8274999000000003,2.6815059185028076,0.42197805643081665,10.248978614807129,13.214111328125,43.365478515625,-45.562744140625
3.8324999,1.9740192890167236,0.5770025849342346,10.319607734680176,-0.518798828125,21.331787109375,-74.8291015625
3.8374999,0.16160862147808075,0.4578910768032074,10.319607734680176,-27.679443359375,-2.716064453125,-82.70263671875
3.8424999,-1.6083049774169922,0.7128735780715942,10.22144603729248,-31.280517578125,-7.62939453125,-70.831298828125
3.8474999000000003,-2.629431962966919,0.2214636504650116,9.8784761428833,-25.604248046875,-20.843505859375,-15.777587890625
3.8524999,-2.646191358566284,-0.4513070285320282,9.844358444213867,-12.908935546875,-39.97802734375,52.18505859375
3.8574999,-1.643619418144226,-1.3509283065795898,9.303269386291504,-12.8173828125,-34.698486328125,57.464599609375
3.8624999,0.6901286244392395,-2.651578426361084,9.029731750488281,42.96875,-20.050048828125,90.362548828125
3.8674999000000003,1.1480196714401245,-2.3774423599243164,8.9866361618042,35.33935546875,6.927490234375,78.216552734375
3.8724999,1.4191631078720093,-1.1378443241119385,9.486425399780273,9.94873046875,11.71875,33.294677734375
3.8774999,1.8704700469970703,-0.03651157766580582,9.958083152770996,-2.3193359375,4.08935546875,-24.749755859375
3.8824999,2.448669672012329,0.5740098357200623,10.251373291015625,2.166748046875,32.16552734375,-47.760009765625
3.8874999000000003,2.889801502227783,0.6823474764823914,10.227431297302246,12.847900390625,46.56982421875,-38.6962890625
3.8924999000000002,2.4899697303771973,0.048482585698366165,10.152612686157227,7.99560546875,35.614013671875,-57.2509765625
3.8974999,1.1929110288619995,0.3860650360584259,10.228628158569336,-13.031005859375,7.14111328125,-78.277587890625
3.9024999,-0.6177040338516235,0.18914192914962769,10.195109367370605,-29.998779296875,-4.119873046875,-76.23291015625
3.9074999000000004,-2.142810583114624,0.3495534360408783,9.894038200378418,-30.670166015625,-12.481689453125,-49.041748046875
3.9124999000000003,-2.669534921646118,-0.07721300423145294,9.818022727966309,-17.88330078125,-30.3955078125,20.965576171875
3.9174999,-2.182314872741699,-0.7882909178733826,9.551069259643555,-11.505126953125,-39.947509765625,60.150146484375
3.9224999,1.1779472827911377,-1.7591396570205688,9.227252960205078,21.42333984375,14.34326171875,60.394287109375
3.9274999000000004,1.5340847969055176,-0.4129997789859772,9.81263542175293,2.593994140625,4.82177734375,7.171630859375
3.9324999000000003,2.0907366275787354,0.34835633635520935,10.134655952453613,-2.716064453125,13.580322265625,-41.6259765625
3.9374999,2.8796260356903076,0.7242460250854492,10.268731117248535,7.904052734375,43.548583984375,-43.182373046875
3.9424999,2.8598740100860596,0.3513490855693817,10.15560531616211,13.397216796875,43.975830078125,-42.6025390625
3.9474999000000004,2.2254104614257812,0.4207809567451477,9.987412452697754,2.777099609375,24.2919921875,-69.610595703125
3.9524999000000003,0.3621230125427246,0.2998737692832947,10.045472145080566,-25.45166015625,-3.11279296875,-78.79638671875
3.9574999,-1.4329297542572021,0.4411316514015198,9.88386344909668,-30.1513671875,-5.615234375,-66.5283203125
3.9624999,-2.608482837677002,-0.0017956512747332454,9.620500564575195,-26.123046875,-19.22607421875,-18.951416015625
3.9674999000000004,-2.765302896499634,-0.6200982332229614,9.804854393005371,-11.260986328125,-38.665771484375,47.027587890625
3.9724999000000003,-0.4315548539161682,-2.234388828277588,9.141660690307617,5.43212890625,-23.529052734375,55.450439453125
3.9774999,0.4854243993759155,-2.671330451965332,9.227252960205078,39.093017578125,-20.69091796875,86.334228515625
3.9824999,1.0660183429718018,-2.3576900959014893,9.138668060302734,33.14208984375,5.55419921875,79.132080078125
3.9874999,1.456871747970581,-1.1468225717544556,9.575011253356934,10.68115234375,12.115478515625,39.093017578125
3.9924999000000003,2.0009541511535645,-0.03651157766580582,9.926959037780762,-1.64794921875,3.021240234375,-18.218994140625
3.9974999,2.65097975730896,0.5590460896492004,10.198101997375488,2.044677734375,30.120849609375,-46.142578125
4.0024999,3.1220390796661377,0.669179379940033,10.150816917419434,13.153076171875,48.004150390625,-37.322998046875
4.0074999,2.7240030765533447,0.011372458189725876,10.082581520080566,9.765625,38.51318359375,-54.38232421875
4.0124999,1.5047557353973389,0.35913026332855225,10.088567733764648,-7.50732421875,9.735107421875,-77.81982421875
4.0174999,-0.4710591733455658,-0.076015904545784,10.045472145080566,-31.55517578125,-6.4697265625,-75.3173828125
4.022499900000001,-2.0841526985168457,0.07122749835252762,9.673172950744629,-30.21240234375,-9.21630859375,-51.26953125
4.0274999000000005,-2.8401217460632324,-0.4818331003189087,9.510966300964355,-18.61572265625,-27.64892578125,12.054443359375
4.0324999,-1.4000093936920166,-1.8375498056411743,8.947132110595703,-9.490966796875,-29.541015625,48.4619140625
4.0374999,-0.0065840547904372215,-2.3517045974731445,9.062053680419922,20.3857421875,-23.37646484375,67.047119140625
4.0424999,0.6925228238105774,-2.4456770420074463,9.125499725341797,39.6728515625,-11.90185546875,87.493896484375
4.0474999,1.2102689743041992,-1.7609353065490723,9.32421875,22.03369140625,12.451171875,64.0869140625
4.0524999,1.6867151260375977,-0.4770447015762329,9.810839653015137,3.96728515625,6.195068359375,15.31982421875
4.0574999,2.3032219409942627,0.23283611238002777,10.083779335021973,-2.44140625,11.3525390625,-36.651611328125
4.062499900000001,2.9885623455047607,0.5434837937355042,10.235212326049805,7.6904296875,42.17529296875,-42.48046875
4.0674999000000005,3.0813376903533936,0.3106476664543152,10.090363502502441,14.46533203125,46.38671875,-38.330078125
4.0724999,2.4001872539520264,-0.14365209639072418,10.001178741455078,5.157470703125,28.9306640625,-66.162109375
4.0774999,0.7308300733566284,0.22864626348018646,10.120888710021973,-21.42333984375,-1.77001953125,-79.89501953125
4.0824999,-1.1252747774124146,0.13407529890537262,10.023923873901367,-30.242919921875,-4.913330078125,-69.976806640625
4.0874999,-2.4600422382354736,0.12988543510437012,9.709086418151855,-27.008056640625,-15.289306640625,-29.937744140625
4.0924999,-2.8371291160583496,-0.2801215946674347,9.81263542175293,-11.8408203125,-35.09521484375,38.39111328125
4.0974999,-2.01232647895813,-1.0360907316207886,9.358335494995117,-10.55908203125,-36.7431640625,56.060791015625
4.1024999,-0.7595604658126831,-1.8734627962112427,9.07522201538086,-1.0986328125,-24.200439453125,48.095703125
4.1074999000000005,0.44532153010368347,-2.3582887649536133,9.193734169006348,32.5927734375,-21.392822265625,77.606201171875
4.1124999,0.9343371987342834,-2.3361423015594482,9.15961742401123,34.24072265625,-0.457763671875,78.399658203125
4.1174999,1.2874820232391357,-1.3353660106658936,9.53969669342041,13.153076171875,12.359619140625,43.0908203125
4.1224999,1.7950527667999268,-0.20530278980731964,9.931747436523438,-0.518798828125,3.082275390625,-10.498046875
4.1274999,2.4193408489227295,0.4010287821292877,10.190919876098633,0.274658203125,24.444580078125,-43.914794921875
4.1324999,2.9538464546203613,0.5829881429672241,10.181941032409668,11.871337890625,45.10498046875,-35.64453125
4.1374999,2.9538464546203613,0.5829881429672241,10.181941032409668,11.871337890625,45.10498046875,-35.64453125
4.1424999,2.714426279067993,0.06464344263076782,10.126276016235352,11.444091796875,40.34423828125,-47.210693359375
4.147499900000001,1.7375918626785278,0.42437225580215454,10.096946716308594,-2.532958984375,15.594482421875,-73.66943359375
4.1524999000000005,-0.12988543510437012,0.13706804811954498,10.178948402404785,-29.84619140625,-6.65283203125,-74.89013671875
4.1574999,-2.6563668251037598,-0.8439561128616333,9.640253067016602,-9.307861328125,-39.61181640625,53.619384765625
4.1624999,-1.5717934370040894,-1.5478514432907104,9.064447402954102,-10.528564453125,-31.06689453125,48.614501953125
4.1674999,-0.20889410376548767,-2.258330821990967,9.108141899108887,14.16015625,-22.247314453125,59.234619140625
4.1724999,0.6021417379379272,-2.403778553009033,9.11113452911377,38.6962890625,-15.350341796875,85.14404296875
4.1774999,1.1192892789840698,-1.96683669090271,9.242217063903809,24.749755859375,8.575439453125,67.291259765625
4.1824999,1.5382746458053589,-0.7655459642410278,9.733627319335938,5.9814453125,7.2021484375,23.37646484375
4.187499900000001,2.126051187515259,0.07781155407428741,10.013748168945312,-2.899169921875,6.683349609375,-30.120849609375
4.1924999000000005,2.7335798740386963,0.4315548539161682,10.209474563598633,5.096435546875,36.407470703125,-42.816162109375
4.1974999,3.0125043392181396,0.3800795078277588,10.095151901245117,14.068603515625,44.891357421875,-34.66796875
4.2024999,2.404975652694702,-0.33997663855552673,10.022727012634277,7.354736328125,32.65380859375,-58.28857421875
4.2074999,-2.0883424282073975,-0.9624691009521484,9.264363288879395,-10.040283203125,-35.980224609375,53.314208984375
4.2124999,-0.9235633015632629,-1.802833914756775,8.984241485595703,-3.35693359375,-24.627685546875,44.921875
4.2174999,0.2861070930957794,-2.2589292526245117,9.175179481506348,28.9306640625,-21.514892578125,73.638916015625
4.2224999,0.7781155705451965,-2.300827741622925,9.1446533203125,32.989501953125,-3.72314453125,79.498291015625
4.2274999,1.2030863761901855,-1.359906554222107,9.536105155944824,14.0380859375,10.986328125,48.4619140625
4.2324999000000005,1.7477672100067139,-0.20769700407981873,9.928155899047852,0.213623046875,2.166748046875,-3.509521484375
4.2374999,2.4139537811279297,0.34835633635520935,10.165182113647461,-0.8544921875,20.32470703125,-42.327880859375
4.2424999,2.868253707885742,0.020949264988303185,10.09934139251709,12.63427734375,41.290283203125,-42.8466796875
4.2474999,0.11911153793334961,0.0933738648891449,10.085575103759766,-26.55029296875,-5.55419921875,-69.976806640625
4.2524999,-1.5406688451766968,0.2711433470249176,9.856329917907715,-28.106689453125,-5.859375,-52.337646484375
4.2574999,-2.5731682777404785,-0.20949265360832214,9.603142738342285,-20.32470703125,-21.8505859375,1.220703125
4.2624999,-2.67372465133667,-0.8607155084609985,9.645041465759277,-7.659912109375,-36.92626953125,51.57470703125
4.2674999,-1.6741455793380737,-1.5556325912475586,9.133280754089355,-8.9111328125,-28.99169921875,44.7998046875
4.272499900000001,-0.3555389642715454,-2.188300371170044,9.208099365234375,12.603759765625,-20.355224609375,52.520751953125
4.2774999000000005,0.5249287486076355,-2.296039342880249,9.238027572631836,33.416748046875,-13.3056640625,76.568603515625
4.2824999,1.161187767982483,-1.8525135517120361,9.361329078674316,21.66748046875,7.4462890625,57.4951171875
4.2874999,1.6639702320098877,-0.6643909811973572,9.765350341796875,5.43212890625,6.805419921875,15.380859375
4.2924999,2.27209734916687,0.031124621629714966,10.005967140197754,-1.64794921875,10.31494140625,-32.71484375
4.2974999,2.807201385498047,0.4255693554878235,10.14902114868164,7.110595703125,36.468505859375,-37.17041015625
4.3024999,2.955641984939575,0.23702596127986908,10.061034202575684,14.7705078125,43.304443359375,-34.5458984375
4.3074999,1.002571940422058,0.1711854189634323,9.96825885772705,-11.3525390625,0.244140625,-73.577880859375
4.312499900000001,-0.8277952671051025,-0.3687070608139038,9.776124000549316,-30.120849609375,-7.659912109375,-59.02099609375
4.3174999000000005,-2.115875720977783,-0.14065934717655182,9.365518569946289,-23.529052734375,-11.962890625,-24.47509765625
4.3224999,-0.05746084079146385,-2.011129379272461,9.37748908996582,22.064208984375,-19.34814453125,64.88037109375
4.3274999,0.6506243348121643,-2.009932279586792,9.419387817382812,24.169921875,-3.11279296875,66.253662109375
4.3324999,1.279700756072998,-1.1150994300842285,9.723451614379883,10.8642578125,7.99560546875,37.109375
4.3374999,2.0225019454956055,-0.2214636504650116,9.917980194091797,0.06103515625,3.35693359375,-10.92529296875
4.3424999,2.692878246307373,0.19213469326496124,10.075998306274414,1.800537109375,24.139404296875,-38.665771484375
4.3474999,3.1848866939544678,0.34596213698387146,10.013748168945312,13.00048828125,41.839599609375,-29.72412109375
4.352499900000001,1.9381062984466553,-0.3866635859012604,9.497797966003418,1.068115234375,15.19775390625,-65.643310546875
4.3574999000000005,0.0293289702385664,-0.43694180250167847,9.625887870788574,-24.566650390625,-9.124755859375,-58.990478515625
4.3624999,-1.5873557329177856,-0.7906851172447205,9.121310234069824,-27.89306640625,-5.218505859375,-39.4287109375
4.3674999,-2.6575639247894287,-0.9971849918365479,9.00279712677002,-18.768310546875,-23.37646484375,10.55908203125
4.3724999,-2.8443117141723633,-1.3479355573654175,9.314043045043945,-4.302978515625,-35.736083984375,47.36328125
4.3774999,-1.9518729448318481,-1.7753005027770996,9.044695854187012,-6.317138671875,-26.67236328125,36.31591796875
4.3824999,-0.6230909824371338,-1.9698294401168823,9.367912292480469,11.016845703125,-20.81298828125,50.872802734375
4.3874999,0.25258827209472656,-1.8944120407104492,9.470264434814453,25.482177734375,-13.00048828125,72.32666015625
4.3924999,1.0749965906143188,-1.3198037147521973,9.66299819946289,16.387939453125,5.37109375,52.398681640625
4.397499900000001,1.7477672100067139,-0.3315969407558441,9.911994934082031,3.662109375,4.119873046875,12.786865234375
4.4024999000000005,3.0992941856384277,0.33099839091300964,10.092158317565918,8.6669921875,36.80419921875,-34.332275390625
4.4074999,2.3702597618103027,-0.608127236366272,9.815030097961426,6.439208984375,29.11376953125,-59.783935546875
4.4124999,0.8589198589324951,0.17537526786327362,9.818022727966309,-11.04736328125,-0.885009765625,-64.51416015625
4.4174999,-1.05105459690094,-0.4531026780605316,9.59476375579834,-30.670166015625,-7.32421875,-47.821044921875
4.4224999,-2.2691047191619873,-0.1933317929506302,9.114127159118652,-24.566650390625,-13.214111328125,-14.95361328125
4.4274999,-2.8197710514068604,-0.7882909178733826,9.242217063903809,-10.25390625,-34.5458984375,37.872314453125
4.4324999,-2.2397756576538086,-1.578976035118103,8.87051773071289,-4.791259765625,-30.94482421875,43.182373046875
4.437499900000001,-1.0073603391647339,-2.146401882171631,8.989029884338379,1.129150390625,-21.697998046875,38.87939453125
4.4424999000000005,0.060453593730926514,-2.273294448852539,9.28531265258789,24.017333984375,-19.04296875,70.220947265625
4.4474999,0.7894880175590515,-2.012925148010254,9.458892822265625,23.01025390625,-0.640869140625,66.0400390625
4.4524999,1.3581109046936035,-0.9660604000091553,9.793481826782227,8.453369140625,7.171630859375,33.843994140625
4.4574999,2.0655975341796875,-0.09816227108240128,10.001178741455078,-1.007080078125,3.387451171875,-14.495849609375
4.4624999,2.722805976867676,0.2795230448246002,10.13286018371582,2.9296875,26.947021484375,-38.909912109375
4.4674999,2.715024709701538,-0.23822307586669922,10.020332336425781,10.92529296875,38.360595703125,-49.774169921875
4.4724999,1.734000563621521,-0.0628477931022644,9.675567626953125,-0.244140625,12.054443359375,-66.10107421875
4.477499900000001,-0.2783259451389313,-0.25438392162323,9.654019355773926,-27.52685546875,-10.19287109375,-55.96923828125
4.4824999000000005,-1.777096152305603,-0.3992331326007843,9.188945770263672,-27.923583984375,-6.28662109375,-34.48486328125
4.4874999,-2.7485435009002686,-0.7990648150444031,8.993818283081055,-18.829345703125,-27.34375,18.37158203125
4.4924999,-2.716221809387207,-1.3868412971496582,9.130887031555176,-4.119873046875,-34.97314453125,46.5087890625
4.4974999,-1.6376339197158813,-2.0231003761291504,8.905831336975098,-4.364013671875,-24.35302734375,35.64453125
4.5024999,-0.32441434264183044,-2.2194249629974365,9.260771751403809,15.9912109375,-20.904541015625,58.197021484375
4.5074999,0.5057750940322876,-2.101510524749756,9.403825759887695,26.611328125,-9.6435546875,73.42529296875
4.5124999,1.1893197298049927,-1.3090298175811768,9.673172950744629,14.251708984375,7.32421875,49.102783203125
4.5174999,1.8189947605133057,-0.26336219906806946,9.946710586547852,2.13623046875,3.35693359375,6.7138671875
4.522499900000001,2.495356798171997,0.17298106849193573,10.104728698730469,-0.823974609375,15.0146484375,-34.912109375
4.5274999000000005,-1.3024457693099976,-0.5632359385490417,9.543288230895996,-29.937744140625,-6.103515625,-44.403076171875
4.5324999,-2.3948001861572266,-0.2968810200691223,9.056666374206543,-23.406982421875,-16.7236328125,-5.2490234375
4.5374999,-2.801215887069702,-0.7793126702308655,9.239224433898926,-7.781982421875,-35.64453125,42.17529296875
4.5424999,-2.1314380168914795,-1.4736311435699463,8.834604263305664,-4.791259765625,-28.656005859375,39.6728515625
4.5474999,-0.812831461429596,-1.9889830350875854,9.02135181427002,5.462646484375,-20.69091796875,42.999267578125
4.5524999,0.11671733111143112,-2.0644004344940186,9.298480987548828,25.177001953125,-16.78466796875,72.052001953125
4.5574999,0.9127894043922424,-1.7471686601638794,9.462483406066895,19.8974609375,2.13623046875,59.14306640625
4.562499900000001,-1.9470845460891724,-0.43754035234451294,9.07103157043457,-24.169921875,-10.1318359375,-16.357421875
4.5674999000000005,-2.6856956481933594,-0.9487023949623108,8.999205589294434,-13.153076171875,-32.073974609375,31.585693359375
4.5724999,-2.209848165512085,-1.534683346748352,8.771756172180176,-3.509521484375,-29.60205078125,40.1611328125
4.5774999,-1.1791443824768066,-2.102707624435425,8.886677742004395,-0.30517578125,-19.866943359375,34.3017578125
4.5824999,-0.03950432687997818,-2.0931308269500732,9.204508781433105,18.37158203125,-18.585205078125,62.31689453125
4.5874999,0.5859808921813965,-1.9381062984466553,9.43494987487793,20.111083984375,-4.486083984375,61.03515625
4.5924999,1.1725603342056274,-0.982221245765686,9.749189376831055,8.697509765625,4.69970703125,35.70556640625
4.5974999,3.005321741104126,0.3555389642715454,9.949105262756348,11.138916015625,36.865234375,-25.726318359375
4.602499900000001,2.6390087604522705,-0.18375498056411743,9.9772367477417,9.857177734375,34.36279296875,-43.9453125
4.6074999000000005,1.690904974937439,-0.5554547905921936,9.875483512878418,2.25830078125,15.472412109375,-48.553466796875
4.6124999,-0.16759411990642548,-0.2669534981250763,9.600749015808105,-15.838623046875,-5.18798828125,-32.012939453125
4.6174999,-1.5275006294250488,-0.829590916633606,9.430161476135254,-24.444580078125,-8.331298828125,-16.845703125
4.6224999,-2.411559581756592,-0.7026981711387634,8.926780700683594,-17.669677734375,-25.665283203125,20.5078125
4.6274999,-2.299032211303711,-1.1306617259979248,8.943540573120117,-4.2724609375,-27.03857421875,36.895751953125
4.6324999,-1.3263877630233765,-1.6430208683013916,8.83939266204834,-2.62451171875,-16.9677734375,29.937744140625
4.6374999,-0.13347674906253815,-1.7459715604782104,9.067440032958984,10.498046875,-14.6484375,45.074462890625
4.6424999,0.6961141228675842,-1.6202759742736816,9.363722801208496,16.90673828125,-7.14111328125,44.036865234375
4.647499900000001,1.456871747970581,-0.9343371987342834,9.623494148254395,9.21630859375,2.25830078125,14.09912109375
4.6524999000000005,1.335964560508728,-0.09217676520347595,9.829395294189453,3.692626953125,17.852783203125,-46.69189453125
4.6574999,-0.0867898091673851,0.0005985504249110818,9.891644477844238,-12.481689453125,-0.42724609375,-26.458740234375
4.6624999,-1.2952631711959839,0.08918401598930359,9.594164848327637,-20.56884765625,-7.9345703125,-8.11767578125
4.6674999,-2.1272482872009277,0.02513911761343479,9.636661529541016,-16.845703125,-24.71923828125,26.7333984375
4.6724999,-2.1475989818573,-0.5734112858772278,9.546280860900879,-7.8125,-25.665283203125,33.447265625
4.6774999,-1.4000093936920166,-1.2288240194320679,9.497797966003418,-5.37109375,-19.95849609375,32.318115234375
4.6824999,-0.284311443567276,-1.568800687789917,9.436745643615723,7.4462890625,-17.02880859375,43.243408203125
4.687499900000001,0.6416460275650024,-1.643619418144226,9.546878814697266,15.0146484375,-7.049560546875,35.0341796875
4.6924999000000005,1.5233107805252075,-1.1641805171966553,9.583989143371582,8.544921875,2.0751953125,2.288818359375
4.6974999,1.6747441291809082,-0.5159504413604736,9.983820915222168,6.439208984375,22.88818359375,-46.2646484375
4.7024999,0.812831461429596,0.2454056739807129,9.982025146484375,0.152587890625,14.373779296875,-39.12353515625
4.7074999,0.812831461429596,0.2454056739807129,9.982025146484375,0.152587890625,14.373779296875,-39.12353515625
4.7124999,-0.4387374520301819,0.060453593730926514,10.158597946166992,-12.542724609375,-0.244140625,-11.322021484375
4.7174999,-1.3664906024932861,0.5925649404525757,9.910199165344238,-20.233154296875,-15.869140625,13.61083984375
4.7224999,-1.820790410041809,0.12210428714752197,9.988609313964844,-14.22119140625,-26.123046875,30.975341796875
4.727499900000001,-1.50355863571167,-0.7170634269714355,9.560646057128906,-7.171630859375,-21.575927734375,35.94970703125
4.7324999000000005,-0.641047477722168,-1.5658079385757446,9.445724487304688,4.8828125,-15.380859375,38.909912109375
4.7374999,0.2783259451389313,-1.9165585041046143,9.319430351257324,15.68603515625,-9.82666015625,41.9921875
4.7424999,1.1204863786697388,-1.6777368783950806,9.41400146484375,14.801025390625,0.396728515625,17.791748046875
4.7474999,2.1793220043182373,-0.3423708379268646,9.797073364257812,2.99072265625,18.768310546875,-32.745361328125
4.7524999,2.3469161987304688,0.025737667456269264,9.964069366455078,7.049560546875,25.146484375,-23.37646484375
4.7574999,2.0883424282073975,-0.32441434264183044,10.028712272644043,10.55908203125,27.16064453125,-46.539306640625
4.7624999,1.357512354850769,-0.10893617570400238,9.922170639038086,7.080078125,20.233154296875,-51.605224609375
4.7674999,-0.02274491637945175,0.04429273307323456,9.932944297790527,-10.833740234375,1.312255859375,-23.8037109375
4.772499900000001,-1.2767080068588257,0.17717093229293823,9.643844604492188,-20.8740234375,-11.077880859375,-3.47900390625
4.7774999000000005,-2.142810583114624,0.17298106849193573,9.647436141967773,-18.035888671875,-28.411865234375,33.172607421875
4.7824999,-2.029684543609619,-0.641047477722168,9.425373077392578,-8.880615234375,-26.42822265625,35.308837890625
4.7874999,-1.2246341705322266,-1.467047095298767,9.437943458557129,-1.46484375,-17.7001953125,36.712646484375
4.7924999,-0.011372458189725876,-1.844732403755188,9.360730171203613,10.833740234375,-13.24462890625,47.7294921875
4.7974999,0.9139865040779114,-1.8393454551696777,9.481637001037598,14.70947265625,-2.410888671875,28.1982421875
4.8024999,2.1571757793426514,-0.04967968538403511,10.002376556396484,7.87353515625,24.169921875,-39.398193359375
4.8074999,1.427542805671692,0.10175357013940811,10.003573417663574,4.638671875,20.5078125,-53.680419921875
4.812499900000001,0.05147533491253853,0.3315969407558441,10.014945983886719,-10.80322265625,3.0517578125,-23.345947265625
4.8174999000000005,-1.159990668296814,0.4357447028160095,9.8599214553833,-22.674560546875,-9.796142578125,0.274658203125
4.8224999,-1.9333178997039795,0.3196259140968323,9.792284965515137,-23.406982421875,-27.191162109375,27.9541015625
4.8274999,-1.8602946996688843,-0.5758054852485657,9.577404975891113,-11.3525390625,-27.4658203125,38.87939453125
4.8324999,-1.0271124839782715,-1.6352397203445435,9.315838813781738,-2.471923828125,-19.22607421875,41.3818359375
4.8374999,0.1107318252325058,-2.205059766769409,9.181164741516113,16.2353515625,-12.939453125,51.7578125
4.8424999,0.9738415479660034,-2.2619221210479736,9.249998092651367,20.782470703125,-1.64794921875,35.15625
4.8474999,1.7531541585922241,-1.4413094520568848,9.421183586120605,8.60595703125,5.4931640625,-11.1083984375
4.852499900000001,2.1733365058898926,-0.6200982332229614,9.788095474243164,3.60107421875,16.876220703125,-40.0390625
4.8574999000000005,2.094926595687866,0.09576806426048279,10.126276016235352,7.99560546875,24.658203125,-40.130615234375
4.8624999,1.335964560508728,0.38546648621559143,10.249577522277832,4.0283203125,20.172119140625,-60.821533203125
4.8674999,-0.07003039866685867,0.4106055796146393,10.22144603729248,-11.474609375,3.11279296875,-32.16552734375
4.8724999,-1.2587515115737915,0.7709329724311829,9.992799758911133,-20.44677734375,-11.322021484375,6.439208984375
4.8774999,-2.007538080215454,0.4985924959182739,9.99220085144043,-19.561767578125,-28.839111328125,37.04833984375
4.8824999,-0.9612720012664795,-1.2946646213531494,9.315239906311035,-0.823974609375,-19.83642578125,44.342041015625
4.8874999,0.19632454216480255,-1.8932149410247803,9.172186851501465,17.88330078125,-11.383056640625,56.427001953125
4.8924999,1.1366472244262695,-1.974617838859558,9.223063468933105,18.00537109375,0.640869140625,30.059814453125
4.897499900000001,1.8896236419677734,-1.258152961730957,9.463082313537598,6.9580078125,7.26318359375,-20.08056640625
4.9024999000000005,2.296039342880249,-0.5776011347770691,9.797672271728516,3.875732421875,20.599365234375,-42.8466796875
4.9074999,2.3918075561523438,0.06344634294509888,10.003573417663574,5.55419921875,27.52685546875,-28.900146484375
4.9124999,0.8649053573608398,0.5943605899810791,10.231022834777832,-5.859375,13.36669921875,-64.056396484375
4.9174999,-0.6859387755393982,0.679354727268219,10.36569595336914,-18.9208984375,-2.3193359375,-36.712646484375
4.9224999,-1.6148890256881714,0.8337807655334473,10.220248222351074,-25.299072265625,-16.082763671875,9.063720703125
4.9274999,-2.0446481704711914,0.29807811975479126,10.266336441040039,-22.796630859375,-31.829833984375,46.142578125
4.9324999,-1.3808557987213135,-0.6649895310401917,9.677363395690918,-19.744873046875,-26.79443359375,45.71533203125
4.937499900000001,-0.1562216579914093,-1.8746598958969116,9.181164741516113,6.561279296875,-19.378662109375,57.7392578125
4.9424999000000005,0.8433575630187988,-2.5755624771118164,8.954314231872559,35.82763671875,-8.1787109375,69.366455078125
4.9474999,1.6238672733306885,-2.492363929748535,8.767566680908203,24.96337890625,5.950927734375,24.627685546875
4.9524999,2.056020736694336,-1.5532383918762207,9.320627212524414,8.6669921875,12.451171875,-37.445068359375
4.9574999,2.1062989234924316,-0.4985924959182739,9.816825866699219,5.584716796875,25.08544921875,-46.38671875
4.9624999,1.9632453918457031,0.29209262132644653,10.141240119934082,5.0048828125,26.4892578125,-28.62548828125
4.9674999,1.2330138683319092,0.7128735780715942,10.421361923217773,1.77001953125,21.392822265625,-61.58447265625
4.9724999,0.06703764945268631,0.750582218170166,10.474632263183594,-9.307861328125,6.2255859375,-61.798095703125
4.977499900000001,-1.1354501247406006,0.767341673374176,10.342352867126465,-18.85986328125,-7.415771484375,-21.240234375
4.9824999000000005,-1.6932991743087769,0.6242880821228027,10.317811965942383,-18.707275390625,-22.8271484375,35.7666015625
4.9874999,-1.623268723487854,-0.21428105235099792,9.90361499786377,-15.7470703125,-28.564453125,50.628662109375
4.9924999,-0.861314058303833,-1.323395013809204,9.41639518737793,-4.5166015625,-22.705078125,43.365478515625
4.9974999,0.11133038252592087,-2.1062989234924316,9.208698272705078,21.54541015625,-14.190673828125,62.3779296875
5.0024999,0.933738648891449,-2.389413356781006,9.03870964050293,23.895263671875,-0.823974609375,45.8984375
5.0074999,1.7304092645645142,-1.5909470319747925,9.262567520141602,11.016845703125,7.171630859375,-7.50732421875
5.0124999,2.24935245513916,-0.6290764808654785,9.679757118225098,4.913330078125,18.035888671875,-47.393798828125
5.0174999,2.3750481605529785,0.19452889263629913,9.956287384033203,5.18798828125,27.862548828125,-31.524658203125
5.022499900000001,2.0655975341796875,0.18974047899246216,10.174758911132812,5.340576171875,24.59716796875,-44.37255859375
5.0274999000000005,1.037886381149292,0.6769605278968811,10.175955772399902,-0.518798828125,15.380859375,-64.27001953125
5.0324999,-1.4873977899551392,0.7110779285430908,10.141838073730469,-19.805908203125,-16.4794921875,18.12744140625
5.0374999,-2.0386626720428467,0.2944868206977844,10.183736801147461,-15.07568359375,-28.6865234375,46.142578125
5.0424999,-0.6374561786651611,-1.5005658864974976,9.485827445983887,9.368896484375,-16.845703125,51.300048828125
5.0474999,0.40043023228645325,-1.997362732887268,9.252392768859863,20.3857421875,-6.561279296875,54.046630859375
5.0524999,1.4730325937271118,-1.756745457649231,9.282320022583008,12.908935546875,3.570556640625,14.16015625
5.0574999,2.2816741466522217,-1.0079588890075684,9.569025993347168,5.462646484375,12.237548828125,-36.92626953125
5.062499900000001,2.5336639881134033,-0.4225766062736511,9.818022727966309,5.157470703125,26.824951171875,-39.947509765625
5.0674999000000005,2.5007436275482178,-0.047884032130241394,9.96825885772705,5.889892578125,27.069091796875,-32.04345703125
5.0724999,1.6765397787094116,0.2902969419956207,10.179547309875488,3.11279296875,20.294189453125,-63.78173828125
5.0774999,0.28550854325294495,0.272938996553421,10.273519515991211,-8.087158203125,5.462646484375,-45.34912109375
5.0824999,-1.0307037830352783,0.5638344883918762,10.129268646240234,-16.693115234375,-8.7890625,0.762939453125
5.0874999,-1.8429367542266846,-0.32620999217033386,9.701305389404297,-11.474609375,-26.67236328125,42.999267578125
5.0924999,-1.1785458326339722,-1.212663173675537,9.48462963104248,1.220703125,-19.378662109375,43.27392578125
5.0974999,-0.07422025501728058,-1.810615062713623,9.296086311340332,17.08984375,-10.284423828125,52.825927734375
5.102499900000001,0.993593692779541,-1.9219454526901245,9.29189682006836,14.984130859375,0.30517578125,24.749755859375
5.1074999000000005,1.913565754890442,-1.183334231376648,9.496002197265625,7.50732421875,8.697509765625,-24.2919921875
5.1124999,2.403778553009033,-0.5859808921813965,9.758766174316406,5.18798828125,22.796630859375,-43.45703125
5.1174999,2.5264813899993896,-0.046088382601737976,9.885659217834473,6.34765625,26.947021484375,-27.923583984375
5.1224999,-2.1505916118621826,0.09876082092523575,9.979631423950195,-11.04736328125,-29.022216796875,42.1142578125
5.1274999,-0.6111199855804443,-1.4957774877548218,9.569025993347168,12.237548828125,-12.420654296875,53.955078125
5.1324999,0.5991489887237549,-1.7920600175857544,9.437344551086426,14.495849609375,-4.119873046875,39.0625
5.1374999,1.7411831617355347,-1.216254472732544,9.506776809692383,7.720947265625,5.0048828125,-5.4931640625
5.1424999,2.540247917175293,-0.70090252161026,9.695918083190918,4.2724609375,19.561767578125,-44.342041015625
5.147499900000001,2.871246337890625,-0.12090718746185303,9.767146110534668,6.40869140625,28.62548828125,-29.47998046875
5.1524999000000005,2.5701754093170166,-0.4537012279033661,9.926959037780762,6.622314453125,24.4140625,-51.1474609375
5.1574999,1.4730325937271118,0.32441434264183044,9.886856079101562,2.3193359375,15.045166015625,-58.929443359375
5.1624999,-0.23702596127986908,-0.16220717132091522,10.126874923706055,-11.077880859375,0.457763671875,-23.25439453125
5.1674999,-1.492186188697815,0.5339069962501526,9.856928825378418,-17.08984375,-16.17431640625,20.599365234375
5.1724999,-2.2457611560821533,0.12928688526153564,9.996989250183105,-11.71875,-28.62548828125,44.677734375
5.1774999,-2.073378562927246,-0.6218938827514648,9.57441234588623,-7.14111328125,-23.468017578125,38.9404296875
