# Time (seconds),Accel_X,Accel_Y,Accel_Z,Gyro_X,Gyro_Y,Gyro_Z
0.0024999,0.8433575630187988,-0.518943190574646,9.888052940368652,-1.495361328125,0.6103515625,2.410888671875
0.0074999,0.8433575630187988,-0.518943190574646,9.888052940368652,-1.495361328125,0.6103515625,2.410888671875
0.012499900000000001,0.7565677165985107,-0.6242880821228027,9.718064308166504,-3.7841796875,-0.030517578125,-2.44140625
0.0174999,0.8164227604866028,-0.5297171473503113,9.820416450500488,6.89697265625,-0.640869140625,0.244140625
0.0224999,0.7745242714881897,-0.5141547918319702,9.88506031036377,-5.55419921875,0,1.220703125
0.0274999,0.7140706777572632,-0.5758054852485657,9.657012939453125,0.640869140625,-0.67138671875,-2.8076171875
0.0324999,0.7936778664588928,-0.4411316514015198,9.82640266418457,4.913330078125,-0.091552734375,1.708984375
0.0374999,0.7553706169128418,-0.5081692934036255,9.744400978088379,-7.049560546875,0.030517578125,-0.30517578125
0.0424999,0.8619126081466675,-0.4704606235027313,9.9185791015625,0.762939453125,0.3662109375,2.3193359375
0.0474999,0.7978677153587341,-0.6129156351089478,9.771934509277344,-5.950927734375,0.030517578125,-1.77001953125
0.0524999,0.8212111592292786,-0.5614402890205383,9.791686058044434,6.927490234375,-0.54931640625,-0.640869140625
0.0574999,0.8355764150619507,-0.5093663930892944,9.862914085388184,-3.23486328125,0.244140625,1.800537109375
0.0624999,0.760757565498352,-0.5997475385665894,9.63187313079834,-2.044677734375,-0.06103515625,-2.716064453125
0.0674999,0.8038532137870789,-0.45250412821769714,9.740809440612793,6.256103515625,-0.30517578125,0.8544921875
0.0724999,0.7763199210166931,-0.5015852451324463,9.768941879272461,-6.591796875,0.091552734375,0.823974609375
0.0774999,0.7230489253997803,-0.547075092792511,9.621099472045898,1.922607421875,-0.640869140625,-2.685546875
0.0824999,0.7960720658302307,-0.4812345504760742,9.835380554199219,3.72314453125,0.30517578125,2.044677734375
0.0874999,0.7733271718025208,-0.5811924338340759,9.730634689331055,-6.591796875,0.518798828125,-0.762939453125
0.0924999,0.760757565498352,-0.6021417379379272,9.692327499389648,5.18798828125,-0.396728515625,-1.739501953125
0.0974999,0.8487445116043091,-0.5315127968788147,9.915586471557617,-0.152587890625,0.244140625,2.38037109375
0.1024999,0.8008604645729065,-0.5524620413780212,9.824606895446777,6.77490234375,-0.18310546875,-0.396728515625
0.1074999,0.8170213103294373,-0.4985924959182739,9.875483512878418,-3.631591796875,0.518798828125,1.800537109375
0.1124999,0.7457938194274902,-0.5716156363487244,9.650428771972656,-1.800537109375,-0.54931640625,-2.716064453125
0.1174999,0.7978677153587341,-0.44352585077285767,9.744400978088379,5.767822265625,-0.152587890625,1.007080078125
0.1224999,0.768538773059845,-0.4967968463897705,9.742006301879883,-6.53076171875,0.091552734375,0.54931640625
0.1274999,0.7224503755569458,-0.5482721924781799,9.603142738342285,2.166748046875,-0.152587890625,-2.74658203125
0.1324999,0.7966706156730652,-0.4842272996902466,9.821015357971191,3.41796875,0.18310546875,2.227783203125
0.1374999,0.7697358727455139,-0.5781996846199036,9.738415718078613,-6.500244140625,0.18310546875,-0.762939453125
0.1424999,0.7589619159698486,-0.6033388376235962,9.709685325622559,4.82177734375,-0.48828125,-1.8310546875
0.1474999,0.839766263961792,-0.5279214978218079,9.9371337890625,0.1220703125,0.244140625,2.3193359375
0.1524999,0.7553706169128418,-0.6476315855979919,9.778518676757812,-5.340576171875,-0.1220703125,-1.708984375
0.1574999,0.7912836670875549,-0.5626373887062073,9.803657531738281,6.378173828125,-0.54931640625,-0.6103515625
0.1624999,0.7487865686416626,-0.5901707410812378,9.64803409576416,-2.410888671875,-0.030517578125,-2.655029296875
0.1674999,0.7942764163017273,-0.44532153010368347,9.708487510681152,6.34765625,-0.18310546875,0.732421875
0.1724999,0.7751228213310242,-0.48722004890441895,9.79288387298584,-5.279541015625,0.274658203125,0.9765625
0.17749990000000002,0.7044938206672668,-0.5590460896492004,9.616311073303223,0.6103515625,-0.42724609375,-2.685546875
0.1824999,0.7978677153587341,-0.4602852761745453,9.82879638671875,4.425048828125,0.274658203125,1.739501953125
0.1874999,0.7374141216278076,-0.5596446394920349,9.766547203063965,-6.439208984375,0.6103515625,-0.18310546875
0.1924999,0.7583633661270142,-0.5913678407669067,9.697713851928711,4.0283203125,-0.152587890625,-2.25830078125
0.1974999,0.8337807655334473,-0.5159504413604736,9.87967300415039,1.678466796875,0.457763671875,2.0751953125
0.2024999,0.7745242714881897,-0.6159083843231201,9.756970405578613,-5.859375,-0.1220703125,-1.495361328125
0.20749990000000001,0.7924807667732239,-0.5710170865058899,9.727641105651855,5.462646484375,-0.30517578125,-1.251220703125
0.2124999,0.8457517623901367,-0.5171475410461426,9.872490882873535,-1.251220703125,0.274658203125,2.01416015625
0.2174999,0.8170213103294373,-0.5291185975074768,9.762955665588379,6.65283203125,-0.274658203125,0.091552734375
0.2224999,0.8206126093864441,-0.4878185987472534,9.821614265441895,-3.84521484375,0.79345703125,1.64794921875
0.2274999,0.7703344225883484,-0.5871779918670654,9.649829864501953,-1.3427734375,-0.54931640625,-2.74658203125
0.2324999,0.8146271109580994,-0.45190557837486267,9.749189376831055,6.04248046875,0,0.8544921875
0.2374999,0.7924807667732239,-0.5213374495506287,9.773730278015137,-5.859375,0.79345703125,0.79345703125
0.2424999,0.7451952695846558,-0.5548562407493591,9.752182006835938,-6.561279296875,0.06103515625,-0.213623046875
0.2474999,0.7451952695846558,-0.5548562407493591,9.752182006835938,-6.561279296875,0.06103515625,-0.213623046875
0.2524999,0.750582218170166,-0.5883750915527344,9.70310115814209,3.90625,-0.48828125,-1.953125
0.2574999,0.8409633636474609,-0.5021837949752808,9.896432876586914,1.617431640625,0.152587890625,2.105712890625
0.2624999,0.778714120388031,-0.6087257862091064,9.767744064331055,-5.79833984375,-0.18310546875,-1.3427734375
0.2674999,0.8026561141014099,-0.5662286877632141,9.739013671875,5.7373046875,-0.518798828125,-1.15966796875
0.2724999,0.7727286219596863,-0.618302583694458,9.697713851928711,-4.33349609375,-0.152587890625,-2.3193359375
0.2774999,0.823006808757782,-0.5339069962501526,9.7605619430542,6.2255859375,-0.030517578125,-0.396728515625
0.2824999,0.8224082589149475,-0.4902127981185913,9.82640266418457,-3.570556640625,0.640869140625,1.708984375
0.28749990000000003,0.7817068696022034,-0.579995334148407,9.680954933166504,-2.01416015625,-0.335693359375,-2.410888671875
0.2924999,0.823006808757782,-0.4602852761745453,9.747393608093262,5.828857421875,-0.06103515625,0.762939453125
0.2974999,0.7984662652015686,-0.5135562419891357,9.829395294189453,-5.126953125,0.457763671875,0.762939453125
0.3024999,0.7080851793289185,-0.569819986820221,9.638457298278809,0.67138671875,-0.518798828125,-2.74658203125
0.3074999,0.7829039692878723,-0.48722004890441895,9.822212219238281,4.7607421875,-0.18310546875,1.5869140625
0.3124999,0.7230489253997803,-0.545877993106842,9.764153480529785,-6.195068359375,0,0.213623046875
0.3174999,0.7260416746139526,-0.5829881429672241,9.682151794433594,2.655029296875,-0.244140625,-2.38037109375
0.3224999,0.8146271109580994,-0.50876784324646,9.852738380432129,2.716064453125,0.18310546875,1.922607421875
0.3274999,0.7751228213310242,-0.5943605899810791,9.767146110534668,-5.9814453125,0.274658203125,-0.91552734375
0.3324999,0.8637082576751709,-0.5135562419891357,9.885659217834473,0.42724609375,0.42724609375,2.166748046875
0.3374999,0.7924807667732239,-0.6123170852661133,9.767146110534668,-5.37109375,0.06103515625,-1.861572265625
0.3424999,0.8289923667907715,-0.5380968451499939,9.750386238098145,5.828857421875,-0.42724609375,-1.007080078125
0.34749990000000003,0.8583213090896606,-0.4967968463897705,9.88506031036377,-1.8310546875,0.457763671875,2.3193359375
0.35249990000000003,0.7829039692878723,-0.5776011347770691,9.691129684448242,-3.875732421875,0,-2.197265625
0.3574999,0.8182184100151062,-0.5051765441894531,9.7605619430542,6.256103515625,0,-0.213623046875
0.3624999,0.7966706156730652,-0.4776432514190674,9.824606895446777,-3.5400390625,0.274658203125,1.678466796875
0.3674999,0.7541735172271729,-0.5913678407669067,9.691129684448242,-1.373291015625,-0.518798828125,-2.5634765625
0.3724999,0.7912836670875549,-0.4776432514190674,9.758766174316406,5.79833984375,0,0.79345703125
0.3774999,0.7924807667732239,-0.5279214978218079,9.832387924194336,-5.06591796875,0.274658203125,0.8544921875
0.3824999,0.7098808288574219,-0.5656301379203796,9.65222454071045,0.18310546875,-0.518798828125,-2.716064453125
0.3874999,0.790086567401886,-0.48243165016174316,9.816825866699219,4.730224609375,0.152587890625,1.373291015625
0.3924999,0.7320271730422974,-0.5770025849342346,9.671976089477539,2.227783203125,-0.91552734375,-2.50244140625
0.3974999,0.8415619134902954,-0.5081692934036255,9.830592155456543,3.204345703125,0,1.8310546875
0.4024999,0.7906851172447205,-0.5817909836769104,9.764751434326172,-5.767822265625,0.396728515625,-0.42724609375
0.4074999,0.7960720658302307,-0.5997475385665894,9.721057891845703,3.96728515625,-0.396728515625,-2.0751953125
0.41249990000000003,0.871489405632019,-0.5117605924606323,9.87967300415039,1.52587890625,0.335693359375,1.953125
0.41749990000000003,0.8044517636299133,-0.5949591398239136,9.786299705505371,-5.9814453125,-0.030517578125,-1.129150390625
0.4224999,0.800261914730072,-0.5518634915351868,9.740809440612793,4.974365234375,0,-1.220703125
0.4274999,0.8457517623901367,-0.4836287498474121,9.905410766601562,-0.396728515625,0.67138671875,1.89208984375
0.4324999,0.7577648162841797,-0.5859808921813965,9.752182006835938,-4.791259765625,0.18310546875,-1.8310546875
0.4374999,0.7924807667732239,-0.5237316489219666,9.747992515563965,5.92041015625,-0.30517578125,-0.701904296875
0.4424999,0.8182184100151062,-0.48901569843292236,9.847949981689453,-1.89208984375,0.30517578125,1.708984375
0.4474999,0.7571662664413452,-0.5680243372917175,9.649829864501953,-3.35693359375,-0.335693359375,-2.25830078125
0.4524999,0.7829039692878723,-0.4734533727169037,9.791686058044434,-3.570556640625,0.48828125,1.617431640625
0.4574999,0.7481880187988281,-0.5901707410812378,9.699509620666504,-1.953125,-0.18310546875,-2.471923828125
0.4624999,0.7876923680305481,-0.4944026470184326,9.7605619430542,5.767822265625,-0.30517578125,0.518798828125
0.4674999,0.7960720658302307,-0.5315127968788147,9.861717224121094,-4.94384765625,0.06103515625,0.9765625
0.47249990000000003,0.7338228225708008,-0.5943605899810791,9.677961349487305,-0.030517578125,-0.457763671875,-2.5634765625
0.47749990000000003,0.788889467716217,-0.4926069974899292,9.803058624267578,5.18798828125,-0.091552734375,1.129150390625
0.4824999,0.7469909191131592,-0.5805938839912415,9.682151794433594,3.143310546875,-0.30517578125,-2.13623046875
0.4874999,0.8140285611152649,-0.5147533416748047,9.841365814208984,2.593994140625,0.213623046875,1.922607421875
0.4924999,0.8391677141189575,-0.49140989780426025,9.86231517791748,1.03759765625,0.18310546875,2.166748046875
0.4974999,0.7852981686592102,-0.5740098357200623,9.762357711791992,-5.645751953125,-0.1220703125,-1.190185546875
0.5024999,0.7978677153587341,-0.5404910445213318,9.714473724365234,4.82177734375,-0.274658203125,-1.46484375
0.5074999,0.8523358106613159,-0.4902127981185913,9.881468772888184,-0.396728515625,0.42724609375,2.166748046875
0.5124999,0.7655459642410278,-0.6063315868377686,9.724050521850586,-4.57763671875,-0.213623046875,-1.739501953125
0.5174999,0.8074445128440857,-0.5554547905921936,9.730035781860352,5.7373046875,-0.06103515625,-0.823974609375
0.5224999,0.8331822156906128,-0.5225345492362976,9.856928825378418,-1.46484375,0.3662109375,2.0751953125
0.5274999,0.7751228213310242,-0.5889736413955688,9.673172950744629,-3.631591796875,-0.335693359375,-2.0751953125
0.5324999,0.8104372620582581,-0.50876784324646,9.727641105651855,5.645751953125,-0.18310546875,-0.213623046875
0.5374999,0.8062474131584167,-0.4668693244457245,9.802460670471191,-3.082275390625,0.42724609375,1.46484375
0.5424999,0.7529764175415039,-0.5566518902778625,9.685144424438477,-2.838134765625,-0.335693359375,-2.3193359375
0.5474999,0.7882909178733826,-0.48722004890441895,9.764153480529785,6.256103515625,-0.030517578125,0.30517578125
0.5524999,0.8032546639442444,-0.4991910457611084,9.837775230407715,-3.753662109375,0.274658203125,1.3427734375
0.5574999,0.7739257216453552,-0.6135141849517822,9.722254753112793,-1.28173828125,-0.244140625,-2.50244140625
0.5624999,0.823006808757782,-0.5015852451324463,9.770736694335938,5.615234375,0.30517578125,0.640869140625
0.5674999000000001,0.8224082589149475,-0.5440823435783386,9.85034465789795,-4.730224609375,0.335693359375,1.03759765625
0.5724999000000001,0.7565677165985107,-0.5871779918670654,9.67077922821045,-0.244140625,-0.335693359375,-2.349853515625
0.5774999000000001,0.7846996188163757,-0.4967968463897705,9.800664901733398,5.0048828125,0.18310546875,1.03759765625
0.5824999,0.7589619159698486,-0.5500678420066833,9.819818496704102,-5.55419921875,0.335693359375,0.579833984375
0.5874999,0.6835445761680603,-0.5764040350914001,9.6618013381958,1.0986328125,-0.732421875,-2.62451171875
0.5924999,0.800261914730072,-0.49559974670410156,9.816226959228516,4.119873046875,-0.244140625,1.312255859375
0.5974999,0.7649474143981934,-0.5398924946784973,9.783307075500488,-5.67626953125,0.1220703125,0.030517578125
0.6024999,0.7637503147125244,-0.5566518902778625,9.667786598205566,1.953125,-0.54931640625,-2.197265625
0.6074999,0.7984662652015686,-0.557250440120697,9.765948295593262,-5.859375,0.213623046875,-0.274658203125
0.6124999,0.7709329724311829,-0.5835866928100586,9.70310115814209,3.387451171875,-0.152587890625,-2.197265625
0.6174999,0.8349778652191162,-0.5267243981361389,9.847352027893066,2.349853515625,0.54931640625,1.861572265625
0.6224999,0.7661445140838623,-0.5991489887237549,9.787496566772461,-5.584716796875,0.3662109375,-0.79345703125
0.6274999,0.7613561153411865,-0.6093243360519409,9.729436874389648,3.90625,-0.335693359375,-1.800537109375
0.6324999,0.8349778652191162,-0.5051765441894531,9.86889934539795,1.0986328125,0.518798828125,1.983642578125
0.6374999,0.7799112200737,-0.579995334148407,9.763554573059082,-5.645751953125,0.152587890625,-1.251220703125
0.6424999,0.768538773059845,-0.5386953949928284,9.707290649414062,4.82177734375,-0.244140625,-1.40380859375
0.6474999,0.8277952671051025,-0.45489832758903503,9.848548889160156,0.30517578125,0.30517578125,2.0751953125
0.6524999,0.7350199222564697,-0.5566518902778625,9.712677955627441,-4.8828125,-0.274658203125,-1.678466796875
0.6574999,0.7625532150268555,-0.5213374495506287,9.70549488067627,5.31005859375,-0.42724609375,-1.28173828125
0.6624999,0.8050503134727478,-0.49619829654693604,9.861717224121094,-0.732421875,0.244140625,2.01416015625
0.6674999,0.811634361743927,-0.5482721924781799,9.731232643127441,5.55419921875,-0.1220703125,-0.6103515625
0.6724999,0.8439561128616333,-0.5159504413604736,9.849146842956543,-1.861572265625,0.48828125,2.01416015625
0.6774999,0.7882909178733826,-0.5883750915527344,9.6618013381958,-3.662109375,-0.48828125,-2.13623046875
0.6824999,0.8164227604866028,-0.5015852451324463,9.707290649414062,5.828857421875,-0.48828125,-0.42724609375
0.6874999,0.8152256608009338,-0.4602852761745453,9.78989028930664,-2.685546875,0.518798828125,1.617431640625
0.6924999000000001,0.7529764175415039,-0.5440823435783386,9.677363395690918,-2.86865234375,-0.457763671875,-2.227783203125
0.6974999000000001,0.7876923680305481,-0.4692635238170624,9.75637149810791,5.79833984375,-0.335693359375,0
0.7024999000000001,0.7960720658302307,-0.47824180126190186,9.844358444213867,-3.387451171875,0.518798828125,1.495361328125
0.7074999,0.7625532150268555,-0.6039373874664307,9.755773544311523,-2.044677734375,-0.335693359375,-2.5634765625
0.7124999,0.8080430626869202,-0.5345055460929871,9.81024169921875,5.55419921875,-0.274658203125,0.335693359375
0.7174999,0.821809709072113,-0.5446808934211731,9.88745403289795,-3.997802734375,0.48828125,1.3427734375
0.7224999,0.7978677153587341,-0.628477931022644,9.73781681060791,-1.15966796875,-0.244140625,-2.62451171875
0.7274999,0.8331822156906128,-0.5219359993934631,9.834183692932129,-4.57763671875,0.06103515625,1.251220703125
0.7324999,0.7727286219596863,-0.5656301379203796,9.661202430725098,-0.274658203125,-0.3662109375,-2.471923828125
0.7374999,0.800261914730072,-0.46746787428855896,9.764153480529785,4.94384765625,0.18310546875,0.885009765625
0.7424999,0.7727286219596863,-0.517746090888977,9.804854393005371,-5.157470703125,0.1220703125,0.732421875
0.7474999,0.7056909799575806,-0.5692214369773865,9.659406661987305,0.18310546875,-0.518798828125,-2.38037109375
0.7524999,0.7763199210166931,-0.5045779943466187,9.781511306762695,4.638671875,-0.152587890625,1.129150390625
0.7574999,0.7565677165985107,-0.5680243372917175,9.805453300476074,-5.218505859375,0.18310546875,0.396728515625
0.7624999,0.7140706777572632,-0.6057330369949341,9.671378135681152,1.190185546875,-0.3662109375,-2.227783203125
0.7674999,0.8277952671051025,-0.524330198764801,9.824606895446777,4.180908203125,0.091552734375,1.40380859375
0.7724999,0.7811083197593689,-0.5614402890205383,9.800065994262695,-5.4931640625,-0.06103515625,0.06103515625
0.7774999,0.7535749673843384,-0.5644330382347107,9.683947563171387,1.922607421875,-0.396728515625,-2.349853515625
0.7824999,0.8541314601898193,-0.48602294921875,9.812037467956543,3.631591796875,0.213623046875,1.5869140625
0.7874999,0.7631517648696899,-0.5656301379203796,9.770736694335938,-5.4931640625,0.152587890625,-0.213623046875
0.7924999,0.739209771156311,-0.5895721912384033,9.688735961914062,3.082275390625,-0.457763671875,-1.983642578125
0.7974999,0.8152256608009338,-0.517746090888977,9.836577415466309,2.471923828125,0.06103515625,1.617431640625
0.8024999,0.7511807680130005,-0.596754789352417,9.767146110534668,-5.584716796875,-0.091552734375,-0.640869140625
0.8074999,0.739209771156311,-0.6057330369949341,9.713874816894531,3.692626953125,-0.579833984375,-1.922607421875
0.8124999,0.8242039084434509,-0.5147533416748047,9.846753120422363,1.922607421875,0.213623046875,1.89208984375
0.8174999000000001,0.7793126702308655,-0.5770025849342346,9.757569313049316,-5.7373046875,0.213623046875,-0.91552734375
0.8224999000000001,0.7793126702308655,-0.5770025849342346,9.757569313049316,-5.7373046875,0.213623046875,-0.91552734375
0.8274999000000001,0.7876923680305481,-0.5518634915351868,9.710882186889648,4.150390625,-0.091552734375,-1.89208984375
0.8324999000000001,0.8678981065750122,-0.44831427931785583,9.82759952545166,1.312255859375,0.244140625,1.983642578125
0.8374999,0.8487445116043091,-0.43993455171585083,9.82879638671875,0.48828125,0.518798828125,1.922607421875
0.8424999,0.8487445116043091,-0.43993455171585083,9.82879638671875,0.48828125,0.518798828125,1.922607421875
0.8474999,0.761954665184021,-0.5566518902778625,9.731831550598145,-5.0048828125,0,-1.40380859375
0.8524999,0.7589619159698486,-0.5345055460929871,9.700706481933594,4.82177734375,-0.6103515625,-1.28173828125
0.8574999,0.8104372620582581,-0.4812345504760742,9.856329917907715,0,0.091552734375,1.861572265625
0.8624999,0.7308300733566284,-0.5817909836769104,9.72165584564209,-4.82177734375,0.152587890625,-1.46484375
0.8674999,0.7625532150268555,-0.5434837937355042,9.715670585632324,5.06591796875,-0.30517578125,-0.946044921875
0.8724999,0.8074445128440857,-0.5081692934036255,9.873687744140625,-0.457763671875,0.213623046875,1.89208984375
0.8774999,0.7481880187988281,-0.6105214357376099,9.739013671875,-4.39453125,0.091552734375,-1.64794921875
0.8824999,0.8349778652191162,-0.5434837937355042,9.88506031036377,-0.885009765625,0.213623046875,1.77001953125
0.8874999,0.8349778652191162,-0.5434837937355042,9.88506031036377,-0.885009765625,0.213623046875,1.77001953125
0.8924999,0.7912836670875549,-0.6165069341659546,9.73542308807373,-4.150390625,0.091552734375,-1.708984375
0.8974999,0.7990648150444031,-0.5548562407493591,9.661202430725098,-3.997802734375,-0.18310546875,-1.861572265625
0.9024999,0.7990648150444031,-0.5548562407493591,9.661202430725098,-3.997802734375,-0.18310546875,-1.861572265625
0.9074999,0.8319851160049438,-0.48901569843292236,9.68574333190918,5.615234375,-0.30517578125,-0.640869140625
0.9124999,0.8355764150619507,-0.4626794755458832,9.785700798034668,-1.52587890625,0.48828125,1.861572265625
0.9174999,0.7655459642410278,-0.5524620413780212,9.655815124511719,-3.35693359375,-0.518798828125,-1.983642578125
0.9224999,0.7954735159873962,-0.4866214990615845,9.721057891845703,5.4931640625,-0.091552734375,-0.274658203125
0.9274999,0.7918822169303894,-0.45848962664604187,9.82759952545166,-2.349853515625,0.30517578125,1.77001953125
0.9324999,0.730231523513794,-0.545877993106842,9.707290649414062,-3.082275390625,-0.1220703125,-2.13623046875
0.9374999,0.7679402232170105,-0.4812345504760742,9.763554573059082,5.462646484375,-0.244140625,-0.152587890625
0.9424999000000001,0.7781155705451965,-0.47884035110473633,9.839570045471191,-2.716064453125,0.213623046875,1.5869140625
0.9474999000000001,0.7356184720993042,-0.5871779918670654,9.72165584564209,-2.777099609375,-0.457763671875,-2.25830078125
0.9524999000000001,0.7757213711738586,-0.5380968451499939,9.789292335510254,5.523681640625,-0.42724609375,-0.091552734375
0.9574999000000001,0.7912836670875549,-0.5596446394920349,9.800065994262695,5.584716796875,0.030517578125,0.06103515625
0.9624999,0.8104372620582581,-0.5494692921638489,9.869498252868652,-3.204345703125,0.335693359375,1.251220703125
0.9674999,0.7799112200737,-0.6338648796081543,9.75637149810791,-2.25830078125,-0.518798828125,-2.3193359375
0.9724999,0.8104372620582581,-0.5518634915351868,9.798869132995605,5.55419921875,-0.18310546875,0.274658203125
0.9774999,0.8200140595436096,-0.5380968451499939,9.853337287902832,-3.662109375,0.274658203125,1.220703125
0.9824999,0.7876923680305481,-0.6027402877807617,9.726444244384766,-1.52587890625,-0.48828125,-2.471923828125
0.9874999,0.8212111592292786,-0.5033808946609497,9.758167266845703,5.584716796875,-0.152587890625,0.42724609375
0.9924999,0.8391677141189575,-0.49978959560394287,9.817423820495605,-3.936767578125,0.091552734375,1.3427734375
0.9974999,0.812831461429596,-0.5632359385490417,9.6803560256958,-1.28173828125,-0.335693359375,-2.38037109375
1.0024999,0.8307880163192749,-0.4728548228740692,9.720458984375,5.2490234375,0.1220703125,0.3662109375
1.0074999000000002,0.8349778652191162,-0.4902127981185913,9.79288387298584,-4.08935546875,0.30517578125,1.068115234375
1.0124999000000001,0.8062474131584167,-0.4836287498474121,9.720458984375,5.43212890625,0.152587890625,0.579833984375
1.0174999000000002,0.812831461429596,-0.5057750940322876,9.799467086791992,-4.21142578125,0.244140625,1.0986328125
1.0224999000000001,0.7769184708595276,-0.5835866928100586,9.661202430725098,-0.6103515625,-0.335693359375,-2.593994140625
1.0274999,0.7960720658302307,-0.4812345504760742,9.750985145568848,5.218505859375,0,0.640869140625
1.0324999000000001,0.7990648150444031,-0.5171475410461426,9.824606895446777,-4.638671875,0.091552734375,1.03759765625
1.0374999,0.7428010702133179,-0.5859808921813965,9.685144424438477,-0.579833984375,-0.3662109375,-2.471923828125
1.0424999000000001,0.761954665184021,-0.4770447015762329,9.77672290802002,4.94384765625,-0.18310546875,0.79345703125
1.0474999,0.760757565498352,-0.52552729845047,9.831191062927246,-4.791259765625,0.1220703125,0.885009765625
1.0524999000000002,0.7200561761856079,-0.5805938839912415,9.683947563171387,-0.30517578125,-0.244140625,-2.532958984375
1.0574999,0.7613561153411865,-0.49320554733276367,9.763554573059082,5.096435546875,0.244140625,0.946044921875
1.0624999000000002,0.7733271718025208,-0.5374982953071594,9.80904483795166,-4.57763671875,0.152587890625,0.8544921875
1.0674999,0.7350199222564697,-0.596754789352417,9.667786598205566,-0.06103515625,-0.1220703125,-2.532958984375
1.0724999000000002,0.7697358727455139,-0.5464765429496765,9.823410034179688,-4.94384765625,0.396728515625,0.701904296875
1.0774999,0.7224503755569458,-0.5961562395095825,9.704896926879883,0.06103515625,-0.42724609375,-2.532958984375
1.0824999000000002,0.7637503147125244,-0.5027823448181152,9.812037467956543,4.7607421875,0.030517578125,1.068115234375
1.0874999,0.7541735172271729,-0.5452794432640076,9.862914085388184,-4.82177734375,0.335693359375,0.732421875
1.0924999000000002,0.7098808288574219,-0.5889736413955688,9.728240013122559,0.30517578125,-0.396728515625,-2.5634765625
1.0974999,0.7739257216453552,-0.5117605924606323,9.827000617980957,4.364013671875,0.06103515625,0.9765625
1.1024999000000002,0.7751228213310242,-0.5710170865058899,9.86111831665039,-4.852294921875,0.48828125,0.762939453125
1.1074999,0.739209771156311,-0.6165069341659546,9.704896926879883,0.640869140625,-0.42724609375,-2.227783203125
1.1124999000000002,0.812831461429596,-0.5482721924781799,9.81263542175293,4.669189453125,0.030517578125,0.946044921875
1.1174999,0.7972691655158997,-0.5883750915527344,9.836577415466309,-4.974365234375,0.42724609375,0.54931640625
1.1224999000000002,0.7511807680130005,-0.6218938827514648,9.698312759399414,0.6103515625,-0.6103515625,-2.410888671875
1.1274999,0.8254010081291199,-0.5345055460929871,9.822212219238281,4.21142578125,-0.213623046875,1.007080078125
1.1324999000000002,0.7553706169128418,-0.6015431880950928,9.71926212310791,0.946044921875,-0.244140625,-2.288818359375
1.1374999000000001,0.8271966576576233,-0.5225345492362976,9.844358444213867,4.39453125,0.1220703125,1.15966796875
1.1424999000000002,0.7918822169303894,-0.5620388388633728,9.852140426635742,-5.126953125,0,0.54931640625
1.1474999000000001,0.7487865686416626,-0.5937620401382446,9.716867446899414,1.068115234375,-0.3662109375,-2.349853515625
1.1524999000000002,0.823006808757782,-0.5129576921463013,9.82999324798584,4.241943359375,0.457763671875,1.251220703125
1.1574999000000001,0.7966706156730652,-0.5494692921638489,9.837176322937012,-5.218505859375,0.1220703125,0.335693359375
1.1624999,0.7535749673843384,-0.5746083855628967,9.701904296875,1.068115234375,-0.335693359375,-2.471923828125
1.1674999000000001,0.8367735147476196,-0.4866214990615845,9.825803756713867,4.150390625,0,1.220703125
1.1724999,0.8026561141014099,-0.5309142470359802,9.813833236694336,-5.462646484375,0,0.3662109375
1.1774999000000002,0.7613561153411865,-0.5632359385490417,9.690531730651855,1.220703125,-0.42724609375,-2.349853515625
1.1824999,0.8487445116043091,-0.48482584953308105,9.798270225524902,3.997802734375,0.213623046875,1.251220703125
1.1874999000000002,0.8158242106437683,-0.535702645778656,9.806650161743164,-5.18798828125,0.1220703125,0.244140625
1.1924999,0.8696937561035156,-0.48243165016174316,9.805453300476074,4.180908203125,-0.152587890625,1.220703125
1.1974999000000002,0.829590916633606,-0.5291185975074768,9.794678688049316,-5.18798828125,-0.1220703125,0.152587890625
1.2024999,0.7930793166160583,-0.5428852438926697,9.666589736938477,1.190185546875,-0.274658203125,-2.3193359375
1.2074999000000002,0.889445960521698,-0.46986207365989685,9.79288387298584,3.875732421875,0.30517578125,1.495361328125
1.2124999,0.8475474119186401,-0.5129576921463013,9.77133560180664,-5.218505859375,0.396728515625,0.396728515625
1.2174999000000002,0.8080430626869202,-0.5494692921638489,9.660005569458008,1.190185546875,-0.091552734375,-2.44140625
1.2224999,0.8960300087928772,-0.48303020000457764,9.775525093078613,4.0283203125,0.6103515625,1.28173828125
1.2274999000000002,0.8415619134902954,-0.5446808934211731,9.764153480529785,-5.279541015625,0.213623046875,0.30517578125
1.2324999,0.7972691655158997,-0.5626373887062073,9.651625633239746,1.434326171875,-0.335693359375,-2.288818359375
1.2374999000000002,0.8780734539031982,-0.4908113479614258,9.773730278015137,3.96728515625,0.030517578125,1.46484375
1.2424999,0.829590916633606,-0.524330198764801,9.77133560180664,-5.340576171875,-0.152587890625,0.274658203125
1.2474999000000002,0.7858967185020447,-0.5422866940498352,9.662399291992188,1.068115234375,-0.48828125,-2.25830078125
1.2524999,0.7876923680305481,-0.5542576909065247,9.662399291992188,1.312255859375,-0.3662109375,-2.349853515625
1.2574999000000002,0.8750807046890259,-0.4878185987472534,9.791686058044434,4.08935546875,0.1220703125,1.0986328125
1.2624999000000001,0.828393816947937,-0.524330198764801,9.775525093078613,-5.43212890625,-0.030517578125,0.42724609375
1.2674999000000002,0.7876923680305481,-0.5476736426353455,9.674968719482422,1.495361328125,-0.518798828125,-2.0751953125
1.2724999000000001,0.8768763542175293,-0.4644751250743866,9.784503936767578,3.936767578125,0.1220703125,1.312255859375
1.2774999000000002,0.8331822156906128,-0.5171475410461426,9.77672290802002,-5.4931640625,-0.06103515625,0.091552734375
1.2824999000000001,0.8008604645729065,-0.5494692921638489,9.661202430725098,1.312255859375,-0.152587890625,-2.288818359375
1.2874999,0.8924387097358704,-0.4818331003189087,9.786299705505371,4.08935546875,0.335693359375,1.251220703125
1.2924999000000001,0.8523358106613159,-0.5285200476646423,9.77791976928711,-5.157470703125,0.48828125,0.3662109375
1.2974999,0.8098387122154236,-0.5524620413780212,9.668384552001953,1.15966796875,-0.091552734375,-2.288818359375
1.3024999000000002,0.8924387097358704,-0.4728548228740692,9.782708168029785,3.96728515625,0.457763671875,1.220703125
1.3074999,0.7876923680305481,-0.5614402890205383,9.676166534423828,1.03759765625,-0.42724609375,-2.197265625
1.3124999000000002,0.8696937561035156,-0.4854243993759155,9.797073364257812,3.997802734375,0.3662109375,1.251220703125
1.3174999,0.8248024582862854,-0.5303156971931458,9.794678688049316,-5.218505859375,0.30517578125,0.06103515625
1.3224999000000002,0.7811083197593689,-0.557250440120697,9.675567626953125,1.03759765625,-0.213623046875,-2.38037109375
1.3274999,0.8565256595611572,-0.48901569843292236,9.792284965515137,4.08935546875,0.1220703125,1.312255859375
1.3324999000000002,0.8140285611152649,-0.5291185975074768,9.812037467956543,-5.035400390625,-0.06103515625,0.3662109375
1.3374999,0.7667431235313416,-0.5632359385490417,9.68933391571045,0.885009765625,-0.54931640625,-2.349853515625
1.3424999000000002,0.8409633636474609,-0.48063600063323975,9.809642791748047,4.08935546875,0.335693359375,1.15966796875
1.3474999,0.8044517636299133,-0.5273229479789734,9.821614265441895,-5.279541015625,0.3662109375,0.579833984375
1.3524999000000002,0.8403648138046265,-0.5015852451324463,9.813833236694336,3.96728515625,-0.030517578125,1.03759765625
1.3574999,0.811634361743927,-0.5608417391777039,9.839570045471191,-5.18798828125,-0.213623046875,0.396728515625
1.3624999000000002,0.8373720645904541,-0.5237316489219666,9.824606895446777,4.2724609375,0.54931640625,1.0986328125
1.3674999,0.8098387122154236,-0.5716156363487244,9.848548889160156,-4.730224609375,0.396728515625,0.274658203125
1.3724999000000002,0.7535749673843384,-0.619499683380127,9.694721221923828,0.732421875,-0.732421875,-2.13623046875
1.3774999,0.7799112200737,-0.5793967843055725,9.797672271728516,5.401611328125,-0.54931640625,2.01416015625
1.3824999000000002,0.6967126727104187,-0.6392518281936646,9.79527759552002,-3.326416015625,-2.25830078125,2.50244140625
1.3874999000000001,0.5171475410461426,-0.6518214344978333,9.625288963317871,2.99072265625,-5.096435546875,0
1.3924999000000002,0.5835866928100586,-0.5530605912208557,9.784503936767578,4.913330078125,-6.89697265625,3.265380859375
1.3974999000000001,0.4776432514190674,-0.517746090888977,9.779715538024902,-4.8828125,-8.6669921875,1.3427734375
1.4024999000000002,0.5165489912033081,-0.6254851818084717,9.68933391571045,0.885009765625,-8.544921875,-1.861572265625
1.4074999000000001,0.39624038338661194,0.0347159244120121,8.464101791381836,36.62109375,-11.627197265625,30.94482421875
1.4124999,0.5303156971931458,0.061052143573760986,8.541913032531738,7.965087890625,-14.46533203125,34.85107421875
1.4174999000000001,0.5027823448181152,-0.22026655077934265,8.06546688079834,29.083251953125,-16.143798828125,27.801513671875
1.4224999,0.8110358119010925,0.8475474119186401,8.480860710144043,1.15966796875,-24.932861328125,29.1748046875
1.4274999000000002,0.6841431260108948,0.7625532150268555,7.946953773498535,13.397216796875,-27.313232421875,15.9912109375
1.4324999,1.1174936294555664,1.9841946363449097,8.498218536376953,4.94384765625,-29.632568359375,15.411376953125
1.4374999000000002,1.048660397529602,2.428318977355957,7.876923561096191,-11.810302734375,-24.35302734375,3.60107421875
1.4424999,2.472013235092163,0.040701430290937424,8.341997146606445,-25.7568359375,5.523681640625,-0.030517578125
1.4474999000000002,2.6420016288757324,-0.518943190574646,8.87051773071289,18.37158203125,8.880615234375,-3.143310546875
1.4524999,2.2487540245056152,-1.4526818990707397,8.434772491455078,-27.496337890625,15.777587890625,-7.8125
1.4574999000000002,2.181716203689575,-1.5053542852401733,9.1632080078125,14.6484375,20.6298828125,-13.24462890625
1.4624999,2.181716203689575,-1.5053542852401733,9.1632080078125,14.6484375,20.6298828125,-13.24462890625
1.4674999000000002,1.8046295642852783,-0.8744821548461914,8.795100212097168,-23.193359375,26.214599609375,-14.892578125
1.4724999,1.6699557304382324,-0.5889736413955688,9.352949142456055,6.317138671875,29.9072265625,-16.90673828125
1.4774999000000002,1.3419500589370728,-0.12988543510437012,9.241020202636719,-22.979736328125,31.79931640625,-10.711669921875
1.4824999,1.1240776777267456,0.03232172131538391,9.68155288696289,4.33349609375,30.975341796875,-4.669189453125
1.4874999000000002,0.6865373253822327,-0.3477577865123749,9.81263542175293,-16.05224609375,26.85546875,-2.9296875
1.4924999,0.3770867586135864,-0.6320692300796509,10.089764595031738,9.6435546875,18.85986328125,-1.129150390625
1.4974999000000002,-0.27892449498176575,-1.2324153184890747,10.070012092590332,13.641357421875,3.997802734375,-1.739501953125
1.5024999,-0.49140989780426025,-1.2485761642456055,9.986215591430664,-7.99560546875,-1.251220703125,-0.701904296875
1.5074999000000002,-0.33758243918418884,-1.1354501247406006,9.804854393005371,13.61083984375,-7.01904296875,-2.349853515625
1.5124999000000001,-0.14245499670505524,-0.7559691667556763,9.819219589233398,-10.498046875,-7.87353515625,0.701904296875
1.5174999000000002,0.2232593148946762,-0.5440823435783386,9.678560256958008,9.857177734375,-12.054443359375,-2.13623046875
1.5224999000000001,1.0821791887283325,-0.0999579206109047,9.834781646728516,-10.894775390625,-6.65283203125,2.044677734375
1.5274999000000002,1.0821791887283325,-0.0999579206109047,9.834781646728516,-10.894775390625,-6.65283203125,2.044677734375
1.5324999000000001,1.1976994276046753,-0.40222588181495667,9.603142738342285,4.974365234375,-6.988525390625,-4.364013671875
1.5374999000000003,1.2611457109451294,-0.4225766062736511,9.816226959228516,-6.072998046875,-1.89208984375,3.7841796875
1.5424999000000001,1.2802993059158325,-0.7254431247711182,9.552266120910645,4.21142578125,-1.953125,-4.08935546875
1.5474999,1.2653355598449707,-0.6715735793113708,9.873088836669922,-1.129150390625,2.9296875,4.425048828125
1.5524999000000002,1.1785458326339722,-0.6278793811798096,9.930550575256348,2.410888671875,6.40869140625,4.302978515625
1.5574999,1.1785458326339722,-0.6278793811798096,9.930550575256348,2.410888671875,6.40869140625,4.302978515625
1.5624999000000002,1.0648212432861328,-0.6560112833976746,9.5408935546875,-2.3193359375,5.06591796875,-5.767822265625
1.5674999,1.0295066833496094,-0.43275195360183716,9.948506355285645,5.157470703125,7.171630859375,3.814697265625
1.5724999000000002,0.8547300100326538,-0.5045779943466187,9.582193374633789,-6.9580078125,4.638671875,-5.401611328125
1.5774999,0.8038532137870789,-0.3818751573562622,9.972448348999023,8.30078125,4.547119140625,3.692626953125
1.5824999000000002,0.586579442024231,-0.5554547905921936,9.63067626953125,-9.735107421875,2.044677734375,-3.692626953125
1.5874999,0.5979518890380859,-0.47824180126190186,9.916184425354004,11.199951171875,0.30517578125,3.11279296875
1.5924999000000002,0.45010992884635925,-0.6189011335372925,9.679159164428711,-11.688232421875,-1.3427734375,-2.532958984375
1.5974999,0.5770025849342346,-0.5279214978218079,9.818621635437012,12.14599609375,-3.875732421875,0.823974609375
1.6024999000000002,0.5524620413780212,-0.524330198764801,9.768342971801758,-12.542724609375,-3.509521484375,-1.007080078125
1.6074999,0.7104793787002563,-0.5015852451324463,9.765948295593262,10.589599609375,-5.615234375,-1.129150390625
1.6124999000000002,0.9672574996948242,-0.39384618401527405,9.899425506591797,-6.77490234375,-1.251220703125,3.2958984375
1.6174999,0.9672574996948242,-0.39384618401527405,9.899425506591797,-6.77490234375,-1.251220703125,3.2958984375
1.6224999000000002,1.0205284357070923,-0.618302583694458,9.612719535827637,3.814697265625,-1.800537109375,-4.302978515625
1.6274999,1.0911574363708496,-0.5237316489219666,9.931747436523438,-1.129150390625,2.3193359375,4.241943359375
1.6324999000000002,1.081580638885498,-0.6925228238105774,9.558850288391113,-1.129150390625,1.556396484375,-4.45556640625
1.6374999000000001,1.1318588256835938,-0.568622887134552,9.926959037780762,5.218505859375,4.57763671875,4.69970703125
1.6424999000000002,0.9911994934082031,-0.6751648783683777,9.543288230895996,-6.622314453125,3.509521484375,-4.39453125
1.6474999000000001,0.9876081943511963,-0.4884171485900879,9.853337287902832,9.58251953125,4.2724609375,2.716064453125
1.6524999000000002,0.7876923680305481,-0.5817909836769104,9.600150108337402,-10.467529296875,2.8076171875,-3.35693359375
1.6574999000000001,0.7942764163017273,-0.43933600187301636,9.81263542175293,11.3525390625,1.129150390625,0.79345703125
1.6624999000000003,0.6434416770935059,-0.48602294921875,9.784503936767578,-11.53564453125,0.30517578125,-0.6103515625
1.6674999000000001,0.6763619780540466,-0.4902127981185913,9.776124000549316,10.284423828125,-2.716064453125,-1.434326171875
1.6724999,0.800261914730072,-0.5793967843055725,9.619303703308105,-0.8544921875,-3.60107421875,-4.33349609375
1.6774999000000002,0.943913996219635,-0.48602294921875,9.97364616394043,3.90625,-0.640869140625,4.0283203125
1.6824999,0.9097966551780701,-0.6440402865409851,9.591172218322754,-6.927490234375,-0.9765625,-4.302978515625
1.6874999000000002,1.0522516965866089,-0.5213374495506287,9.855133056640625,9.368896484375,1.190185546875,2.8076171875
1.6924999,0.9906009435653687,-0.6482301354408264,9.67077922821045,-10.43701171875,1.77001953125,-1.953125
1.6974999000000002,1.0402805805206299,-0.5267243981361389,9.77013874053955,11.383056640625,1.556396484375,0.274658203125
1.7024999,0.9894038438796997,-0.5165489912033081,9.84376049041748,-9.765625,2.593994140625,0.640869140625
1.7074999000000002,0.9295487999916077,-0.5351040959358215,9.694122314453125,8.056640625,1.007080078125,-2.655029296875
1.7124999,0.8487445116043091,-0.38067805767059326,9.915586471557617,-4.608154296875,2.3193359375,3.143310546875
1.7174999000000002,0.7583633661270142,-0.5536591410636902,9.604938507080078,1.03759765625,-0.335693359375,-4.425048828125
1.7224999,0.6584054827690125,-0.6015431880950928,9.59596061706543,-6.2255859375,-1.15966796875,-4.08935546875
1.7274999000000002,0.768538773059845,-0.48063600063323975,9.872490882873535,8.85009765625,-0.9765625,2.655029296875
1.7324999,0.7314286231994629,-0.6326677799224854,9.728838920593262,-10.467529296875,-1.220703125,-1.89208984375
1.7374999000000002,0.8337807655334473,-0.5183446407318115,9.779715538024902,10.467529296875,-1.77001953125,0.06103515625
1.7424999,0.8774749040603638,-0.5279214978218079,9.8599214553833,-9.21630859375,-0.335693359375,1.373291015625
1.7474999000000002,0.9289502501487732,-0.5392939448356628,9.665990829467773,6.2255859375,-1.495361328125,-2.86865234375
1.7524999,0.9636662006378174,-0.40940847992897034,9.900622367858887,-2.86865234375,0.762939453125,3.5400390625
1.7574999000000002,0.9163807034492493,-0.5859808921813965,9.561842918395996,-1.3427734375,-0.823974609375,-4.425048828125
1.7624999000000001,0.9612720012664795,-0.444722980260849,9.905410766601562,5.2490234375,1.220703125,3.387451171875
1.7674999000000002,0.8427590131759644,-0.6548141837120056,9.578003883361816,-8.36181640625,0.30517578125,-3.387451171875
1.7724999000000001,0.9085995554924011,-0.5069721937179565,9.792284965515137,10.101318359375,0.9765625,1.068115234375
1.7774999000000002,0.8517372608184814,-0.6003460884094238,9.742006301879883,-10.101318359375,1.52587890625,-0.3662109375
1.7824999000000001,0.851138710975647,-0.44412440061569214,9.919178009033203,-5.55419921875,1.251220703125,2.777099609375
1.7874999000000003,0.7924807667732239,-0.5428852438926697,9.645041465759277,1.373291015625,-0.732421875,-4.119873046875
1.7924999000000001,0.8325836658477783,-0.395043283700943,9.979032516479492,3.23486328125,0.6103515625,3.60107421875
1.7974999,0.768538773059845,-0.5536591410636902,9.665990829467773,-7.476806640625,-0.732421875,-3.35693359375
1.8024999000000002,0.889445960521698,-0.46148237586021423,9.873088836669922,9.70458984375,-0.885009765625,1.861572265625
1.8074999,0.8559271097183228,-0.5620388388633728,9.733028411865234,-9.94873046875,-0.79345703125,-0.518798828125
1.8124999000000002,0.9068039059638977,-0.5321113467216492,9.679757118225098,8.392333984375,-1.129150390625,-1.556396484375
1.8174999,0.9026140570640564,-0.4692635238170624,9.865906715393066,-5.035400390625,0.42724609375,2.44140625
1.8224999000000002,0.8774749040603638,-0.5590460896492004,9.640851974487305,0.579833984375,-1.15966796875,-3.814697265625
1.8274999,0.9349357485771179,-0.41120412945747375,9.99459457397461,3.448486328125,0.732421875,3.753662109375
1.8324999000000002,0.8684966564178467,-0.586579442024231,9.650428771972656,-7.01904296875,-0.030517578125,-3.23486328125
1.8374999,0.9163807034492493,-0.4908113479614258,9.847949981689453,8.941650390625,0.79345703125,1.0986328125
1.8424999000000002,0.7918822169303894,-0.5776011347770691,9.667187690734863,8.148193359375,-3.2958984375,-2.99072265625
1.8474999,0.778714120388031,-0.47644615173339844,9.895833969116211,-3.448486328125,-2.044677734375,3.387451171875
1.8524999000000002,0.71766197681427,-0.5728127360343933,9.588179588317871,-0.885009765625,-2.593994140625,-3.387451171875
1.8574999,0.839766263961792,-0.375291109085083,9.90241813659668,4.547119140625,-0.9765625,2.838134765625
1.8624999000000002,0.8427590131759644,-0.545877993106842,9.675567626953125,-9.490966796875,-0.885009765625,-2.25830078125
1.8674999,0.9678560495376587,-0.4507084786891937,9.79647445678711,9.246826171875,-0.244140625,1.129150390625
1.8724999000000002,0.9971849918365479,-0.5333084464073181,9.804255485534668,-8.4228515625,1.251220703125,1.434326171875
1.8774999,0.9798270463943481,-0.5997475385665894,9.59177017211914,4.8828125,0.67138671875,-2.960205078125
1.8824999000000002,1.01753568649292,-0.4884171485900879,9.853337287902832,0.42724609375,2.227783203125,3.23486328125
1.8874999000000001,0.8792705535888672,-0.6153098344802856,9.569623947143555,-3.96728515625,0.885009765625,-3.35693359375
1.8924999000000002,0.9271546006202698,-0.45429977774620056,9.843161582946777,8.087158203125,1.129150390625,2.593994140625
1.8974999000000001,0.8032546639442444,-0.557250440120697,9.758766174316406,-9.002685546875,0.946044921875,-1.007080078125
1.9024999000000002,0.7763199210166931,-0.6260837316513062,9.678560256958008,-7.8125,-0.823974609375,-2.25830078125
1.9074999000000001,0.8822633028030396,-0.535702645778656,9.752182006835938,8.97216796875,-0.8544921875,0.30517578125
1.9124999000000003,0.9068039059638977,-0.5650315880775452,9.810839653015137,-7.354736328125,-0.213623046875,1.40380859375
1.9174999000000001,0.8948329091072083,-0.6075286865234375,9.612719535827637,3.692626953125,-1.068115234375,-3.021240234375
1.9224999,0.9612720012664795,-0.4668693244457245,9.895833969116211,1.40380859375,0.152587890625,3.47900390625
1.9274999000000002,0.8804676532745361,-0.6123170852661133,9.64564037322998,-6.011962890625,-0.762939453125,-2.655029296875
1.9324999,0.9373299479484558,-0.48243165016174316,9.816226959228516,8.392333984375,0.18310546875,1.495361328125
1.9374999000000002,0.8924387097358704,-0.5542576909065247,9.807249069213867,-8.1787109375,0.518798828125,0.396728515625
1.9424999,0.8750807046890259,-0.5345055460929871,9.653421401977539,5.615234375,0.030517578125,-2.288818359375
1.9474999000000002,0.9253589510917664,-0.45250412821769714,9.84615421295166,7.62939453125,1.739501953125,1.953125
1.9524999,0.8750807046890259,-0.5919663906097412,9.759963035583496,-8.97216796875,1.708984375,-0.42724609375
1.9574999000000002,0.8684966564178467,-0.5877765417098999,9.688735961914062,7.2021484375,0.396728515625,-1.800537109375
1.9624999,0.8559271097183228,-0.517746090888977,9.87967300415039,-2.5634765625,1.434326171875,2.777099609375
1.9674999000000002,0.7158663272857666,-0.6057330369949341,9.621099472045898,-2.44140625,-0.152587890625,-3.387451171875
1.9724999,0.7775170207023621,-0.43933600187301636,9.858125686645508,6.988525390625,-0.030517578125,2.3193359375
1.9774999000000002,0.7032967209815979,-0.5345055460929871,9.744999885559082,-9.063720703125,-0.67138671875,-0.457763671875
1.9824999,0.7775170207023621,-0.5111620426177979,9.70429801940918,7.293701171875,-1.495361328125,-0.946044921875
1.9874999000000002,0.862511157989502,-0.45908817648887634,9.877877235412598,-3.47900390625,0.3662109375,2.532958984375
1.9924999,0.8074445128440857,-0.5716156363487244,9.605537414550781,-2.349853515625,-0.823974609375,-3.204345703125
1.9974999000000002,0.933738648891449,-0.43993455171585083,9.851541519165039,6.4697265625,-0.244140625,2.410888671875
2.0024999,0.9319429993629456,-0.5560533404350281,9.691728591918945,7.32421875,0.30517578125,-1.068115234375
2.0074999,0.9690531492233276,-0.5129576921463013,9.879075050354004,-3.265380859375,1.64794921875,2.288818359375
2.0124999000000003,0.862511157989502,-0.6039373874664307,9.617507934570312,-1.5869140625,0.274658203125,-3.47900390625
2.0174999000000002,0.9265560507774353,-0.4513070285320282,9.864110946655273,6.2255859375,1.28173828125,2.471923828125
2.0224999,0.8206126093864441,-0.5596446394920349,9.741408348083496,-8.026123046875,1.312255859375,-0.6103515625
2.0274999,0.8445546627044678,-0.536899745464325,9.713874816894531,7.01904296875,0.213623046875,-1.434326171875
2.0324999000000004,0.8667010068893433,-0.4902127981185913,9.910798072814941,-3.0517578125,1.28173828125,2.44140625
2.0374999000000003,0.7721300721168518,-0.5919663906097412,9.679159164428711,-2.197265625,0,-3.387451171875
2.0424999,0.8373720645904541,-0.4537012279033661,9.885659217834473,6.439208984375,0.1220703125,1.89208984375
2.0474999,0.7709329724311829,-0.5524620413780212,9.788095474243164,-8.026123046875,-0.274658203125,-0.762939453125
2.0524999,0.7870938181877136,-0.5434837937355042,9.708487510681152,6.439208984375,-1.3427734375,-1.861572265625
2.0574999000000003,0.8427590131759644,-0.47584760189056396,9.906607627868652,-1.953125,-0.54931640625,2.532958984375
2.0624999,0.871489405632019,-0.45908817648887634,9.84376049041748,6.9580078125,-1.03759765625,1.15966796875
2.0674999,0.8661024570465088,-0.5524620413780212,9.797672271728516,-7.87353515625,-0.640869140625,-0.091552734375
2.0724999,0.8744821548461914,-0.5620388388633728,9.670180320739746,5.218505859375,-1.5869140625,-2.410888671875
2.0774999000000003,0.9630676507949829,-0.48602294921875,9.9000244140625,-0.335693359375,0.457763671875,2.685546875
2.0824999,0.9157821536064148,-0.6123170852661133,9.68155288696289,-4.791259765625,0.152587890625,-2.86865234375
2.0874999,0.9714473485946655,-0.47584760189056396,9.806051254272461,7.720947265625,0.701904296875,0.8544921875
2.0924999,0.9564836025238037,-0.5333084464073181,9.837775230407715,-7.38525390625,1.3427734375,1.007080078125
2.0974999000000003,0.8607155084609985,-0.5644330382347107,9.658807754516602,3.631591796875,0.274658203125,-2.716064453125
2.1024999,0.8888474106788635,-0.4734533727169037,9.914987564086914,2.044677734375,1.190185546875,2.655029296875
2.1074999,0.7661445140838623,-0.6278793811798096,9.692925453186035,-6.561279296875,0.213623046875,-2.25830078125
2.1124999,0.8008604645729065,-0.5428852438926697,9.773131370544434,7.8125,-0.244140625,0.030517578125
2.1174999000000003,0.7715315222740173,-0.5273229479789734,9.840767860412598,-5.645751953125,0.091552734375,1.617431640625
2.1224999,0.8170213103294373,-0.4411316514015198,9.841365814208984,4.45556640625,-0.732421875,2.166748046875
2.1274999,0.8170213103294373,-0.4411316514015198,9.841365814208984,4.45556640625,-0.732421875,2.166748046875
2.1324999,0.7691373229026794,-0.5380968451499939,9.694721221923828,-7.720947265625,-0.946044921875,-1.40380859375
2.1374999000000003,0.8720879554748535,-0.5231330990791321,9.694122314453125,6.53076171875,-1.0986328125,-1.40380859375
2.1424999000000002,0.9415197968482971,-0.4812345504760742,9.86889934539795,-3.0517578125,0.244140625,2.288818359375
2.1474999,0.9229647517204285,-0.5937620401382446,9.654618263244629,-2.3193359375,-0.213623046875,-3.0517578125
2.1524999,0.9983820915222168,-0.4644751250743866,9.822811126708984,6.53076171875,0.518798828125,1.46484375
2.1574999000000004,0.9510966539382935,-0.5380968451499939,9.801861763000488,-7.75146484375,1.03759765625,-0.1220703125
2.1624999000000003,0.9277531504631042,-0.4944026470184326,9.941324234008789,0.701904296875,0.79345703125,2.74658203125
2.1674999,0.9277531504631042,-0.4944026470184326,9.941324234008789,0.701904296875,0.79345703125,2.74658203125
2.1724999,0.8086416125297546,-0.6105214357376099,9.709086418151855,-5.523681640625,0.3662109375,-2.532958984375
2.1774999000000004,0.8595184087753296,-0.5147533416748047,9.818022727966309,7.598876953125,0.30517578125,0.030517578125
2.1824999000000003,0.7541735172271729,-0.535702645778656,9.626486778259277,0.9765625,-0.54931640625,-2.9296875
2.1874999,0.8271966576576233,-0.4411316514015198,9.8599214553833,3.997802734375,0.1220703125,2.288818359375
2.1924999,0.7589619159698486,-0.5363011956214905,9.706692695617676,-7.50732421875,-0.518798828125,-1.251220703125
2.1974999,0.8307880163192749,-0.5339069962501526,9.694721221923828,6.4697265625,-0.885009765625,-1.28173828125
2.2024999000000003,0.8906430602073669,-0.4710591733455658,9.858125686645508,-2.38037109375,0.18310546875,2.471923828125
2.2074999,0.889445960521698,-0.6123170852661133,9.664793968200684,-3.021240234375,-1.007080078125,-2.9296875
2.2124999,0.9277531504631042,-0.4620809257030487,9.79408073425293,6.927490234375,-0.42724609375,1.068115234375
2.2174999,0.93254154920578,-0.5524620413780212,9.825204849243164,-6.744384765625,0.152587890625,0.579833984375
2.2224999000000003,0.8343793153762817,-0.5758054852485657,9.654618263244629,3.387451171875,-0.457763671875,-2.593994140625
2.2274999,0.9020155072212219,-0.4752490520477295,9.8970308303833,2.166748046875,0.701904296875,2.471923828125
2.2324999,0.7966706156730652,-0.5997475385665894,9.714473724365234,-6.4697265625,0.579833984375,-1.77001953125
2.2374999,0.849941611289978,-0.5231330990791321,9.740211486816406,7.293701171875,-0.274658203125,-0.6103515625
2.2424999000000003,0.8990227580070496,-0.44592007994651794,9.773730278015137,5.828857421875,0.274658203125,1.434326171875
2.2474999,0.8990227580070496,-0.44592007994651794,9.773730278015137,5.828857421875,0.274658203125,1.434326171875
2.2524999,0.8553285598754883,-0.5225345492362976,9.756970405578613,-7.26318359375,0.3662109375,0.1220703125
2.2574999,0.8355764150619507,-0.5650315880775452,9.651625633239746,4.39453125,-0.579833984375,-2.13623046875
2.2624999000000003,0.8978256583213806,-0.48303020000457764,9.889848709106445,1.03759765625,0.06103515625,2.38037109375
2.2674999000000002,0.8122329115867615,-0.6177040338516235,9.695918083190918,-5.889892578125,-0.244140625,-2.13623046875
2.2724999,0.8720879554748535,-0.5339069962501526,9.776124000549316,6.866455078125,-0.42724609375,-0.396728515625
2.2774999,0.8834604024887085,-0.5147533416748047,9.854534149169922,-4.39453125,0.091552734375,2.0751953125
2.2824999000000004,0.8248024582862854,-0.5752069354057312,9.662399291992188,-1.007080078125,-0.67138671875,-2.960205078125
2.2874999000000003,0.910993754863739,-0.4572925269603729,9.829395294189453,5.523681640625,-0.06103515625,1.40380859375
2.2924999,0.8667010068893433,-0.5135562419891357,9.79408073425293,-6.89697265625,0.274658203125,0.06103515625
2.2974999,0.8553285598754883,-0.5596446394920349,9.68274974822998,4.425048828125,-0.396728515625,-2.3193359375
2.3024999000000004,0.8816647529602051,-0.5213374495506287,9.758167266845703,7.049560546875,-0.1220703125,-0.518798828125
2.3074999000000003,0.8792705535888672,-0.4902127981185913,9.827000617980957,-4.150390625,0.946044921875,1.922607421875
2.3124999,0.821809709072113,-0.5680243372917175,9.639056205749512,-1.28173828125,-0.152587890625,-2.86865234375
2.3174999,0.8702923059463501,-0.44831427931785583,9.784503936767578,5.950927734375,0.1220703125,1.251220703125
2.3224999,0.8361749649047852,-0.5231330990791321,9.784503936767578,-6.805419921875,0.213623046875,0.3662109375
2.3274999000000003,0.7846996188163757,-0.5710170865058899,9.657012939453125,3.814697265625,-0.6103515625,-2.3193359375
2.3324999,0.8696937561035156,-0.4770447015762329,9.889249801635742,2.105712890625,0.18310546875,2.38037109375
2.3374999,0.7817068696022034,-0.6003460884094238,9.73781681060791,-6.195068359375,-0.48828125,-1.739501953125
2.3424999,0.861314058303833,-0.5279214978218079,9.750386238098145,6.622314453125,-0.518798828125,-0.91552734375
2.3474999000000003,0.8912416100502014,-0.4704606235027313,9.865307807922363,-2.8076171875,0.640869140625,2.471923828125
2.3524999,0.8978256583213806,-0.5889736413955688,9.701904296875,-2.685546875,-0.274658203125,-2.716064453125
2.3574999,0.9235633015632629,-0.5482721924781799,9.844358444213867,-6.011962890625,0.54931640625,1.28173828125
2.3624999,0.9235633015632629,-0.5482721924781799,9.844358444213867,-6.011962890625,0.54931640625,1.28173828125
2.3674999000000003,0.8032546639442444,-0.5823895931243896,9.643844604492188,2.38037109375,-0.6103515625,-2.227783203125
2.3724999,0.8678981065750122,-0.5446808934211731,9.857526779174805,4.638671875,-0.030517578125,2.01416015625
2.3774999,0.7966706156730652,-0.5722141861915588,9.728240013122559,-6.16455078125,-0.030517578125,-0.9765625
2.3824999,0.8242039084434509,-0.558447539806366,9.693524360656738,5.92041015625,-0.579833984375,-1.5869140625
2.3874999000000003,0.9127894043922424,-0.4471171796321869,9.889848709106445,-1.312255859375,0.518798828125,2.5634765625
2.3924999000000002,0.8451532125473022,-0.5045779943466187,9.694721221923828,-4.791259765625,-0.48828125,-1.861572265625
2.3974999,0.8990227580070496,-0.47165772318840027,9.801861763000488,7.01904296875,-0.732421875,0.3662109375
2.4024999,0.8798691034317017,-0.4668693244457245,9.88386344909668,-5.279541015625,-0.1220703125,1.3427734375
2.4074999000000004,0.7894880175590515,-0.5823895931243896,9.657012939453125,0.48828125,-0.8544921875,-2.8076171875
2.4124999000000003,0.8601169586181641,-0.4950011968612671,9.835380554199219,6.011962890625,-0.48828125,2.25830078125
2.4174999,0.8176198601722717,-0.5530605912208557,9.743204116821289,-7.01904296875,-0.6103515625,-0.091552734375
2.4224999,0.7457938194274902,-0.5674257874488831,9.978434562683105,-3.326416015625,-5.31005859375,4.45556640625
2.4274999000000004,0.6111199855804443,-0.6440402865409851,9.621698379516602,-0.274658203125,-6.500244140625,-3.35693359375
2.4324999000000003,0.6997054219245911,-0.557250440120697,9.91977596282959,6.40869140625,-7.049560546875,2.532958984375
2.4374999,0.5979518890380859,-0.6392518281936646,9.700706481933594,-5.31005859375,-8.7890625,2.9296875
2.4424999,0.6536170840263367,-0.5716156363487244,9.612719535827637,8.636474609375,-9.368896484375,1.89208984375
2.4474999,0.7978677153587341,-0.4279635548591614,9.914389610290527,-4.302978515625,-10.772705078125,3.753662109375
2.4524999000000003,0.7296329736709595,-0.43335050344467163,9.515155792236328,-4.0283203125,-9.09423828125,-3.021240234375
2.4574999,1.0881646871566772,-0.2232593148946762,9.789292335510254,2.01416015625,-6.256103515625,5.096435546875
2.4624999,1.1953052282333374,-0.9020155072212219,9.246406555175781,-13.885498046875,-1.40380859375,3.72314453125
2.4674999,2.121861219406128,-2.560598611831665,7.587823867797852,-20.1416015625,25.81787109375,39.337158203125
2.4724999000000003,2.3475148677825928,-3.441664934158325,5.884349346160889,21.66748046875,45.806884765625,31.06689453125
2.4774999,2.5695769786834717,-2.5767595767974854,5.234323501586914,33.905029296875,60.36376953125,49.652099609375
2.4824999,2.1080946922302246,-2.011728048324585,4.380790710449219,86.090087890625,52.8564453125,11.688232421875
2.4874999,1.6903064250946045,-0.41359832882881165,3.953425645828247,4.45556640625,34.149169921875,20.8740234375
2.4924999000000003,0.3016694188117981,-0.19033902883529663,4.232349872589111,23.13232421875,-13.031005859375,31.646728515625
2.4974999,-0.6536170840263367,0.7236474752426147,4.5190558433532715,16.90673828125,-27.313232421875,16.05224609375
2.5024999,-1.8543092012405396,1.5897499322891235,6.117784023284912,34.912109375,-10.009765625,25.177001953125
2.5074999,-2.1709423065185547,2.236783027648926,6.959944248199463,6.561279296875,-6.134033203125,9.8876953125
2.5124999000000003,-2.015319347381592,2.897582530975342,7.784148216247559,-30.792236328125,-21.392822265625,40.83251953125
2.5174999000000002,-1.2826935052871704,2.0644004344940186,8.459911346435547,-5.18798828125,-31.3720703125,47.79052734375
2.5224999,-0.5404910445213318,1.0438719987869263,7.650073051452637,-32.257080078125,-15.777587890625,48.126220703125
2.5274999,0.11133038252592087,-0.6512228846549988,7.480683326721191,86.97509765625,-28.01513671875,28.6865234375
2.5324999000000004,-0.04668693244457245,-0.8349778652191162,6.3961100578308105,-16.632080078125,-30.45654296875,-4.638671875
2.5374999000000003,-0.22445641458034515,-0.06165069341659546,6.294356346130371,-14.739990234375,-70.159912109375,37.689208984375
2.5424999,-0.18076223134994507,0.8954314589500427,6.2620344161987305,41.839599609375,-63.53759765625,32.40966796875
2.5474999,0.13287819921970367,2.1326351165771484,6.4398040771484375,4.21142578125,-37.29248046875,-23.406982421875
2.5524999000000004,0.5045779943466187,2.829946517944336,7.3005194664001465,-37.445068359375,-63.5986328125,-21.484375
2.5574999000000003,1.2892776727676392,2.8886044025421143,8.541314125061035,1.312255859375,-60.48583984375,17.08984375
2.5624999,1.9937714338302612,2.276287317276001,8.939949035644531,12.87841796875,-24.2919921875,25.848388671875
2.5674999,2.5294740200042725,1.5047557353973389,9.390059471130371,-14.58740234375,-18.646240234375,-4.21142578125
2.5724999,2.8640637397766113,0.27234044671058655,9.343372344970703,-20.5078125,-21.331787109375,-2.471923828125
2.5774999000000003,3.1316158771514893,-0.1646013706922531,9.519346237182617,14.70947265625,-1.03759765625,17.2119140625
2.5824999,2.5097219944000244,-0.47405192255973816,9.205705642700195,-3.2958984375,37.994384765625,-5.645751953125
2.5874999,2.1302409172058105,-0.5309142470359802,9.288305282592773,-26.885986328125,43.121337890625,-10.833740234375
2.5924999,1.5514427423477173,-0.8445546627044678,9.52473258972168,-4.669189453125,50.140380859375,-0.42724609375
2.5974999000000003,0.9798270463943481,-0.9421183466911316,9.870695114135742,16.4794921875,38.055419921875,7.598876953125
2.6024999,0.43694180250167847,-1.0648212432861328,10.032303810119629,-2.838134765625,26.2451171875,-4.39453125
2.6074999,-0.08499415963888168,-1.070208191871643,10.163984298706055,-13.397216796875,26.67236328125,-10.650634765625
2.6124999,-0.4429273009300232,-0.982221245765686,10.203489303588867,8.23974609375,17.51708984375,3.692626953125
2.6174999000000003,-0.6362590789794922,-0.7870938181877136,10.088567733764648,13.275146484375,1.52587890625,5.767822265625
2.6224999,-0.579995334148407,-0.5626373887062073,9.932345390319824,-8.209228515625,-1.678466796875,-8.60595703125
2.6274999,-0.03172317147254944,-0.2974795699119568,9.881468772888184,11.16943359375,-12.176513671875,9.368896484375
2.6324999,0.314238965511322,-0.18914192914962769,9.761758804321289,-2.777099609375,-14.923095703125,-2.105712890625
2.6374999000000003,0.6560112833976746,-0.2214636504650116,9.733627319335938,-12.847900390625,-9.857177734375,-12.14599609375
2.6424999000000002,1.3024457693099976,-0.6075286865234375,9.762955665588379,-3.265380859375,-3.875732421875,-3.997802734375
2.6474999,1.2856862545013428,-0.6236895322799683,9.835979461669922,14.862060546875,-8.697509765625,10.986328125
2.6524999,1.2952631711959839,-0.5752069354057312,9.729436874389648,-4.39453125,-7.843017578125,-1.739501953125
2.6574999000000004,1.260547161102295,-0.5949591398239136,9.716867446899414,-10.650634765625,2.593994140625,-10.040283203125
2.6624999000000003,1.2838906049728394,-0.46088382601737976,9.803657531738281,12.8173828125,1.708984375,6.378173828125
2.6674999,1.2527660131454468,-0.33758243918418884,9.679159164428711,2.3193359375,-0.640869140625,4.2724609375
2.6724999,1.2473790645599365,-0.3902548849582672,9.780313491821289,8.026123046875,10.955810546875,2.197265625
2.6774999000000004,1.225232720375061,-0.3477577865123749,9.733028411865234,8.30078125,4.33349609375,6.378173828125
2.6824999000000003,1.148618221282959,-0.4124012291431427,9.651026725769043,-15.777587890625,9.94873046875,-9.124755859375
2.6874999,1.0348936319351196,-0.5057750940322876,9.780313491821289,3.448486328125,12.3291015625,-0.732421875
2.6924999,0.8786720037460327,-0.44831427931785583,9.75637149810791,13.73291015625,1.708984375,7.049560546875
2.6974999,0.761954665184021,-0.3884592354297638,9.636661529541016,-14.83154296875,3.570556640625,-7.62939453125
2.7024999000000003,0.6135141849517822,-0.4878185987472534,9.780313491821289,-0.54931640625,5.06591796875,-1.64794921875
2.7074999,0.5201402902603149,-0.4411316514015198,9.837176322937012,16.7236328125,-6.34765625,7.50732421875
2.7124999,0.50876784324646,-0.3734954595565796,9.702502250671387,-14.892578125,-5.340576171875,-6.378173828125
2.7174999,0.5219359993934631,-0.5009866952896118,9.840767860412598,-3.692626953125,-1.617431640625,-1.708984375
2.7224999000000003,0.6171054840087891,-0.45010992884635925,9.898228645324707,19.012451171875,-10.406494140625,7.781982421875
2.7274999,0.7667431235313416,-0.36810851097106934,9.731232643127441,-15.56396484375,-7.598876953125,-5.37109375
2.7324999,1.0720038414001465,-0.45429977774620056,9.868300437927246,21.1181640625,-6.866455078125,6.34765625
2.7374999,1.2132617235183716,-0.363918662071228,9.61451530456543,-16.9677734375,-2.532958984375,-4.94384765625
2.7424999000000003,1.279700756072998,-0.4818331003189087,9.750985145568848,-3.814697265625,5.218505859375,-0.67138671875
2.7474999,1.3090298175811768,-0.43694180250167847,9.795876502990723,22.216796875,-1.800537109375,3.7841796875
2.7524999,1.278503656387329,-0.3148375153541565,9.57201862335205,-20.660400390625,3.570556640625,-6.500244140625
2.7574999,1.1851298809051514,-0.43095630407333374,9.790489196777344,-0.18310546875,8.72802734375,1.03759765625
2.7624999000000003,1.1091139316558838,-0.4016273319721222,9.84376049041748,20.81298828125,-0.8544921875,1.800537109375
2.7674999000000002,0.9977835416793823,-0.31364041566848755,9.619303703308105,-24.261474609375,5.035400390625,-6.40869140625
2.7724999,0.899621307849884,-0.4985924959182739,9.917980194091797,7.049560546875,6.103515625,3.387451171875
2.7774999,0.8469488620758057,-0.4273650050163269,9.81143856048584,15.533447265625,-3.41796875,-0.823974609375
2.7824999000000004,0.8038532137870789,-0.40940847992897034,9.663596153259277,-26.336669921875,3.875732421875,-4.791259765625
2.7874999000000003,0.8038532137870789,-0.40940847992897034,9.663596153259277,-26.336669921875,3.875732421875,-4.791259765625
2.7924999,0.9151836037635803,-0.4423287510871887,9.739612579345703,-12.6953125,3.47900390625,2.471923828125
2.7974999,0.9151836037635803,-0.4423287510871887,9.739612579345703,-12.6953125,3.47900390625,2.471923828125
2.8024999000000004,1.0732009410858154,-0.4381389021873474,9.793481826782227,14.190673828125,-5.859375,-3.90625
2.8074999000000003,1.0241197347640991,-0.4554968774318695,9.663596153259277,-26.30615234375,5.950927734375,-1.617431640625
2.8124999,1.0199298858642578,-0.6021417379379272,9.95090103149414,23.193359375,-1.190185546875,4.5166015625
2.8174999,1.002571940422058,-0.436343252658844,9.546280860900879,-7.904052734375,-1.220703125,-7.080078125
2.8224999,0.9762357473373413,-0.48303020000457764,9.834183692932129,23.8037109375,-4.852294921875,-0.701904296875
2.8274999000000003,0.9235633015632629,-0.3705027103424072,9.505578994750977,-24.658203125,5.2490234375,-4.058837890625
2.8324999,0.950498104095459,-0.517746090888977,9.983820915222168,14.34326171875,2.410888671875,6.53076171875
2.8374999,0.9636662006378174,-0.39863458275794983,9.66958236694336,2.655029296875,-4.302978515625,-6.744384765625
2.8424999,0.8876502513885498,-0.39803603291511536,9.75397777557373,-17.333984375,7.62939453125,2.685546875
2.8474999000000003,0.910993754863739,-0.46806642413139343,9.911994934082031,24.7802734375,-6.04248046875,0.640869140625
2.8524999,0.8487445116043091,-0.314238965511322,9.518747329711914,-21.66748046875,1.556396484375,-5.584716796875
2.8574999,0.862511157989502,-0.48901569843292236,9.964667320251465,10.25390625,1.46484375,6.28662109375
2.8624999,0.8966285586357117,-0.4058171808719635,9.683947563171387,4.669189453125,-7.659912109375,-6.622314453125
2.8674999000000003,0.8421604633331299,-0.3968389332294464,9.752182006835938,-17.63916015625,5.859375,2.25830078125
2.8724999,0.9175778031349182,-0.4944026470184326,9.955689430236816,23.62060546875,-7.476806640625,0.54931640625
2.8774999,0.8978256583213806,-0.35733461380004883,9.540295600891113,-21.759033203125,1.007080078125,-5.0048828125
2.8824999,1.0247182846069336,-0.4531026780605316,9.800065994262695,-13.031005859375,8.11767578125,3.997802734375
2.8874999000000003,1.0247182846069336,-0.4531026780605316,9.800065994262695,-13.031005859375,8.11767578125,3.997802734375
2.8924999000000002,1.0516531467437744,-0.4944026470184326,9.860519409179688,21.209716796875,-5.92041015625,-1.40380859375
2.8974999,1.003769040107727,-0.4159925580024719,9.589376449584961,-22.8271484375,4.8828125,-2.960205078125
2.9024999,0.9959878921508789,-0.5297171473503113,9.99220085144043,18.463134765625,1.40380859375,5.096435546875
2.9074999000000004,0.9977835416793823,-0.43335050344467163,9.586981773376465,-8.9111328125,-2.716064453125,-7.2021484375
2.9124999000000003,0.9660604000091553,-0.44173020124435425,9.897629737854004,-2.197265625,7.8125,6.16455078125
2.9174999,0.9929951429367065,-0.4602852761745453,9.767744064331055,12.63427734375,-6.77490234375,-4.638671875
2.9224999,0.9229647517204285,-0.3561375141143799,9.657012939453125,-19.805908203125,6.77490234375,1.129150390625
2.9274999000000004,0.9433154463768005,-0.47644615173339844,9.926959037780762,22.15576171875,-3.753662109375,1.312255859375
2.9324999000000003,0.8744821548461914,-0.3579331636428833,9.50857162475586,-19.8974609375,0.18310546875,-4.7607421875
2.9374999,0.889445960521698,-0.47824180126190186,9.982025146484375,13.397216796875,2.227783203125,6.011962890625
2.9424999,0.9630676507949829,-0.5003881454467773,9.775525093078613,13.73291015625,-7.4462890625,-4.425048828125
2.9474999,0.9295487999916077,-0.3842693865299225,9.654019355773926,-19.04296875,5.279541015625,1.46484375
2.9524999000000003,0.9971849918365479,-0.49799394607543945,9.90122127532959,21.270751953125,-3.60107421875,0.91552734375
2.9574999,0.9169792532920837,-0.3902548849582672,9.498994827270508,-20.20263671875,0.762939453125,-3.7841796875
2.9624999,0.9864110946655273,-0.4985924959182739,9.997588157653809,15.80810546875,2.105712890625,5.340576171875
2.9674999,0.9923965930938721,-0.4231751561164856,9.571419715881348,-9.33837890625,-3.875732421875,-6.7138671875
2.9724999000000003,1.0169371366500854,-0.46327802538871765,9.988011360168457,1.5869140625,6.40869140625,6.378173828125
2.9774999,1.0324994325637817,-0.4279635548591614,9.671378135681152,5.767822265625,-5.92041015625,-6.561279296875
2.9824999,1.0157400369644165,-0.3770867586135864,9.846753120422363,-12.237548828125,6.89697265625,4.119873046875
2.9874999,1.0085574388504028,-0.456095427274704,9.791686058044434,16.9677734375,-4.791259765625,-2.838134765625
2.9924999000000003,0.9235633015632629,-0.3585317134857178,9.653421401977539,-19.775390625,3.96728515625,0.091552734375
2.9974999,0.9283517003059387,-0.4315548539161682,9.557653427124023,-10.92529296875,-4.08935546875,-6.561279296875
3.0024999,0.9570821523666382,-0.4770447015762329,9.998785018920898,5.55419921875,4.608154296875,6.317138671875
3.0074999,0.9624691009521484,-0.48482584953308105,9.617507934570312,-0.213623046875,-5.828857421875,-6.8359375
3.0124999000000003,0.9738415479660034,-0.45669397711753845,9.883264541625977,-5.035400390625,5.645751953125,5.79833984375
3.0174999000000002,0.9738415479660034,-0.4704606235027313,9.657610893249512,9.70458984375,-5.9814453125,-5.096435546875
3.0224999,0.9828197956085205,-0.3734954595565796,9.801262855529785,-13.3056640625,4.8828125,3.509521484375
3.0274999,0.983418345451355,-0.46806642413139343,9.785101890563965,16.204833984375,-3.875732421875,-2.471923828125
3.0324999000000004,0.9534908533096313,-0.3878606855869293,9.720458984375,-17.88330078125,3.11279296875,0.518798828125
3.0374999000000003,0.983418345451355,-0.50876784324646,9.919178009033203,18.402099609375,-1.28173828125,0.42724609375
3.0424999,0.8900445103645325,-0.41120412945747375,9.616311073303223,-18.157958984375,0.6103515625,-2.227783203125
3.0474999,0.8738836050033569,-0.365115761756897,9.527127265930176,-15.68603515625,-1.434326171875,-4.39453125
3.0524999000000004,0.9660604000091553,-0.4124012291431427,9.920374870300293,13.61083984375,2.99072265625,4.82177734375
3.0574999000000003,0.912190854549408,-0.38726213574409485,9.515754699707031,-10.92529296875,-3.41796875,-5.92041015625
3.0624999,0.9546879529953003,-0.47165772318840027,9.941922187805176,8.209228515625,4.150390625,5.828857421875
3.0674999,0.9181763529777527,-0.48482584953308105,9.543886184692383,-5.462646484375,-4.150390625,-6.500244140625
3.0724999000000004,0.922366201877594,-0.5321113467216492,9.95090103149414,2.62451171875,4.7607421875,6.04248046875
3.0774999000000003,0.9493009448051453,-0.5327098965644836,9.61331844329834,-0.030517578125,-4.638671875,-6.500244140625
3.0824999,0.9481038451194763,-0.4638765752315521,9.915586471557617,-2.3193359375,4.45556640625,5.67626953125
3.0874999,0.9642647504806519,-0.47824180126190186,9.673771858215332,4.730224609375,-4.82177734375,-5.828857421875
3.0924999,0.9714473485946655,-0.3555389642715454,9.8784761428833,-6.77490234375,3.875732421875,4.94384765625
3.0974999000000003,0.9469067454338074,-0.4381389021873474,9.676166534423828,8.636474609375,-4.150390625,-5.157470703125
3.1024999,0.9786299467086792,-0.3208230137825012,9.786299705505371,-9.765625,3.662109375,3.96728515625
3.1074999,0.9900023937225342,-0.33937808871269226,9.752182006835938,-12.26806640625,2.99072265625,2.9296875
3.1124999,0.9582792520523071,-0.4950011968612671,9.73542308807373,13.153076171875,-2.44140625,-3.35693359375
3.1174999000000003,0.9660604000091553,-0.3794809579849243,9.798869132995605,-13.824462890625,2.288818359375,1.983642578125
3.1224999,0.970848798751831,-0.5937620401382446,9.865906715393066,15.0146484375,-1.03759765625,-1.46484375
3.1274999,0.9481038451194763,-0.4489128291606903,9.765350341796875,-15.0146484375,1.556396484375,0.823974609375
3.1324999,0.9696516990661621,-0.5219359993934631,9.84495735168457,15.411376953125,-1.03759765625,-0.946044921875
3.1374999000000003,0.945111095905304,-0.3519476354122162,9.738415718078613,-15.2587890625,0.8544921875,0.42724609375
3.1424999000000002,0.9702502489089966,-0.43754035234451294,9.827000617980957,15.44189453125,-0.732421875,-0.579833984375
3.1474999,0.9385270476341248,-0.30286651849746704,9.730035781860352,-15.411376953125,0.732421875,0.152587890625
3.1524999,0.9636662006378174,-0.41778820753097534,9.816825866699219,15.228271484375,-0.6103515625,-0.457763671875
3.1574999000000004,0.9648633003234863,-0.42377370595932007,9.81024169921875,14.923095703125,-0.579833984375,-0.457763671875
3.1624999000000003,0.950498104095459,-0.3196259140968323,9.743802070617676,-14.984130859375,0.518798828125,0.030517578125
3.1674999,0.9744400978088379,-0.4357447028160095,9.80904483795166,14.862060546875,-0.8544921875,-0.579833984375
3.1724999,0.9481038451194763,-0.3411737382411957,9.723451614379883,-14.495849609375,0.732421875,0.30517578125
3.1774999000000004,0.9714473485946655,-0.4495113790035248,9.791088104248047,14.34326171875,-0.8544921875,-1.03759765625
3.1824999000000003,0.9463081955909729,-0.35913026332855225,9.70310115814209,-14.2822265625,1.007080078125,0.6103515625
3.1874999,0.9624691009521484,-0.4752490520477295,9.747992515563965,13.85498046875,-1.129150390625,-1.40380859375
3.1924999,0.9493009448051453,-0.3663128614425659,9.70429801940918,-13.24462890625,1.190185546875,1.15966796875
3.1974999000000004,0.9403226971626282,-0.48901569843292236,9.70549488067627,12.786865234375,-1.46484375,-1.89208984375
3.2024999000000003,0.9672574996948242,-0.31184476613998413,9.757569313049316,-12.26806640625,1.434326171875,1.77001953125
3.2074999,0.9355342984199524,-0.46986207365989685,9.701904296875,11.5966796875,-1.52587890625,-2.716064453125
3.2124999,0.9798270463943481,-0.27892449498176575,9.804854393005371,-10.68115234375,1.953125,2.50244140625
3.2174999,0.9343371987342834,-0.4878185987472534,9.6989107131958,9.796142578125,-2.044677734375,-3.326416015625
3.2224999000000003,0.9493009448051453,-0.31783026456832886,9.786299705505371,-8.575439453125,1.953125,3.23486328125
3.2274999,0.9127894043922424,-0.5231330990791321,9.648633003234863,7.38525390625,-2.349853515625,-4.119873046875
3.2324999,0.9367313981056213,-0.33937808871269226,9.831789016723633,-5.889892578125,2.62451171875,3.875732421875
3.2374999,0.9355342984199524,-0.518943190574646,9.643245697021484,4.5166015625,-2.532958984375,-4.638671875
3.2424999000000003,0.9558850526809692,-0.36750996112823486,9.946112632751465,-2.899169921875,2.593994140625,4.364013671875
3.2474999,0.9475052952766418,-0.5345055460929871,9.634267807006836,0.9765625,-2.838134765625,-5.035400390625
3.2524999,0.9750386476516724,-0.4183867573738098,9.979631423950195,0.823974609375,2.838134765625,4.7607421875
3.2574999,0.9235633015632629,-0.5560533404350281,9.586981773376465,-2.685546875,-2.62451171875,-5.462646484375
3.2624999000000003,0.982221245765686,-0.3998316824436188,9.941922187805176,4.791259765625,2.838134765625,4.638671875
3.2674999000000002,0.912190854549408,-0.5303156971931458,9.55466079711914,-6.591796875,-2.44140625,-4.94384765625
3.2724999,0.9756371974945068,-0.3423708379268646,9.909002304077148,8.392333984375,2.593994140625,4.21142578125
3.2774999,0.8906430602073669,-0.5093663930892944,9.533112525939941,-10.009765625,-2.01416015625,-4.425048828125
3.2824999000000004,0.9816226959228516,-0.36092591285705566,9.830592155456543,13.214111328125,0.885009765625,1.861572265625
3.2874999000000003,0.9097966551780701,-0.5093663930892944,9.740211486816406,-13.397216796875,-0.48828125,-1.40380859375
3.2924999,0.9983820915222168,-0.45190557837486267,9.855133056640625,12.969970703125,-0.030517578125,-0.152587890625
3.2974999,0.9923965930938721,-0.4967968463897705,9.860519409179688,-12.603759765625,0.274658203125,0.579833984375
3.3024999000000004,0.9971849918365479,-0.49320554733276367,9.789292335510254,11.138916015625,-0.823974609375,-1.89208984375
3.3074999000000003,0.9774328470230103,-0.3663128614425659,9.815628051757812,-9.33837890625,1.007080078125,2.5634765625
3.3124999,0.9528923034667969,-0.4686649739742279,9.633668899536133,7.14111328125,-1.46484375,-3.631591796875
3.3174999,0.9397241473197937,-0.28131869435310364,9.806650161743164,-4.608154296875,1.953125,3.814697265625
3.3224999000000004,0.9062053561210632,-0.4926069974899292,9.561244010925293,1.5869140625,-1.922607421875,-4.638671875
3.3274999000000003,0.9481038451194763,-0.3363853394985199,9.9000244140625,1.46484375,2.227783203125,4.45556640625
3.3324999,0.8882488012313843,-0.5614402890205383,9.570222854614258,-4.364013671875,-2.105712890625,-4.7607421875
3.3374999,0.8601169586181641,-0.5859808921813965,9.596558570861816,-9.521484375,-1.64794921875,-3.753662109375
3.3424999,0.9660604000091553,-0.3842693865299225,9.882665634155273,11.199951171875,1.434326171875,2.50244140625
3.3474999000000003,0.8882488012313843,-0.5692214369773865,9.68694019317627,-12.20703125,-1.007080078125,-1.89208984375
3.3524999,0.9888052940368652,-0.3770867586135864,9.822212219238281,12.603759765625,0.213623046875,0.152587890625
3.3574999,1.0007762908935547,-0.4578910768032074,9.813833236694336,-11.8408203125,0.213623046875,0.579833984375
3.3624999,0.9295487999916077,-0.4141969084739685,9.627084732055664,4.486083984375,-1.434326171875,-4.0283203125
3.3674999000000003,0.9570821523666382,-0.2759317457675934,9.888651847839355,-0.79345703125,1.8310546875,3.90625
3.3724999,0.8816647529602051,-0.48063600063323975,9.532513618469238,-2.8076171875,-2.01416015625,-4.45556640625
3.3774999,0.973242998123169,-0.3645172119140625,9.888052940368652,6.195068359375,1.64794921875,3.753662109375
3.3824999,0.8595184087753296,-0.5512649416923523,9.549872398376465,-9.033203125,-1.495361328125,-3.662109375
3.3874999000000003,0.9744400978088379,-0.3016694188117981,9.926959037780762,4.5166015625,1.77001953125,3.753662109375
3.3924999000000002,0.8571242094039917,-0.48303020000457764,9.57979965209961,-7.9345703125,-1.28173828125,-3.509521484375
3.3974999,0.8571242094039917,-0.48303020000457764,9.57979965209961,-7.9345703125,-1.28173828125,-3.509521484375
3.4024999,0.9510966539382935,-0.3860650360584259,9.817423820495605,10.3759765625,1.190185546875,2.044677734375
3.4074999000000004,0.8912416100502014,-0.5566518902778625,9.697115898132324,-11.29150390625,-0.67138671875,-1.15966796875
3.4124999000000003,0.9666589498519897,-0.49380409717559814,9.741408348083496,10.772705078125,-0.030517578125,-0.946044921875
3.4174999,0.9493009448051453,-0.4908113479614258,9.655815124511719,5.096435546875,-1.220703125,-3.326416015625
3.4224999,0.9493009448051453,-0.4908113479614258,9.655815124511719,5.096435546875,-1.220703125,-3.326416015625
3.4274999000000004,0.9989806413650513,-0.31783026456832886,9.898826599121094,-0.79345703125,1.3427734375,3.72314453125
3.4324999000000003,0.9091981053352356,-0.45489832758903503,9.589975357055664,-3.23486328125,-1.52587890625,-4.058837890625
3.4374999,0.9923965930938721,-0.3058592677116394,9.895236015319824,7.110595703125,1.3427734375,3.448486328125
3.4424999,0.9726444482803345,-0.4058171808719635,9.79408073425293,10.7421875,0.518798828125,0.579833984375
3.4474999000000004,0.9726444482803345,-0.4058171808719635,9.79408073425293,10.7421875,0.518798828125,0.579833984375
3.4524999000000003,0.9786299467086792,-0.5033808946609497,9.799467086791992,-10.040283203125,-0.213623046875,0.518798828125
3.4574999,0.9738415479660034,-0.47165772318840027,9.706093788146973,7.568359375,-0.823974609375,-1.983642578125
3.4624999,1.0097545385360718,-0.34596213698387146,9.932345390319824,-4.119873046875,1.312255859375,3.35693359375
3.4674999,0.9241618514060974,-0.44831427931785583,9.618705749511719,-1.251220703125,-1.46484375,-3.509521484375
3.4724999000000003,0.9385270476341248,-0.395043283700943,9.916783332824707,4.364013671875,1.129150390625,3.814697265625
3.4774999,0.9469067454338074,-0.43933600187301636,9.668983459472656,9.674072265625,-1.373291015625,0.06103515625
3.4824999,0.9552865028381348,-0.4315548539161682,9.905410766601562,-6.89697265625,-0.885009765625,3.631591796875
3.4874999,0.8720879554748535,-0.6009446382522583,9.723451614379883,3.509521484375,-3.753662109375,-3.47900390625
3.4924999000000003,0.8798691034317017,-0.4578910768032074,10.023923873901367,2.044677734375,-1.52587890625,4.0283203125
3.4974999,0.7960720658302307,-0.5069721937179565,9.674968719482422,-3.875732421875,-5.889892578125,-3.11279296875
3.5024999,0.8846575021743774,-0.3926490843296051,9.95209789276123,9.613037109375,-3.143310546875,3.753662109375
3.5074999,0.8349778652191162,-0.40462008118629456,9.656414031982422,-11.1083984375,-5.950927734375,-2.3193359375
3.5124999000000003,0.9445125460624695,-0.333991140127182,9.791088104248047,11.077880859375,-3.60107421875,0.8544921875
3.5174999000000002,1.0205284357070923,-0.35733461380004883,9.747393608093262,-10.7421875,-3.0517578125,0.335693359375
3.5224999,1.092953085899353,-0.4118026793003082,9.668983459472656,8.7890625,-2.960205078125,-1.46484375
3.5274999,1.1563993692398071,-0.4920084476470947,9.916184425354004,3.509521484375,2.105712890625,3.082275390625
3.5324999000000004,1.1563993692398071,-0.4920084476470947,9.916184425354004,3.509521484375,2.105712890625,3.082275390625
3.5374999000000003,1.0552444458007812,-0.569819986820221,9.528923034667969,-4.486083984375,-0.274658203125,-4.913330078125
3.5424999,1.1013327836990356,-0.44532153010368347,9.828198432922363,10.1318359375,3.265380859375,2.44140625
3.5474999,0.9840168952941895,-0.43095630407333374,9.526528358459473,-11.23046875,1.434326171875,-1.983642578125
3.5524999000000004,0.9804255962371826,-0.44352585077285767,9.713874816894531,11.29150390625,2.5634765625,2.50244140625
3.5574999000000003,0.9475052952766418,-0.24839842319488525,9.638457298278809,-9.613037109375,0.9765625,1.190185546875
3.5624999,0.9636662006378174,-0.0005985504249110818,9.404424667358398,4.119873046875,1.52587890625,-1.5869140625
3.5674999,1.0133458375930786,0.5997475385665894,9.091382026672363,-21.1181640625,7.8125,4.7607421875
3.5724999000000004,1.1162965297698975,0.6631938815116882,8.266579627990723,-0.8544921875,7.537841796875,0.8544921875
3.5774999000000003,1.3407529592514038,0.5392939448356628,7.726687431335449,-14.2822265625,17.425537109375,15.2587890625
3.5824999,1.8584990501403809,-1.2018892765045166,6.944382190704346,-3.875732421875,22.247314453125,10.07080078125
3.5874999,1.8453309535980225,-3.8055837154388428,6.477512836456299,27.7099609375,81.329345703125,-14.007568359375
3.5924999,1.4664485454559326,-2.3050177097320557,6.475717067718506,46.81396484375,63.079833984375,17.303466796875
3.5974999000000003,0.29628247022628784,-1.049857497215271,6.411672115325928,40.95458984375,37.384033203125,34.36279296875
3.6024999,-1.4778209924697876,0.6392518281936646,7.016806602478027,15.289306640625,3.082275390625,33.966064453125
3.6074999,-2.9017724990844727,1.3377602100372314,7.168240070343018,-2.74658203125,-32.257080078125,43.609619140625
3.6124999,-4.098873138427734,2.3798365592956543,8.33182144165039,-6.04248046875,-43.060302734375,66.131591796875
3.6174999000000003,-4.598064422607422,2.800018787384033,8.9680814743042,19.256591796875,-38.848876953125,74.15771484375
3.6224999,-4.217984676361084,3.7415387630462646,10.04068374633789,12.0849609375,-54.290771484375,72.32666015625
3.6274999,-3.355473756790161,3.5847184658050537,10.201094627380371,-9.8876953125,-70.37353515625,37.353515625
3.6324999,-1.8644845485687256,4.038419723510742,10.441712379455566,-3.47900390625,-76.47705078125,15.228271484375
3.6374999000000003,-1.0444705486297607,2.808398485183716,10.088567733764648,-1.0986328125,-71.990966796875,2.50244140625
3.6424999000000002,-0.4231751561164856,0.9313444495201111,12.020090103149414,54.901123046875,-100.40283203125,88.104248046875
3.6474999,-1.0307037830352783,-0.322618693113327,12.660538673400879,135.8642578125,-70.73974609375,155.364990234375
3.6524999,-1.3880383968353271,-2.475006103515625,13.73074722290039,185.97412109375,-45.135498046875,147.03369140625
3.6574999000000004,-0.9564836025238037,-4.183867454528809,14.121600151062012,211.090087890625,-77.7587890625,110.504150390625
3.6624999000000003,0.40222588181495667,-4.517858505249023,13.35425853729248,196.014404296875,-120.30029296875,64.788818359375
3.6674999,1.9075802564620972,-3.640383720397949,11.158177375793457,145.3857421875,-145.660400390625,26.824951171875
3.6724999,3.1860837936401367,-1.5957354307174683,8.423998832702637,122.98583984375,-151.7333984375,5.7373046875
3.6774999000000004,4.073734283447266,0.7793126702308655,5.822698593139648,93.56689453125,-132.6904296875,-0.9765625
3.6824999000000003,4.772242546081543,2.8658595085144043,4.307168960571289,59.75341796875,-88.92822265625,1.190185546875
3.6874999,5.3576250076293945,4.40353536605835,3.7690720558166504,32.135009765625,-50.537109375,1.495361328125
3.6924999,5.812523365020752,5.373785495758057,3.936666250228882,3.814697265625,-16.937255859375,6.28662109375
3.6974999000000004,5.615001678466797,5.468955039978027,5.808333396911621,-108.795166015625,52.42919921875,-3.509521484375
3.7024999000000003,5.096656799316406,4.985326290130615,5.970540523529053,-137.115478515625,69.488525390625,-9.246826171875
3.7074999,4.499902248382568,4.434061527252197,5.969343185424805,-167.633056640625,82.94677734375,-12.02392578125
3.7124999,3.955221176147461,3.8959646224975586,5.9519853591918945,-195.25146484375,95.306396484375,-17.547607421875
3.7174999,3.4530375003814697,3.426102638244629,5.990890979766846,-224.9755859375,106.0791015625,-21.759033203125
3.7224999000000003,3.116053581237793,2.826953649520874,6.503250598907471,-250.091552734375,127.5634765625,-22.247314453125
3.7274999,3.251325845718384,1.9434932470321655,8.374917984008789,-220.245361328125,203.06396484375,-19.287109375
3.7324999,3.60566782951355,-0.19692309200763702,10.961254119873047,-49.346923828125,327.63671875,-32.16552734375
3.7374999,3.42490553855896,-2.9269115924835205,14.256872177124023,35.736083984375,242.095947265625,-54.74853515625
3.7424999000000003,2.625840663909912,-5.603030681610107,16.220117568969727,-16.815185546875,78.369140625,-47.79052734375
3.7474999,-1.467047095298767,-7.335235595703125,13.831303596496582,-25.390625,8.453369140625,-32.135009765625
3.7524999,-3.3207578659057617,-5.9968767166137695,10.313023567199707,-17.303466796875,-7.659912109375,-37.139892578125
3.7574999,-4.528632640838623,-4.334103584289551,7.001842975616455,-6.34765625,-18.035888671875,-32.928466796875
3.7624999000000003,-4.993706226348877,-2.9718029499053955,5.0254292488098145,13.00048828125,-1.708984375,-22.735595703125
3.7674999000000002,-4.924274444580078,-2.319981336593628,4.789600372314453,28.99169921875,4.547119140625,-17.578125
3.7724999,-4.3406877517700195,-2.408566951751709,6.016030311584473,40.130615234375,-18.280029296875,-18.951416015625
3.7774999,-3.3943793773651123,-2.5558102130889893,7.997232437133789,39.9169921875,-44.0673828125,-17.486572265625
3.7824999000000004,-2.1739351749420166,-2.565387010574341,10.00836181640625,34.576416015625,-54.046630859375,-11.871337890625
3.7874999000000003,-0.851138710975647,-1.8908207416534424,11.588534355163574,23.86474609375,-59.906005859375,-5.18798828125
3.7924999,0.395043283700943,-0.6631938815116882,12.370840072631836,8.11767578125,-63.1103515625,-2.62451171875
3.7974999,1.3509283065795898,0.7320271730422974,12.417527198791504,-0.762939453125,-62.56103515625,-2.685546875
3.8024999000000004,2.2463598251342773,1.6873136758804321,11.905766487121582,-3.326416015625,-63.079833984375,-2.532958984375
3.8074999000000003,2.93888258934021,1.3036428689956665,9.130288124084473,-9.21630859375,-15.2587890625,5.615234375
3.8124999,2.853289842605591,0.4159925580024719,8.702922821044922,-11.749267578125,-7.843017578125,2.044677734375
3.8174999,2.7676970958709717,-0.4279635548591614,8.677783966064453,-8.36181640625,0.54931640625,-3.90625
3.8224999000000004,2.670732021331787,-1.213860273361206,8.826224327087402,-3.204345703125,14.312744140625,-7.843017578125
3.8274999000000003,2.5306711196899414,-1.5107412338256836,9.114127159118652,-0.3662109375,20.355224609375,-5.950927734375
3.8324999,2.36188006401062,-1.703474521636963,9.344569206237793,3.7841796875,24.566650390625,-2.25830078125
3.8374999,2.075174331665039,-1.3311761617660522,9.440936088562012,4.94384765625,27.52685546875,2.8076171875
3.8424999,1.2108675241470337,-0.4213795065879822,9.81024169921875,2.655029296875,23.681640625,2.86865234375
3.8474999000000003,0.7146692276000977,-0.18555063009262085,9.95748519897461,-0.67138671875,18.73779296875,0.42724609375
3.8524999,0.36152446269989014,0.14185644686222076,10.023923873901367,-2.044677734375,11.8408203125,-1.52587890625
3.8574999,0.12090718746185303,-0.47584760189056396,9.96825885772705,-0.732421875,-7.354736328125,1.77001953125
3.8624999,0.3597288131713867,-0.46806642413139343,9.95748519897461,0.67138671875,-10.1318359375,0.152587890625
3.8674999000000003,0.6003460884094238,-0.6242880821228027,9.909002304077148,1.64794921875,-9.918212890625,-1.0986328125
3.8724999,0.8553285598754883,-0.35015198588371277,9.841365814208984,-1.15966796875,-10.92529296875,-2.62451171875
3.8774999,1.1139023303985596,-0.5123591423034668,9.806051254272461,0.518798828125,-6.195068359375,-4.7607421875
3.8824999,1.2509703636169434,-0.3531447649002075,9.742006301879883,-3.326416015625,-4.547119140625,-0.579833984375
3.8874999000000003,1.3838485479354858,-0.3513490855693817,9.726444244384766,1.129150390625,-0.67138671875,3.875732421875
3.8924999000000002,1.400607943534851,-0.5039794445037842,9.744999885559082,-0.457763671875,-1.15966796875,3.41796875
3.8974999,1.3563152551651,-0.4255693554878235,9.741408348083496,0.213623046875,1.312255859375,0.06103515625
3.9024999,1.2773065567016602,-0.6596025824546814,9.679757118225098,-0.579833984375,-0.18310546875,-3.570556640625
3.9074999000000004,1.2198457717895508,-0.641047477722168,9.578003883361816,-0.946044921875,4.669189453125,-1.89208984375
3.9124999000000003,1.193509578704834,-0.3818751573562622,9.65222454071045,1.861572265625,4.852294921875,4.8828125
3.9174999,1.1348515748977661,-0.39205053448677063,9.768941879272461,0.6103515625,2.0751953125,4.730224609375
3.9224999,1.037886381149292,-0.2513911724090576,9.870096206665039,-0.274658203125,1.3427734375,-0.244140625
3.9274999000000004,0.884058952331543,-0.3256114423274994,9.926959037780762,-1.89208984375,-1.03759765625,-4.39453125
3.9324999000000003,0.8200140595436096,-0.3860650360584259,9.840168952941895,-0.457763671875,1.007080078125,-6.103515625
3.9374999,0.8337807655334473,-0.3345896899700165,9.805453300476074,-1.068115234375,1.190185546875,1.0986328125
3.9424999,0.821809709072113,-0.41958385705947876,9.743204116821289,2.13623046875,-0.67138671875,7.171630859375
3.9474999000000004,0.8313865661621094,-0.406415730714798,9.797073364257812,1.434326171875,-3.692626953125,2.685546875
3.9524999000000003,0.8200140595436096,-0.5925649404525757,9.82879638671875,-0.946044921875,-4.82177734375,-4.425048828125
3.9574999,0.8277952671051025,-0.5626373887062073,9.822212219238281,-1.556396484375,-2.899169921875,-8.331298828125
3.9624999,0.9828197956085205,-0.6530185341835022,9.807249069213867,-1.739501953125,0.18310546875,-1.800537109375
3.9674999000000004,1.1683704853057861,-0.43335050344467163,9.800065994262695,3.35693359375,-2.410888671875,6.072998046875
3.9724999000000003,1.1881226301193237,-0.4231751561164856,9.754576683044434,-1.678466796875,-2.99072265625,-4.21142578125
3.9774999,1.1252747774124146,-0.3705027103424072,9.695918083190918,-3.173828125,1.129150390625,-10.101318359375
3.9824999,1.1893197298049927,-0.4423287510871887,9.636661529541016,-1.373291015625,5.126953125,-1.708984375
3.9874999,1.1426327228546143,-0.5321113467216492,9.657610893249512,3.72314453125,3.23486328125,10.711669921875
3.9924999000000003,1.1336544752120972,-0.4465186297893524,9.701904296875,4.69970703125,0.885009765625,6.011962890625
3.9974999,1.027711033821106,-0.5291185975074768,9.806650161743164,-4.058837890625,-0.518798828125,-6.34765625
4.0024999,0.9648633003234863,-0.38905778527259827,9.72165584564209,6.16455078125,0.091552734375,11.810302734375
4.0074999,0.9391255974769592,-0.4531026780605316,9.746794700622559,1.739501953125,-3.60107421875,0.579833984375
4.0124999,0.8547300100326538,-0.40521863102912903,9.78869342803955,-6.500244140625,-2.3193359375,-12.786865234375
4.0174999,0.9056068062782288,-0.37888240814208984,9.733028411865234,5.2490234375,-0.244140625,11.871337890625
4.022499900000001,0.9654618501663208,-0.45908817648887634,9.731831550598145,6.317138671875,-5.279541015625,6.8359375
4.0274999000000005,0.9864110946655273,-0.363918662071228,9.780912399291992,-5.55419921875,-3.96728515625,-11.29150390625
4.0324999,1.0360907316207886,-0.4381389021873474,9.699509620666504,-7.26318359375,2.86865234375,-10.772705078125
4.0374999,1.0666168928146362,-0.39145198464393616,9.725846290588379,4.852294921875,2.288818359375,9.490966796875
4.0424999,1.0666168928146362,-0.39145198464393616,9.725846290588379,4.852294921875,2.288818359375,9.490966796875
4.0474999,1.0965443849563599,-0.4620809257030487,9.703699111938477,9.33837890625,-4.5166015625,10.650634765625
4.0524999,1.0989385843276978,-0.39145198464393616,9.77133560180664,-5.37109375,-2.99072265625,-9.33837890625
4.0574999,1.0899603366851807,-0.4638765752315521,9.73542308807373,-9.490966796875,4.2724609375,-13.031005859375
4.062499900000001,1.062427043914795,-0.3974374830722809,9.75936508178711,5.0048828125,3.936767578125,8.48388671875
4.0674999000000005,1.0432734489440918,-0.4902127981185913,9.807249069213867,10.19287109375,-4.33349609375,11.71875
4.0724999,1.015141487121582,-0.4381389021873474,9.822811126708984,-6.34765625,-1.3427734375,-9.185791015625
4.0774999,0.9672574996948242,-0.5063736438751221,9.870695114135742,7.354736328125,2.86865234375,9.490966796875
4.0824999,1.048660397529602,-0.4554968774318695,9.70549488067627,-5.462646484375,6.378173828125,-6.744384765625
4.0874999,1.0181342363357544,-0.4106055796146393,9.750985145568848,10.92529296875,-0.518798828125,12.26806640625
4.0924999,1.0324994325637817,-0.3818751573562622,9.699509620666504,1.708984375,-5.18798828125,2.532958984375
4.0974999,1.0271124839782715,-0.4273650050163269,9.688735961914062,-11.5966796875,2.899169921875,-13.3056640625
4.1024999,0.99479079246521,-0.4034229815006256,9.764751434326172,2.62451171875,4.730224609375,2.13623046875
4.1074999000000005,1.0067617893218994,-0.4554968774318695,9.785700798034668,10.955810546875,-4.791259765625,11.566162109375
4.1124999,1.0019733905792236,-0.39564183354377747,9.743204116821289,-7.598876953125,-2.8076171875,-7.4462890625
4.1174999,1.0193313360214233,-0.5201402902603149,9.774927139282227,-7.354736328125,5.401611328125,-8.026123046875
4.1224999,0.9762357473373413,-0.47644615173339844,9.880271911621094,11.810302734375,-0.091552734375,10.68115234375
4.1274999,0.9911994934082031,-0.44592007994651794,9.822212219238281,6.378173828125,3.84521484375,4.39453125
4.1324999,1.0211269855499268,-0.39205053448677063,9.780912399291992,9.429931640625,-5.035400390625,8.514404296875
4.1374999,1.0648212432861328,-0.40222588181495667,9.696516990661621,-12.908935546875,-0.1220703125,-10.31494140625
4.1424999,1.0121487379074097,-0.48961424827575684,9.740211486816406,-1.617431640625,5.950927734375,-2.13623046875
4.147499900000001,1.0091559886932373,-0.49380409717559814,9.81024169921875,14.6484375,-3.0517578125,10.7421875
4.1524999000000005,1.0223240852355957,-0.43694180250167847,9.702502250671387,-8.697509765625,-2.838134765625,-5.828857421875
4.1574999,1.0492589473724365,-0.5398924946784973,9.762357711791992,-9.124755859375,5.767822265625,-7.080078125
4.1624999,0.9588778018951416,-0.5315127968788147,9.914987564086914,16.2353515625,-0.8544921875,9.46044921875
4.1674999,1.0528502464294434,-0.40222588181495667,9.748590469360352,-3.021240234375,-4.364013671875,-1.46484375
4.1724999,1.0001777410507202,-0.48722004890441895,9.725247383117676,-15.2587890625,4.608154296875,-8.636474609375
4.1774999,0.9570821523666382,-0.4638765752315521,9.856329917907715,15.594482421875,0.8544921875,7.26318359375
4.1824999,1.0043675899505615,-0.40222588181495667,9.636661529541016,-19.53125,3.84521484375,-8.60595703125
4.187499900000001,0.982221245765686,-0.46088382601737976,9.840767860412598,14.373779296875,2.105712890625,5.43212890625
4.1924999000000005,1.0426748991012573,-0.3758896589279175,9.695918083190918,7.476806640625,-6.28662109375,1.953125
4.1974999,1.0534487962722778,-0.4040215313434601,9.61571216583252,-22.3388671875,3.2958984375,-7.75146484375
4.2024999,1.0468647480010986,-0.47644615173339844,9.832986831665039,13.214111328125,2.99072265625,4.638671875
4.2074999,1.0678139925003052,-0.39384618401527405,9.729436874389648,10.223388671875,-6.2255859375,1.3427734375
4.2124999,1.0749965906143188,-0.39564183354377747,9.637859344482422,-24.322509765625,3.47900390625,-6.8359375
4.2174999,1.0426748991012573,-0.49140989780426025,9.876082420349121,14.0380859375,3.326416015625,4.7607421875
4.2224999,1.048660397529602,-0.3968389332294464,9.773730278015137,10.8642578125,-6.28662109375,0.18310546875
4.2274999,1.0534487962722778,-0.4082113802433014,9.651625633239746,-26.153564453125,4.241943359375,-5.43212890625
4.2324999000000005,0.99479079246521,-0.5099649429321289,9.963470458984375,16.876220703125,2.655029296875,5.279541015625
4.2374999,1.0229226350784302,-0.4040215313434601,9.768342971801758,8.209228515625,-6.317138671875,-2.01416015625
4.2424999,1.0259153842926025,-0.3711012601852417,9.622895240783691,1.495361328125,-5.7373046875,-4.119873046875
4.2474999,0.9983820915222168,-0.45429977774620056,9.597756385803223,-24.017333984375,6.439208984375,-1.068115234375
4.2524999,0.993593692779541,-0.48602294921875,9.891045570373535,26.824951171875,-1.556396484375,4.8828125
4.2574999,1.0043675899505615,-0.4129997789859772,9.59177017211914,-8.9111328125,-4.302978515625,-6.072998046875
4.2624999,0.9690531492233276,-0.4387374520301819,9.724050521850586,-16.204833984375,7.26318359375,2.38037109375
4.2674999,0.9594763517379761,-0.456095427274704,9.926360130310059,28.99169921875,-4.638671875,2.288818359375
4.272499900000001,0.9882067441940308,-0.32441434264183044,9.588777542114258,-20.751953125,-1.3427734375,-6.4697265625
4.2774999000000005,0.9355342984199524,-0.4165911078453064,9.858125686645508,-1.77001953125,6.103515625,5.31005859375
4.2824999,1.0181342363357544,-0.414795458316803,9.855731010437012,23.040771484375,-7.14111328125,-1.89208984375
4.2874999,1.0229226350784302,-0.3513490855693817,9.583989143371582,-28.86962890625,3.11279296875,-3.96728515625
4.2924999,1.0372878313064575,-0.507570743560791,9.97484302520752,15.777587890625,2.8076171875,6.256103515625
4.2974999,1.0534487962722778,-0.45489832758903503,9.671976089477539,-24.84130859375,7.14111328125,1.220703125
4.3024999,0.9876081943511963,-0.5261258482933044,9.941922187805176,27.923583984375,-2.685546875,3.41796875
4.3074999,1.01753568649292,-0.42437225580215454,9.565434455871582,-14.984130859375,-3.143310546875,-7.476806640625
4.312499900000001,0.9469067454338074,-0.4920084476470947,9.798270225524902,-6.04248046875,7.659912109375,6.16455078125
4.3174999000000005,0.9876081943511963,-0.4926069974899292,9.883264541625977,23.3154296875,-7.415771484375,-2.899169921875
4.3224999,0.993593692779541,-0.3902548849582672,9.679159164428711,-17.51708984375,8.026123046875,4.2724609375
4.3274999,1.0211269855499268,-0.4381389021873474,9.90241813659668,26.85546875,-5.18798828125,0.06103515625
4.3324999,1.0013748407363892,-0.33758243918418884,9.479243278503418,-24.0478515625,0.030517578125,-5.218505859375
4.3374999,1.0408791303634644,-0.4471171796321869,9.937732696533203,10.894775390625,4.638671875,7.50732421875
4.3424999,1.0336965322494507,-0.383670836687088,9.680954933166504,-20.01953125,6.8359375,3.509521484375
4.3474999,1.0690110921859741,-0.4626794755458832,9.945513725280762,26.123046875,-3.875732421875,0.946044921875
4.352499900000001,1.0133458375930786,-0.3603273630142212,9.509170532226562,-22.186279296875,-0.457763671875,-5.37109375
4.3574999000000005,1.037886381149292,-0.43993455171585083,9.941324234008789,10.1318359375,5.06591796875,7.32421875
4.3624999,1.0223240852355957,-0.43993455171585083,9.66419506072998,5.06591796875,-6.805419921875,-7.354736328125
4.3674999,0.9965864419937134,-0.42676645517349243,9.712079048156738,-17.913818359375,7.080078125,4.150390625
4.3724999,1.0199298858642578,-0.5039794445037842,9.892841339111328,24.658203125,-4.2724609375,-0.42724609375
4.3774999,0.9816226959228516,-0.41120412945747375,9.530718803405762,-23.681640625,0.6103515625,-4.150390625
4.3824999,1.0247182846069336,-0.5009866952896118,9.982624053955078,15.228271484375,3.23486328125,6.439208984375
4.3874999,1.0103530883789062,-0.4471171796321869,9.655815124511719,-2.777099609375,-5.767822265625,-7.8125
4.3924999,1.0283095836639404,-0.444722980260849,9.909002304077148,-9.82666015625,6.89697265625,6.072998046875
4.397499900000001,1.0342950820922852,-0.4902127981185913,9.884461402893066,19.6533203125,-5.67626953125,-3.692626953125
4.4024999000000005,1.0414776802062988,-0.46148237586021423,9.93474006652832,22.15576171875,-0.06103515625,3.662109375
4.4074999,1.0019733905792236,-0.40282443165779114,9.485827445983887,-15.07568359375,-3.265380859375,-6.7138671875
4.4124999,1.0097545385360718,-0.4183867573738098,9.854534149169922,4.638671875,5.37109375,7.32421875
4.4174999,1.0067617893218994,-0.4339490532875061,9.592369079589844,6.40869140625,-6.500244140625,-7.110595703125
4.4224999,0.9923965930938721,-0.4411316514015198,9.782708168029785,-15.7470703125,5.645751953125,4.57763671875
4.4274999,1.0223240852355957,-0.5171475410461426,9.856329917907715,21.54541015625,-4.21142578125,-2.105712890625
4.4324999,0.9929951429367065,-0.4489128291606903,9.654019355773926,-22.857666015625,1.617431640625,-1.556396484375
4.437499900000001,1.037886381149292,-0.4812345504760742,9.95329475402832,20.01953125,1.0986328125,4.058837890625
4.4424999000000005,0.9971849918365479,-0.414795458316803,9.515155792236328,-13.61083984375,-3.35693359375,-6.7138671875
4.4474999,1.0301052331924438,-0.40222588181495667,9.898228645324707,5.0048828125,5.2490234375,7.080078125
4.4524999,0.9959878921508789,-0.43335050344467163,9.640253067016602,3.936767578125,-5.645751953125,-7.415771484375
4.4574999,0.9445125460624695,-0.37648820877075195,9.469067573547363,-18.73779296875,-0.946044921875,-4.45556640625
4.4624999,1.0426748991012573,-0.4495113790035248,9.928155899047852,13.946533203125,3.265380859375,5.7373046875
4.4674999,1.026513934135437,-0.44352585077285767,9.497200012207031,-7.87353515625,-4.5166015625,-7.293701171875
4.4724999,1.049857497215271,-0.46986207365989685,9.929951667785645,1.15966796875,5.035400390625,7.049560546875
4.477499900000001,1.0408791303634644,-0.5033808946609497,9.659406661987305,5.55419921875,-5.279541015625,-7.171630859375
4.4824999000000005,1.0229226350784302,-0.5105634927749634,9.794678688049316,15.716552734375,-4.241943359375,-4.241943359375
4.4874999,0.9882067441940308,-0.40940847992897034,9.727641105651855,-18.707275390625,2.716064453125,2.044677734375
4.4924999,1.0241197347640991,-0.507570743560791,9.852140426635742,19.8974609375,-1.77001953125,-0.30517578125
4.4974999,1.035492181777954,-0.43275195360183716,9.892841339111328,17.76123046875,1.28173828125,3.265380859375
4.5024999,0.970848798751831,-0.35913026332855225,9.503783226013184,-15.2587890625,-2.25830078125,-5.18798828125
4.5074999,1.0444705486297607,-0.3800795078277588,9.984419822692871,11.444091796875,3.448486328125,5.79833984375
4.5124999,0.9983820915222168,-0.4016273319721222,9.560047149658203,-7.32421875,-3.875732421875,-6.744384765625
4.5174999,1.0301052331924438,-0.4578910768032074,9.967659950256348,3.021240234375,4.425048828125,6.927490234375
4.522499900000001,1.037886381149292,-0.557250440120697,9.659406661987305,1.220703125,-4.302978515625,-7.14111328125
4.5274999000000005,1.0301052331924438,-0.48961424827575684,9.851541519165039,-5.157470703125,4.425048828125,6.103515625
4.5324999,1.039083480834961,-0.5536591410636902,9.694721221923828,8.575439453125,-4.08935546875,-5.9814453125
4.5374999,1.0528502464294434,-0.3908534348011017,9.758766174316406,-11.505126953125,3.570556640625,4.791259765625
4.5424999,1.0121487379074097,-0.44412440061569214,9.700706481933594,13.85498046875,-2.9296875,-4.180908203125
4.5474999,1.0450690984725952,-0.34596213698387146,9.72285270690918,-15.899658203125,2.349853515625,2.50244140625
4.5524999,1.027711033821106,-0.45908817648887634,9.789292335510254,16.90673828125,-1.739501953125,-1.89208984375
4.5574999,1.0516531467437744,-0.3423708379268646,9.847949981689453,15.2587890625,1.8310546875,3.5400390625
4.562499900000001,0.9798270463943481,-0.45669397711753845,9.536105155944824,-14.0380859375,-1.922607421875,-4.669189453125
4.5674999000000005,1.0995371341705322,-0.38486793637275696,9.956886291503906,12.847900390625,2.288818359375,4.57763671875
4.5724999,1.003769040107727,-0.545877993106842,9.593565940856934,-11.688232421875,-2.593994140625,-5.18798828125
4.5774999,1.071405291557312,-0.4076128304004669,9.985017776489258,10.498046875,2.655029296875,5.218505859375
4.5824999,0.973242998123169,-0.5871779918670654,9.615114212036133,-9.368896484375,-2.99072265625,-5.950927734375
4.5874999,1.026513934135437,-0.3519476354122162,9.982025146484375,8.087158203125,2.838134765625,5.43212890625
4.5924999,0.9654618501663208,-0.5309142470359802,9.608530044555664,-6.805419921875,-3.173828125,-6.134033203125
4.5974999,0.9941922426223755,-0.5045779943466187,9.605537414550781,-4.913330078125,-3.204345703125,-6.34765625
4.602499900000001,1.0570400953292847,-0.35494041442871094,10.011354446411133,3.84521484375,3.173828125,5.706787109375
4.6074999000000005,1.0169371366500854,-0.5021837949752808,9.603142738342285,-3.448486328125,-2.99072265625,-6.04248046875
4.6124999,1.0636241436004639,-0.37648820877075195,9.985616683959961,2.685546875,3.11279296875,5.706787109375
4.6174999,1.0031704902648926,-0.5351040959358215,9.57979965209961,-1.64794921875,-2.777099609375,-6.317138671875
4.6224999,1.0420763492584229,-0.41778820753097534,9.950302124023438,1.800537109375,3.173828125,5.615234375
4.6274999,0.9648633003234863,-0.585382342338562,9.549273490905762,-1.800537109375,-2.593994140625,-6.072998046875
4.6324999,1.0031704902648926,-0.43993455171585083,9.932944297790527,1.312255859375,2.9296875,5.767822265625
4.6374999,0.9367313981056213,-0.5985504388809204,9.541492462158203,-1.129150390625,-2.777099609375,-6.134033203125
4.6424999,0.9917980432510376,-0.44592007994651794,9.942521095275879,1.190185546875,2.899169921875,5.523681640625
4.647499900000001,0.9349357485771179,-0.5907692909240723,9.555258750915527,-1.678466796875,-2.86865234375,-5.92041015625
4.6524999000000005,1.006163239479065,-0.43335050344467163,9.96825885772705,2.105712890625,2.471923828125,5.615234375
4.6574999,1.106719732284546,-0.3256114423274994,9.911396026611328,5.523681640625,2.3193359375,4.791259765625
4.6624999,1.106719732284546,-0.3256114423274994,9.911396026611328,5.523681640625,2.3193359375,4.791259765625
4.6674999,1.025316834449768,-0.52552729845047,9.5007905960083,-6.622314453125,-2.5634765625,-5.584716796875
4.6724999,1.1073182821273804,-0.37648820877075195,9.904213905334473,7.4462890625,1.708984375,4.180908203125
4.6774999,0.9965864419937134,-0.5476736426353455,9.507973670959473,-8.30078125,-0.457763671875,-5.035400390625
4.6824999,1.0618284940719604,-0.3208230137825012,9.88386344909668,10.07080078125,3.265380859375,4.82177734375
4.687499900000001,0.9331400990486145,-0.4908113479614258,9.512163162231445,-9.796142578125,-1.312255859375,-3.84521484375
4.6924999000000005,1.081580638885498,-0.23044191300868988,9.875483512878418,11.260986328125,2.197265625,3.11279296875
4.6974999,3.8714241981506348,-1.049857497215271,11.047445297241211,39.825439453125,37.384033203125,-54.38232421875
4.7024999,6.312911510467529,-2.2373814582824707,11.762114524841309,42.48046875,97.930908203125,-134.063720703125
4.7074999,9.346963882446289,-3.2998085021972656,12.90833854675293,95.0927734375,160.21728515625,-165.130615234375
4.7124999,10.856507301330566,-3.9881415367126465,13.347075462341309,128.326416015625,180.999755859375,-204.2236328125
4.7174999,10.758943557739258,-3.362057685852051,13.430872917175293,175.445556640625,186.4013671875,-235.77880859375
4.7224999,8.867524147033691,-1.8716671466827393,13.15613842010498,156.8603515625,162.811279296875,-255.31005859375
4.727499900000001,6.066308498382568,0.20051439106464386,12.647370338439941,151.092529296875,125.9765625,-254.669189453125
4.7324999000000005,2.977189779281616,2.0661959648132324,11.887809753417969,93.353271484375,75.042724609375,-244.964599609375
4.7374999,0.395043283700943,3.584120035171509,11.057621002197266,74.615478515625,24.871826171875,-228.302001953125
4.7424999,-1.4640543460845947,4.46518611907959,9.869498252868652,42.54150390625,0.1220703125,-211.85302734375
4.7474999,-2.4821887016296387,4.903325080871582,8.346785545349121,38.2080078125,-42.724609375,-202.69775390625
4.7524999,-2.8155810832977295,4.747103214263916,6.8360443115234375,-38.2080078125,-129.302978515625,-180.328369140625
4.7574999,-1.4963760375976562,2.6384103298187256,1.0857704877853394,-132.354736328125,-188.17138671875,-62.225341796875
4.7624999,-1.37906014919281,1.968033790588379,0.19213469326496124,-124.69482421875,-186.03515625,-44.158935546875
4.7674999,-1.2132617235183716,1.7052701711654663,-0.19812019169330597,-119.56787109375,-179.901123046875,-12.02392578125
4.772499900000001,-1.456871747970581,1.1581950187683105,-0.4165911078453064,-109.55810546875,-170.623779296875,-2.9296875
4.7774999000000005,-1.3838485479354858,0.9002198576927185,0.4381389021873474,-110.748291015625,-161.1328125,16.448974609375
4.7824999,-1.43532395362854,0.3106476664543152,3.183091163635254,-171.051025390625,-98.785400390625,27.7099609375
4.7874999,-0.25258827209472656,-0.19572599232196808,7.085041522979736,-271.270751953125,150.115966796875,66.131591796875
4.7924999,0.900818407535553,-2.278681516647339,12.20683765411377,-128.60107421875,410.064697265625,27.984619140625
4.7974999,1.8626888990402222,-4.393360137939453,15.920244216918945,40.22216796875,200.408935546875,-51.1474609375
4.8024999,1.7603367567062378,-6.577470779418945,16.973094940185547,-38.238525390625,8.026123046875,-36.956787109375
4.8074999,-4.381389141082764,-3.604470729827881,3.642179250717163,-1.0986328125,-23.3154296875,-2.288818359375
4.812499900000001,-4.381389141082764,-3.604470729827881,3.642179250717163,-1.0986328125,-23.3154296875,-2.288818359375
4.8174999000000005,-4.634575843811035,-2.867655038833618,2.786850690841675,15.533447265625,0.030517578125,0.091552734375
4.8224999,-3.932476282119751,-2.7670986652374268,4.378396511077881,20.69091796875,-3.631591796875,11.41357421875
4.8274999,-2.6599581241607666,-3.3955764770507812,7.132925510406494,36.590576171875,-26.7333984375,-4.0283203125
4.8324999,-0.9882067441940308,-3.7068228721618652,10.20648193359375,42.6025390625,-40.924072265625,-1.953125
4.8374999,0.24480712413787842,-3.7445313930511475,11.959635734558105,22.003173828125,-46.2646484375,-6.744384765625
4.8424999,1.2018892765045166,-2.741360902786255,12.501323699951172,34.85107421875,-45.59326171875,-1.52587890625
4.8474999,1.6310498714447021,-1.698686122894287,11.753135681152344,20.355224609375,-49.041748046875,-9.033203125
4.852499900000001,1.854907751083374,-0.11552023142576218,10.891223907470703,29.052734375,-35.82763671875,-1.3427734375
4.8574999000000005,2.0907366275787354,0.8954314589500427,10.215459823608398,-0.1220703125,-19.866943359375,0.06103515625
4.8624999,2.5480291843414307,1.2791022062301636,9.730634689331055,-11.444091796875,-5.615234375,6.77490234375
4.8674999,2.346317768096924,0.4058171808719635,9.49121379852295,-10.8642578125,-1.678466796875,0.42724609375
4.8724999,2.301426410675049,-0.32022446393966675,9.651625633239746,-2.62451171875,5.18798828125,8.1787109375
4.8774999,2.0213048458099365,-1.072602391242981,9.387664794921875,-10.1318359375,7.14111328125,1.15966796875
4.8824999,1.9500772953033447,-1.4957774877548218,9.43375301361084,8.453369140625,13.336181640625,4.302978515625
4.8874999,1.7160440683364868,-1.7052701711654663,9.314641952514648,-7.476806640625,14.129638671875,0.91552734375
4.8924999,1.5412673950195312,-1.7184382677078247,9.366117477416992,13.397216796875,15.045166015625,-1.129150390625
4.897499900000001,1.3048399686813354,-1.3640964031219482,9.501389503479004,-4.425048828125,15.5029296875,0.91552734375
4.9024999000000005,1.025316834449768,-1.1737574338912964,9.569623947143555,9.1552734375,11.77978515625,-4.180908203125
4.9074999,0.9080010056495667,-0.5961562395095825,9.905410766601562,-0.946044921875,10.345458984375,3.204345703125
4.9124999,0.6949170231819153,-0.11971008777618408,10.153809547424316,3.0517578125,2.74658203125,3.875732421875
4.9174999,0.48961424827575684,-0.322618693113327,9.90122127532959,-9.09423828125,-4.45556640625,-1.983642578125
4.9224999,0.656609833240509,-0.23523031175136566,10.056844711303711,7.99560546875,-4.486083984375,2.13623046875
4.9274999,0.6560112833976746,-0.568622887134552,9.8784761428833,-11.65771484375,-8.758544921875,-0.030517578125
4.9324999,0.812831461429596,-0.6943184733390808,9.856928825378418,9.46044921875,-8.9111328125,-1.556396484375
4.937499900000001,1.0055646896362305,-0.7565677165985107,9.799467086791992,-7.8125,-8.575439453125,2.197265625
4.9424999000000005,1.115697979927063,-0.950498104095459,9.625288963317871,6.256103515625,-8.544921875,-3.753662109375
4.9474999,1.3742717504501343,-0.7212532758712769,9.729436874389648,-0.1220703125,-4.608154296875,3.265380859375
4.9524999,1.3910311460494995,-0.8619126081466675,9.469666481018066,-1.708984375,-5.035400390625,-4.39453125
4.9574999,1.6112977266311646,-0.578798234462738,9.692925453186035,6.866455078125,0.823974609375,1.8310546875
4.9624999,1.193509578704834,-0.7613561153411865,9.597756385803223,-0.335693359375,1.953125,-3.936767578125
4.9674999,1.2312182188034058,-0.6057330369949341,9.849146842956543,4.69970703125,4.638671875,2.777099609375
4.9724999,1.0067617893218994,-0.8744821548461914,9.639654159545898,-7.080078125,0.457763671875,-2.62451171875
4.977499900000001,1.0558429956436157,-0.6967126727104187,9.804255485534668,10.8642578125,2.105712890625,0.244140625
4.9824999000000005,0.9971849918365479,-0.7870938181877136,9.730035781860352,-9.552001953125,-0.457763671875,1.007080078125
4.9874999,0.9923965930938721,-0.6931213736534119,9.733028411865234,8.6669921875,-1.28173828125,-2.50244140625
4.9924999,1.0983400344848633,-0.5602431893348694,9.870695114135742,-4.852294921875,-0.732421875,3.387451171875
4.9974999,1.0211269855499268,-0.6631938815116882,9.685144424438477,-0.396728515625,-2.8076171875,-3.5400390625
5.0024999,1.2114660739898682,-0.4686649739742279,9.913191795349121,3.570556640625,-0.213623046875,3.082275390625
5.0074999,1.1390414237976074,-0.6913257241249084,9.67077922821045,-8.392333984375,-2.8076171875,-1.983642578125
5.0124999,1.2982559204101562,-0.7122750282287598,9.676166534423828,-9.674072265625,-0.091552734375,0.9765625
5.0174999,1.2671312093734741,-0.7380126714706421,9.592369079589844,7.75146484375,0.152587890625,-3.021240234375
5.022499900000001,1.3718775510787964,-0.6332663297653198,9.746794700622559,-2.8076171875,2.0751953125,2.99072265625
5.0274999000000005,1.2006921768188477,-0.7799112200737,9.545681953430176,-0.885009765625,0.06103515625,-3.692626953125
5.0324999,1.3221979141235352,-0.5530605912208557,9.798869132995605,5.9814453125,2.777099609375,2.471923828125
5.0374999,1.1629834175109863,-0.7428010702133179,9.662399291992188,-8.697509765625,-0.30517578125,-1.40380859375
5.0424999,1.2030863761901855,-0.6111199855804443,9.762357711791992,9.6435546875,1.190185546875,-0.54931640625
5.0474999,1.171961784362793,-0.6625953316688538,9.785700798034668,-8.636474609375,0.152587890625,2.044677734375
5.0524999,1.0869675874710083,-0.71766197681427,9.676166534423828,4.69970703125,-1.373291015625,-3.23486328125
5.0574999,1.1785458326339722,-0.579995334148407,9.853337287902832,-0.213623046875,0.518798828125,3.23486328125
5.062499900000001,1.0438719987869263,-0.7487865686416626,9.636661529541016,-4.69970703125,-2.50244140625,-3.082275390625
5.0674999000000005,1.1905168294906616,-0.5704185366630554,9.815030097961426,8.1787109375,-0.091552734375,1.129150390625
5.0724999,1.2012907266616821,-0.6619967818260193,9.685144424438477,8.6669921875,-1.129150390625,-2.227783203125
5.0774999,1.2832920551300049,-0.6254851818084717,9.785700798034668,-5.218505859375,-0.091552734375,2.838134765625
5.0824999,1.1713632345199585,-0.7410054206848145,9.609128952026367,0.48828125,-1.495361328125,-3.5400390625
5.0874999,1.3150153160095215,-0.5506663918495178,9.801262855529785,4.364013671875,1.434326171875,2.532958984375
5.0924999,1.1887211799621582,-0.7499836683273315,9.638457298278809,-8.331298828125,-0.396728515625,-1.617431640625
5.0974999,1.2653355598449707,-0.6380547285079956,9.714473724365234,9.46044921875,1.434326171875,-0.48828125
5.102499900000001,1.260547161102295,-0.6787561774253845,9.731232643127441,-7.87353515625,1.312255859375,1.89208984375
5.1074999000000005,1.170764684677124,-0.7344213724136353,9.627683639526367,4.2724609375,0.091552734375,-3.173828125
5.1124999,1.2629413604736328,-0.5704185366630554,9.82759952545166,0.762939453125,2.197265625,3.143310546875
5.1174999,1.1198878288269043,-0.7284358739852905,9.645041465759277,-5.462646484375,-0.54931640625,-2.62451171875
5.1224999,1.1988965272903442,-0.5632359385490417,9.794678688049316,8.575439453125,1.678466796875,0.732421875
5.1274999,1.1773487329483032,-0.657806932926178,9.717466354370117,-9.185791015625,0.06103515625,1.068115234375
5.1324999,1.1186907291412354,-0.7565677165985107,9.566033363342285,-3.11279296875,-1.3427734375,-3.0517578125
5.1374999,1.2665326595306396,-0.5734112858772278,9.755773544311523,7.232666015625,1.220703125,1.373291015625
5.1424999,1.1899182796478271,-0.729034423828125,9.651026725769043,-8.97216796875,-0.67138671875,-0.030517578125
5.147499900000001,1.2030863761901855,-0.6829460263252258,9.660005569458008,7.99560546875,-0.030517578125,-2.01416015625
5.1524999000000005,1.2617442607879639,-0.6434416770935059,9.781511306762695,-4.241943359375,0.67138671875,2.62451171875
5.1574999,1.104325532913208,-0.7433996200561523,9.611522674560547,-0.6103515625,-0.91552734375,-3.265380859375
5.1624999,1.236605167388916,-0.5662286877632141,9.791088104248047,5.523681640625,1.28173828125,2.01416015625
5.1674999,1.1366472244262695,-0.6883329749107361,9.654019355773926,-8.636474609375,-0.91552734375,-0.640869140625
5.1724999,1.1887211799621582,-0.6416460275650024,9.668983459472656,8.575439453125,0.244140625,-1.495361328125
5.1774999,1.2575544118881226,-0.6302735805511475,9.763554573059082,-5.279541015625,0.518798828125,2.349853515625
5.1824999,1.128267526626587,-0.7553706169128418,9.600150108337402,0.48828125,-1.434326171875,-3.2958984375
5.187499900000001,1.1641805171966553,-0.7068880796432495,9.642647743225098,-7.8125,-0.823974609375,-1.190185546875
5.1924999000000005,1.2204443216323853,-0.6356605291366577,9.709685325622559,8.758544921875,0.42724609375,-1.3427734375
5.1974999,1.2731167078018188,-0.6368576288223267,9.783307075500488,-6.011962890625,0.67138671875,2.288818359375
5.2024999,1.1444283723831177,-0.7092822790145874,9.656414031982422,-8.056640625,-0.54931640625,-0.9765625
5.2074999,1.2030863761901855,-0.6512228846549988,9.707290649414062,8.270263671875,0.518798828125,-1.434326171875
5.2124999,1.2599486112594604,-0.5692214369773865,9.817423820495605,5.18798828125,1.3427734375,1.800537109375
5.2174999,1.1534066200256348,-0.6715735793113708,9.68574333190918,-8.30078125,-0.54931640625,-0.396728515625
5.2224999,1.1875240802764893,-0.6254851818084717,9.684545516967773,7.75146484375,0.274658203125,-1.5869140625
5.227499900000001,1.2551602125167847,-0.6027402877807617,9.783905029296875,-4.45556640625,0.91552734375,2.532958984375
5.2324999000000005,1.1252747774124146,-0.7511807680130005,9.617507934570312,-1.28173828125,-0.823974609375,-3.11279296875
5.2374999,1.2425906658172607,-0.6075286865234375,9.785101890563965,6.011962890625,1.190185546875,1.40380859375
5.2424999,1.1480196714401245,-0.7140706777572632,9.690531730651855,-8.331298828125,-0.701904296875,0.213623046875
5.2474999,1.1378443241119385,-0.6847416758537292,9.675567626953125,7.171630859375,-0.06103515625,-2.288818359375
5.2524999,1.2360066175460815,-0.5979518890380859,9.814431190490723,-2.532958984375,0.732421875,2.5634765625
5.2574999,1.2360066175460815,-0.5979518890380859,9.814431190490723,-2.532958984375,0.732421875,2.5634765625
5.2624999,1.1037269830703735,-0.7445967197418213,9.66539192199707,-2.8076171875,-1.129150390625,-2.716064453125
5.2674999,1.1959037780761719,-0.6596025824546814,9.746196746826172,-8.087158203125,-0.457763671875,0.823974609375
