# Time (seconds),Accel_X,Accel_Y,Accel_Z,Gyro_X,Gyro_Y,Gyro_Z
0.0024999,3.1483752727508545,0.4315548539161682,9.255385398864746,0.030517578125,16.6015625,-41.534423828125
0.0074999,3.026270866394043,0.6607996821403503,9.040505409240723,-8.758544921875,21.484375,-54.0771484375
0.012499900000000001,3.026270866394043,0.6607996821403503,9.040505409240723,-8.758544921875,21.484375,-54.0771484375
0.0174999,2.917334794998169,0.8349778652191162,8.778340339660645,-19.622802734375,26.85546875,-67.626953125
0.0224999,2.782062292098999,0.9762357473373413,8.51258373260498,-32.745361328125,31.005859375,-81.6650390625
0.0274999,2.650381326675415,1.202487826347351,8.289324760437012,-47.9736328125,32.8369140625,-97.381591796875
0.0324999,2.5342624187469482,1.2862848043441772,8.162431716918945,-64.910888671875,35.125732421875,-112.823486328125
0.0374999,2.3924059867858887,1.1887211799621582,9.240421295166016,-67.291259765625,67.2607421875,-121.7041015625
0.0424999,2.075772762298584,0.5710170865058899,10.89182186126709,-24.932861328125,93.1396484375,-101.74560546875
0.0474999,1.4173674583435059,-0.375291109085083,12.436081886291504,18.280029296875,87.82958984375,-82.275390625
0.0524999,0.5764040350914001,-1.2306196689605713,13.198037147521973,20.904541015625,71.6552734375,-88.2568359375
0.0574999,-0.5159504413604736,-1.9003976583480835,12.564770698547363,5.462646484375,63.568115234375,-80.230712890625
0.0624999,-1.6268600225448608,-2.072780132293701,10.919954299926758,-5.43212890625,48.15673828125,-58.41064453125
0.0674999,-2.897582530975342,-1.987187385559082,9.303269386291504,-7.171630859375,18.585205078125,-24.59716796875
0.0724999,-4.2329487800598145,-2.0907366275787354,8.221688270568848,-1.495361328125,-18.096923828125,14.923095703125
0.0774999,-5.519832134246826,-2.032677173614502,7.695562839508057,-2.99072265625,-52.642822265625,45.2880859375
0.0824999,-6.357802391052246,-1.8794482946395874,7.576451301574707,-15.106201171875,-89.630126953125,50.78125
0.0874999,-6.552929878234863,-1.3377602100372314,8.150461196899414,-20.721435546875,-117.401123046875,47.18017578125
0.0924999,-5.805939197540283,-0.507570743560791,9.343372344970703,-19.287109375,-114.68505859375,45.501708984375
0.0974999,-2.2625205516815186,0.49380409717559814,11.96981143951416,5.096435546875,-111.26708984375,65.12451171875
0.1024999,-0.06344634294509888,0.19393034279346466,12.147581100463867,15.0146484375,-93.597412109375,75.62255859375
0.1074999,1.9045875072479248,-0.5141547918319702,11.322778701782227,21.881103515625,-48.03466796875,80.780029296875
0.1124999,3.445256233215332,-1.3413515090942383,10.24658489227295,29.754638671875,-8.85009765625,86.85302734375
0.1174999,4.507084846496582,-1.9381062984466553,9.338583946228027,30.09033203125,5.340576171875,88.37890625
0.1224999,5.0236334800720215,-2.1481974124908447,8.878896713256836,24.71923828125,11.8408203125,77.57568359375
0.1274999,5.0499701499938965,-1.9518729448318481,8.96389102935791,23.895263671875,13.24462890625,56.45751953125
0.1324999,4.687248229980469,-1.4628572463989258,9.231443405151367,26.031494140625,17.2119140625,37.2314453125
0.1374999,4.129997730255127,-0.9020155072212219,9.52114200592041,26.763916015625,22.3388671875,20.721435546875
0.1424999,3.5667619705200195,-0.30047231912612915,9.706093788146973,23.895263671875,23.13232421875,5.340576171875
0.1474999,3.095702886581421,0.19393034279346466,9.70549488067627,19.378662109375,22.979736328125,-9.6435546875
0.1524999,2.695272445678711,0.517746090888977,9.561842918395996,12.3291015625,22.52197265625,-22.613525390625
0.1574999,1.7160440683364868,0.5668272376060486,8.8070707321167,-17.2119140625,37.078857421875,-51.6357421875
0.1624999,1.6765397787094116,0.5925649404525757,8.790311813354492,-25.93994140625,38.9404296875,-59.4482421875
0.1674999,1.6980875730514526,0.7416039705276489,8.908824920654297,-31.768798828125,40.863037109375,-67.7490234375
0.1724999,1.7148469686508179,0.6476315855979919,9.196128845214844,-35.5224609375,44.677734375,-75.5615234375
0.17749990000000002,1.669357180595398,0.49320554733276367,9.833584785461426,-28.25927734375,51.1474609375,-76.873779296875
0.1824999,1.4790180921554565,0.04967968538403511,10.649409294128418,-8.48388671875,57.7392578125,-70.709228515625
0.1874999,1.1552022695541382,-0.5734112858772278,11.327567100524902,8.331298828125,56.884765625,-68.05419921875
0.1924999,0.7793126702308655,-1.0438719987869263,11.511322021484375,12.02392578125,50.84228515625,-75.8056640625
0.1974999,0.2783259451389313,-1.3521254062652588,11.01392650604248,0.701904296875,46.112060546875,-74.15771484375
0.2024999,-0.3519476354122162,-1.2910733222961426,10.132261276245117,-7.62939453125,37.90283203125,-61.46240234375
0.20749990000000001,-2.610278367996216,-0.7745242714881897,9.051279067993164,-5.401611328125,-3.997802734375,-6.34765625
0.2124999,-4.034229755401611,-0.6997054219245911,8.911218643188477,-11.29150390625,-27.7099609375,22.3388671875
0.2174999,-5.2235493659973145,-0.6817489266395569,8.786720275878906,-21.759033203125,-61.82861328125,42.205810546875
0.2224999,-5.920860767364502,-0.6350619792938232,8.78073501586914,-26.092529296875,-103.546142578125,51.910400390625
0.2274999,-5.834071159362793,-0.4704606235027313,9.191340446472168,-26.7333984375,-115.753173828125,50.10986328125
0.2324999,-4.869207859039307,-0.26156654953956604,10.093356132507324,-15.68603515625,-105.560302734375,47.4853515625
0.2374999,-3.2812533378601074,-0.15981295704841614,11.094132423400879,-0.335693359375,-107.025146484375,57.891845703125
0.2424999,-1.227626919746399,-0.42856210470199585,11.660959243774414,11.53564453125,-101.837158203125,72.265625
0.2474999,0.8134300112724304,-1.061229944229126,11.347318649291992,20.172119140625,-67.779541015625,78.338623046875
0.2524999,2.5899276733398438,-1.7585411071777344,10.494384765625,31.06689453125,-18.24951171875,85.723876953125
0.2574999,3.8977603912353516,-2.2846670150756836,9.679757118225098,37.53662109375,7.110595703125,93.719482421875
0.2624999,4.711789131164551,-2.3540987968444824,9.155426979064941,34.576416015625,14.404296875,91.827392578125
0.2674999,4.746504783630371,-1.482010841369629,9.421782493591309,33.905029296875,14.678955078125,51.025390625
0.2724999,4.226364612579346,-0.9026140570640564,9.698312759399414,35.614013671875,17.852783203125,34.85107421875
0.2774999,3.6373908519744873,-0.4159925580024719,9.88386344909668,36.43798828125,18.951416015625,19.287109375
0.2824999,3.1663317680358887,-0.005985504016280174,9.906009674072266,32.53173828125,18.524169921875,0.91552734375
0.28749990000000003,2.8383262157440186,0.2885012924671173,9.782708168029785,27.7099609375,17.2119140625,-18.1884765625
0.2924999,2.6013002395629883,0.4602852761745453,9.573814392089844,20.751953125,15.228271484375,-33.5693359375
0.2974999,2.428318977355957,0.48961424827575684,9.312846183776855,13.3056640625,16.754150390625,-46.69189453125
0.3024999,2.2900538444519043,0.4794389009475708,8.98005199432373,3.265380859375,19.866943359375,-58.89892578125
0.3074999,2.2182278633117676,0.5081692934036255,8.630498886108398,-9.124755859375,24.10888671875,-71.258544921875
0.3124999,2.251746654510498,0.7350199222564697,8.279149055480957,-23.86474609375,28.3203125,-84.930419921875
0.3174999,2.3457190990448,1.0001777410507202,7.966107368469238,-42.05322265625,32.5927734375,-100.067138671875
0.3224999,2.496553897857666,1.3640964031219482,7.77756404876709,-61.34033203125,37.41455078125,-115.570068359375
0.3274999,2.689286947250366,1.4945803880691528,9.053074836730957,-69.82421875,76.446533203125,-121.7041015625
0.3324999,2.2014684677124023,0.7296329736709595,11.006145477294922,-21.97265625,100.250244140625,-97.59521484375
0.3374999,1.5322890281677246,-0.18076223134994507,12.649765014648438,21.66748046875,85.02197265625,-83.770751953125
0.3424999,0.4058171808719635,-1.0851719379425049,13.387777328491211,12.359619140625,64.910888671875,-75.0732421875
0.34749990000000003,-0.8469488620758057,-1.647210717201233,12.554594993591309,-13.48876953125,56.2744140625,-56.243896484375
0.35249990000000003,-2.22660756111145,-1.789067268371582,10.625467300415039,-25.299072265625,34.423828125,-29.388427734375
0.3574999,-3.7403416633605957,-2.0829553604125977,8.89146614074707,-13.5498046875,-9.674072265625,20.08056640625
0.3624999,-5.224148273468018,-2.2894554138183594,7.555501937866211,0.457763671875,-56.640625,68.450927734375
0.3674999,-6.40927791595459,-2.3936030864715576,6.9258270263671875,-10.009765625,-94.05517578125,78.0029296875
0.3724999,-7.050923824310303,-1.9955670833587646,7.161057472229004,-15.167236328125,-127.288818359375,74.89013671875
0.3774999,-6.742072105407715,-1.1869255304336548,8.58919906616211,-0.244140625,-123.809814453125,65.673828125
0.3824999,-5.514444828033447,-0.3824737071990967,10.382455825805664,8.758544921875,-98.846435546875,63.53759765625
0.3874999,4.504690647125244,-1.9375077486038208,8.768165588378906,30.303955078125,12.3291015625,112.335205078125
0.3924999,4.942230701446533,-2.0171148777008057,8.79928970336914,33.69140625,8.453369140625,89.17236328125
0.3974999,4.96856689453125,-1.8369512557983398,9.074024200439453,34.11865234375,6.622314453125,66.497802734375
0.4024999,3.6709096431732178,0.03711012750864029,9.61451530456543,19.744873046875,13.00048828125,-36.346435546875
0.4074999,2.8215668201446533,1.0684125423431396,8.559270858764648,-16.66259765625,29.84619140625,-85.8154296875
0.41249990000000003,2.722805976867676,1.1887211799621582,8.091204643249512,-35.5224609375,36.1328125,-99.761962890625
0.41749990000000003,2.690484046936035,1.3766659498214722,7.632116317749023,-58.41064453125,40.34423828125,-115.692138671875
0.4224999,2.7305870056152344,1.6095020771026611,7.38132381439209,-80.13916015625,49.01123046875,-130.4931640625
0.4274999,2.806004285812378,1.7256208658218384,7.842207431793213,-91.339111328125,71.258544921875,-136.1083984375
0.4324999,2.494758129119873,1.2844891548156738,9.552865028381348,-61.859130859375,113.922119140625,-120.147705078125
0.4374999,1.7435773611068726,0.2454056739807129,11.727398872375488,12.451171875,123.84033203125,-94.207763671875
0.4424999,0.778714120388031,-0.6871358752250671,13.17349624633789,36.346435546875,82.33642578125,-86.36474609375
0.4474999,-0.5644330382347107,-1.6370353698730469,13.323732376098633,2.471923828125,62.713623046875,-71.075439453125
0.4524999,-1.8177976608276367,-1.834557056427002,11.765107154846191,-25.390625,53.802490234375,-51.6357421875
0.4574999,-4.599860191345215,-2.166153907775879,8.054094314575195,-4.57763671875,-30.426025390625,40.22216796875
0.4624999,-5.917868137359619,-2.388216257095337,7.0144124031066895,-4.57763671875,-75.958251953125,72.32666015625
0.4674999,-6.858789443969727,-2.4013843536376953,6.543951988220215,-18.218994140625,-112.579345703125,76.72119140625
0.47249990000000003,-7.116764545440674,-1.978209137916565,7.21791934967041,-5.67626953125,-136.322021484375,72.662353515625
0.47749990000000003,-6.354211330413818,-1.2629413604736328,8.98005199432373,9.46044921875,-118.10302734375,63.079833984375
0.4824999,-0.30885201692581177,0.14425064623355865,13.036428451538086,30.609130859375,-90.728759765625,92.46826171875
0.4874999,1.5640122890472412,-0.04668693244457245,11.876437187194824,40.313720703125,-33.75244140625,113.1591796875
0.4924999,2.9676129817962646,-0.5512649416923523,10.374674797058105,42.755126953125,-2.3193359375,131.591796875
0.4974999,3.906738519668579,-1.0971429347991943,9.045293807983398,35.94970703125,14.16015625,135.101318359375
0.5024999,4.4292731285095215,-1.4730325937271118,8.541913032531738,32.073974609375,21.331787109375,117.0654296875
0.5074999,4.495113849639893,-1.4963760375976562,9.004592895507812,29.937744140625,9.70458984375,66.925048828125
0.5124999,4.239532470703125,-1.2539631128311157,9.487024307250977,25.543212890625,7.080078125,31.67724609375
0.5174999,3.906140089035034,-0.8984242081642151,9.695320129394531,21.97265625,6.8359375,3.387451171875
0.5224999,3.643975019454956,-0.45010992884635925,9.736021041870117,17.88330078125,8.941650390625,-18.798828125
0.5274999,3.4608185291290283,0.0694318488240242,9.661202430725098,14.007568359375,9.94873046875,-36.041259765625
0.5324999,3.316567897796631,0.5363011956214905,9.462483406066895,7.50732421875,10.894775390625,-48.64501953125
0.5374999,3.160346269607544,0.8571242094039917,9.20211410522461,-0.79345703125,15.13671875,-58.685302734375
0.5424999,3.160346269607544,0.8571242094039917,9.20211410522461,-0.79345703125,15.13671875,-58.685302734375
0.5474999,2.9700071811676025,0.9864110946655273,8.85675048828125,-10.68115234375,23.895263671875,-67.3828125
0.5524999,2.783858060836792,1.0295066833496094,8.514978408813477,-22.186279296875,32.89794921875,-76.873779296875
0.5574999,2.6426000595092773,1.1851298809051514,8.172008514404297,-36.92626953125,39.4287109375,-88.31787109375
0.5624999,2.496553897857666,1.4089876413345337,8.714295387268066,-70.61767578125,69.7021484375,-113.22021484375
0.5674999000000001,2.1422119140625,0.839766263961792,10.481815338134766,-33.905029296875,95.794677734375,-95.76416015625
0.5724999000000001,1.4790180921554565,-0.12928688526153564,12.249933242797852,17.730712890625,95.947265625,-76.568603515625
0.5774999000000001,0.6458359360694885,-0.9989806413650513,13.306973457336426,27.40478515625,72.93701171875,-79.833984375
0.5824999,-0.42377370595932007,-1.7082629203796387,12.905943870544434,4.7607421875,58.2275390625,-76.47705078125
0.5874999,-1.4502876996994019,-1.8363527059555054,11.243170738220215,-13.671875,45.318603515625,-64.178466796875
0.5924999,-2.6629507541656494,-1.7597382068634033,9.494206428527832,-15.0146484375,18.768310546875,-33.87451171875
0.5974999,-3.9923312664031982,-1.9219454526901245,8.259397506713867,-2.44140625,-18.035888671875,10.68115234375
0.6024999,-5.332485675811768,-1.8734627962112427,7.695562839508057,-3.753662109375,-53.741455078125,46.93603515625
0.6074999,-6.3081231117248535,-1.86508309841156,7.5201873779296875,-14.801025390625,-87.34130859375,56.396484375
0.6124999,-6.655282020568848,-1.4059948921203613,8.027159690856934,-20.5078125,-115.966796875,51.849365234375
0.6174999,-6.082469463348389,-0.7026981711387634,9.191340446472168,-15.68603515625,-116.058349609375,49.01123046875
0.6224999,-2.7036523818969727,0.2256535142660141,11.936891555786133,7.354736328125,-111.297607421875,65.85693359375
0.6274999,-2.7036523818969727,0.2256535142660141,11.936891555786133,7.354736328125,-111.297607421875,65.85693359375
0.6324999,-0.5195417404174805,0.1107318252325058,12.301408767700195,17.730712890625,-98.876953125,80.26123046875
0.6374999,1.4197616577148438,-0.43335050344467163,11.5250883102417,25.7568359375,-53.7109375,90.2099609375
0.6424999,2.9418752193450928,-1.1725603342056274,10.389039993286133,34.48486328125,-7.99560546875,100.15869140625
0.6474999,4.000112533569336,-1.8429367542266846,9.328408241271973,34.454345703125,10.040283203125,106.5673828125
0.6524999,4.6070427894592285,-2.1302409172058105,8.747814178466797,27.801513671875,11.505126953125,99.761962890625
0.6574999,4.772242546081543,-2.0614075660705566,8.813055992126465,23.5595703125,9.613037109375,74.15771484375
0.6624999,4.586093425750732,-1.6777368783950806,9.157222747802734,26.641845703125,12.63427734375,47.8515625
0.6674999,4.189853191375732,-1.1324573755264282,9.55705451965332,27.2216796875,13.824462890625,27.740478515625
0.6724999,3.7433342933654785,-0.6206967830657959,9.753378868103027,23.345947265625,16.78466796875,6.927490234375
0.6774999,3.3674447536468506,-0.05027823522686958,9.751583099365234,19.59228515625,20.477294921875,-10.345458984375
0.6824999,3.0615854263305664,0.44771572947502136,9.594164848327637,14.09912109375,19.4091796875,-22.979736328125
0.6874999,2.3511061668395996,0.9205705523490906,8.883685111999512,-8.697509765625,32.135009765625,-44.5556640625
0.6924999000000001,2.1314380168914795,0.8355764150619507,8.660426139831543,-18.06640625,38.02490234375,-50.4150390625
0.6974999000000001,1.9303251504898071,0.7703344225883484,8.532336235046387,-27.77099609375,42.54150390625,-57.586669921875
0.7024999000000001,1.7932571172714233,0.7583633661270142,8.647257804870605,-35.980224609375,43.731689453125,-65.91796875
0.7074999,1.6759412288665771,0.7110779285430908,8.98543930053711,-40.95458984375,44.647216796875,-73.822021484375
0.7124999,1.5604209899902344,0.5057750940322876,9.693524360656738,-35.797119140625,48.370361328125,-77.08740234375
0.7174999,1.3640964031219482,0.11252748221158981,10.622474670410156,-14.892578125,55.755615234375,-72.540283203125
0.7224999,0.32620999217033386,-1.4095861911773682,11.249156951904297,5.126953125,46.2646484375,-80.87158203125
0.7274999,0.32620999217033386,-1.4095861911773682,11.249156951904297,5.126953125,46.2646484375,-80.87158203125
0.7324999,-0.16579847037792206,-1.512536883354187,10.318410873413086,-5.767822265625,40.557861328125,-72.1435546875
0.7374999,-1.9369091987609863,-1.0109516382217407,9.08719253540039,-3.814697265625,7.2021484375,-20.263671875
0.7424999,-3.246537446975708,-0.7260416746139526,9.030330657958984,-5.157470703125,-13.885498046875,9.8876953125
0.7474999,-4.537012100219727,-0.49978959560394287,9.02015495300293,-16.632080078125,-39.398193359375,32.1044921875
0.7524999,-5.455188751220703,-0.34656068682670593,8.954314231872559,-25.390625,-80.718994140625,41.68701171875
0.7574999,-5.765836238861084,-0.16579847037792206,9.073426246643066,-30.242919921875,-108.245849609375,43.487548828125
0.7624999,-5.234323501586914,-0.09876082092523575,9.66958236694336,-25.20751953125,-109.43603515625,43.27392578125
0.7674999,-3.9588124752044678,-0.19632454216480255,10.592546463012695,-7.080078125,-104.30908203125,48.4619140625
0.7724999,-2.1523873805999756,-0.4842272996902466,11.384428977966309,8.209228515625,-103.271484375,63.720703125
0.7774999,-0.20769700407981873,-0.9810241460800171,11.505934715270996,17.2119140625,-87.2802734375,77.606201171875
0.7824999,1.5909470319747925,-1.622071623802185,10.96304988861084,26.397705078125,-48.828125,83.953857421875
0.7874999,2.982576847076416,-2.139817714691162,10.059837341308594,33.935546875,-6.34765625,92.22412109375
0.7924999,4.678868770599365,-1.744175910949707,9.214085578918457,32.501220703125,16.05224609375,66.58935546875
0.7974999,4.440645694732666,-1.1629834175109863,9.509170532226562,36.956787109375,16.11328125,50.9033203125
0.8024999,3.979761838912964,-0.6171054840087891,9.786299705505371,35.70556640625,19.989013671875,33.050537109375
0.8074999,3.539228677749634,-0.1562216579914093,9.913191795349121,31.92138671875,19.500732421875,10.833740234375
0.8124999,3.1747114658355713,0.2059013396501541,9.755773544311523,27.34375,20.93505859375,-7.171630859375
0.8174999000000001,2.9041666984558105,0.46627077460289,9.589376449584961,21.91162109375,19.287109375,-22.491455078125
0.8224999000000001,2.6384103298187256,0.6063315868377686,9.314043045043945,13.763427734375,18.890380859375,-36.102294921875
0.8274999000000001,2.3774423599243164,0.6470330357551575,9.06863784790039,4.08935546875,20.294189453125,-47.7294921875
0.8324999000000001,2.144007682800293,0.6440402865409851,8.796297073364258,-5.126953125,24.627685546875,-57.708740234375
0.8374999,1.9943699836730957,0.7056909799575806,8.571840286254883,-16.9677734375,28.411865234375,-66.71142578125
0.8424999,1.9991583824157715,0.9540894031524658,8.379107475280762,-29.47998046875,32.379150390625,-76.904296875
0.8474999,2.1709423065185547,1.3730746507644653,8.197148323059082,-61.004638671875,40.71044921875,-99.395751953125
0.8524999,2.258330821990967,1.3706804513931274,8.67718505859375,-63.934326171875,53.16162109375,-103.912353515625
0.8574999,2.1062989234924316,0.9217676520347595,10.049062728881836,-40.924072265625,76.59912109375,-92.529296875
0.8624999,1.6633716821670532,0.05746084079146385,11.708843231201172,5.889892578125,84.869384765625,-72.662353515625
0.8674999,1.0642226934432983,-0.7757213711738586,12.77964973449707,23.406982421875,68.878173828125,-68.42041015625
0.8724999,0.19812019169330597,-1.5280991792678833,12.738349914550781,7.4462890625,58.990478515625,-65.97900390625
0.8774999,-0.7523778676986694,-1.7675193548202515,11.4448823928833,-7.415771484375,52.734375,-56.2744140625
0.8824999,-4.784213542938232,-1.7447744607925415,7.938574314117432,-7.99560546875,-45.684814453125,39.642333984375
0.8874999,-5.960963726043701,-1.6873136758804321,7.5968017578125,-16.143798828125,-80.74951171875,57.9833984375
0.8924999,-6.590638637542725,-1.370081901550293,7.934982776641846,-22.8271484375,-116.058349609375,58.319091796875
0.8974999,1.028908133506775,-0.5608417391777039,11.71423053741455,22.4609375,-65.61279296875,86.395263671875
0.9024999,2.7982232570648193,-1.4065934419631958,10.5344877243042,32.65380859375,-14.251708984375,91.36962890625
0.9074999,4.156932830810547,-2.0374655723571777,9.39365005493164,32.3486328125,4.7607421875,93.719482421875
0.9124999,4.982932090759277,-2.3469161987304688,8.828619003295898,22.125244140625,4.852294921875,82.275390625
0.9174999,5.282207489013672,-2.140416383743286,8.901042938232422,27.2216796875,9.09423828125,63.720703125
0.9224999,5.078101634979248,-1.7405846118927002,9.181763648986816,32.89794921875,18.24951171875,45.623779296875
0.9274999,4.55496883392334,-1.1857284307479858,9.586981773376465,31.55517578125,22.491455078125,27.64892578125
0.9324999,3.950432777404785,-0.6051344871520996,9.723451614379883,28.74755859375,25.115966796875,10.833740234375
0.9374999,3.4350810050964355,-0.04429273307323456,9.724648475646973,26.67236328125,27.77099609375,-3.631591796875
0.9424999000000001,2.6821043491363525,0.7296329736709595,9.529520988464355,16.6015625,24.505615234375,-30.1513671875
0.9474999000000001,2.386420488357544,0.8415619134902954,9.280524253845215,8.026123046875,27.16064453125,-40.496826171875
0.9524999000000001,2.121861219406128,0.8319851160049438,8.968679428100586,-2.410888671875,30.487060546875,-49.6826171875
0.9574999000000001,1.9147628545761108,0.801459014415741,8.656834602355957,-14.404296875,32.89794921875,-59.2041015625
0.9624999,1.8381483554840088,1.026513934135437,8.236652374267578,-41.351318359375,38.970947265625,-82.51953125
0.9674999,1.9297266006469727,1.1761516332626343,8.295310020446777,-55.877685546875,43.060302734375,-92.926025390625
0.9724999,2.031480073928833,1.2485761642456055,8.868721961975098,-56.243896484375,53.131103515625,-95.245361328125
0.9774999,1.8974047899246216,0.9163807034492493,10.165780067443848,-33.5693359375,68.7255859375,-86.151123046875
0.9824999,1.5089455842971802,0.13706804811954498,11.646594047546387,6.4697265625,74.920654296875,-73.516845703125
0.9874999,0.9475052952766418,-0.6266822814941406,12.54681396484375,19.805908203125,65.216064453125,-72.81494140625
0.9924999,0.15322890877723694,-1.3227964639663696,12.40735149383545,4.0283203125,57.342529296875,-68.084716796875
0.9974999,-1.8938134908676147,-1.5897499322891235,9.767744064331055,-10.101318359375,22.369384765625,-32.867431640625
1.0024999,-3.247136116027832,-1.7393875122070312,8.643068313598633,-6.195068359375,-11.53564453125,1.708984375
1.0074999000000002,-4.696226596832275,-1.7872716188430786,8.062474250793457,-6.072998046875,-45.440673828125,39.9169921875
1.0124999000000001,-5.826888561248779,-1.7830817699432373,7.772775650024414,-14.70947265625,-79.071044921875,55.267333984375
1.0174999000000002,-6.457161903381348,-1.3072341680526733,8.101380348205566,-24.59716796875,-114.6240234375,53.131103515625
1.0224999000000001,-6.16566801071167,-0.5578489899635315,9.132682800292969,-21.30126953125,-118.408203125,48.004150390625
1.0274999,-4.964377403259277,0.12449848651885986,10.475231170654297,-14.312744140625,-106.903076171875,48.4619140625
1.0324999000000001,-3.0974984169006348,0.39384618401527405,11.780669212341309,2.74658203125,-112.60986328125,64.75830078125
1.0374999,-0.8984242081642151,0.090979665517807,12.11705493927002,14.95361328125,-100.921630859375,79.1015625
1.0424999000000001,1.213860273361206,-0.7242460250854492,11.487977981567383,20.3857421875,-62.31689453125,82.51953125
1.0474999,2.9311013221740723,-1.5909470319747925,10.366893768310547,29.144287109375,-14.190673828125,84.3505859375
1.0524999000000002,4.283825397491455,-2.1565771102905273,9.361329078674316,32.8369140625,6.195068359375,86.48681640625
1.0574999,5.386355400085449,-1.9835960865020752,8.926182746887207,22.4609375,9.27734375,53.375244140625
1.0624999000000002,5.145738124847412,-1.5119383335113525,9.162610054016113,26.824951171875,13.458251953125,34.576416015625
1.0674999,4.565144062042236,-1.0552444458007812,9.55705451965332,26.9775390625,18.9208984375,15.93017578125
1.0724999000000002,3.932476282119751,-0.5991489887237549,9.755773544311523,25.543212890625,23.040771484375,-2.471923828125
1.0774999,3.3895909786224365,-0.1346738487482071,9.75637149810791,23.284912109375,26.885986328125,-16.78466796875
1.0824999000000002,2.9753942489624023,0.3208230137825012,9.6989107131958,19.195556640625,26.519775390625,-28.9306640625
1.0874999,2.625242233276367,0.6290764808654785,9.514557838439941,13.427734375,27.099609375,-36.895751953125
1.0924999000000002,2.3032219409942627,0.767341673374176,9.264363288879395,6.134033203125,32.623291015625,-42.41943359375
1.0974999,2.0171148777008057,0.7445967197418213,8.957905769348145,-2.685546875,37.78076171875,-48.187255859375
1.1024999000000002,1.8166005611419678,0.727837324142456,8.668806076049805,-13.275146484375,42.877197265625,-56.0302734375
1.1074999,1.7447744607925415,0.8134300112724304,8.434173583984375,-25.482177734375,46.5087890625,-65.887451171875
1.1124999000000002,1.7729063034057617,0.9516952037811279,8.393472671508789,-38.299560546875,48.03466796875,-76.59912109375
1.1174999,1.5759832859039307,0.5734112858772278,10.819397926330566,-9.796142578125,73.6083984375,-71.533203125
1.1224999000000002,0.4183867573738098,-0.7332242727279663,12.2589111328125,10.25390625,57.2509765625,-66.741943359375
1.1274999,-0.3974374830722809,-1.1480196714401245,11.653178215026855,-3.692626953125,49.560546875,-62.19482421875
1.1324999000000002,-1.3563152551651,-1.225232720375061,10.389039993286133,-12.51220703125,32.989501953125,-47.2412109375
1.1374999000000001,-2.5504233837127686,-1.3976151943206787,9.1632080078125,-11.993408203125,2.716064453125,-17.547607421875
1.1424999000000002,-3.9025487899780273,-1.4933832883834839,8.355764389038086,-12.054443359375,-33.966064453125,21.240234375
1.1474999000000001,-5.212775707244873,-1.6741455793380737,7.969698905944824,-11.383056640625,-64.727783203125,49.31640625
1.1524999000000002,-6.1530985832214355,-1.523909330368042,7.92899751663208,-24.35302734375,-97.71728515625,52.6123046875
1.1574999000000001,-6.1530985832214355,-1.523909330368042,7.92899751663208,-24.35302734375,-97.71728515625,52.6123046875
1.1624999,-4.150947093963623,0.21966800093650818,11.17972469329834,-7.50732421875,-110.870361328125,55.999755859375
1.1674999000000001,-4.150947093963623,0.21966800093650818,11.17972469329834,-7.50732421875,-110.870361328125,55.999755859375
1.1724999,-2.0655975341796875,0.1951274424791336,12.00333023071289,9.613037109375,-112.274169921875,74.920654296875
1.1774999000000002,0.16160862147808075,-0.31543606519699097,11.889605522155762,19.4091796875,-84.991455078125,84.564208984375
1.1824999,2.0877439975738525,-1.2180501222610474,10.8720703125,26.0009765625,-37.200927734375,86.700439453125
1.1874999000000002,3.6373908519744873,-2.029085874557495,9.870096206665039,33.935546875,-1.373291015625,90.27099609375
1.1924999,4.687847137451172,-2.425326347351074,9.000402450561523,29.4189453125,5.79833984375,89.569091796875
1.1974999000000002,5.237316131591797,-2.343923568725586,8.871115684509277,21.392822265625,10.07080078125,71.807861328125
1.2024999,4.864419460296631,-1.3658920526504517,9.424176216125488,31.005859375,18.341064453125,31.829833984375
1.2074999000000002,4.864419460296631,-1.3658920526504517,9.424176216125488,31.005859375,18.341064453125,31.829833984375
1.2124999,4.289810657501221,-0.8750807046890259,9.792284965515137,31.341552734375,23.92578125,14.495849609375
1.2174999000000002,3.7175967693328857,-0.42676645517349243,9.860519409179688,31.3720703125,28.9306640625,0.06103515625
1.2224999,2.587533473968506,0.7140706777572632,9.487024307250977,16.17431640625,27.77099609375,-37.811279296875
1.2274999000000002,2.258330821990967,0.7433996200561523,9.17697525024414,7.293701171875,31.219482421875,-46.905517578125
1.2324999,1.9686323404312134,0.6590040326118469,8.811859130859375,-1.77001953125,33.782958984375,-58.28857421875
1.2374999000000002,1.7908629179000854,0.6260837316513062,8.46051025390625,-16.326904296875,35.186767578125,-71.685791015625
1.2424999,1.8100165128707886,0.9187749028205872,8.249221801757812,-32.04345703125,36.041259765625,-86.944580078125
1.2474999000000002,1.9704279899597168,1.191115379333496,8.047510147094727,-50.994873046875,39.55078125,-102.294921875
1.2524999,2.1996726989746094,1.6089035272598267,8.170811653137207,-66.46728515625,46.875,-110.809326171875
1.2574999000000002,2.296638011932373,1.569997787475586,9.084199905395508,-59.356689453125,68.084716796875,-105.5908203125
1.2624999000000001,1.902193307876587,0.9379284977912903,10.84094524383545,-17.822265625,88.37890625,-85.51025390625
1.2674999000000002,1.2868833541870117,0.18974047899246216,12.352285385131836,20.81298828125,76.171875,-72.6318359375
1.2724999000000001,0.26575639843940735,-0.7308300733566284,13.115436553955078,9.6435546875,60.97412109375,-64.971923828125
1.2774999000000002,-4.9565958976745605,-2.1930887699127197,7.7649946212768555,-3.387451171875,-52.642822265625,52.581787109375
1.2824999000000001,-6.5283894538879395,-1.1839327812194824,8.720879554748535,-8.97216796875,-124.0234375,55.35888671875
1.2874999,-5.343858242034912,-0.3944447338581085,10.3363676071167,-2.960205078125,-104.1259765625,56.94580078125
1.2924999000000001,-3.492541790008545,0.16879121959209442,11.962030410766602,8.11767578125,-112.85400390625,75.164794921875
1.2974999,-1.237802267074585,0.15562310814857483,12.54681396484375,19.866943359375,-104.400634765625,92.10205078125
1.3024999000000002,0.8661024570465088,-0.3172317147254944,11.780669212341309,26.947021484375,-57.891845703125,99.639892578125
1.3074999,2.6563668251037598,-1.037886381149292,10.52910041809082,34.271240234375,-10.7421875,101.959228515625
1.3124999000000002,4.039018154144287,-1.7292121648788452,9.290101051330566,28.106689453125,5.0048828125,96.649169921875
1.3174999,5.360617637634277,-2.032677173614502,8.834005355834961,28.228759765625,6.9580078125,72.723388671875
1.3224999000000002,5.262455463409424,-1.7884687185287476,9.213486671447754,31.6162109375,14.801025390625,50.994873046875
1.3274999,4.879981517791748,-1.4221558570861816,9.70549488067627,31.402587890625,16.11328125,24.2919921875
1.3324999000000002,4.365228176116943,-0.9433154463768005,9.907805442810059,30.76171875,20.538330078125,1.739501953125
1.3374999,3.8732197284698486,-0.48901569843292236,9.94970417022705,30.33447265625,24.5361328125,-16.78466796875
1.3424999000000002,3.421314239501953,0.076015904545784,9.877279281616211,26.9775390625,22.735595703125,-29.998779296875
1.3474999,3.027467966079712,0.5770025849342346,9.696516990661621,20.99609375,22.247314453125,-41.534423828125
1.3524999000000002,2.670732021331787,0.8696937561035156,9.338583946228027,11.566162109375,25.93994140625,-50.933837890625
1.3574999,2.3552958965301514,0.8834604024887085,8.932766914367676,0.54931640625,30.242919921875,-60.028076171875
1.3624999000000002,2.1595699787139893,0.7972691655158997,8.535927772521973,-9.70458984375,34.97314453125,-73.089599609375
1.3674999,2.1039047241210938,0.7625532150268555,8.142081260681152,-25.054931640625,39.1845703125,-89.53857421875
1.3724999000000002,2.1930887699127197,0.9379284977912903,7.861959934234619,-45.684814453125,41.56494140625,-105.52978515625
1.3774999,2.582146644592285,1.6597803831100464,8.180987358093262,-75.98876953125,62.6220703125,-127.227783203125
1.3824999000000002,2.3924059867858887,1.5077484846115112,9.747992515563965,-54.87060546875,87.554931640625,-116.058349609375
1.3874999000000001,1.7519570589065552,0.8206126093864441,11.711835861206055,4.45556640625,94.17724609375,-93.536376953125
1.3924999000000002,0.7775170207023621,-0.02992752194404602,13.065756797790527,21.240234375,72.723388671875,-76.0498046875
1.3974999000000001,-0.5626373887062073,-0.8661024570465088,13.254899024963379,-7.781982421875,58.990478515625,-61.34033203125
1.4024999000000002,-1.9704279899597168,-1.325789213180542,11.904569625854492,-28.25927734375,44.49462890625,-42.510986328125
1.4074999000000001,-3.4590229988098145,-1.8046295642852783,9.964667320251465,-21.209716796875,10.162353515625,-4.486083984375
1.4124999,-4.902127742767334,-2.032078742980957,8.255207061767578,-9.857177734375,-38.39111328125,45.928955078125
1.4174999000000001,-6.143521785736084,-2.478597402572632,7.049128532409668,-16.937255859375,-84.991455078125,72.845458984375
1.4224999,-6.946776390075684,-2.4642322063446045,6.534973621368408,-20.721435546875,-127.8076171875,78.521728515625
1.4274999000000002,-7.010222434997559,-2.147000312805176,7.354987621307373,-0.457763671875,-141.29638671875,76.507568359375
1.4324999,-6.069301128387451,-1.5424644947052002,9.23682975769043,20.3857421875,-108.45947265625,71.197509765625
1.4374999000000002,-2.275090217590332,-0.34596213698387146,12.880207061767578,21.331787109375,-111.968994140625,94.42138671875
1.4424999,0.0065840547904372215,-0.22924481332302094,12.696451187133789,37.4755859375,-70.73974609375,109.771728515625
1.4474999000000002,1.9273324012756348,-0.49320554733276367,11.436503410339355,41.229248046875,-20.721435546875,117.3095703125
1.4524999,3.448249101638794,-1.0169371366500854,10.080187797546387,33.87451171875,-0.213623046875,109.344482421875
1.4574999000000002,4.49870491027832,-1.4227544069290161,9.065644264221191,34.881591796875,3.11279296875,111.114501953125
1.4624999,5.054758548736572,-1.6735470294952393,8.696937561035156,31.43310546875,8.209228515625,98.724365234375
1.4674999000000002,5.169081687927246,-1.755548357963562,8.99621295928955,30.76171875,9.46044921875,64.178466796875
1.4724999,4.985326290130615,-1.5670050382614136,9.5007905960083,37.445068359375,10.467529296875,36.773681640625
1.4774999000000002,4.58968448638916,-1.2054805755615234,9.897629737854004,42.449951171875,16.05224609375,18.00537109375
1.4824999,4.133589267730713,-0.6961141228675842,10.269330024719238,44.73876953125,14.190673828125,2.227783203125
1.4874999000000002,3.6523547172546387,-0.1454477459192276,10.271124839782715,43.51806640625,11.199951171875,-13.36669921875
1.4924999,3.245340347290039,0.22744916379451752,9.965266227722168,36.2548828125,13.946533203125,-31.55517578125
1.4974999000000002,2.5498247146606445,0.6673837304115295,8.316858291625977,-5.06591796875,15.07568359375,-89.4775390625
1.5024999,2.5480291843414307,1.1216834783554077,7.794323444366455,-24.322509765625,19.83642578125,-108.245849609375
1.5074999000000002,2.670732021331787,1.5861586332321167,7.349001884460449,-49.9267578125,24.90234375,-126.861572265625
1.5124999000000001,2.8862102031707764,2.1775264739990234,6.918644428253174,-80.078125,29.815673828125,-145.477294921875
1.5174999000000002,3.1208419799804688,2.6168625354766846,6.572083473205566,-113.128662109375,39.825439453125,-163.055419921875
1.5224999000000001,3.3315317630767822,2.8167781829833984,7.059902191162109,-137.908935546875,68.05419921875,-171.112060546875
1.5274999000000002,2.83174204826355,2.1422119140625,8.80467700958252,-101.348876953125,152.252197265625,-151.9775390625
1.5324999000000001,1.7908629179000854,0.6805518269538879,11.156381607055664,25.0244140625,163.360595703125,-110.931396484375
1.5374999000000003,0.3280056416988373,-0.6488286852836609,12.601282119750977,44.61669921875,80.01708984375,-65.582275390625
1.5424999000000001,-1.4688427448272705,-2.027888774871826,12.691662788391113,-13.916015625,55.328369140625,-34.0576171875
1.5474999,-6.877344608306885,-2.9203274250030518,6.017826080322266,-28.01513671875,-125.457763671875,99.30419921875
1.5524999000000002,-7.29154109954834,-3.0783448219299316,5.365406036376953,-6.072998046875,-155.6396484375,104.00390625
1.5574999,-6.740874767303467,-3.069366693496704,5.969942092895508,54.229736328125,-157.3486328125,102.447509765625
1.5624999000000002,-5.194220542907715,-2.7952303886413574,7.970896244049072,93.902587890625,-110.992431640625,98.08349609375
1.5674999,-3.24414324760437,-2.049436569213867,10.057442665100098,31.92138671875,-69.82421875,103.02734375
1.5724999000000002,-0.960673451423645,-1.3581109046936035,12.090718269348145,25.726318359375,-80.657958984375,102.11181640625
1.5774999,0.9726444482803345,-0.7308300733566284,12.409147262573242,61.03515625,-60.05859375,108.88671875
1.5824999000000002,2.432508945465088,-0.3734954595565796,11.549030303955078,61.431884765625,-28.289794921875,131.2255859375
1.5874999,3.4578258991241455,-0.4124012291431427,10.40699577331543,56.915283203125,-5.279541015625,129.638671875
1.5924999000000002,4.04201078414917,-0.5728127360343933,9.535507202148438,50.262451171875,-0.3662109375,105.926513671875
1.5974999,3.5919010639190674,-0.292691171169281,9.852738380432129,64.697265625,7.38525390625,54.62646484375
1.6024999000000002,3.3441011905670166,-0.2256535142660141,9.861717224121094,57.830810546875,5.035400390625,28.472900390625
1.6074999,3.201047658920288,-0.09636662155389786,9.643245697021484,48.40087890625,1.5869140625,1.434326171875
1.6124999000000002,3.132812976837158,0.06763619929552078,9.188945770263672,33.935546875,-2.838134765625,-24.59716796875
1.6174999,3.092111587524414,0.4991910457611084,8.65982723236084,15.380859375,-7.4462890625,-50.445556640625
1.6224999000000002,3.0412347316741943,1.0073603391647339,8.12053394317627,-5.340576171875,-9.002685546875,-76.0498046875
1.6274999,2.9915549755096436,1.5502456426620483,7.614160060882568,-29.388427734375,-9.58251953125,-98.5107421875
1.6324999000000002,3.0107085704803467,2.03507137298584,7.207744121551514,-54.962158203125,-7.14111328125,-118.682861328125
1.6374999000000001,3.179499864578247,2.427121877670288,6.855197906494141,-83.526611328125,-1.007080078125,-138.73291015625
1.6424999000000002,3.4751837253570557,2.741360902786255,6.515820026397705,-115.325927734375,10.223388671875,-159.0576171875
1.6474999000000001,4.194042682647705,3.135207176208496,6.600215435028076,-182.06787109375,59.9365234375,-183.624267578125
1.6524999000000002,4.153341293334961,2.5480291843414307,8.300697326660156,-163.51318359375,184.08203125,-172.882080078125
1.6574999000000001,2.934692621231079,0.707486629486084,10.919954299926758,-27.34375,288.87939453125,-152.008056640625
1.6624999000000003,1.4658499956130981,-1.0169371366500854,12.836512565612793,69.4580078125,106.109619140625,-112.548828125
1.6674999000000001,-0.8044517636299133,-3.0310592651367188,13.401543617248535,26.641845703125,51.3916015625,-59.173583984375
1.6724999,-2.7730841636657715,-3.6798880100250244,11.684901237487793,-32.04345703125,72.44873046875,-24.627685546875
1.6774999000000002,-4.4639892578125,-3.715202569961548,9.283516883850098,-50.079345703125,55.96923828125,12.5732421875
1.6824999,-7.156867504119873,-3.7403416633605957,4.791994571685791,38.4521484375,-170.47119140625,99.91455078125
1.6874999000000002,-5.8215012550354,-3.447052001953125,6.367379188537598,98.20556640625,-141.29638671875,98.7548828125
1.6924999,-1.4957774877548218,-1.3898340463638306,10.877456665039062,13.702392578125,-75.714111328125,91.400146484375
1.6974999000000002,0.7954735159873962,-0.363918662071228,12.091317176818848,56.7626953125,-73.05908203125,90.667724609375
1.7024999,2.5324668884277344,0.24839842319488525,11.622652053833008,63.65966796875,-40.740966796875,102.96630859375
1.7074999000000002,3.6176388263702393,0.27413609623908997,10.572794914245605,49.896240234375,-14.83154296875,105.77392578125
1.7124999,4.175487995147705,0.03711012750864029,9.794678688049316,56.5185546875,-7.598876953125,111.846923828125
1.7174999000000002,4.169502258300781,-0.0071826050989329815,9.4014310836792,65.36865234375,7.75146484375,118.438720703125
1.7224999,3.9462430477142334,-0.1107318252325058,9.453505516052246,65.673828125,18.1884765625,101.62353515625
1.7274999000000002,3.6349966526031494,-0.166995570063591,9.697115898132324,69.061279296875,13.275146484375,80.841064453125
1.7324999,3.378218650817871,-0.33518823981285095,9.687539100646973,63.4765625,13.214111328125,61.065673828125
1.7374999000000002,3.206434726715088,-0.5506663918495178,9.59835433959961,58.7158203125,11.749267578125,37.78076171875
1.7424999,3.1040825843811035,-0.49559974670410156,9.368511199951172,49.25537109375,3.753662109375,10.009765625
1.7474999000000002,3.0436289310455322,-0.25677812099456787,9.067440032958984,33.538818359375,-5.2490234375,-21.148681640625
1.7524999,3.1040825843811035,0.8924387097358704,8.334216117858887,-2.716064453125,-13.00048828125,-81.23779296875
1.7574999000000002,3.1040825843811035,0.8924387097358704,8.334216117858887,-2.716064453125,-13.00048828125,-81.23779296875
1.7624999000000001,3.7672762870788574,2.825756549835205,6.302735805511475,-116.119384765625,17.51708984375,-162.933349609375
1.7674999000000002,3.931279182434082,3.181894063949585,5.804741859436035,-155.21240234375,35.15625,-178.131103515625
1.7724999000000001,4.080916881561279,3.3638534545898438,6.075286865234375,-195.37353515625,62.31689453125,-188.96484375
1.7774999000000002,3.7654807567596436,2.7545289993286133,7.77756404876709,-178.741455078125,179.26025390625,-175.72021484375
1.7824999000000001,2.3810336589813232,0.6979097723960876,10.332776069641113,-11.5966796875,269.012451171875,-140.68603515625
1.7874999000000003,0.8355764150619507,-0.943913996219635,12.088922500610352,67.9931640625,95.916748046875,-85.14404296875
1.7924999000000001,-1.3946224451065063,-3.1681272983551025,12.534244537353516,18.06640625,55.084228515625,-30.94482421875
1.7974999,-4.502894878387451,-3.5511996746063232,7.931391716003418,-54.87060546875,48.64501953125,25.848388671875
1.8024999000000002,-5.618592739105225,-3.312976598739624,5.936423301696777,-31.646728515625,-45.867919921875,57.9833984375
1.8074999,-6.4828996658325195,-3.3201591968536377,4.790797710418701,-7.598876953125,-122.49755859375,81.939697265625
1.8124999000000002,-6.956353187561035,-3.640383720397949,4.486135482788086,13.763427734375,-149.84130859375,94.207763671875
1.8174999,-6.651092529296875,-3.8055837154388428,5.287594318389893,57.708740234375,-162.2314453125,96.649169921875
1.8224999000000002,-5.357026100158691,-3.4751837253570557,7.341220855712891,89.599609375,-119.5068359375,92.529296875
1.8274999,-3.375824451446533,-2.4390928745269775,9.525930404663086,29.937744140625,-52.978515625,87.70751953125
1.8324999000000002,-1.035492181777954,-1.3856441974639893,11.716026306152344,10.223388671875,-72.44873046875,73.1201171875
1.8374999,1.2461819648742676,-0.30226796865463257,12.458827018737793,48.614501953125,-69.366455078125,70.648193359375
1.8424999000000002,3.9863457679748535,0.47824180126190186,10.547656059265137,40.496826171875,-8.331298828125,84.381103515625
1.8474999,3.9863457679748535,0.47824180126190186,10.547656059265137,40.496826171875,-8.331298828125,84.381103515625
1.8524999000000002,4.380790710449219,0.5847837924957275,9.600150108337402,36.376953125,-9.613037109375,76.96533203125
1.8574999,3.818153142929077,0.6404489278793335,8.819042205810547,34.271240234375,9.552001953125,66.192626953125
1.8624999000000002,3.818153142929077,0.6404489278793335,8.819042205810547,34.271240234375,9.552001953125,66.192626953125
1.8674999,3.354276657104492,0.5536591410636902,8.935759544372559,31.1279296875,14.2822265625,57.342529296875
1.8724999000000002,2.9652187824249268,0.3705027103424072,8.969278335571289,26.397705078125,19.500732421875,46.0205078125
1.8774999,2.720411777496338,0.17956513166427612,8.983643531799316,18.12744140625,20.050048828125,31.005859375
1.8824999000000002,2.60548996925354,0.12509703636169434,8.956708908081055,8.30078125,15.411376953125,10.711669921875
1.8874999000000001,2.5665841102600098,0.1538274586200714,8.89445972442627,-4.2724609375,11.3525390625,-12.02392578125
1.8924999000000002,2.6114754676818848,0.3274070918560028,8.848969459533691,-15.289306640625,10.8642578125,-32.257080078125
1.8974999000000001,2.6659436225891113,0.43275195360183716,8.762179374694824,-25.787353515625,15.716552734375,-48.40087890625
1.9024999000000002,2.695272445678711,0.2890998423099518,8.93037223815918,-29.9072265625,23.0712890625,-57.4951171875
1.9074999000000001,2.6174609661102295,-0.009576806798577309,9.062651634216309,-22.94921875,36.102294921875,-52.734375
1.9124999000000003,2.36188006401062,-0.7535749673843384,9.443329811096191,-16.29638671875,47.210693359375,-50.262451171875
1.9174999000000001,1.601720929145813,-0.9654618501663208,10.04188060760498,-7.354736328125,53.03955078125,-72.509765625
1.9224999,-1.7262194156646729,0.9570821523666382,11.519103050231934,-14.7705078125,24.96337890625,-32.989501953125
1.9274999000000002,-3.490147590637207,-0.7613561153411865,11.692682266235352,7.415771484375,8.056640625,5.67626953125
1.9324999,-4.807557106018066,-1.7537527084350586,10.262146949768066,-22.735595703125,-15.869140625,18.00537109375
1.9374999000000002,-5.562927722930908,-2.4229321479797363,8.54909610748291,-26.763916015625,-64.0869140625,29.78515625
1.9424999,-5.7556610107421875,-2.5785553455352783,7.5968017578125,-0.213623046875,-97.503662109375,40.924072265625
1.9474999000000002,-5.28460168838501,-2.649782657623291,8.10317611694336,20.8740234375,-94.17724609375,45.379638671875
1.9524999,3.2405519485473633,-0.4106055796146393,10.799046516418457,33.782958984375,-24.4140625,67.93212890625
1.9574999000000002,4.2527008056640625,-0.43275195360183716,10.032901763916016,36.43798828125,-2.105712890625,81.085205078125
1.9624999,4.685452938079834,-0.641047477722168,9.344569206237793,32.745361328125,13.702392578125,73.211669921875
1.9674999000000002,4.559757232666016,-0.6769605278968811,8.972270965576172,30.548095703125,20.56884765625,61.279296875
1.9724999,4.1647138595581055,-0.7428010702133179,9.049484252929688,30.059814453125,21.759033203125,48.736572265625
1.9774999000000002,3.5649664402008057,-0.4255693554878235,9.47146224975586,39.4287109375,29.937744140625,44.097900390625
1.9824999,2.983773946762085,-0.26396074891090393,9.806650161743164,41.290283203125,33.477783203125,35.797119140625
1.9874999000000002,2.472013235092163,-0.040701430290937424,10.127472877502441,39.306640625,27.252197265625,19.256591796875
1.9924999,2.0835540294647217,-0.02693476900458336,9.919178009033203,32.012939453125,26.06201171875,0.457763671875
1.9974999000000002,1.8267759084701538,0.02992752194404602,8.818443298339844,-6.65283203125,7.843017578125,-66.436767578125
2.0024999,1.8465280532836914,0.17537526786327362,8.851962089538574,-16.7236328125,25.390625,-74.127197265625
2.0074999,1.7974469661712646,-0.15143325924873352,8.89685344696045,-23.74267578125,31.1279296875,-80.38330078125
2.0124999000000003,1.9177556037902832,0.0736217051744461,8.756793022155762,-33.87451171875,37.65869140625,-93.994140625
2.0174999000000002,2.1799206733703613,0.6805518269538879,8.227075576782227,-68.603515625,43.701171875,-118.896484375
2.0224999,2.542043685913086,1.7483657598495483,7.951742172241211,-112.9150390625,56.976318359375,-137.939453125
2.0274999,2.166752576828003,2.513911724090576,8.900444984436035,-95.947265625,97.442626953125,-112.701416015625
2.0324999000000004,0.983418345451355,1.956661343574524,10.276512145996094,-9.6435546875,94.940185546875,-53.436279296875
2.0374999000000003,-0.861314058303833,0.9014169573783875,11.419144630432129,-8.270263671875,41.900634765625,4.730224609375
2.0424999,-3.247734546661377,-3.1274259090423584,10.367491722106934,31.982421875,-89.84375,60.4248046875
2.0474999,-1.137245774269104,-2.6228480339050293,12.098499298095703,18.98193359375,-82.3974609375,50.506591796875
2.0524999,0.9977835416793823,-1.6992846727371216,12.789226531982422,34.515380859375,-67.56591796875,56.2744140625
2.0574999000000003,2.7329812049865723,-0.838569164276123,12.208633422851562,49.37744140625,-32.77587890625,79.2236328125
2.0624999,3.890577793121338,-0.5159504413604736,11.108497619628906,49.346923828125,-6.16455078125,85.113525390625
2.0674999,4.43585729598999,-0.31842881441116333,10.20528507232666,53.16162109375,9.8876953125,81.1767578125
2.0724999,4.4274773597717285,-0.20051439106464386,9.643245697021484,60.577392578125,16.845703125,84.53369140625
2.0774999000000003,3.3405098915100098,0.05506663769483566,9.746794700622559,64.910888671875,18.4326171875,70.73974609375
2.0824999,2.7449522018432617,-0.02753331884741783,9.795876502990723,64.361572265625,22.857666015625,51.513671875
2.0874999,2.3570916652679443,-0.3166331648826599,9.70429801940918,59.417724609375,21.942138671875,31.55517578125
2.0924999,2.236783027648926,-0.5285200476646423,9.457097053527832,49.163818359375,11.962890625,8.11767578125
2.0974999000000003,2.3145945072174072,-0.4704606235027313,9.144054412841797,35.064697265625,0.42724609375,-21.91162109375
2.1024999,2.522890090942383,-0.023343466222286224,8.782530784606934,17.76123046875,-8.1787109375,-55.0537109375
2.1074999,2.78086519241333,0.585382342338562,8.330026626586914,-5.218505859375,-13.85498046875,-87.310791015625
2.1124999,3.0885202884674072,1.3102269172668457,7.779958248138428,-31.92138671875,-14.495849609375,-116.607666015625
2.1174999000000003,3.4105403423309326,1.9686323404312134,7.138312339782715,-62.68310546875,-8.9111328125,-142.608642578125
2.1224999,3.714005470275879,2.5516204833984375,6.457161903381348,-97.930908203125,1.8310546875,-164.4287109375
2.1274999,3.9390604496002197,3.064578056335449,5.8406548500061035,-138.397216796875,18.890380859375,-180.96923828125
2.1324999,4.087501049041748,3.399167776107788,5.768230438232422,-181.7626953125,46.630859375,-191.10107421875
2.1374999000000003,2.713229179382324,1.4832079410552979,9.797672271728516,-48.614501953125,274.96337890625,-152.2216796875
2.1424999000000002,1.2958617210388184,-0.3579331636428833,12.025476455688477,64.63623046875,123.22998046875,-101.318359375
2.1474999,-0.9103952050209045,-2.2828712463378906,12.922104835510254,26.336669921875,50.6591796875,-38.9404296875
2.1524999,-2.8335378170013428,-3.5446155071258545,11.583745956420898,-35.125732421875,64.14794921875,-0.244140625
2.1574999000000004,-4.301183223724365,-3.2387564182281494,8.974066734313965,-59.478759765625,44.3115234375,33.782958984375
2.1624999000000003,-5.500678539276123,-3.2345664501190186,6.8360443115234375,-39.85595703125,-46.32568359375,68.359375
2.1674999,-6.4182562828063965,-2.9777884483337402,5.302558422088623,-28.3203125,-124.69482421875,95.489501953125
2.1724999,-6.913856029510498,-3.135207176208496,4.7189717292785645,-1.708984375,-158.416748046875,111.75537109375
2.1774999000000004,-6.664260387420654,-3.272873640060425,4.978742599487305,61.21826171875,-168.548583984375,116.88232421875
2.1824999000000003,-5.416282653808594,-3.1962592601776123,6.8156938552856445,123.046875,-136.29150390625,118.2861328125
2.1874999,-3.5069069862365723,-2.496553897857666,9.029731750488281,65.673828125,-58.837890625,115.1123046875
2.1924999,-1.1492167711257935,-1.6950948238372803,11.106701850891113,0.3662109375,-44.830322265625,97.0458984375
2.1974999,4.326920986175537,0.12090718746185303,9.889249801635742,32.470703125,-16.632080078125,77.972412109375
2.2024999000000003,4.3861775398254395,0.03890577703714371,9.480440139770508,39.093017578125,-13.97705078125,56.2744140625
2.2074999,4.172494888305664,-0.1711854189634323,9.353547096252441,35.400390625,-7.568359375,28.86962890625
2.2124999,3.909731388092041,-0.15502455830574036,9.446322441101074,31.402587890625,-9.1552734375,10.650634765625
2.2174999,3.6960489749908447,0.03292027488350868,9.480440139770508,30.3955078125,-3.41796875,-2.960205078125
2.2224999000000003,3.5027170181274414,0.16101007163524628,9.261969566345215,25.634765625,6.77490234375,-11.71875
2.2274999,3.312378168106079,0.15921440720558167,9.042900085449219,17.303466796875,9.185791015625,-23.162841796875
2.2324999,3.113060712814331,0.11192893236875534,8.771158218383789,5.828857421875,9.368896484375,-39.794921875
2.2374999,2.956839084625244,0.11312603205442429,8.596381187438965,-3.96728515625,16.448974609375,-53.77197265625
2.2424999000000003,3.5655648708343506,2.3768436908721924,7.209539890289307,-109.161376953125,70.831298828125,-132.99560546875
2.2474999,3.5284547805786133,2.431311845779419,8.177994728088379,-114.1357421875,129.69970703125,-130.523681640625
2.2524999,2.672527551651001,1.437718152999878,10.134655952453613,-42.266845703125,200.714111328125,-112.60986328125
2.2574999,1.4305355548858643,0.0586579404771328,12.302006721496582,42.90771484375,121.58203125,-89.84375
2.2624999000000003,-0.4405331015586853,-1.3096283674240112,13.39555835723877,15.289306640625,67.535400390625,-56.15234375
2.2674999000000002,-2.3313539028167725,-2.4893712997436523,12.736554145812988,-34.515380859375,68.7255859375,-26.763916015625
2.2724999,-4.045602321624756,-2.9269115924835205,10.675745010375977,-41.778564453125,41.3818359375,18.035888671875
2.2774999,-5.419275760650635,-3.1298201084136963,8.267178535461426,-16.754150390625,-32.3486328125,65.91796875
2.2824999000000004,-6.51522159576416,-3.2603042125701904,6.282983779907227,-21.97265625,-93.597412109375,84.259033203125
2.2874999000000003,-7.039551734924316,-2.558204412460327,5.37438440322876,34.576416015625,-155.853271484375,94.146728515625
2.2924999,-5.9974751472473145,-1.8387469053268433,7.253233909606934,70.770263671875,-127.349853515625,88.80615234375
2.2974999,-4.268861770629883,-1.0971429347991943,9.708487510681152,31.67724609375,-88.775634765625,86.24267578125
2.3024999000000004,-2.1314380168914795,-0.5291185975074768,11.887211799621582,8.819580078125,-103.271484375,83.282470703125
2.3074999000000003,0.15442600846290588,-0.11971008777618408,12.669516563415527,33.843994140625,-101.470947265625,73.638916015625
2.3124999,0.15442600846290588,-0.11971008777618408,12.669516563415527,33.843994140625,-101.470947265625,73.638916015625
2.3174999,2.0039467811584473,-0.058059390634298325,11.86147403717041,33.843994140625,-63.90380859375,72.998046875
2.3224999,4.510077476501465,-0.608127236366272,9.627683639526367,37.628173828125,-25.299072265625,81.11572265625
2.3274999000000003,4.510077476501465,-0.608127236366272,9.627683639526367,37.628173828125,-25.299072265625,81.11572265625
2.3324999,5.082291603088379,-0.9965864419937134,8.956110000610352,30.82275390625,-6.805419921875,54.901123046875
2.3374999,5.204395771026611,-1.173158884048462,8.707113265991211,33.38623046875,-0.06103515625,36.041259765625
2.3424999,4.948216438293457,-1.0809820890426636,8.644864082336426,29.632568359375,3.570556640625,27.40478515625
2.3474999000000003,2.8215668201446533,0.4794389009475708,9.288904190063477,11.90185546875,23.98681640625,-33.75244140625
2.3524999,2.516904592514038,0.24181437492370605,9.029731750488281,4.364013671875,27.557373046875,-44.73876953125
2.3574999,2.3499090671539307,0.10115502029657364,8.777143478393555,-3.84521484375,32.440185546875,-57.2509765625
2.3624999,2.3953988552093506,0.3687070608139038,8.507795333862305,-16.632080078125,35.614013671875,-74.70703125
2.3674999000000003,2.60548996925354,0.8271966576576233,8.129511833190918,-41.534423828125,36.56005859375,-97.869873046875
2.3724999,2.897582530975342,1.5843629837036133,7.656058311462402,-70.4345703125,38.909912109375,-120.880126953125
2.3774999,3.1872811317443848,2.273893117904663,7.159261703491211,-101.654052734375,53.03955078125,-141.510009765625
2.3824999,3.3883938789367676,2.627636432647705,7.507617950439453,-126.251220703125,92.315673828125,-151.885986328125
2.3874999000000003,2.89339280128479,2.1781249046325684,9.106346130371094,-84.991455078125,187.3779296875,-136.53564453125
2.3924999000000002,0.16579847037792206,-0.5764040350914001,12.972383499145508,37.29248046875,77.056884765625,-69.305419921875
2.3974999,-1.8046295642852783,-2.1272482872009277,13.085509300231934,-17.974853515625,67.291259765625,-28.86962890625
2.4024999,-7.205948352813721,-2.670732021331787,5.041590213775635,21.942138671875,-157.989501953125,95.672607421875
2.4074999000000004,-7.205948352813721,-2.670732021331787,5.041590213775635,21.942138671875,-157.989501953125,95.672607421875
2.4124999000000003,-6.423643112182617,-2.120065689086914,6.477512836456299,74.52392578125,-143.402099609375,94.66552734375
2.4174999,-4.821323871612549,-1.4826093912124634,8.850765228271484,58.89892578125,-96.160888671875,96.3134765625
2.4224999,-2.765302896499634,-0.912190854549408,11.197681427001953,9.58251953125,-88.958740234375,97.991943359375
2.4274999000000004,-0.4291606545448303,-0.45190557837486267,12.650961875915527,30.1513671875,-103.851318359375,85.357666015625
2.4324999000000003,1.4945803880691528,-0.30466216802597046,12.254122734069824,36.651611328125,-72.723388671875,80.9326171875
2.4374999,4.900930881500244,-1.026513934135437,8.761581420898438,38.2080078125,0.30517578125,37.59765625
2.4424999,4.5639472007751465,-0.6709750294685364,9.08838939666748,36.07177734375,4.150390625,26.30615234375
2.4474999,4.125209331512451,-0.10833762586116791,9.467870712280273,37.4755859375,9.185791015625,10.6201171875
2.4524999000000003,3.7283706665039062,0.3082534670829773,9.653421401977539,34.66796875,12.725830078125,-3.997802734375
2.4574999,3.4063503742218018,0.4141969084739685,9.50857162475586,27.2216796875,17.364501953125,-19.134521484375
2.4624999,3.15974760055542,0.35913026332855225,9.179967880249023,15.350341796875,16.265869140625,-37.04833984375
2.4674999,2.9712042808532715,0.3519476354122162,8.737639427185059,0.244140625,16.754150390625,-56.793212890625
2.4724999000000003,2.8119897842407227,0.4339490532875061,8.465298652648926,-12.51220703125,20.20263671875,-71.258544921875
2.4774999,2.6414029598236084,0.4812345504760742,8.304886817932129,-17.852783203125,29.754638671875,-72.540283203125
2.4824999,2.431910276412964,2.3074119091033936,8.992621421813965,-98.5107421875,195.3125,-126.495361328125
2.4874999,1.3275848627090454,1.0013748407363892,11.16356372833252,18.157958984375,154.083251953125,-100.189208984375
2.4924999000000003,-0.4926069974899292,-0.5117605924606323,12.466010093688965,38.299560546875,56.243896484375,-41.046142578125
2.4974999,-2.5007436275482178,-2.0266916751861572,12.269684791564941,-16.082763671875,47.36328125,-4.791259765625
2.5024999,-4.158728122711182,-2.5043349266052246,10.211869239807129,-55.48095703125,40.283203125,18.73779296875
2.5074999,-5.475539207458496,-2.541445016860962,7.893682956695557,-42.327880859375,-29.84619140625,50.628662109375
2.5124999000000003,-6.4380083084106445,-2.6192567348480225,6.09324312210083,-20.782470703125,-108.21533203125,75.86669921875
2.5174999000000002,-6.957550048828125,-2.868852138519287,5.361814498901367,-4.2724609375,-136.566162109375,89.508056640625
2.5224999,-3.7666778564453125,-2.5576059818267822,9.932944297790527,51.57470703125,-84.991455078125,99.365234375
2.5274999,-1.5825673341751099,-1.6915035247802734,11.857283592224121,12.0849609375,-77.606201171875,97.22900390625
2.5324999000000004,0.5536591410636902,-0.7595604658126831,12.699444770812988,33.14208984375,-82.305908203125,76.934814453125
2.5374999000000003,2.3127987384796143,-0.13527239859104156,12.072762489318848,40.740966796875,-58.685302734375,78.643798828125
2.5424999,3.6589386463165283,0.15263035893440247,10.92414379119873,47.119140625,-35.064697265625,99.639892578125
2.5474999,4.4520182609558105,-0.09636662155389786,9.870695114135742,40.924072265625,-16.876220703125,84.686279296875
2.5524999000000004,4.789001941680908,-0.4058171808719635,9.25179386138916,39.581298828125,-5.859375,61.5234375
2.5574999000000003,4.7135844230651855,-0.5913678407669067,9.01895809173584,46.905517578125,-2.227783203125,55.023193359375
2.5624999,3.959411144256592,-0.4315548539161682,9.355342864990234,42.938232421875,7.720947265625,27.923583984375
2.5674999,3.291428804397583,-0.07781155407428741,9.388263702392578,34.60693359375,14.58740234375,-6.317138671875
2.5724999,3.133411407470703,-0.013766659423708916,9.140463829040527,23.651123046875,12.63427734375,-26.123046875
2.5774999000000003,3.073556423187256,0.18136078119277954,8.80587387084961,9.33837890625,9.307861328125,-49.1943359375
2.5824999,3.116652011871338,0.6476315855979919,8.457517623901367,-8.48388671875,9.490966796875,-73.30322265625
2.5874999,3.1848866939544678,1.0558429956436157,8.005013465881348,-32.1044921875,12.420654296875,-95.245361328125
2.5924999,3.3022027015686035,1.5304933786392212,7.577049732208252,-52.1240234375,18.585205078125,-112.884521484375
2.5974999000000003,3.4177229404449463,1.944091796875,7.053318023681641,-78.30810546875,30.914306640625,-131.2255859375
2.6024999,3.530848979949951,2.324171304702759,6.616974830627441,-111.26708984375,45.654296875,-148.37646484375
2.6074999,3.7050271034240723,2.672527551651001,6.770204067230225,-140.045166015625,71.044921875,-157.3486328125
2.6124999,3.666719913482666,2.4690206050872803,8.276755332946777,-134.979248046875,162.53662109375,-150.482177734375
2.6174999000000003,2.7527334690093994,1.237802267074585,10.729615211486816,-38.543701171875,263.031005859375,-138.61083984375
2.6224999,1.470638394355774,-0.272938996553421,13.099874496459961,58.929443359375,128.96728515625,-112.152099609375
2.6274999,-2.453458309173584,-2.979583978652954,13.025654792785645,-33.660888671875,79.9560546875,-24.688720703125
2.6324999,-4.201225280761719,-3.2154128551483154,10.803834915161133,-43.02978515625,54.351806640625,20.32470703125
2.6374999000000003,-5.658097267150879,-3.332130193710327,8.285135269165039,-26.611328125,-26.2451171875,63.507080078125
2.6424999000000002,-6.786364555358887,-3.0538041591644287,6.323685169219971,-23.895263671875,-94.879150390625,85.784912109375
2.6474999,-7.4094557762146,-2.9735984802246094,4.886565685272217,-13.61083984375,-142.303466796875,95.306396484375
2.6524999,-7.275979042053223,-2.586336374282837,4.461595058441162,22.735595703125,-172.576904296875,102.203369140625
2.6574999000000004,-6.189610004425049,-2.3343467712402344,5.91128396987915,83.587646484375,-152.435302734375,102.935791015625
2.6624999000000003,-4.359841346740723,-1.8267759084701538,8.56645393371582,74.249267578125,-91.49169921875,101.9287109375
2.6674999,-2.4013843536376953,-1.1336544752120972,11.074379920959473,12.603759765625,-85.235595703125,103.179931640625
2.6724999,-0.20709845423698425,-0.5015852451324463,12.769474983215332,40.374755859375,-104.06494140625,92.437744140625
2.6774999000000004,1.4059948921203613,-0.08798690885305405,12.244545936584473,48.76708984375,-72.235107421875,85.63232421875
2.6824999000000003,2.7317841053009033,-0.09636662155389786,11.063606262207031,41.19873046875,-51.025390625,95.3369140625
2.6874999,4.43585729598999,-0.5500678420066833,9.19433307647705,42.236328125,-3.23486328125,36.529541015625
2.6924999,4.098873138427734,-0.2849099934101105,9.540295600891113,42.449951171875,9.46044921875,19.561767578125
2.6974999,3.823540210723877,-0.046088382601737976,9.725846290588379,41.32080078125,10.80322265625,3.41796875
2.7024999000000003,3.5877113342285156,0.11252748221158981,9.496002197265625,31.402587890625,12.359619140625,-13.916015625
2.7074999,3.4602200984954834,0.23702596127986908,9.185355186462402,19.317626953125,11.1083984375,-34.85107421875
2.7124999,3.380612850189209,0.4967968463897705,8.735244750976562,4.94384765625,10.955810546875,-57.403564453125
2.7174999,3.354276657104492,0.7990648150444031,8.225279808044434,-15.68603515625,13.031005859375,-80.047607421875
2.7224999000000003,3.354875087738037,1.1180921792984009,7.775169849395752,-36.68212890625,17.51708984375,-101.470947265625
2.7274999,3.3937809467315674,1.468244194984436,7.315483093261719,-57.586669921875,25.909423828125,-119.415283203125
2.7324999,3.550601005554199,2.425924777984619,6.5499372482299805,-122.283935546875,51.57470703125,-155.975341796875
2.7374999,3.733757495880127,2.8425159454345703,6.953958988189697,-149.35302734375,82.000732421875,-164.093017578125
2.7424999000000003,3.538031578063965,2.5252842903137207,8.619126319885254,-132.781982421875,196.4111328125,-153.350830078125
2.7474999,2.456450939178467,1.083974838256836,11.226411819458008,-22.796630859375,263.885498046875,-140.411376953125
2.7524999,1.035492181777954,-0.6189011335372925,13.242928504943848,62.80517578125,105.3466796875,-103.240966796875
2.7574999,-1.0211269855499268,-2.557007312774658,13.80556583404541,16.693115234375,63.232421875,-50.933837890625
2.7624999000000003,-2.980182647705078,-3.4404678344726562,12.228983879089355,-37.506103515625,80.99365234375,-3.875732421875
2.7674999000000002,-4.586691856384277,-3.6308069229125977,9.752182006835938,-31.951904296875,41.046142578125,37.4755859375
2.7724999,-6.002861976623535,-3.5039141178131104,7.360374450683594,-21.3623046875,-45.7763671875,66.0400390625
2.7774999,-7.052719593048096,-3.067570924758911,5.701791286468506,-31.219482421875,-110.626220703125,88.31787109375
2.7824999000000004,-7.5674729347229,-2.9053637981414795,4.748300552368164,-5.157470703125,-153.3203125,102.23388671875
2.7874999000000003,-7.281365871429443,-2.472611904144287,4.972158432006836,46.966552734375,-171.5087890625,106.414794921875
2.7924999,-4.132990837097168,-1.3186066150665283,9.309853553771973,45.22705078125,-81.48193359375,104.034423828125
2.7974999,-1.9650410413742065,-0.7026981711387634,11.653777122497559,10.650634765625,-92.71240234375,101.043701171875
2.8024999000000004,3.3656489849090576,-0.17417816817760468,10.669161796569824,39.306640625,-47.943115234375,89.874267578125
2.8074999000000003,4.270657062530518,-0.536899745464325,9.532513618469238,44.0673828125,-27.83203125,96.5576171875
2.8124999,4.79857873916626,-0.9564836025238037,8.849568367004395,35.94970703125,-5.06591796875,67.87109375
2.8174999,4.894346714019775,-1.0504560470581055,8.756793022155762,39.459228515625,0.18310546875,44.25048828125
2.8224999,4.7405195236206055,-0.9457096457481384,8.814253807067871,37.17041015625,-0.823974609375,32.012939453125
2.8274999000000003,4.445434093475342,-0.5650315880775452,9.23682975769043,37.9638671875,0.30517578125,19.71435546875
2.8324999,4.073135852813721,-0.11432313174009323,9.527127265930176,37.200927734375,5.035400390625,6.683349609375
2.8374999,3.7696704864501953,0.32620999217033386,9.724648475646973,34.698486328125,6.561279296875,-9.6435546875
2.8424999,3.3494882583618164,0.578798234462738,9.088988304138184,9.6435546875,11.138916015625,-49.591064453125
2.8474999000000003,3.226186752319336,0.5596446394920349,8.60236644744873,-4.852294921875,12.51220703125,-69.4580078125
2.8524999,3.206434726715088,0.6649895310401917,8.076839447021484,-18.49365234375,20.8740234375,-84.65576171875
2.8574999,3.242946147918701,0.9487023949623108,7.585429668426514,-40.863037109375,30.45654296875,-102.569580078125
2.8624999,3.3435027599334717,1.4963760375976562,7.1239471435546875,-70.159912109375,35.980224609375,-123.53515625
2.8674999000000003,3.4727895259857178,2.188898801803589,6.665457725524902,-103.82080078125,45.166015625,-142.547607421875
2.8724999,3.626018524169922,2.8365304470062256,6.562506675720215,-136.505126953125,70.770263671875,-154.144287109375
2.8774999,3.686472177505493,2.9496564865112305,7.848193168640137,-142.08984375,147.0947265625,-149.322509765625
2.8824999,2.8191723823547363,1.7806875705718994,10.06043529510498,-68.2373046875,266.90673828125,-135.498046875
2.8874999000000003,1.5556325912475586,0.152031809091568,12.632407188415527,42.48046875,158.416748046875,-118.255615234375
2.8924999000000002,1.5556325912475586,0.152031809091568,12.632407188415527,42.48046875,158.416748046875,-118.255615234375
2.8974999,-0.3974374830722809,-1.7501614093780518,13.822324752807617,40.1611328125,66.131591796875,-64.5751953125
2.9024999,-7.308899402618408,-2.542642116546631,4.490325450897217,28.076171875,-168.487548828125,106.38427734375
2.9074999000000004,-6.323086738586426,-2.385822057723999,5.907692909240723,90.33203125,-155.029296875,107.60498046875
2.9124999000000003,-4.6058454513549805,-1.9608511924743652,8.450933456420898,78.91845703125,-100.40283203125,107.757568359375
2.9174999,-2.648585557937622,-1.2545616626739502,10.930129051208496,10.80322265625,-81.0546875,107.666015625
2.9224999,-0.5871779918670654,-0.629675030708313,12.783241271972656,37.90283203125,-101.13525390625,96.3134765625
2.9274999000000004,1.0696096420288086,-0.2064998894929886,12.533645629882812,59.417724609375,-75.836181640625,100.09765625
2.9324999000000003,2.386420488357544,-0.2621650993824005,11.382633209228516,50.567626953125,-50.933837890625,110.870361328125
2.9374999,4.387973308563232,-1.14742112159729,8.938153266906738,53.253173828125,-9.002685546875,77.239990234375
2.9424999,4.387973308563232,-1.14742112159729,8.938153266906738,53.253173828125,-9.002685546875,77.239990234375
2.9474999,4.361637115478516,-1.0145429372787476,8.977059364318848,57.830810546875,-11.65771484375,69.51904296875
2.9524999000000003,4.19344425201416,-0.6530185341835022,9.36013126373291,52.79541015625,-14.7705078125,48.858642578125
2.9574999,3.9695863723754883,-0.23104046285152435,9.673172950744629,51.57470703125,-12.939453125,23.590087890625
2.9624999,3.728969097137451,0.15562310814857483,9.476250648498535,40.557861328125,-2.899169921875,-16.387939453125
2.9674999,3.7648820877075195,0.436343252658844,9.048286437988281,29.083251953125,0,-37.139892578125
2.9724999000000003,3.8139634132385254,0.5943605899810791,8.486248016357422,10.589599609375,3.265380859375,-58.746337890625
2.9774999,3.848080635070801,1.1025298833847046,7.888894557952881,-10.8642578125,9.033203125,-77.911376953125
2.9824999,3.8367083072662354,1.5191209316253662,7.337629795074463,-33.416748046875,16.845703125,-96.98486328125
2.9874999,3.8283286094665527,1.9865888357162476,6.8372416496276855,-61.82861328125,25.543212890625,-116.546630859375
2.9924999000000003,3.0538041591644287,1.8267759084701538,9.678560256958008,-100.799560546875,322.662353515625,-153.9306640625
2.9974999,3.0538041591644287,1.8267759084701538,9.678560256958008,-100.799560546875,322.662353515625,-153.9306640625
3.0024999,1.7824832201004028,-0.16579847037792206,12.56177806854248,39.97802734375,196.441650390625,-132.32421875
3.0074999,-0.15562310814857483,-2.1978771686553955,13.837288856506348,45.95947265625,56.671142578125,-70.00732421875
3.0124999000000003,-2.313995838165283,-3.8606503009796143,13.235146522521973,-16.021728515625,73.150634765625,-21.6064453125
3.0174999000000002,-4.042609691619873,-3.932476282119751,10.688913345336914,-45.318603515625,79.742431640625,12.237548828125
3.0224999,-5.509057998657227,-3.80378794670105,8.072051048278809,-34.637451171875,9.613037109375,46.783447265625
3.0274999,-6.653486728668213,-3.2836475372314453,5.944802761077881,-30.76171875,-86.48681640625,72.723388671875
3.0324999000000004,-7.401674747467041,-3.229179620742798,4.74231481552124,-16.54052734375,-133.60595703125,92.926025390625
3.0374999000000003,-7.465120792388916,-3.177105665206909,4.13059663772583,27.64892578125,-163.665771484375,103.179931640625
3.0424999,1.0067617893218994,0.1472434103488922,12.477381706237793,62.19482421875,-85.845947265625,91.278076171875
3.0474999,2.2673089504241943,0.4405331015586853,11.637017250061035,58.2275390625,-53.802490234375,103.912353515625
3.0524999000000004,3.224391222000122,0.07781155407428741,10.445303916931152,49.041748046875,-37.872314453125,106.62841796875
3.0574999000000003,3.8319199085235596,-0.4129997789859772,9.588179588317871,54.6875,-29.449462890625,97.259521484375
3.0624999,4.175487995147705,-0.8655039072036743,8.916605949401855,49.102783203125,-12.176513671875,77.423095703125
3.0674999,4.249109268188477,-0.8583213090896606,9.134477615356445,56.976318359375,-6.866455078125,64.0869140625
3.0724999000000004,4.106654644012451,-0.6829460263252258,9.220669746398926,54.718017578125,-9.27734375,53.558349609375
3.0774999000000003,3.9707834720611572,-0.3256114423274994,9.569623947143555,52.91748046875,-8.48388671875,33.87451171875
3.0824999,3.7882256507873535,-0.03890577703714371,9.495404243469238,47.36328125,-3.753662109375,13.24462890625
3.0874999,3.685275077819824,0.32680854201316833,8.983643531799316,27.008056640625,-0.91552734375,-31.6162109375
3.0924999,3.736750364303589,0.6003460884094238,8.561665534973145,9.918212890625,-1.953125,-58.013916015625
3.0974999000000003,3.78104305267334,0.9977835416793823,8.02656078338623,-12.75634765625,0.79345703125,-84.53369140625
3.1024999,3.840898036956787,1.5041571855545044,7.459733963012695,-38.726806640625,7.080078125,-106.50634765625
3.1074999,3.9019501209259033,2.051830768585205,6.868366241455078,-67.56591796875,16.265869140625,-125.823974609375
3.1124999,3.9390604496002197,2.5510218143463135,6.281786918640137,-101.98974609375,28.594970703125,-143.951416015625
3.1174999000000003,3.9600095748901367,3.0316579341888428,5.81491756439209,-141.326904296875,45.166015625,-159.24072265625
3.1224999,3.980958938598633,3.2992098331451416,5.947795391082764,-178.741455078125,70.80078125,-168.731689453125
3.1274999,4.027047157287598,3.027467966079712,7.59560489654541,-183.319091796875,172.05810546875,-168.15185546875
3.1324999,3.0633809566497803,1.5388731956481934,10.172364234924316,-82.916259765625,348.32763671875,-156.73828125
3.1374999000000003,1.755548357963562,-0.5225345492362976,13.033435821533203,49.8046875,172.760009765625,-127.166748046875
3.1424999000000002,-0.304063618183136,-2.6821043491363525,14.158111572265625,43.45703125,56.5185546875,-57.43408203125
3.1474999,-4.260481834411621,-4.124610900878906,10.650007247924805,-41.259765625,79.254150390625,22.369384765625
3.1524999,-5.708375453948975,-3.7816414833068848,8.010400772094727,-34.698486328125,-4.33349609375,45.83740234375
3.1574999000000004,-6.760627269744873,-3.154360771179199,5.852027416229248,-27.313232421875,-89.569091796875,69.915771484375
3.1624999000000003,-7.349001884460449,-3.004124641418457,4.562749862670898,-9.307861328125,-133.85009765625,90.667724609375
3.1674999,-7.280767440795898,-2.9514522552490234,3.977367639541626,32.989501953125,-167.90771484375,101.593017578125
3.1724999,-6.3284735679626465,-2.8431146144866943,5.036203384399414,93.994140625,-171.20361328125,105.40771484375
3.1774999000000004,-4.5621514320373535,-2.3349452018737793,7.439981937408447,103.424072265625,-111.663818359375,105.010986328125
3.1824999000000003,-2.584540843963623,-1.403002142906189,9.859322547912598,14.739990234375,-60.302734375,106.597900390625
3.1874999,-0.5494692921638489,-0.4225766062736511,12.181099891662598,21.697998046875,-94.451904296875,92.010498046875
3.1924999,1.0749965906143188,0.3758896589279175,12.47199535369873,58.2275390625,-87.982177734375,85.601806640625
3.1974999000000004,2.2673089504241943,0.5512649416923523,11.5250883102417,49.6826171875,-54.99267578125,98.876953125
3.2024999000000003,3.1705214977264404,0.21128830313682556,10.395025253295898,46.234130859375,-36.224365234375,103.33251953125
3.2074999,3.8079779148101807,-0.3345896899700165,9.297284126281738,45.71533203125,-23.193359375,90.2099609375
3.2124999,4.145560264587402,-0.811634361743927,8.610147476196289,34.393310546875,-10.1318359375,65.49072265625
3.2174999,4.249109268188477,-0.8684966564178467,8.574234962463379,37.017822265625,-9.246826171875,49.4384765625
3.2224999000000003,4.115034103393555,-0.6015431880950928,8.664017677307129,32.012939453125,-7.62939453125,36.712646484375
3.2274999,3.9612066745758057,-0.0694318488240242,9.020753860473633,26.458740234375,-4.669189453125,21.54541015625
3.2324999,3.7816414833068848,0.4818331003189087,9.210494041442871,23.3154296875,-0.42724609375,6.40869140625
3.2374999,3.642179250717163,0.790086567401886,9.229647636413574,15.869140625,2.899169921875,-7.110595703125
3.2424999000000003,3.5434184074401855,0.8583213090896606,9.050082206726074,6.561279296875,8.23974609375,-23.529052734375
3.2474999,3.443460702896118,0.7667431235313416,8.778340339660645,-6.439208984375,11.749267578125,-42.572021484375
3.2524999,3.308786630630493,0.6278793811798096,8.616133689880371,-17.63916015625,16.693115234375,-57.31201171875
3.2574999,3.2124202251434326,0.5566518902778625,8.434173583984375,-22.552490234375,28.01513671875,-61.920166015625
3.2624999000000003,3.1441853046417236,0.6021417379379272,8.259397506713867,-34.515380859375,38.970947265625,-73.05908203125
3.2674999000000002,3.155557870864868,0.8864531517028809,8.020575523376465,-56.33544921875,44.73876953125,-94.329833984375
3.2724999,3.2567129135131836,1.37906014919281,7.650671482086182,-81.84814453125,53.5888671875,-114.6240234375
3.2774999,3.4362781047821045,1.9650410413742065,7.510610580444336,-107.574462890625,70.61767578125,-127.777099609375
3.2824999000000004,3.621828556060791,2.2822728157043457,8.339004516601562,-114.654541015625,122.650146484375,-126.495361328125
3.2874999000000003,3.0585925579071045,1.653794765472412,10.162787437438965,-73.211669921875,221.893310546875,-109.344482421875
3.2924999,1.9195512533187866,0.21607670187950134,12.60427474975586,9.185791015625,172.760009765625,-106.201171875
3.2974999,0.13527239859104156,-1.1617863178253174,13.933655738830566,32.867431640625,72.20458984375,-78.61328125
3.3024999000000004,-1.8997989892959595,-2.694075345993042,13.657723426818848,-3.143310546875,65.24658203125,-47.149658203125
3.3074999000000003,-3.66851544380188,-3.1938650608062744,11.577162742614746,-33.38623046875,56.5185546875,-15.07568359375
3.3124999,-5.135562419891357,-3.3039982318878174,8.926182746887207,-11.138916015625,8.1787109375,30.6396484375
3.3174999,-6.24587345123291,-3.3255462646484375,6.592434406280518,-3.41796875,-61.737060546875,55.877685546875
3.3224999000000004,-7.003039836883545,-2.96162748336792,5.315726280212402,-4.730224609375,-116.63818359375,70.404052734375
3.3274999000000003,-7.198167324066162,-2.6431987285614014,5.179256916046143,15.68603515625,-144.866943359375,77.117919921875
3.3324999,-4.88836145401001,-1.080383539199829,9.397241592407227,33.38623046875,-100.311279296875,66.986083984375
3.3374999,-2.941276788711548,-0.30705636739730835,11.826159477233887,8.270263671875,-108.673095703125,68.90869140625
3.3424999,-0.7990648150444031,0.23582886159420013,13.387178421020508,30.120849609375,-123.931884765625,73.6083984375
3.3474999000000003,1.0708067417144775,0.3669114112854004,12.891578674316406,42.54150390625,-90.057373046875,76.507568359375
3.3524999,2.5073277950286865,0.05386953800916672,11.310209274291992,28.411865234375,-50.47607421875,71.4111328125
3.3574999,3.6900634765625,-0.456095427274704,9.825204849243164,26.85546875,-34.637451171875,65.36865234375
3.3624999,4.52683687210083,-0.8391677141189575,8.601768493652344,29.327392578125,-26.092529296875,66.95556640625
3.3674999000000003,4.93923807144165,-1.0480618476867676,8.100781440734863,20.44677734375,-13.5498046875,56.488037109375
3.3724999,5.012261390686035,-1.0372878313064575,8.151658058166504,18.24951171875,-1.861572265625,35.736083984375
3.3774999,4.789001941680908,-0.7846996188163757,8.44315242767334,15.19775390625,7.080078125,18.829345703125
3.3824999,4.442441463470459,-0.4531026780605316,8.795100212097168,10.101318359375,13.61083984375,0.54931640625
3.3874999000000003,4.070741653442383,0,9.133280754089355,7.110595703125,21.3623046875,-15.13671875
3.3924999000000002,3.404554843902588,0.811634361743927,9.376891136169434,-0.885009765625,30.3955078125,-29.632568359375
3.3974999,3.0807390213012695,1.0324994325637817,9.226056098937988,-8.575439453125,38.360595703125,-34.698486328125
3.4024999,2.7694928646087646,1.0546458959579468,8.98005199432373,-18.12744140625,45.95947265625,-39.520263671875
3.4074999000000004,2.4809916019439697,0.8708908557891846,8.726266860961914,-26.519775390625,55.084228515625,-44.37255859375
3.4124999000000003,2.2852654457092285,0.6212953329086304,8.62511157989502,-31.890869140625,65.4296875,-49.74365234375
3.4174999,2.2260091304779053,0.35494041442871094,8.715493202209473,-34.576416015625,77.239990234375,-56.060791015625
3.4224999,2.2697031497955322,0.18614917993545532,9.114127159118652,-34.1796875,89.324951171875,-60.943603515625
3.4274999000000004,2.293046712875366,0.10115502029657364,9.818621635437012,-25.20751953125,104.766845703125,-63.201904296875
3.4324999000000003,2.0428526401519775,-0.061052143573760986,10.749366760253906,-12.5732421875,107.208251953125,-63.934326171875
3.4374999,1.403002142906189,-0.37828385829925537,11.719018936157227,3.875732421875,88.653564453125,-66.2841796875
3.4424999,0.45908817648887634,-0.6667851805686951,12.135011672973633,9.552001953125,69.03076171875,-77.178955078125
3.4474999000000004,-0.690727174282074,-0.8589198589324951,11.86147403717041,1.495361328125,54.656982421875,-84.47265625
3.4524999000000003,-3.0322563648223877,-0.884058952331543,9.561842918395996,-16.4794921875,13.031005859375,-43.76220703125
3.4574999,-4.281431198120117,-1.1402385234832764,8.639476776123047,-18.85986328125,-20.111083984375,-0.1220703125
3.4624999,-5.407304763793945,-1.5376760959625244,8.013991355895996,-3.96728515625,-50.96435546875,41.50390625
3.4674999,-6.20038366317749,-1.7627309560775757,7.814674377441406,-9.429931640625,-80.87158203125,47.210693359375
3.4724999000000003,-6.389525890350342,-1.6741455793380737,8.158841133117676,-17.08984375,-113.037109375,44.12841796875
3.4774999,-5.661089897155762,-1.1049240827560425,9.25299072265625,-4.7607421875,-116.51611328125,45.41015625
3.4824999,-4.167706489562988,-0.4100070297718048,10.63504409790039,-1.5869140625,-104.98046875,52.18505859375
3.4874999,-2.3068132400512695,0.0520738884806633,11.923723220825195,5.4931640625,-111.38916015625,64.910888671875
3.4924999000000003,-0.3387795388698578,0.07062894850969315,12.343905448913574,15.44189453125,-108.551025390625,68.756103515625
3.4974999,1.3521254062652588,-0.304063618183136,11.707646369934082,17.39501953125,-86.12060546875,61.6455078125
3.5024999,2.6803088188171387,-0.9648633003234863,10.556633949279785,18.6767578125,-58.380126953125,55.96923828125
3.5074999,3.757699489593506,-1.5945383310317993,9.502586364746094,26.42822265625,-25.69580078125,56.21337890625
3.5124999000000003,4.168305397033691,-0.365115761756897,9.31045150756836,17.822265625,20.56884765625,3.631591796875
3.5174999000000002,3.6571431159973145,0.026336219161748886,9.516951560974121,17.08984375,27.64892578125,-8.941650390625
3.5224999,3.205836057662964,0.27892449498176575,9.5624418258667,13.275146484375,31.158447265625,-18.49365234375
3.5274999,2.8197710514068604,0.4878185987472534,9.487024307250977,7.659912109375,34.454345703125,-25.81787109375
3.5324999000000004,2.428318977355957,0.5913678407669067,9.294889450073242,0.54931640625,38.604736328125,-30.426025390625
3.5374999000000003,2.0649988651275635,0.5692214369773865,9.059659004211426,-7.415771484375,43.365478515625,-34.36279296875
3.5424999,1.7729063034057617,0.49619829654693604,8.860342025756836,-14.739990234375,49.37744140625,-39.642333984375
3.5474999,1.6298527717590332,0.4554968774318695,8.78073501586914,-20.965576171875,55.17578125,-45.257568359375
3.5524999000000004,1.8782511949539185,0.35673606395721436,9.677961349487305,-24.35302734375,78.18603515625,-56.82373046875
3.5574999000000003,1.7836803197860718,0.1430535465478897,10.471639633178711,-11.04736328125,82.366943359375,-57.403564453125
3.5624999,1.3736732006072998,-0.19213469326496124,11.239580154418945,2.105712890625,76.5380859375,-60.699462890625
3.5674999,0.7044938206672668,-0.4991910457611084,11.70046329498291,8.026123046875,64.727783203125,-66.314697265625
3.5724999000000004,-0.1256955862045288,-0.667982280254364,11.502942085266113,2.62451171875,53.253173828125,-75.13427734375
3.5774999000000003,-1.0408791303634644,-0.6961141228675842,10.742782592773438,-6.256103515625,38.26904296875,-72.44873046875
3.5824999,-2.0422539710998535,-0.646434485912323,9.793481826782227,-13.7939453125,18.402099609375,-51.177978515625
3.5874999,-3.1507694721221924,-0.8595184087753296,8.860342025756836,-22.5830078125,-5.126953125,-14.46533203125
3.5924999,-4.394556999206543,-1.1941081285476685,8.514978408813477,-17.791748046875,-40.1611328125,39.00146484375
3.5974999000000003,-5.40910005569458,-1.535880446434021,8.225878715515137,2.349853515625,-69.427490234375,54.50439453125
3.6024999,-5.722740650177002,-1.14742112159729,9.081805229187012,-21.05712890625,-112.060546875,38.818359375
3.6074999,-4.541800498962402,-0.5183446407318115,10.22144603729248,-0.946044921875,-105.712890625,45.623779296875
3.6124999,-2.9041666984558105,0.004788403399288654,11.328763961791992,1.5869140625,-103.08837890625,60.1806640625
3.6174999000000003,-1.0654197931289673,0.06464344263076782,12.023082733154297,11.5966796875,-105.743408203125,72.235107421875
3.6224999,0.6356605291366577,-0.2783259451389313,11.693281173706055,16.998291015625,-86.639404296875,70.220947265625
3.6274999,1.9889830350875854,-0.829590916633606,10.831368446350098,20.751953125,-61.614990234375,65.216064453125
3.6324999,3.094505786895752,-1.4640543460845947,9.793481826782227,24.47509765625,-31.3720703125,65.85693359375
3.6374999000000003,3.932476282119751,-1.8872294425964355,9.191340446472168,28.228759765625,-13.275146484375,65.24658203125
3.6424999000000002,4.4639892578125,-1.9369091987609863,8.829216957092285,29.571533203125,-4.180908203125,60.1806640625
3.6474999,4.63517427444458,-1.690904974937439,8.821435928344727,23.01025390625,3.662109375,46.20361328125
3.6524999,4.537012100219727,-1.1683704853057861,9.035717010498047,22.39990234375,8.9111328125,28.594970703125
3.6574999000000004,4.213196277618408,-0.6350619792938232,9.224260330200195,19.622802734375,15.9912109375,14.404296875
3.6624999000000003,3.824138641357422,-0.1885433793067932,9.510367393493652,19.6533203125,22.552490234375,1.3427734375
3.6674999,1.9057846069335938,0.5506663918495178,8.71609115600586,-32.2265625,57.06787109375,-66.83349609375
3.6724999,2.0614075660705566,0.6266822814941406,9.010578155517578,-37.628173828125,64.5751953125,-74.310302734375
3.6774999000000004,2.1308395862579346,0.5931634902954102,9.603142738342285,-34.149169921875,76.66015625,-77.239990234375
3.6824999000000003,1.9482816457748413,0.30705636739730835,10.531495094299316,-16.6015625,84.808349609375,-75.50048828125
3.6874999,1.4676456451416016,-0.27413609623908997,11.440093994140625,5.859375,79.345703125,-73.66943359375
3.6924999,-0.3489548861980438,-1.0995371341705322,11.790844917297363,4.39453125,56.976318359375,-63.873291015625
3.6974999000000004,-1.5077484846115112,-1.0672154426574707,10.903194427490234,-12.02392578125,39.093017578125,-55.0537109375
3.7024999000000003,-2.7257986068725586,-1.2144588232040405,9.683947563171387,-17.303466796875,12.969970703125,-25.787353515625
3.7074999,-4.1641154289245605,-1.324592113494873,8.685564994812012,-25.93994140625,-24.7802734375,27.557373046875
3.7124999,-5.383362293243408,-1.5670050382614136,8.0331449508667,5.43212890625,-62.92724609375,65.00244140625
3.7174999,-6.315904140472412,-1.5628151893615723,7.806893348693848,-3.753662109375,-86.181640625,51.727294921875
3.7224999000000003,-6.49906063079834,-1.0684125423431396,8.24084186553955,-26.214599609375,-114.532470703125,40.313720703125
3.7274999,-5.652710437774658,-0.3645172119140625,9.5624418258667,-13.092041015625,-117.5537109375,41.68701171875
3.7324999,-4.020462989807129,0.19812019169330597,10.90558910369873,1.03759765625,-105.3466796875,50.72021484375
3.7374999,-2.0458452701568604,0.39863458275794983,12.038644790649414,8.941650390625,-111.2060546875,69.27490234375
3.7424999000000003,-0.048482585698366165,-0.02992752194404602,12.117652893066406,14.22119140625,-100.128173828125,73.089599609375
3.7474999,1.5969325304031372,-0.689530074596405,11.421539306640625,22.918701171875,-73.79150390625,67.93212890625
3.7524999,3.79840087890625,-1.9686323404312134,9.440337181091309,29.60205078125,-14.556884765625,72.08251953125
3.7574999,4.426878929138184,-2.0590133666992188,8.884284019470215,28.3203125,-5.889892578125,61.798095703125
3.7624999000000003,3.6290111541748047,0.2603694200515747,9.537900924682617,15.2587890625,24.627685546875,-10.162353515625
3.7674999000000002,3.248931646347046,0.4800374507904053,9.588777542114258,10.7421875,28.01513671875,-19.927978515625
3.7724999,2.8790276050567627,0.6057330369949341,9.513958930969238,5.43212890625,30.1513671875,-27.40478515625
3.7774999,2.5043349266052246,0.6326677799224854,9.307458877563477,-1.251220703125,35.70556640625,-32.2265625
3.7824999000000004,2.160168409347534,0.579995334148407,9.095572471618652,-7.904052734375,41.595458984375,-36.07177734375
3.7874999000000003,1.8962076902389526,0.5069721937179565,8.899248123168945,-14.892578125,48.15673828125,-40.6494140625
3.7924999,1.7268179655075073,0.3908534348011017,8.911218643188477,-25.054931640625,59.75341796875,-51.605224609375
3.7974999,1.7489643096923828,0.3387795388698578,9.230246543884277,-25.604248046875,65.521240234375,-56.70166015625
3.8024999000000004,1.7345991134643555,0.21428105235099792,9.789292335510254,-20.81298828125,69.000244140625,-61.492919921875
3.8074999000000003,1.5646108388900757,0.05985504388809204,10.516530990600586,-11.993408203125,68.145751953125,-65.24658203125
3.8124999,1.2270283699035645,-0.16879121959209442,11.120468139648438,-1.983642578125,64.117431640625,-70.159912109375
3.8174999,0.6829460263252258,-0.6260837316513062,11.377246856689453,1.77001953125,56.304931640625,-74.70703125
3.8224999000000004,-0.005386953707784414,-0.828393816947937,11.129446983337402,0.274658203125,46.722412109375,-74.15771484375
3.8274999000000003,-0.788889467716217,-1.061229944229126,10.465055465698242,-4.364013671875,37.9638671875,-69.915771484375
3.8324999,-1.745373010635376,-0.9642647504806519,9.777320861816406,-10.650634765625,23.01025390625,-51.3916015625
3.8374999,-2.844910144805908,-1.0755951404571533,9.209895133972168,-10.223388671875,1.129150390625,-15.380859375
3.8424999,-4.090493679046631,-1.01753568649292,8.859743118286133,-20.599365234375,-30.242919921875,30.914306640625
3.8474999000000003,-5.12000036239624,-1.2006921768188477,8.65982723236084,-1.190185546875,-62.43896484375,54.01611328125
3.8524999,-5.619790077209473,-0.6302735805511475,9.090185165405273,-24.383544921875,-104.461669921875,37.53662109375
3.8574999,-4.613028049468994,-0.12928688526153564,10.129268646240234,-8.85009765625,-105.04150390625,42.41943359375
3.8624999,-3.0801405906677246,0.1628057211637497,11.091737747192383,-1.068115234375,-101.86767578125,54.62646484375
3.8674999000000003,-1.3198037147521973,0.12330138683319092,11.812392234802246,10.528564453125,-102.203369140625,70.1904296875
3.8724999,0.3585317134857178,-0.3555389642715454,11.473014831542969,17.39501953125,-82.733154296875,74.371337890625
3.8774999,1.7387889623641968,-0.9487023949623108,10.732008934020996,20.172119140625,-59.478759765625,69.82421875
3.8824999,2.868253707885742,-1.5496470928192139,9.742605209350586,22.369384765625,-34.759521484375,69.549560546875
3.8874999000000003,3.752312660217285,-1.9243396520614624,9.172186851501465,23.345947265625,-15.93017578125,67.047119140625
3.8924999000000002,4.334702014923096,-2.0374655723571777,8.977059364318848,26.397705078125,-5.2490234375,58.16650390625
3.8974999,4.565742492675781,-1.7417817115783691,8.93156909942627,25.32958984375,2.99072265625,46.356201171875
3.9024999,4.492120742797852,-1.2826935052871704,9.16081428527832,19.22607421875,7.171630859375,26.67236328125
3.9074999000000004,4.21080207824707,-0.6991068720817566,9.287707328796387,17.02880859375,12.298583984375,8.758544921875
3.9124999000000003,3.489548921585083,0.16879121959209442,9.540295600891113,16.204833984375,27.862548828125,-11.749267578125
3.9174999,3.1298201084136963,0.3842693865299225,9.513360023498535,13.336181640625,32.28759765625,-19.287109375
3.9224999,2.7718870639801025,0.5111620426177979,9.425971984863281,7.6904296875,34.7900390625,-26.580810546875
3.9274999000000004,2.406771183013916,0.5452794432640076,9.245808601379395,0.885009765625,38.970947265625,-32.684326171875
3.9324999000000003,2.05123233795166,0.48901569843292236,9.038111686706543,-6.622314453125,43.731689453125,-37.628173828125
3.9374999,1.7812861204147339,0.414795458316803,8.879495620727539,-13.7939453125,47.607421875,-44.12841796875
3.9424999,1.6424223184585571,0.3860650360584259,8.819640159606934,-20.416259765625,52.459716796875,-52.001953125
3.9474999000000004,1.643619418144226,0.43754035234451294,8.928576469421387,-26.06201171875,56.243896484375,-59.5703125
3.9524999000000003,1.7357962131500244,0.5117605924606323,9.208099365234375,-29.754638671875,61.8896484375,-66.5283203125
3.9574999,1.7639280557632446,0.4704606235027313,9.754576683044434,-27.496337890625,68.90869140625,-69.549560546875
3.9624999,1.6172832250595093,0.32680854201316833,10.544662475585938,-13.3056640625,72.418212890625,-68.939208984375
3.9674999000000004,1.182137131690979,-0.12030863761901855,11.312004089355469,3.326416015625,68.634033203125,-68.145751953125
3.9724999000000003,-1.194706678390503,-1.0977414846420288,10.52790355682373,-6.8359375,34.881591796875,-57.43408203125
3.9774999,-2.296638011932373,-1.092953085899353,9.607931137084961,-11.5966796875,12.8173828125,-35.125732421875
3.9824999,-3.4542346000671387,-1.1982979774475098,8.811261177062988,-20.294189453125,-13.153076171875,3.2958984375
3.9874999,-4.7375264167785645,-1.3060370683670044,8.418013572692871,-10.284423828125,-52.215576171875,52.490234375
3.9924999000000003,-5.621585369110107,-1.3760673999786377,8.262989044189453,-1.434326171875,-80.169677734375,55.633544921875
3.9974999,-6.015431880950928,-1.0923545360565186,8.507197380065918,-21.270751953125,-101.07421875,41.07666015625
4.0024999,3.448847532272339,-1.702277421951294,9.422380447387695,21.820068359375,-23.956298828125,66.58935546875
4.0074999,4.226963043212891,-2.029085874557495,9.051877975463867,25.390625,-13.12255859375,61.920166015625
4.0124999,4.641758441925049,-1.9829975366592407,8.900444984436035,25.665283203125,-4.119873046875,52.24609375
4.0174999,4.665102005004883,-1.6813281774520874,9.045892715454102,20.904541015625,2.685546875,33.69140625
4.022499900000001,4.415506362915039,-1.1522095203399658,9.20091724395752,19.622802734375,8.6669921875,15.869140625
4.0274999000000005,4.034229755401611,-0.596754789352417,9.318233489990234,16.78466796875,18.98193359375,2.288818359375
4.0324999,3.6750996112823486,-0.10953472554683685,9.524134635925293,18.218994140625,25.726318359375,-7.843017578125
4.0374999,3.3213562965393066,0.2651578485965729,9.542689323425293,17.2119140625,30.181884765625,-15.350341796875
4.0424999,2.985569477081299,0.4734533727169037,9.531316757202148,12.87841796875,32.623291015625,-22.64404296875
4.0474999,2.6132712364196777,0.5512649416923523,9.405621528625488,7.720947265625,36.346435546875,-28.86962890625
4.0524999,2.2475569248199463,0.4920084476470947,9.198522567749023,0.518798828125,40.8935546875,-35.247802734375
4.0574999,1.7962498664855957,0.36092591285705566,8.785523414611816,-16.693115234375,48.431396484375,-53.955078125
4.062499900000001,1.8058266639709473,0.47405192255973816,8.71369743347168,-25.390625,52.398681640625,-64.666748046875
4.0674999000000005,1.9399019479751587,0.6530185341835022,8.777742385864258,-34.11865234375,57.830810546875,-74.64599609375
4.0724999,2.1039047241210938,0.7852981686592102,9.084798812866211,-38.909912109375,68.29833984375,-81.085205078125
4.0774999,2.126051187515259,0.7475894689559937,9.81263542175293,-30.303955078125,83.648681640625,-80.9326171875
4.0824999,1.824381709098816,0.3597288131713867,10.939107894897461,-5.340576171875,90.2099609375,-74.310302734375
4.0874999,1.171961784362793,-0.1711854189634323,11.908759117126465,14.58740234375,77.33154296875,-67.68798828125
4.0924999,0.23403321206569672,-0.6153098344802856,12.234969139099121,6.561279296875,63.140869140625,-66.162109375
4.0974999,0.23403321206569672,-0.6153098344802856,12.234969139099121,6.561279296875,63.140869140625,-66.162109375
4.1024999,-0.9169792532920837,-0.8870517015457153,11.657367706298828,-9.552001953125,50.10986328125,-60.089111328125
4.1074999000000005,-2.1757307052612305,-0.9475052952766418,10.215459823608398,-19.04296875,26.55029296875,-39.6728515625
4.1124999,-3.599083662033081,-1.4113819599151611,8.983044624328613,-29.78515625,-9.70458984375,3.448486328125
4.1174999,-6.745663166046143,-1.9045875072479248,7.581838130950928,-17.242431640625,-112.24365234375,51.422119140625
4.1224999,-6.745663166046143,-1.9045875072479248,7.581838130950928,-17.242431640625,-112.24365234375,51.422119140625
4.1274999,-6.3949127197265625,-1.202487826347351,8.818443298339844,-14.556884765625,-125.457763671875,47.91259765625
4.1324999,-5.043385982513428,-0.41958385705947876,10.43812084197998,5.157470703125,-107.269287109375,50.59814453125
4.1374999,-3.228580951690674,0.18914192914962769,11.98716926574707,8.48388671875,-110.41259765625,68.66455078125
4.1424999,-1.1294646263122559,0.23822307586669922,12.610260009765625,19.500732421875,-110.809326171875,84.136962890625
4.147499900000001,0.7553706169128418,-0.1346738487482071,11.979987144470215,21.087646484375,-81.97021484375,81.4208984375
4.1524999000000005,2.2840683460235596,-0.7613561153411865,10.650606155395508,24.0478515625,-43.9453125,80.169677734375
4.1574999,3.5470097064971924,-1.4012064933776855,9.606135368347168,26.611328125,-23.895263671875,79.559326171875
4.1624999,3.39677357673645,0.3387795388698578,9.655815124511719,13.275146484375,30.76171875,-37.384033203125
4.1674999,3.39677357673645,0.3387795388698578,9.655815124511719,13.275146484375,30.76171875,-37.384033203125
4.1724999,3.0370447635650635,0.5740098357200623,9.414599418640137,6.34765625,36.92626953125,-43.15185546875
4.1774999,2.6623523235321045,0.5889736413955688,9.095572471618652,-0.701904296875,43.731689453125,-49.74365234375
4.1824999,2.3337481021881104,0.5003881454467773,8.796895980834961,-8.941650390625,48.76708984375,-59.26513671875
4.187499900000001,2.1272482872009277,0.48722004890441895,8.547300338745117,-19.439697265625,53.070068359375,-72.81494140625
4.1924999000000005,2.0931308269500732,0.6416460275650024,8.413225173950195,-33.3251953125,56.610107421875,-87.34130859375
4.1974999,2.252345323562622,0.9498994946479797,8.407238960266113,-46.112060546875,66.650390625,-99.151611328125
4.2024999,2.4241292476654053,1.2006921768188477,8.786121368408203,-50.994873046875,88.68408203125,-100.28076171875
4.2074999,2.3038206100463867,1.14742112159729,10.020931243896484,-29.266357421875,114.044189453125,-89.05029296875
4.2124999,0.6937199234962463,0.038307227194309235,12.880207061767578,16.29638671875,78.125,-65.61279296875
4.2174999,-0.6631938815116882,-0.5476736426353455,13.096282958984375,-8.392333984375,63.690185546875,-59.844970703125
4.2224999,-2.0464439392089844,-0.7655459642410278,11.689091682434082,-26.153564453125,47.2412109375,-44.891357421875
4.2274999,-3.536834478378296,-1.5550340414047241,9.886856079101562,-40.1611328125,9.58251953125,-5.4931640625
4.2324999000000005,-4.9135003089904785,-1.8938134908676147,7.996633529663086,-12.26806640625,-47.882080078125,61.8896484375
4.2374999,-6.167463779449463,-2.6844985485076904,6.866570472717285,9.46044921875,-82.3974609375,79.437255859375
4.2424999,-2.3469161987304688,0.37469255924224854,12.922703742980957,13.946533203125,-124.32861328125,81.451416015625
4.2474999,-0.26336219906806946,0.3495534360408783,12.987346649169922,28.13720703125,-106.048583984375,87.310791015625
4.2524999,2.8790276050567627,-0.7553706169128418,10.234613418579102,27.9541015625,-33.14208984375,84.564208984375
4.2574999,4.105457305908203,-1.278503656387329,9.041104316711426,27.801513671875,-23.345947265625,80.62744140625
4.2624999,4.955997467041016,-1.5508441925048828,8.306682586669922,15.5029296875,-13.702392578125,65.97900390625
4.2674999,5.40790319442749,-1.5143325328826904,8.366538047790527,14.70947265625,-5.645751953125,46.0205078125
4.272499900000001,5.391143798828125,-1.3126211166381836,8.546102523803711,18.06640625,5.767822265625,30.792236328125
4.2774999000000005,5.078700542449951,-1.1558008193969727,9.023147583007812,17.578125,14.2822265625,12.786865234375
4.2824999,4.604648590087891,-0.7571662664413452,9.442132949829102,19.34814453125,22.705078125,-6.011962890625
4.2874999,4.108449935913086,-0.4100070297718048,9.666589736938477,18.4326171875,29.876708984375,-21.6064453125
4.2924999,3.6786909103393555,0.0454898327589035,9.727043151855469,15.7470703125,31.67724609375,-33.233642578125
4.2974999,3.265691041946411,0.43993455171585083,9.600749015808105,10.284423828125,34.0576171875,-39.73388671875
4.3024999,2.8868086338043213,0.6416460275650024,9.322422981262207,3.0517578125,40.496826171875,-46.2646484375
4.3074999,2.5234885215759277,0.6362590789794922,8.97765827178955,-6.195068359375,45.379638671875,-55.2978515625
4.312499900000001,2.1134815216064453,0.6835445761680603,8.365341186523438,-30.242919921875,54.840087890625,-81.23779296875
4.3174999000000005,2.166153907775879,0.8637082576751709,8.209118843078613,-45.34912109375,61.859130859375,-93.994140625
4.3224999,-1.2509703636169434,-0.8445546627044678,12.813767433166504,-18.00537109375,61.1572265625,-59.99755859375
4.3274999,-2.6024973392486572,-1.3251906633377075,11.03906536102295,-31.280517578125,38.604736328125,-37.506103515625
4.3324999,-4.129399299621582,-1.7076643705368042,9.102754592895508,-33.599853515625,-11.5966796875,17.76123046875
4.3374999,-5.471349239349365,-2.3050177097320557,7.5219831466674805,3.84521484375,-62.164306640625,69.427490234375
4.3424999,-6.617573261260986,-2.5923218727111816,6.537367820739746,1.28173828125,-88.92822265625,68.4814453125
4.3474999,-5.415085792541504,-0.8224082589149475,9.803058624267578,18.829345703125,-107.879638671875,56.793212890625
4.352499900000001,-3.5936968326568604,0.0035913025494664907,11.926116943359375,9.490966796875,-110.77880859375,69.7021484375
4.3574999000000005,-1.4778209924697876,0.37169981002807617,13.206416130065918,20.050048828125,-123.71826171875,84.228515625
4.3624999,0.45429977774620056,0.28371289372444153,12.784438133239746,29.388427734375,-95.916748046875,88.19580078125
4.3674999,1.964442491531372,-0.21308395266532898,11.306018829345703,25.787353515625,-54.473876953125,87.615966796875
4.3724999,3.290231704711914,-0.8696937561035156,9.881468772888184,29.1748046875,-28.01513671875,86.090087890625
4.3774999,4.350264549255371,-1.303044319152832,8.67359447479248,24.627685546875,-19.378662109375,80.56640625
4.3824999,5.064335346221924,-1.5322890281677246,8.252214431762695,11.16943359375,-13.36669921875,61.46240234375
4.3874999,5.351639270782471,-1.4915876388549805,8.365939140319824,16.693115234375,-5.2490234375,42.29736328125
4.3924999,5.211578369140625,-1.3239935636520386,8.726266860961914,18.49365234375,4.5166015625,26.4892578125
4.397499900000001,3.265092611312866,0.641047477722168,9.405621528625488,5.79833984375,36.0107421875,-39.886474609375
4.4024999000000005,2.8652608394622803,0.7835025191307068,9.127894401550293,-1.434326171875,42.724609375,-45.41015625
4.4074999,2.471414804458618,0.7350199222564697,8.868721961975098,-9.27734375,47.760009765625,-54.229736328125
4.4124999,2.166153907775879,0.6458359360694885,8.614935874938965,-19.8974609375,52.1240234375,-66.46728515625
4.4174999,2.032078742980957,0.6667851805686951,8.482656478881836,-33.02001953125,56.427001953125,-78.125
4.4224999,2.117072820663452,0.8451532125473022,8.437765121459961,-43.792724609375,65.582275390625,-89.447021484375
4.4274999,2.2900538444519043,1.0923545360565186,8.672396659851074,-52.001953125,84.747314453125,-94.05517578125
4.4324999,2.341529369354248,1.0121487379074097,9.55705451965332,-40.8935546875,113.58642578125,-87.677001953125
4.437499900000001,1.9249382019042969,0.5416881442070007,11.12346076965332,-4.119873046875,122.0703125,-76.23291015625
4.4424999000000005,-0.002394201699644327,-0.7721300721168518,13.037026405334473,9.82666015625,67.352294921875,-72.174072265625
4.4474999,-1.3012486696243286,-1.0797849893569946,12.328343391418457,-13.824462890625,58.59375,-63.29345703125
4.4524999,-2.625840663909912,-1.3850456476211548,10.63504409790039,-25.5126953125,34.454345703125,-40.71044921875
4.4574999,-4.0749311447143555,-1.6214730739593506,8.834604263305664,-31.06689453125,-14.312744140625,13.824462890625
4.4624999,-5.480327606201172,-2.1272482872009277,7.583633899688721,3.021240234375,-62.957763671875,66.192626953125
4.4674999,-6.585850238800049,-2.3026235103607178,6.785167694091797,1.922607421875,-86.669921875,64.422607421875
4.4724999,-7.12693977355957,-2.118269920349121,6.852803707122803,-17.7001953125,-119.5068359375,53.924560546875
4.477499900000001,-6.690596580505371,-1.381454348564148,8.216301918029785,0.396728515625,-132.568359375,52.215576171875
4.4824999000000005,0.5835866928100586,0.16819266974925995,12.558785438537598,27.130126953125,-93.231201171875,86.029052734375
4.4874999,4.340089321136475,-1.5179238319396973,8.756793022155762,25.634765625,-18.524169921875,75.98876953125
4.4924999,5.0236334800720215,-1.6801310777664185,8.309675216674805,14.068603515625,-11.8408203125,60.821533203125
4.4974999,5.343259811401367,-1.4969745874404907,8.485649108886719,15.350341796875,-2.5634765625,40.10009765625
4.5024999,5.215768337249756,-1.2042834758758545,8.753201484680176,17.425537109375,7.50732421875,24.23095703125
4.5074999,4.86142635345459,-0.9445125460624695,9.185953140258789,16.4794921875,15.07568359375,7.049560546875
4.5124999,4.384980201721191,-0.5225345492362976,9.515155792236328,17.9443359375,23.773193359375,-9.735107421875
4.5174999,3.9193081855773926,-0.19153612852096558,9.650428771972656,15.472412109375,28.900146484375,-24.71923828125
4.522499900000001,3.50930118560791,0.23104046285152435,9.636661529541016,11.260986328125,30.6396484375,-34.48486328125
4.5274999000000005,3.1022868156433105,0.5267243981361389,9.460089683532715,5.79833984375,35.400390625,-39.00146484375
4.5324999,2.7036523818969727,0.6326677799224854,9.171587944030762,-1.46484375,42.999267578125,-44.097900390625
4.5374999,2.340930700302124,0.578798234462738,8.886079788208008,-9.429931640625,48.370361328125,-52.337646484375
4.5424999,2.229600429534912,0.9427168965339661,8.83699893951416,-45.806884765625,84.04541015625,-87.7685546875
4.5474999,2.2254104614257812,0.882861852645874,9.743802070617676,-33.843994140625,106.38427734375,-84.136962890625
4.5524999,1.813009262084961,0.42676645517349243,11.168951034545898,-1.15966796875,110.748291015625,-76.385498046875
4.5574999,1.0438719987869263,-0.1496376097202301,12.355278015136719,19.47021484375,82.916259765625,-72.32666015625
4.562499900000001,-0.033518824726343155,-0.645237386226654,12.755109786987305,5.55419921875,64.544677734375,-73.30322265625
4.5674999000000005,-1.2755109071731567,-0.9397241473197937,12.024279594421387,-14.34326171875,55.633544921875,-65.97900390625
4.5724999,-2.544437885284424,-1.1982979774475098,10.40699577331543,-22.76611328125,31.219482421875,-41.900634765625
4.5774999,-3.95641827583313,-1.5257049798965454,8.832808494567871,-30.6396484375,-13.275146484375,10.406494140625
4.5824999,-5.34625244140625,-2.0015525817871094,7.689577102661133,2.25830078125,-59.661865234375,63.568115234375
4.5874999,-6.411073684692383,-2.2206220626831055,7.022193431854248,3.23486328125,-83.1298828125,60.699462890625
4.5924999,-5.107430934906006,-0.5985504388809204,10.20767879486084,10.986328125,-107.72705078125,52.581787109375
4.5974999,-3.267486810684204,0.13706804811954498,12.00991439819336,6.9580078125,-112.060546875,67.626953125
4.602499900000001,-1.237802267074585,0.34656068682670593,12.965799331665039,18.341064453125,-118.927001953125,82.09228515625
4.6074999000000005,0.5512649416923523,0.19931729137897491,12.459425926208496,26.641845703125,-92.254638671875,87.066650390625
4.6124999,1.9303251504898071,-0.3878606855869293,11.046248435974121,23.468017578125,-54.74853515625,87.371826171875
4.6174999,3.1417911052703857,-1.0809820890426636,9.738415718078613,27.40478515625,-24.7802734375,84.747314453125
4.6224999,4.160523891448975,-1.5269020795822144,8.756194114685059,26.702880859375,-15.869140625,80.413818359375
4.6274999,4.867412090301514,-1.721431016921997,8.33840560913086,14.22119140625,-11.23046875,63.96484375
4.6324999,5.215169906616211,-1.6095020771026611,8.571840286254883,16.754150390625,-4.08935546875,43.365478515625
4.6374999,5.125387191772461,-1.315613865852356,8.85794734954834,19.500732421875,5.035400390625,26.67236328125
4.6424999,3.8821980953216553,-0.2621650993824005,9.712677955627441,17.059326171875,26.092529296875,-23.956298828125
4.647499900000001,3.4991257190704346,0.16579847037792206,9.654618263244629,13.031005859375,28.80859375,-33.721923828125
4.6524999000000005,3.1304187774658203,0.4985924959182739,9.47146224975586,7.904052734375,33.233642578125,-40.069580078125
4.6574999,2.762908697128296,0.6368576288223267,9.193734169006348,0.54931640625,39.4287109375,-45.806884765625
4.6624999,2.4169466495513916,0.6236895322799683,8.908226013183594,-7.720947265625,45.074462890625,-54.229736328125
4.6674999,2.1553800106048584,0.5895721912384033,8.646659851074219,-17.51708984375,49.9267578125,-64.666748046875
4.6724999,2.0398597717285156,0.6488286852836609,8.448538780212402,-30.029296875,55.633544921875,-76.080322265625
4.6774999,2.1051018238067627,0.8595184087753296,8.390480041503906,-42.3583984375,62.164306640625,-87.0361328125
4.6824999,2.2876596450805664,1.0971429347991943,8.580819129943848,-51.81884765625,78.4912109375,-93.536376953125
4.687499900000001,2.36188006401062,1.0648212432861328,9.355941772460938,-46.173095703125,106.048583984375,-88.592529296875
4.6924999000000005,2.005143880844116,0.6099228858947754,10.876858711242676,-11.1083984375,120.147705078125,-75.714111328125
4.6974999,0.18315643072128296,-0.7451952695846558,12.986748695373535,12.603759765625,69.671630859375,-71.319580078125
4.7024999,-1.1025298833847046,-1.136048674583435,12.4785795211792,-10.345458984375,61.309814453125,-62.92724609375
4.7074999,-2.3918075561523438,-1.1186907291412354,10.682928085327148,-23.01025390625,38.543701171875,-43.212890625
4.7124999,-3.8750154972076416,-1.5406688451766968,9.090784072875977,-30.303955078125,-5.859375,4.058837890625
4.7174999,-5.264849662780762,-1.7884687185287476,7.5968017578125,-2.655029296875,-57.403564453125,62.1337890625
4.7224999,-6.458957672119141,-2.2463598251342773,6.979097843170166,4.180908203125,-83.465576171875,65.887451171875
4.727499900000001,-7.065887928009033,-2.2409727573394775,6.898293495178223,-16.66259765625,-114.92919921875,54.3212890625
4.7324999000000005,-6.775590896606445,-1.5879542827606201,8.130110740661621,-3.0517578125,-133.9111328125,52.276611328125
4.7374999,-5.451597213745117,-0.7811083197593689,9.989208221435547,13.458251953125,-109.68017578125,53.375244140625
4.7424999,-3.6296098232269287,0.02214636653661728,11.909358024597168,6.28662109375,-111.297607421875,66.2841796875
4.7474999,-1.5771803855895996,0.3842693865299225,13.085509300231934,16.78466796875,-122.74169921875,81.6650390625
4.7524999,2.9442696571350098,-0.9917980432510376,9.922170639038086,28.472900390625,-27.34375,90.087890625
4.7574999,4.036623954772949,-1.4544775485992432,8.826224327087402,28.9306640625,-15.9912109375,83.404541015625
4.7624999,4.817133903503418,-1.6819267272949219,8.276755332946777,14.404296875,-11.260986328125,67.230224609375
4.7674999,5.260659694671631,-1.5807716846466064,8.468291282653809,16.7236328125,-6.378173828125,47.088623046875
4.772499900000001,5.239710330963135,-1.3401544094085693,8.730456352233887,20.294189453125,2.960205078125,30.94482421875
4.7774999000000005,4.928464412689209,-1.148618221282959,9.265560150146484,19.134521484375,10.80322265625,10.1318359375
4.7824999,4.467580318450928,-0.7595604658126831,9.583989143371582,19.500732421875,18.310546875,-9.765625
4.7874999,4.013879299163818,-0.3758896589279175,9.730634689331055,17.2119140625,24.0478515625,-25.604248046875
4.7924999,3.626616954803467,0.10235211998224258,9.687539100646973,13.580322265625,25.787353515625,-36.56005859375
4.7974999,3.2579100131988525,0.48303020000457764,9.503783226013184,8.056640625,29.693603515625,-42.1142578125
4.8024999,2.9053637981414795,0.679354727268219,9.21947193145752,2.0751953125,37.90283203125,-47.8515625
4.8074999,2.3068132400512695,0.6955155730247498,8.616133689880371,-17.669677734375,48.095703125,-67.047119140625
4.812499900000001,2.185307502746582,0.8164227604866028,8.389881134033203,-30.82275390625,53.89404296875,-79.193115234375
4.8174999000000005,2.227206230163574,0.9840168952941895,8.21151351928711,-45.41015625,62.5,-90.850830078125
4.8224999,2.3971943855285645,1.2120646238327026,8.316259384155273,-57.31201171875,77.880859375,-97.747802734375
4.8274999,2.495356798171997,1.1683704853057861,9.027337074279785,-52.91748046875,108.367919921875,-94.207763671875
4.8324999,2.1763293743133545,0.6733692288398743,10.656591415405273,-17.120361328125,131.500244140625,-81.48193359375
4.8374999,1.4724340438842773,-0.053270988166332245,12.325350761413574,23.773193359375,102.081298828125,-74.554443359375
4.8424999,0.36152446269989014,-0.750582218170166,13.284826278686523,16.54052734375,74.127197265625,-70.61767578125
4.8474999,-0.9654618501663208,-1.1450269222259521,12.947842597961426,-11.65771484375,65.85693359375,-62.347412109375
4.852499900000001,-2.3265655040740967,-1.1982979774475098,11.103110313415527,-26.763916015625,44.0673828125,-44.464111328125
4.8574999000000005,-3.8588545322418213,-1.5969325304031372,9.31045150756836,-32.3486328125,-0.946044921875,4.241943359375
4.8624999,-5.2911858558654785,-1.8339585065841675,7.535749912261963,-2.197265625,-54.534912109375,64.3310546875
4.8674999,-7.221510887145996,-2.315192937850952,6.4595561027526855,-15.07568359375,-116.88232421875,57.952880859375
4.8724999,-7.051522731781006,-1.7699135541915894,7.594407558441162,-3.570556640625,-138.73291015625,56.610107421875
4.8774999,-5.811326026916504,-1.0091559886932373,9.61212158203125,19.1650390625,-113.34228515625,55.450439453125
4.8824999,-4.018667697906494,-0.18614917993545532,11.725004196166992,10.986328125,-109.2529296875,65.85693359375
4.8874999,-1.941697597503662,0.2932897210121155,13.19743824005127,16.7236328125,-126.434326171875,82.09228515625
4.8924999,0.013766659423708916,0.31124621629714966,13.062764167785645,31.097412109375,-103.973388671875,91.033935546875
4.897499900000001,1.5598224401474,-0.08439560979604721,11.678317070007324,30.181884765625,-63.4765625,96.37451171875
4.9024999000000005,2.873640537261963,-0.7332242727279663,10.139444351196289,30.09033203125,-31.67724609375,94.573974609375
4.9074999,4.039018154144287,-1.237802267074585,8.833407402038574,26.3671875,-23.01025390625,85.906982421875
4.9124999,4.887164115905762,-1.5783774852752686,8.248024940490723,11.749267578125,-18.096923828125,66.7724609375
4.9174999,5.342062473297119,-1.6298527717590332,8.337807655334473,20.20263671875,-8.4228515625,50.750732421875
4.9224999,5.324704647064209,-1.511339783668518,8.698134422302246,22.857666015625,1.678466796875,35.5224609375
4.9274999,4.551377296447754,-0.9666589498519897,9.584588050842285,20.6298828125,16.9677734375,-10.955810546875
4.9324999,4.140173435211182,-0.5530605912208557,9.745597839355469,18.6767578125,23.13232421875,-27.2216796875
4.937499900000001,3.7942111492156982,0.03950432687997818,9.692327499389648,16.571044921875,25.0244140625,-37.506103515625
4.9424999000000005,3.4727895259857178,0.5440823435783386,9.522936820983887,11.474609375,28.961181640625,-44.5556640625
4.9474999,3.1441853046417236,0.8768763542175293,9.254786491394043,4.2724609375,35.46142578125,-52.825927734375
4.9524999,2.784456491470337,0.9654618501663208,8.933364868164062,-6.195068359375,39.947509765625,-61.70654296875
4.9574999,2.477998733520508,0.9193734526634216,8.588001251220703,-18.24951171875,44.61669921875,-72.845458984375
4.9624999,2.3026235103607178,0.8678981065750122,8.270171165466309,-31.524658203125,51.727294921875,-87.615966796875
4.9674999,2.3301568031311035,0.9487023949623108,7.968502044677734,-49.835205078125,57.891845703125,-102.935791015625
4.9724999,2.5312697887420654,1.146224021911621,7.930793285369873,-67.413330078125,73.1201171875,-113.09814453125
4.977499900000001,2.7694928646087646,1.315613865852356,8.529942512512207,-67.7490234375,110.321044921875,-110.04638671875
4.9824999000000005,2.558803081512451,1.004966139793396,10.18493366241455,-32.65380859375,156.402587890625,-92.132568359375
4.9874999,-1.0360907316207886,-1.1665748357772827,13.573328018188477,-12.237548828125,74.493408203125,-52.825927734375
4.9924999,-2.61087703704834,-1.6765397787094116,11.934496879577637,-34.515380859375,55.7861328125,-33.966064453125
4.9974999,-4.2544965744018555,-1.9075802564620972,9.674968719482422,-34.515380859375,4.180908203125,17.852783203125
5.0024999,-5.647922039031982,-2.384026288986206,7.636306285858154,1.800537109375,-51.300048828125,68.115234375
5.0074999,-6.856395244598389,-2.6611552238464355,6.16686487197876,-7.110595703125,-89.4775390625,73.974609375
5.0124999,-7.479485988616943,-2.3558945655822754,5.567716121673584,-16.357421875,-133.880615234375,71.868896484375
5.0174999,-7.346009254455566,-1.9261353015899658,6.537966251373291,16.693115234375,-150.146484375,70.068359375
5.022499900000001,-6.124966621398926,-1.0767922401428223,8.767566680908203,36.163330078125,-116.790771484375,65.216064453125
5.0274999000000005,-4.352060317993164,-0.3705027103424072,11.262324333190918,14.46533203125,-107.84912109375,73.516845703125
5.0324999,-2.1996726989746094,0.11552023142576218,13.17349624633789,16.54052734375,-129.69970703125,87.58544921875
5.0374999,-0.14425064623355865,0.2406172752380371,13.436260223388672,38.51318359375,-111.328125,94.23828125
5.0424999,2.866457939147949,-0.4572925269603729,10.320804595947266,29.541015625,-35.980224609375,94.024658203125
5.0474999,4.022857189178467,-1.0594342947006226,8.912415504455566,22.03369140625,-23.895263671875,77.33154296875
5.0524999,4.8895583152771,-1.357512354850769,8.177395820617676,23.101806640625,-22.03369140625,72.784423828125
5.0574999,5.30195951461792,-1.4766238927841187,8.144475936889648,20.3857421875,-16.754150390625,60.302734375
5.062499900000001,5.329493045806885,-1.5771803855895996,8.634089469909668,20.01953125,-7.049560546875,32.65380859375
5.0674999000000005,5.039794445037842,-1.3024457693099976,9.10574722290039,18.98193359375,-0.54931640625,8.30078125
5.0724999,4.652532577514648,-1.035492181777954,9.441534042358398,17.39501953125,10.223388671875,-13.397216796875
5.0774999,4.253299236297607,-0.48602294921875,9.569623947143555,14.373779296875,17.974853515625,-28.564453125
5.0824999,3.9402575492858887,0.13168109953403473,9.603142738342285,11.8408203125,19.71435546875,-37.59765625
5.0874999,3.6343982219696045,0.7038952708244324,9.446921348571777,8.6669921875,25.054931640625,-42.205810546875
5.0924999,3.3476924896240234,1.0971429347991943,9.186552047729492,1.28173828125,34.48486328125,-46.661376953125
5.0974999,3.0561983585357666,1.2318167686462402,8.877100944519043,-8.453369140625,42.938232421875,-54.473876953125
5.102499900000001,2.801215887069702,1.157596468925476,8.537723541259766,-20.81298828125,48.88916015625,-65.399169921875
5.1074999000000005,2.6198551654815674,1.0360907316207886,8.180388450622559,-35.125732421875,56.7626953125,-78.857421875
5.1124999,2.585139274597168,0.9846154451370239,7.930793285369873,-51.055908203125,66.0400390625,-92.6513671875
5.1174999,2.697068214416504,1.0678139925003052,7.943362712860107,-65.826416015625,81.756591796875,-103.02734375
5.1224999,0.7817068696022034,-0.5153518915176392,13.601459503173828,25.87890625,82.427978515625,-71.380615234375
5.1274999,-0.7852981686592102,-1.1228805780410767,13.808558464050293,-8.97216796875,75.927734375,-63.629150390625
5.1324999,-2.3959972858428955,-1.2976573705673218,12.2188081741333,-28.50341796875,60.85205078125,-45.41015625
5.1374999,-4.024054527282715,-1.6855180263519287,10.073603630065918,-31.982421875,15.594482421875,-4.39453125
5.1424999,-5.491700172424316,-2.032078742980957,7.906252384185791,-7.4462890625,-40.22216796875,48.492431640625
5.147499900000001,-7.430405139923096,-2.385822057723999,6.405686855316162,11.749267578125,-148.468017578125,66.680908203125
5.1524999000000005,-6.399701118469238,-1.5825673341751099,8.432378768920898,31.43310546875,-125.30517578125,62.652587890625
5.1574999,-4.655525207519531,-0.6548141837120056,10.90558910369873,16.7236328125,-106.781005859375,66.253662109375
5.1624999,-2.5504233837127686,0.07661445438861847,13.011887550354004,11.993408203125,-127.9296875,79.7119140625
5.1674999,-0.4231751561164856,0.3770867586135864,13.635577201843262,34.24072265625,-120.361328125,90.6982421875
