# Time (seconds),Accel_X,Accel_Y,Accel_Z,Gyro_X,Gyro_Y,Gyro_Z
0.0024999,-2.4378957748413086,-4.668094635009766,10.176554679870605,127.685546875,-95.458984375,91.827392578125
0.0074999,-2.4378957748413086,-4.668094635009766,10.176554679870605,127.685546875,-95.458984375,91.827392578125
0.012499900000000001,-0.4818331003189087,-4.483142852783203,11.917139053344727,98.785400390625,-47.760009765625,105.865478515625
0.0174999,1.002571940422058,-3.4596214294433594,12.846687316894531,36.1328125,1.220703125,113.494873046875
0.0224999,2.214038133621216,-1.7232266664505005,13.031041145324707,45.013427734375,-2.197265625,107.5439453125
0.0274999,4.671686172485352,2.3810336589813232,9.634865760803223,16.4794921875,11.3525390625,48.553466796875
0.0324999,5.059546947479248,2.585139274597168,8.561665534973145,4.302978515625,10.31494140625,12.054443359375
0.0374999,4.941033840179443,2.4839842319488525,7.924209117889404,-18.98193359375,7.415771484375,-23.223876953125
0.0424999,4.489726543426514,2.2661118507385254,7.472901821136475,-36.529541015625,8.819580078125,-51.20849609375
0.0474999,3.9468414783477783,1.9692308902740479,7.384915351867676,-56.488037109375,14.16015625,-72.784423828125
0.0524999,3.5236663818359375,1.5963339805603027,7.69735860824585,-69.7021484375,30.3955078125,-89.630126953125
0.0574999,3.1884782314300537,1.1857284307479858,8.576628684997559,-65.582275390625,76.59912109375,-95.428466796875
0.0624999,2.782062292098999,0.6290764808654785,9.921571731567383,-36.041259765625,144.378662109375,-91.61376953125
0.0674999,2.10210919380188,0.02274491637945175,11.724405288696289,3.387451171875,139.251708984375,-90.33203125
0.0724999,0.8200140595436096,-0.5434837937355042,12.261903762817383,11.810302734375,72.296142578125,-98.57177734375
0.0774999,-0.7691373229026794,-1.2755109071731567,11.741165161132812,-23.62060546875,3.265380859375,-113.983154296875
0.0824999,-5.301361083984375,-2.5510218143463135,8.607154846191406,1.15966796875,-68.389892578125,24.383544921875
0.0874999,-4.150348663330078,-1.7082629203796387,9.041104316711426,-1.953125,-57.31201171875,36.956787109375
0.0924999,-1.8567034006118774,-1.0360907316207886,9.780313491821289,-16.41845703125,-45.074462890625,38.87939453125
0.0974999,0.5901707410812378,-0.4854243993759155,10.76612663269043,4.547119140625,-16.11328125,41.015625
0.1024999,2.5462334156036377,-0.21787235140800476,10.796652793884277,9.063720703125,-29.96826171875,41.9921875
0.1074999,3.28963303565979,-0.3992331326007843,11.030685424804688,5.9814453125,-28.38134765625,41.229248046875
0.1124999,2.895787000656128,-0.41718965768814087,10.648810386657715,14.22119140625,-8.148193359375,38.75732421875
0.1174999,2.1146786212921143,-0.272938996553421,10.086173057556152,7.232666015625,7.598876953125,21.78955078125
0.1224999,1.3982137441635132,-0.08918401598930359,9.722254753112793,-0.274658203125,2.960205078125,1.129150390625
0.1274999,1.0732009410858154,-0.07302315533161163,9.57860279083252,-1.40380859375,2.99072265625,-10.162353515625
0.1324999,0.9457096457481384,-0.3734954595565796,9.5408935546875,2.288818359375,13.702392578125,-5.706787109375
0.1374999,0.8870517015457153,-0.47465047240257263,9.558850288391113,1.373291015625,15.93017578125,-12.542724609375
0.1424999,0.8583213090896606,-0.4339490532875061,9.625887870788574,1.5869140625,18.646240234375,-17.08984375
0.1474999,0.9259575009346008,-0.30885201692581177,9.733627319335938,-0.3662109375,19.683837890625,-18.707275390625
0.1524999,0.9798270463943481,-0.1280897855758667,9.813234329223633,-3.448486328125,28.01513671875,-23.49853515625
0.1574999,0.9840168952941895,0.04369417950510979,9.959878921508789,-4.058837890625,35.919189453125,-30.303955078125
0.1624999,0.7182605266571045,0.2621650993824005,10.101137161254883,-4.94384765625,33.660888671875,-36.529541015625
0.1674999,0.15801730751991272,0.4315548539161682,10.146626472473145,-10.498046875,29.23583984375,-42.327880859375
0.1724999,-0.6153098344802856,0.6033388376235962,10.259154319763184,-17.791748046875,21.05712890625,-48.33984375
0.17749990000000002,-1.3862427473068237,0.536899745464325,10.22383975982666,-24.4140625,7.62939453125,-43.02978515625
0.1824999,-1.7818846702575684,0.32022446393966675,10.19032096862793,-28.62548828125,-10.528564453125,-22.125244140625
0.1874999,-1.591545581817627,-0.09397241473197937,10.131064414978027,-34.515380859375,-28.900146484375,6.40869140625
0.1924999,-0.7924807667732239,-0.6482301354408264,10.116100311279297,-35.15625,-33.905029296875,25.69580078125
0.1974999,0.3561375141143799,-1.1749545335769653,9.932345390319824,-29.693603515625,-25.5126953125,37.841796875
0.2024999,1.4191631078720093,-1.7088614702224731,9.583391189575195,-15.869140625,-22.735595703125,52.886962890625
0.20749990000000001,2.094327926635742,-2.1499931812286377,8.964489936828613,8.880615234375,-26.7333984375,72.265625
0.2124999,2.2661118507385254,-2.4151508808135986,8.297704696655273,38.14697265625,-30.21240234375,87.493896484375
0.2174999,1.9458874464035034,-2.427720546722412,8.103774070739746,58.65478515625,-24.658203125,90.972900390625
0.2224999,1.2767080068588257,-2.033275842666626,8.471882820129395,51.666259765625,-6.7138671875,75.653076171875
0.2274999,0.5015852451324463,-1.2258312702178955,9.3427734375,28.62548828125,8.7890625,40.771484375
0.2324999,0.02274491637945175,-0.23283611238002777,10.2747163772583,7.537841796875,4.425048828125,-2.3193359375
0.2374999,0.04249707981944084,0.5734112858772278,10.746973037719727,-3.204345703125,5.828857421875,-30.181884765625
0.2424999,0.535702645778656,0.7864952683448792,10.79844856262207,-1.28173828125,22.76611328125,-26.7333984375
0.2474999,1.2168530225753784,0.4596867263317108,10.483611106872559,5.79833984375,30.792236328125,-20.5078125
0.2524999,1.6932991743087769,-0.45848962664604187,9.834781646728516,10.498046875,49.86572265625,-57.830810546875
0.2574999,1.3084312677383423,-0.4141969084739685,9.818621635437012,5.859375,41.534423828125,-63.78173828125
0.2624999,0.7068880796432495,-0.09457096457481384,9.713275909423828,1.0986328125,24.4140625,-70.61767578125
0.2674999,-0.17896658182144165,1.1294646263122559,9.843161582946777,-12.26806640625,5.828857421875,-68.817138671875
0.2724999,-1.2767080068588257,0.8804676532745361,9.837176322937012,-49.6826171875,-16.937255859375,-42.144775390625
0.2774999,-2.0661959648132324,0.9187749028205872,9.445125579833984,-35.858154296875,-32.989501953125,-16.05224609375
0.2824999,-2.587533473968506,-0.19393034279346466,9.660603523254395,-15.0146484375,-46.81396484375,35.400390625
0.28749990000000003,-2.346317768096924,-1.3874398469924927,9.294290542602539,-11.71875,-50.689697265625,50.1708984375
0.2924999,-1.5969325304031372,-2.211045265197754,9.270947456359863,1.708984375,-45.166015625,40.985107421875
0.2974999,-0.6733692288398743,-2.294243812561035,9.318831443786621,22.03369140625,-48.370361328125,52.154541015625
0.3024999,0.1586158573627472,-1.942894697189331,9.564835548400879,25.543212890625,-56.976318359375,61.82861328125
0.3074999,0.6715735793113708,-1.2228385210037231,9.955090522766113,15.289306640625,-61.6455078125,62.103271484375
0.3124999,1.0732009410858154,0.14245499670505524,10.603321075439453,5.218505859375,-65.97900390625,30.45654296875
0.3174999,1.2952631711959839,0.22026655077934265,10.390835762023926,0,-53.619384765625,2.3193359375
0.3224999,2.558803081512451,-0.7613561153411865,9.479841232299805,4.974365234375,-1.03759765625,-27.862548828125
0.3274999,2.558803081512451,-0.7613561153411865,9.479841232299805,4.974365234375,-1.03759765625,-27.862548828125
0.3324999,3.313575267791748,-1.3611036539077759,8.927379608154297,5.889892578125,20.93505859375,-34.3017578125
0.3374999,3.95641827583313,-1.2419921159744263,8.583212852478027,0.244140625,52.30712890625,-46.32568359375
0.3424999,4.150348663330078,-0.899621307849884,8.537723541259766,-2.166748046875,85.02197265625,-42.8466796875
0.34749990000000003,3.753509759902954,-0.12629413604736328,8.819640159606934,-2.86865234375,89.691162109375,-28.472900390625
0.35249990000000003,2.543240785598755,0.6572083830833435,9.686341285705566,-12.939453125,78.369140625,-16.021728515625
0.3574999,0.3705027103424072,0.761954665184021,10.252570152282715,-14.404296875,37.139892578125,-14.007568359375
0.3624999,-1.8614917993545532,0.7326257228851318,10.914566993713379,-13.48876953125,1.77001953125,-0.640869140625
0.3674999,-3.510498285293579,0.21308395266532898,10.845733642578125,-7.75146484375,-23.13232421875,19.287109375
0.3724999,-3.093907117843628,-0.751779317855835,10.1568021774292,-2.44140625,-29.876708984375,34.027099609375
0.3774999,-1.7016788721084595,-1.0127472877502441,9.909002304077148,9.429931640625,-39.031982421875,54.534912109375
0.3824999,-0.3908534348011017,-1.2485761642456055,9.697713851928711,12.725830078125,-51.422119140625,59.112548828125
0.3874999,0.5590460896492004,-1.2551602125167847,9.743802070617676,14.984130859375,-56.671142578125,54.412841796875
0.3924999,1.2078747749328613,-1.092953085899353,9.821015357971191,13.24462890625,-53.52783203125,36.712646484375
0.3974999,1.7399860620498657,-0.7583633661270142,9.84615421295166,4.669189453125,-43.5791015625,4.0283203125
0.4024999,2.2822728157043457,-0.7260416746139526,9.633668899536133,-1.617431640625,-22.430419921875,-24.96337890625
0.4074999,2.7904419898986816,-1.013944387435913,9.403226852416992,5.4931640625,5.401611328125,-22.369384765625
0.41249990000000003,3.359663486480713,-1.128267526626587,9.026140213012695,11.474609375,26.214599609375,-22.918701171875
0.41749990000000003,3.9480385780334473,-0.9163807034492493,8.756194114685059,-0.1220703125,53.40576171875,-50.6591796875
0.4224999,4.215590476989746,-0.5135562419891357,8.829216957092285,-4.852294921875,86.212158203125,-45.7763671875
0.4274999,3.618237257003784,-0.17058686912059784,8.989029884338379,-0.67138671875,90.2099609375,-15.533447265625
0.4324999,-0.2406172752380371,0.060453593730926514,10.227431297302246,-11.505126953125,30.548095703125,-15.411376953125
0.4374999,-2.431311845779419,0.36332011222839355,10.599130630493164,-13.671875,-7.080078125,-8.7890625
0.4424999,-3.9408559799194336,-0.08259996026754379,10.777499198913574,-4.33349609375,-16.754150390625,21.148681640625
0.4474999,-4.034828186035156,-0.5997475385665894,10.533289909362793,-7.568359375,-27.069091796875,26.580810546875
0.4524999,-3.250128746032715,-0.727837324142456,10.252570152282715,-4.21142578125,-27.77099609375,26.153564453125
0.4574999,-2.029684543609619,-0.7715315222740173,10.090363502502441,4.57763671875,-33.905029296875,45.7763671875
0.4624999,-0.8732850551605225,-0.8678981065750122,9.980828285217285,5.92041015625,-46.44775390625,49.072265625
0.4674999,0.004788403399288654,-0.6775590777397156,10.001178741455078,8.11767578125,-56.7626953125,42.572021484375
0.47249990000000003,0.6925228238105774,-0.4884171485900879,10.079588890075684,6.256103515625,-58.59375,22.369384765625
0.47749990000000003,1.4419080018997192,-0.43335050344467163,9.803657531738281,-2.532958984375,-58.197021484375,-6.988525390625
0.4824999,2.144606113433838,-1.227626919746399,9.485827445983887,1.373291015625,-34.454345703125,-21.881103515625
0.4874999,3.662529945373535,-2.697068214416504,8.218695640563965,10.589599609375,22.15576171875,-32.77587890625
0.4924999,4.323928356170654,-1.875258445739746,8.048707962036133,10.25390625,58.380126953125,-46.08154296875
0.4974999,4.479551315307617,-0.0802057534456253,8.18996524810791,1.251220703125,77.69775390625,3.5400390625
0.5024999,3.4105403423309326,1.3844470977783203,8.723872184753418,-3.936767578125,67.230224609375,18.524169921875
0.5074999,1.5185223817825317,2.1380221843719482,9.697713851928711,-6.378173828125,38.299560546875,-20.843505859375
0.5124999,-0.702099621295929,1.8417396545410156,10.407594680786133,0.274658203125,8.392333984375,-16.510009765625
0.5174999,-2.0889410972595215,0.8954314589500427,10.735600471496582,-2.3193359375,-3.0517578125,0.396728515625
0.5224999,-2.1057004928588867,0.27892449498176575,10.664372444152832,-8.941650390625,1.708984375,-3.021240234375
0.5274999,-1.3533225059509277,-0.14903905987739563,10.396821022033691,-7.38525390625,11.8408203125,-3.0517578125
0.5324999,-0.5889736413955688,-0.5764040350914001,10.075998306274414,-3.11279296875,9.368896484375,8.209228515625
0.5374999,-0.16879121959209442,-0.9684545993804932,9.793481826782227,-2.593994140625,-2.62451171875,8.9111328125
0.5424999,-0.09576806426048279,-1.0863690376281738,9.657610893249512,-1.46484375,-10.31494140625,6.256103515625
0.5474999,0.7541735172271729,-0.21009120345115662,10.016142845153809,-1.15966796875,-32.470703125,-0.701904296875
0.5524999,1.37906014919281,-0.32202014327049255,9.790489196777344,-0.091552734375,-20.172119140625,-8.544921875
0.5574999,2.0440497398376465,-0.4602852761745453,9.550470352172852,2.410888671875,-3.173828125,-7.99560546875
0.5624999,0.15741875767707825,-0.23942017555236816,9.99459457397461,-1.434326171875,26.641845703125,-5.157470703125
0.5674999000000001,-0.7433996200561523,-0.3124433159828186,10.09934139251709,-7.4462890625,14.70947265625,-4.82177734375
0.5724999000000001,-1.2850877046585083,0.010773907415568829,10.308235168457031,-3.173828125,3.0517578125,3.35693359375
0.5774999000000001,-1.611896276473999,-0.23702596127986908,10.230423927307129,-2.288818359375,-10.68115234375,16.693115234375
0.5824999,-1.4969745874404907,-0.3447650372982025,10.13525390625,-4.21142578125,-14.34326171875,10.43701171875
0.5874999,-1.1665748357772827,-0.395043283700943,10.070012092590332,0.244140625,-13.275146484375,22.03369140625
0.5924999,-0.6817489266395569,-0.5494692921638489,9.97065258026123,0.946044921875,-19.22607421875,24.90234375
0.5974999,-0.3477577865123749,-0.5793967843055725,9.956886291503906,2.410888671875,-28.106689453125,21.514892578125
0.6024999,-0.014365210197865963,-0.5877765417098999,9.946710586547852,3.631591796875,-34.5458984375,14.70947265625
0.6074999,0.4279635548591614,-0.5333084464073181,9.942521095275879,1.5869140625,-36.376953125,2.38037109375
0.6124999,0.9786299467086792,-0.5141547918319702,9.828198432922363,-0.335693359375,-32.623291015625,-8.9111328125
0.6174999,1.9524714946746826,-1.070208191871643,9.540295600891113,8.6669921875,-10.284423828125,-4.241943359375
0.6224999,2.5755624771118164,-1.0947487354278564,9.241020202636719,3.875732421875,0.6103515625,-29.266357421875
0.6274999,3.2531216144561768,-0.801459014415741,9.171587944030762,-1.5869140625,26.580810546875,-30.45654296875
0.6324999,3.62302565574646,-0.2992752194404602,9.079411506652832,-1.0986328125,54.473876953125,-6.9580078125
0.6374999,3.444059133529663,0.0802057534456253,9.160215377807617,-1.556396484375,62.255859375,-10.772705078125
0.6424999,0.7811083197593689,0.5183446407318115,9.838373184204102,1.617431640625,32.470703125,-7.87353515625
0.6474999,-1.0223240852355957,-0.0520738884806633,10.281899452209473,-7.537841796875,17.27294921875,4.608154296875
0.6524999,-2.053027868270874,0.28550854325294495,10.468647003173828,-11.260986328125,-2.593994140625,1.220703125
0.6574999,-2.689286947250366,0.08319851011037827,10.531495094299316,0.30517578125,-12.75634765625,23.529052734375
0.6624999,-2.492962598800659,-0.50876784324646,10.377667427062988,-2.9296875,-22.613525390625,25.543212890625
0.6674999,-1.9692308902740479,-0.5692214369773865,10.120888710021973,-0.06103515625,-26.092529296875,26.55029296875
0.6724999,0.7727286219596863,-0.7218518257141113,9.898228645324707,-2.38037109375,-50.018310546875,-13.580322265625
0.6774999,1.4335283041000366,-1.1150994300842285,9.66958236694336,4.180908203125,-37.65869140625,-10.650634765625
0.6824999,2.3235726356506348,-1.3210008144378662,9.451709747314453,11.3525390625,-15.380859375,-12.02392578125
0.6874999,3.4566287994384766,-1.3335703611373901,9.00279712677002,1.3427734375,2.227783203125,-46.0205078125
0.6924999000000001,4.6058454513549805,-0.702099621295929,8.80048656463623,-3.47900390625,48.797607421875,-36.1328125
0.6974999000000001,5.084087371826172,-0.07960720360279083,8.661623001098633,-1.89208984375,83.92333984375,-4.730224609375
0.7024999000000001,4.505887508392334,0.23403321206569672,8.948328971862793,-2.471923828125,87.677001953125,-11.41357421875
0.7074999,2.3768436908721924,-0.05267243832349777,9.346364974975586,-0.030517578125,57.769775390625,-20.3857421875
0.7124999,-0.1628057211637497,0.10953472554683685,10.34594440460205,-3.082275390625,25.81787109375,-2.960205078125
0.7174999,-2.540247917175293,-0.44592007994651794,10.487201690673828,-15.44189453125,-4.791259765625,4.638671875
0.7224999,-2.828150749206543,-0.5536591410636902,10.251971244812012,-0.54931640625,-25.87890625,33.111572265625
0.7274999,-1.8387469053268433,-0.7056909799575806,10.034099578857422,5.126953125,-35.46142578125,40.1611328125
0.7324999,-0.8206126093864441,-0.6488286852836609,9.982624053955078,6.988525390625,-46.81396484375,40.1611328125
0.7374999,0.17896658182144165,-0.42616790533065796,10.020332336425781,4.5166015625,-53.314208984375,26.458740234375
0.7424999,1.0031704902648926,-0.7547720670700073,9.87967300415039,-0.79345703125,-54.534912109375,-1.77001953125
0.7474999,1.8608932495117188,-1.1581950187683105,9.733028411865234,6.072998046875,-36.712646484375,-4.0283203125
0.7524999,2.6384103298187256,-1.4514847993850708,9.343372344970703,11.993408203125,-10.19287109375,-17.333984375
0.7574999,3.8516719341278076,-1.5747861862182617,8.939949035644531,0.518798828125,10.040283203125,-58.41064453125
0.7624999,4.841075897216797,-0.910993754863739,8.661623001098633,-1.89208984375,61.553955078125,-37.567138671875
0.7674999,5.249885559082031,-0.03651157766580582,8.666411399841309,-0.9765625,93.6279296875,-5.859375
0.7724999,4.131195068359375,0.20290859043598175,9.063849449157715,-2.288818359375,87.005615234375,-13.275146484375
0.7774999,-1.1552022695541382,0.29149407148361206,10.51174259185791,-6.988525390625,11.993408203125,2.8076171875
0.7824999,-3.180696964263916,0.01975216343998909,10.649409294128418,-18.798828125,-12.3291015625,5.0048828125
0.7874999,-3.914519786834717,-0.19213469326496124,10.803236961364746,-4.7607421875,-15.380859375,22.216796875
0.7924999,-3.422511339187622,-0.6661866307258606,10.366893768310547,-2.227783203125,-21.6064453125,41.229248046875
0.7974999,-3.422511339187622,-0.6661866307258606,10.366893768310547,-2.227783203125,-21.6064453125,41.229248046875
0.8024999,-2.430713176727295,-0.8517372608184814,10.078392028808594,1.5869140625,-27.77099609375,38.177490234375
0.8074999,-1.258152961730957,-0.910993754863739,9.853337287902832,5.7373046875,-39.48974609375,42.694091796875
0.8124999,-0.1322796493768692,-0.6027402877807617,9.88745403289795,7.080078125,-44.677734375,45.013427734375
0.8174999000000001,0.9463081955909729,-0.5823895931243896,9.744400978088379,1.373291015625,-49.8046875,23.0712890625
0.8224999000000001,1.7920600175857544,-1.0905588865280151,9.588179588317871,3.021240234375,-43.487548828125,3.0517578125
0.8274999000000001,2.472013235092163,-1.1959037780761719,9.50498104095459,11.749267578125,-9.033203125,2.471923828125
0.8324999000000001,4.50947904586792,-0.5602431893348694,8.87829875946045,0.152587890625,78.948974609375,-14.09912109375
0.8374999,4.50947904586792,-0.5602431893348694,8.87829875946045,0.152587890625,78.948974609375,-14.09912109375
0.8424999,3.7600936889648438,0.06344634294509888,9.24940013885498,-1.220703125,77.056884765625,-11.810302734375
0.8474999,1.6543933153152466,0.07481880486011505,9.585186958312988,-2.9296875,38.177490234375,-20.294189453125
0.8524999,-0.6440402865409851,0.5770025849342346,10.499173164367676,-5.523681640625,9.58251953125,-0.48828125
0.8574999,-2.6443958282470703,-0.040701430290937424,10.457873344421387,-19.6533203125,-10.284423828125,11.04736328125
0.8624999,-3.201646327972412,0.03411737456917763,10.755352973937988,-9.33837890625,-10.833740234375,12.02392578125
0.8674999,-3.0184898376464844,-0.45908817648887634,10.287285804748535,-1.03759765625,-19.256591796875,41.56494140625
0.8724999,-2.272696018218994,-0.7433996200561523,10.031106948852539,1.617431640625,-27.435302734375,41.961669921875
0.8774999,-1.346139907836914,-0.8667010068893433,9.791088104248047,6.805419921875,-38.63525390625,41.961669921875
0.8824999,0.6572083830833435,-0.5829881429672241,9.759963035583496,1.251220703125,-47.576904296875,21.6064453125
0.8874999,0.6572083830833435,-0.5829881429672241,9.759963035583496,1.251220703125,-47.576904296875,21.6064453125
0.8924999,3.4075474739074707,-1.6202759742736816,9.083003044128418,0.823974609375,10.894775390625,-57.403564453125
0.8974999,3.4075474739074707,-1.6202759742736816,9.083003044128418,0.823974609375,10.894775390625,-57.403564453125
0.9024999,4.291606426239014,-1.3108254671096802,8.951920509338379,-2.105712890625,54.6875,-54.412841796875
0.9074999,4.501697540283203,-0.7242460250854492,8.883087158203125,1.5869140625,80.291748046875,-15.44189453125
0.9124999,3.5182793140411377,-0.11671733111143112,9.300874710083008,-0.30517578125,68.756103515625,-15.80810546875
0.9174999,1.2431892156600952,-0.008978256024420261,9.674370765686035,-4.119873046875,27.923583984375,-17.669677734375
0.9224999,-1.0749965906143188,0.5710170865058899,10.585963249206543,-7.62939453125,2.13623046875,5.889892578125
0.9274999,-2.7760767936706543,0.07541735470294952,10.504559516906738,-21.697998046875,-12.969970703125,10.467529296875
0.9324999,-3.1052796840667725,0.10295066982507706,10.74457836151123,-7.9345703125,-10.55908203125,16.41845703125
0.9374999,-2.6773159503936768,-0.4920084476470947,10.226832389831543,0.06103515625,-20.050048828125,44.5556640625
0.9424999000000001,-1.9081788063049316,-0.8259995579719543,9.999382972717285,4.974365234375,-28.167724609375,46.356201171875
0.9474999000000001,-1.062427043914795,-0.8122329115867615,9.7791166305542,9.246826171875,-39.215087890625,41.93115234375
0.9524999000000001,3.8959646224975586,-1.5843629837036133,8.983643531799316,2.593994140625,28.778076171875,-59.50927734375
0.9574999000000001,4.642356872558594,-1.2701239585876465,8.883087158203125,-0.54931640625,67.0166015625,-37.628173828125
0.9624999,2.5492262840270996,-0.28311434388160706,9.448118209838867,3.753662109375,49.163818359375,-14.6484375
0.9674999,0.16879121959209442,0.166995570063591,10.025120735168457,-1.068115234375,11.474609375,-8.453369140625
0.9724999,-2.0021512508392334,0.3603273630142212,10.603321075439453,-9.613037109375,-5.645751953125,11.627197265625
0.9774999,-2.9526493549346924,0.5183446407318115,10.503961563110352,-15.533447265625,-8.819580078125,10.955810546875
0.9824999,-2.9041666984558105,0.3172317147254944,10.654197692871094,-0.3662109375,-11.71875,30.76171875
0.9874999,-2.2619221210479736,-0.23582886159420013,10.177751541137695,-1.5869140625,-21.97265625,35.064697265625
0.9924999,-0.7092822790145874,-0.547075092792511,9.871891975402832,4.638671875,-39.9169921875,28.594970703125
0.9974999,0.18614917993545532,-0.4291606545448303,9.8784761428833,0.3662109375,-40.34423828125,14.95361328125
1.0024999,1.206079125404358,-1.0648212432861328,9.557653427124023,2.13623046875,-31.31103515625,-5.4931640625
1.0074999000000002,2.4851813316345215,-1.1240776777267456,9.55466079711914,10.92529296875,-2.899169921875,-15.625
1.0124999000000001,3.626616954803467,-1.3988122940063477,9.003395080566406,5.79833984375,18.98193359375,-42.54150390625
1.0174999000000002,4.315548419952393,-1.2072762250900269,9.102156639099121,-1.0986328125,52.703857421875,-34.72900390625
1.0224999000000001,4.0569748878479,-0.5578489899635315,9.086593627929688,2.86865234375,61.065673828125,-9.307861328125
1.0274999,2.830544948577881,-0.2388216257095337,9.436147689819336,1.373291015625,41.168212890625,-27.984619140625
1.0324999000000001,0.823006808757782,-0.20470423996448517,9.800065994262695,-0.396728515625,23.4375,-18.61572265625
1.0374999,-0.9367313981056213,0.6805518269538879,10.314221382141113,-0.8544921875,9.246826171875,7.2021484375
1.0424999000000001,-2.185307502746582,0.1975216418504715,10.292074203491211,-11.566162109375,-6.927490234375,10.894775390625
1.0474999,-2.5025393962860107,0.8146271109580994,10.49558162689209,-8.148193359375,-10.55908203125,13.763427734375
1.0524999000000002,-1.9512743949890137,-0.41539400815963745,10.11550235748291,-3.082275390625,-27.587890625,36.7431640625
1.0574999,-1.2701239585876465,-0.641047477722168,9.997588157653809,6.134033203125,-35.58349609375,36.31591796875
1.0624999000000002,-0.31603461503982544,-0.8098387122154236,9.928155899047852,1.03759765625,-37.567138671875,16.9677734375
1.0674999,0.5847837924957275,-0.9157821536064148,9.762357711791992,0.6103515625,-31.8603515625,5.67626953125
1.0724999000000002,1.7956513166427612,-1.3539210557937622,9.59715747833252,5.43212890625,-23.956298828125,-9.613037109375
1.0774999,2.759317398071289,-1.2234370708465576,9.3427734375,10.55908203125,3.448486328125,-22.125244140625
1.0824999000000002,3.824737310409546,-1.3353660106658936,9.106945037841797,-0.152587890625,24.688720703125,-41.68701171875
1.0874999,4.082113742828369,-0.9068039059638977,9.102156639099121,-0.030517578125,54.718017578125,-19.500732421875
1.0924999000000002,3.736750364303589,-0.46148237586021423,9.232041358947754,3.082275390625,53.009033203125,-21.209716796875
1.0974999,2.258330821990967,-0.24181437492370605,9.59057331085205,0.8544921875,39.48974609375,-30.517578125
1.1024999000000002,0.30226796865463257,-0.23343466222286224,9.854534149169922,-1.5869140625,18.707275390625,-11.322021484375
1.1074999,-1.4119805097579956,0.12629413604736328,10.390835762023926,-3.7841796875,3.0517578125,8.758544921875
1.1124999000000002,-2.73537540435791,0.07781155407428741,10.4542818069458,-2.655029296875,-15.838623046875,23.284912109375
1.1174999,-2.337339401245117,-0.3429693877696991,10.149619102478027,-0.823974609375,-20.965576171875,34.576416015625
1.1224999000000002,-1.8034324645996094,-0.17896658182144165,10.041281700134277,4.669189453125,-26.4892578125,38.299560546875
1.1274999,-0.8164227604866028,-0.2932897210121155,10.023324966430664,2.532958984375,-37.353515625,21.026611328125
1.1324999000000002,-0.05626374110579491,-0.1256955862045288,9.872490882873535,-2.8076171875,-40.679931640625,-0.762939453125
1.1374999000000001,0.970848798751831,-0.7026981711387634,9.710882186889648,2.105712890625,-34.48486328125,-4.180908203125
1.1424999000000002,2.16495680809021,-0.641047477722168,9.610923767089844,7.354736328125,-11.23046875,-9.21630859375
1.1474999000000001,3.449446201324463,-1.1653777360916138,9.089587211608887,-0.274658203125,6.561279296875,-42.572021484375
1.1524999000000002,4.406527996063232,-1.1306617259979248,9.139864921569824,-2.44140625,51.08642578125,-35.400390625
1.1574999000000001,4.37420654296875,-0.900818407535553,9.029731750488281,3.448486328125,64.208984375,-18.6767578125
1.1624999,3.31118106842041,-0.5488707423210144,9.421183586120605,2.0751953125,49.285888671875,-26.3671875
1.1674999000000001,1.0947487354278564,-0.7823054194450378,9.711481094360352,-2.9296875,20.6298828125,-18.310546875
1.1724999,-0.8457517623901367,0.272938996553421,10.293272018432617,-3.143310546875,5.92041015625,2.685546875
1.1774999000000002,-2.3546974658966064,-0.07960720360279083,10.19032096862793,-10.25390625,-8.087158203125,10.1318359375
1.1824999,-2.699462413787842,0.5339069962501526,10.382455825805664,-2.99072265625,-13.885498046875,21.881103515625
1.1874999000000002,-2.471414804458618,-0.3315969407558441,10.141240119934082,-3.326416015625,-19.95849609375,28.717041015625
1.1924999,-2.057217836380005,-0.3561375141143799,10.00716495513916,5.67626953125,-20.751953125,30.1513671875
1.1974999000000002,-1.1827356815338135,-0.6434416770935059,10.053253173828125,8.880615234375,-31.79931640625,28.594970703125
1.2024999,-0.4638765752315521,-0.16819266974925995,10.01075553894043,-0.213623046875,-41.534423828125,4.302978515625
1.2074999000000002,0.1280897855758667,-0.42377370595932007,9.925163269042969,0.244140625,-43.3349609375,-0.335693359375
1.2124999,1.437718152999878,-0.2298433631658554,10.005369186401367,4.82177734375,-30.21240234375,5.096435546875
1.2174999000000002,2.449268341064453,-0.6248866319656372,9.352949142456055,2.655029296875,-16.876220703125,-34.3017578125
1.2224999,4.220977783203125,-1.01753568649292,9.252392768859863,-4.486083984375,27.89306640625,-42.999267578125
1.2274999000000002,4.96856689453125,-1.1563993692398071,8.778340339660645,1.46484375,72.69287109375,-16.326904296875
1.2324999,2.6803088188171387,-1.1450269222259521,9.273940086364746,0.6103515625,47.30224609375,-22.705078125
1.2374999000000002,0.24480712413787842,0.06224924325942993,9.984419822692871,0.335693359375,10.19287109375,-3.875732421875
1.2424999,-2.161964178085327,0.07661445438861847,10.178350448608398,-7.38525390625,-11.932373046875,3.143310546875
1.2474999000000002,-3.1872811317443848,0.6260837316513062,10.503362655639648,-7.8125,-14.862060546875,20.721435546875
1.2524999,-3.0166940689086914,-0.23523031175136566,10.319009780883789,-7.232666015625,-16.4794921875,29.6630859375
1.2574999000000002,-2.318784236907959,-0.3944447338581085,10.123882293701172,4.7607421875,-14.495849609375,21.148681640625
1.2624999000000001,-1.4407109022140503,-0.9050082564353943,10.079588890075684,9.552001953125,-22.125244140625,27.740478515625
1.2674999000000002,-0.5644330382347107,-0.4321534037590027,10.020332336425781,-0.91552734375,-34.3017578125,14.95361328125
1.2724999000000001,-0.07960720360279083,-0.32620999217033386,10.010157585144043,-1.953125,-39.6728515625,5.67626953125
1.2774999000000002,0.8978256583213806,-0.5165489912033081,9.983820915222168,2.655029296875,-37.841796875,0.213623046875
1.2824999000000001,3.420715570449829,-1.1186907291412354,9.151836395263672,-1.15966796875,9.063720703125,-46.844482421875
1.2874999,1.1426327228546143,-0.6440402865409851,9.61331844329834,-0.030517578125,22.918701171875,-14.739990234375
1.2924999000000001,-0.8427590131759644,-0.03950432687997818,10.146626472473145,0.1220703125,7.4462890625,-1.312255859375
1.2974999,-2.3582887649536133,0.08140286058187485,10.250774383544922,-7.415771484375,-8.453369140625,11.444091796875
1.3024999000000002,-2.7108349800109863,0.24480712413787842,10.40460205078125,-7.476806640625,-18.12744140625,20.843505859375
1.3074999,-2.3068132400512695,-0.3866635859012604,10.213664054870605,-5.2490234375,-15.9912109375,23.86474609375
1.3124999000000002,-1.7322049140930176,-0.29867666959762573,10.032303810119629,9.521484375,-10.8642578125,17.578125
1.3174999,-0.8649053573608398,-0.849941611289978,10.010157585144043,4.058837890625,-21.209716796875,26.763916015625
1.3224999000000002,-0.25917232036590576,-0.03531447425484657,9.95748519897461,-2.288818359375,-32.470703125,13.763427734375
1.3274999,0.10115502029657364,-0.09516951441764832,9.983820915222168,-0.701904296875,-36.407470703125,2.8076171875
1.3324999000000002,0.9289502501487732,-0.5776011347770691,9.880870819091797,1.03759765625,-34.149169921875,-2.655029296875
1.3374999,4.02345609664917,-0.8104372620582581,9.103353500366211,0.274658203125,56.854248046875,-31.829833984375
1.3424999000000002,3.9258923530578613,-0.7745242714881897,9.116521835327148,2.5634765625,56.060791015625,5.06591796875
1.3474999,2.932298421859741,-0.019153613597154617,9.3828763961792,0.06103515625,29.754638671875,-28.38134765625
1.3524999000000002,0.9750386476516724,-0.6368576288223267,9.763554573059082,-1.953125,16.204833984375,-15.228271484375
1.3574999,-0.4429273009300232,0.1867477297782898,10.038887977600098,1.3427734375,14.739990234375,-1.617431640625
1.3624999000000002,-1.754351258277893,-0.345363587141037,10.091560363769531,-3.387451171875,3.35693359375,7.50732421875
1.3674999,-2.1266496181488037,0.4213795065879822,10.224438667297363,-6.134033203125,-13.00048828125,17.120361328125
1.3724999000000002,-2.0895395278930664,-0.2454056739807129,10.193912506103516,-6.34765625,-21.78955078125,24.078369140625
1.3774999,-1.3623007535934448,-0.30286651849746704,10.103530883789062,-0.06103515625,-12.5732421875,12.420654296875
1.3824999000000002,-0.8158242106437683,-0.5105634927749634,10.04188060760498,6.988525390625,-7.049560546875,15.228271484375
1.3874999000000001,-0.07242459803819656,-0.6937199234962463,10.004171371459961,0.762939453125,-19.10400390625,26.91650390625
1.3924999000000002,3.1962592601776123,-0.7260416746139526,9.288305282592773,1.77001953125,45.806884765625,3.631591796875
1.3974999000000001,2.249951124191284,-0.14006079733371735,9.539097785949707,-2.62451171875,18.829345703125,-25.543212890625
1.4024999000000002,0.5482721924781799,-0.5207388401031494,9.825204849243164,-2.044677734375,11.962890625,-16.815185546875
1.4074999000000001,-0.43275195360183716,-0.272938996553421,9.986215591430664,0.6103515625,15.380859375,2.960205078125
1.4124999,-1.1851298809051514,-0.35015198588371277,10.10053825378418,-1.64794921875,8.72802734375,1.373291015625
1.4174999000000001,-1.1851298809051514,-0.35015198588371277,10.10053825378418,-1.64794921875,8.72802734375,1.373291015625
1.4224999,-1.591545581817627,-0.2017114907503128,10.123882293701172,-5.401611328125,-5.4931640625,13.763427734375
1.4274999000000002,-1.2330138683319092,-0.456095427274704,10.119691848754883,-5.55419921875,-18.402099609375,23.25439453125
1.4324999,-0.6943184733390808,-0.11851298063993454,9.9000244140625,3.47900390625,-9.307861328125,2.74658203125
1.4374999000000002,-0.21787235140800476,-0.5847837924957275,9.904812812805176,6.4697265625,-10.6201171875,26.336669921875
1.4424999,0.3190273642539978,-0.35673606395721436,9.82759952545166,-2.0751953125,-27.4658203125,14.190673828125
1.4474999000000002,0.4297592043876648,0.09516951441764832,9.895236015319824,-1.007080078125,-31.6162109375,-2.9296875
1.4524999,0.8170213103294373,-0.39564183354377747,9.894637107849121,-2.8076171875,-25.7568359375,-1.739501953125
1.4574999000000002,1.3389573097229004,-0.7745242714881897,9.770736694335938,3.021240234375,-16.6015625,6.561279296875
1.4624999,2.1266496181488037,-0.9983820915222168,9.43494987487793,5.706787109375,-4.2724609375,-18.157958984375
1.4674999000000002,2.981379747390747,-1.357512354850769,9.288904190063477,-2.38037109375,19.04296875,-28.594970703125
1.4724999,2.9765913486480713,-0.8822633028030396,9.05487060546875,0.762939453125,45.8984375,-4.7607421875
1.4774999000000002,2.562992811203003,-0.7805097699165344,9.35654067993164,0.640869140625,37.4755859375,-7.99560546875
1.4824999,1.3670891523361206,-0.3471592366695404,9.553462982177734,0.54931640625,9.674072265625,-21.759033203125
1.4874999000000002,-0.6380547285079956,-0.18794482946395874,10.141838073730469,-1.0986328125,10.955810546875,5.767822265625
1.4924999,-1.0696096420288086,-0.243011474609375,10.201693534851074,-1.678466796875,5.0048828125,8.209228515625
1.4974999000000002,-1.2988544702529907,0.03411737456917763,10.196306228637695,-3.570556640625,-7.843017578125,6.744384765625
1.5024999,-1.4634557962417603,-0.03711012750864029,10.243592262268066,-1.678466796875,-19.683837890625,24.932861328125
1.5074999000000002,-1.1079168319702148,-0.456095427274704,10.140042304992676,-4.302978515625,-24.566650390625,21.97265625
1.5124999000000001,-0.9876081943511963,-0.04967968538403511,10.029909133911133,6.134033203125,-21.514892578125,10.19287109375
1.5174999000000002,-0.3130418658256531,-0.6075286865234375,10.04846477508545,2.655029296875,-30.94482421875,25.177001953125
1.5224999000000001,0.6518214344978333,-0.035913024097681046,9.914987564086914,-1.28173828125,-40.008544921875,-4.852294921875
1.5274999000000002,1.3335703611373901,-0.6057330369949341,9.780912399291992,-1.068115234375,-30.792236328125,-4.119873046875
1.5324999000000001,2.0889410972595215,-0.7200561761856079,9.487024307250977,5.859375,-11.77978515625,-2.44140625
1.5374999000000003,3.22139835357666,-1.3024457693099976,9.101557731628418,-0.274658203125,7.26318359375,-35.125732421875
1.5424999000000001,3.360262155532837,-0.4255693554878235,9.196727752685547,-1.739501953125,55.084228515625,-20.99609375
1.5474999,1.5424644947052002,-0.37648820877075195,9.591172218322754,-0.457763671875,35.0341796875,-22.52197265625
1.5524999000000002,-0.34596213698387146,-0.414795458316803,9.974244117736816,0.67138671875,17.7001953125,-5.67626953125
1.5574999,-1.6585832834243774,-0.3345896899700165,10.338163375854492,-3.23486328125,4.852294921875,5.401611328125
1.5624999000000002,-2.3355438709259033,-0.2124854028224945,10.33098030090332,-6.04248046875,-2.471923828125,5.279541015625
1.5674999,-2.2643163204193115,0.14245499670505524,10.43812084197998,-1.708984375,-8.270263671875,18.73779296875
1.5724999000000002,-1.756745457649231,-0.2388216257095337,10.253767013549805,-5.462646484375,-18.24951171875,28.86962890625
1.5774999,-0.9959878921508789,-0.4686649739742279,9.985017776489258,-2.5634765625,-17.364501953125,10.955810546875
1.5824999000000002,-0.41539400815963745,-0.5213374495506287,9.86650562286377,9.735107421875,-11.199951171875,10.7421875
1.5874999,0.21847090125083923,-0.7308300733566284,9.7791166305542,2.532958984375,-21.209716796875,21.05712890625
1.5924999000000002,2.5450363159179688,-0.9642647504806519,9.372102737426758,3.2958984375,40.557861328125,-5.706787109375
1.5974999,1.381454348564148,-0.10654197633266449,9.677961349487305,-3.47900390625,9.307861328125,-18.73779296875
1.6024999000000002,-0.3166331648826599,0.046088382601737976,10.040084838867188,-3.082275390625,5.2490234375,-7.598876953125
1.6074999,-0.9415197968482971,-0.004788403399288654,10.166977882385254,-2.655029296875,6.805419921875,5.340576171875
1.6124999000000002,-1.2012907266616821,-0.24660277366638184,10.18792724609375,-2.044677734375,6.53076171875,1.15966796875
1.6174999,-1.335964560508728,-0.34356793761253357,10.187328338623047,-2.532958984375,-2.685546875,17.120361328125
1.6224999000000002,-1.225232720375061,-0.2148796021938324,10.160991668701172,-2.166748046875,-18.524169921875,15.80810546875
1.6274999,-0.04728548228740692,-0.40043023228645325,9.86111831665039,7.720947265625,-14.95361328125,9.979248046875
1.6324999000000002,0.71766197681427,-0.5925649404525757,9.759963035583496,-0.18310546875,-25.69580078125,15.594482421875
1.6374999000000001,0.922366201877594,-0.09935937076807022,9.824007987976074,-3.082275390625,-29.1748046875,-4.425048828125
1.6424999000000002,1.2791022062301636,-0.5961562395095825,9.750985145568848,-1.190185546875,-23.49853515625,0.244140625
1.6474999000000001,1.790264368057251,-0.707486629486084,9.650428771972656,3.90625,-8.270263671875,-3.631591796875
1.6524999000000002,2.544437885284424,-0.99479079246521,9.349956512451172,1.922607421875,9.246826171875,-25.0244140625
1.6574999000000001,3.2399535179138184,-1.5298948287963867,9.160215377807617,-1.5869140625,34.576416015625,-19.134521484375
1.6624999000000003,3.132214307785034,-0.6673837304115295,9.187748908996582,4.791259765625,55.084228515625,-24.0478515625
1.6674999000000001,2.029684543609619,-0.7793126702308655,9.4636812210083,2.38037109375,35.21728515625,-6.7138671875
1.6724999,0.7978677153587341,-0.11671733111143112,9.749189376831055,-5.55419921875,4.57763671875,-9.674072265625
1.6774999000000002,-0.6470330357551575,0.0736217051744461,10.113107681274414,-4.425048828125,5.37109375,-14.7705078125
1.6824999,-1.0217255353927612,-0.3597288131713867,10.144232749938965,-2.01416015625,11.23046875,-3.082275390625
1.6874999000000002,-1.035492181777954,-0.25677812099456787,10.096946716308594,-1.03759765625,0.457763671875,14.0380859375
1.6924999,-0.9582792520523071,0.0071826050989329815,10.128670692443848,-3.509521484375,-15.5029296875,15.533447265625
1.6974999000000002,-0.7882909178733826,-0.07541735470294952,10.141838073730469,-9.307861328125,-21.392822265625,22.247314453125
1.7024999,-0.24839842319488525,-0.13108254969120026,9.896432876586914,-5.889892578125,-15.533447265625,14.16015625
1.7074999000000002,0.21966800093650818,-0.353743314743042,9.893440246582031,8.392333984375,-7.8125,5.2490234375
1.7124999,0.8200140595436096,-0.8259995579719543,9.660603523254395,1.251220703125,-16.11328125,11.993408203125
1.7174999000000002,1.0720038414001465,-0.3734954595565796,9.676764488220215,-2.5634765625,-16.815185546875,1.77001953125
1.7224999,1.3012486696243286,-0.5524620413780212,9.618106842041016,-2.227783203125,-12.115478515625,-3.936767578125
1.7274999000000002,1.5209165811538696,-0.7972691655158997,9.604340553283691,2.13623046875,-4.5166015625,1.495361328125
1.7324999,1.898003339767456,-0.8768763542175293,9.427767753601074,4.2724609375,7.232666015625,-9.94873046875
1.7374999000000002,2.1086931228637695,-1.2473790645599365,9.437943458557129,1.373291015625,20.172119140625,-22.064208984375
1.7424999,1.677138328552246,-0.7110779285430908,9.611522674560547,0.823974609375,23.98681640625,-17.88330078125
1.7474999000000002,0.9361328482627869,-0.4471171796321869,9.77013874053955,-1.190185546875,14.923095703125,-18.24951171875
1.7524999,0.16160862147808075,-0.28730419278144836,9.889848709106445,-2.13623046875,12.14599609375,-7.659912109375
1.7574999000000002,-0.4106055796146393,-0.23283611238002777,9.996390342712402,-0.79345703125,9.033203125,2.288818359375
1.7624999000000001,-0.6991068720817566,0.1107318252325058,10.204087257385254,-0.9765625,3.72314453125,7.476806640625
1.7674999000000002,-0.8720879554748535,-0.05686229094862938,10.079588890075684,-9.033203125,-4.425048828125,9.765625
1.7724999000000001,-0.8487445116043091,0.21667525172233582,10.266935348510742,-5.706787109375,-9.002685546875,18.73779296875
1.7774999000000002,-0.6997054219245911,-0.16160862147808075,9.974244117736816,-4.0283203125,-15.228271484375,20.56884765625
1.7824999000000001,-0.47644615173339844,-0.4620809257030487,9.885659217834473,0.213623046875,-17.303466796875,20.721435546875
1.7874999000000003,-0.07003039866685867,-0.7146692276000977,9.724050521850586,4.669189453125,-17.669677734375,14.16015625
1.7924999000000001,0.4507084786891937,-0.690727174282074,9.71926212310791,3.7841796875,-17.39501953125,8.270263671875
1.7974999,0.9582792520523071,-0.7703344225883484,9.587580680847168,-1.3427734375,-14.70947265625,-5.462646484375
1.8024999000000002,1.9638439416885376,-0.8792705535888672,9.45111083984375,7.415771484375,4.150390625,-7.476806640625
1.8074999,2.361281394958496,-1.0307037830352783,9.435548782348633,2.532958984375,18.4326171875,-31.3720703125
1.8124999000000002,2.3355438709259033,-0.7984662652015686,9.518747329711914,0.3662109375,28.045654296875,-16.357421875
1.8174999,2.0254945755004883,-0.42437225580215454,9.695918083190918,-0.06103515625,26.0009765625,-18.157958984375
1.8224999000000002,1.1988965272903442,-0.2232593148946762,9.854534149169922,-1.556396484375,17.15087890625,-24.139404296875
1.8274999,0.22206220030784607,-0.24420857429504395,9.971251487731934,-4.425048828125,11.993408203125,-15.045166015625
1.8324999000000002,-0.45848962664604187,-0.13766659796237946,10.029311180114746,-2.74658203125,6.072998046875,-0.640869140625
1.8374999,-0.9642647504806519,-0.19033902883529663,10.251971244812012,-3.326416015625,0.9765625,9.033203125
1.8424999000000002,-0.6667851805686951,-0.4165911078453064,9.896432876586914,7.87353515625,-22.705078125,27.77099609375
1.8474999,1.3299790620803833,-0.823006808757782,9.619303703308105,-0.67138671875,-17.39501953125,-6.16455078125
1.8524999000000002,1.9913772344589233,-0.7015010714530945,9.583989143371582,10.650634765625,-2.8076171875,-4.82177734375
1.8574999,2.6611552238464355,-1.1408370733261108,9.276932716369629,5.584716796875,16.66259765625,-31.494140625
1.8624999000000002,2.982576847076416,-1.202487826347351,9.319430351257324,-1.953125,37.506103515625,-37.078857421875
1.8674999,2.7281928062438965,-0.7242460250854492,9.460089683532715,1.64794921875,42.724609375,-25.390625
1.8724999000000002,1.7782933712005615,-0.333991140127182,9.743802070617676,0.30517578125,29.296875,-28.076171875
1.8774999,0.3645172119140625,-0.090979665517807,9.996390342712402,-7.537841796875,12.20703125,-24.139404296875
1.8824999000000002,-0.7332242727279663,-0.08738835901021957,10.017938613891602,-8.48388671875,2.5634765625,-12.176513671875
1.8874999000000001,-1.2671312093734741,0.23822307586669922,10.468647003173828,-0.42724609375,0.6103515625,8.60595703125
1.8924999000000002,-1.315613865852356,-0.11911153793334961,10.005369186401367,-13.946533203125,-5.950927734375,15.594482421875
1.8974999000000001,-1.0456676483154297,-0.22385786473751068,10.305841445922852,-8.11767578125,-13.702392578125,25.177001953125
1.9024999000000002,-0.5991489887237549,-1.0235211849212646,9.68694019317627,11.932373046875,-22.979736328125,28.86962890625
1.9074999000000001,-0.07960720360279083,-0.9953893423080444,9.658209800720215,13.824462890625,-25.08544921875,17.822265625
1.9124999000000003,0.32860419154167175,-0.4818331003189087,9.586383819580078,-4.82177734375,-24.47509765625,-3.204345703125
1.9174999000000001,1.0642226934432983,-0.7350199222564697,9.78989028930664,-1.03759765625,-15.7470703125,-1.40380859375
1.9224999,-0.5225345492362976,-0.4794389009475708,10.038289070129395,4.08935546875,-12.51220703125,26.519775390625
1.9274999000000002,-0.27413609623908997,-0.7823054194450378,9.505578994750977,-3.41796875,-15.167236328125,15.5029296875
1.9324999,-0.11133038252592087,-0.6380547285079956,9.707889556884766,8.6669921875,-13.641357421875,19.805908203125
1.9374999000000002,0.29209262132644653,-0.7428010702133179,9.674968719482422,5.92041015625,-15.655517578125,10.467529296875
1.9424999,0.5578489899635315,-0.228047713637352,9.864110946655273,-4.180908203125,-16.571044921875,1.28173828125
1.9474999000000002,0.8918401598930359,-0.5351040959358215,9.73542308807373,-3.96728515625,-14.09912109375,-2.0751953125
1.9524999,1.3096283674240112,-0.5662286877632141,9.762955665588379,6.7138671875,-5.523681640625,-5.43212890625
1.9574999000000002,1.7280150651931763,-0.7643488645553589,9.533711433410645,8.087158203125,7.537841796875,-14.129638671875
1.9624999,2.0260932445526123,-0.8661024570465088,9.575610160827637,-3.570556640625,17.02880859375,-19.866943359375
1.9674999000000002,1.9590555429458618,-0.4513070285320282,9.698312759399414,-3.23486328125,20.3857421875,-9.8876953125
1.9724999,0.7655459642410278,-0.20889410376548767,9.962273597717285,-6.134033203125,17.791748046875,-28.350830078125
1.9774999000000002,0.05386953800916672,-0.31842881441116333,9.929352760314941,-7.6904296875,11.505126953125,-23.284912109375
1.9824999,-0.28311434388160706,-0.5249287486076355,9.870096206665039,-5.523681640625,5.889892578125,-11.90185546875
1.9874999000000002,-0.28311434388160706,-0.5249287486076355,9.870096206665039,-5.523681640625,5.889892578125,-11.90185546875
1.9924999,-0.3669114112854004,-0.6859387755393982,9.86111831665039,0.885009765625,3.021240234375,5.645751953125
1.9974999000000002,-0.3076549172401428,-0.7793126702308655,9.864709854125977,-2.227783203125,1.373291015625,9.674072265625
2.0024999,-0.21428105235099792,-0.5626373887062073,9.782708168029785,-7.99560546875,-6.8359375,18.157958984375
2.0074999,-0.22206220030784607,-0.6625953316688538,9.97065258026123,-1.28173828125,-13.36669921875,22.03369140625
2.0124999000000003,-0.076015904545784,-0.608127236366272,9.643844604492188,-1.800537109375,-13.61083984375,14.0380859375
2.0174999000000002,0.060453593730926514,-0.6733692288398743,9.802460670471191,12.054443359375,-12.8173828125,20.1416015625
2.0224999,0.4411316514015198,-0.7110779285430908,9.677363395690918,5.157470703125,-11.260986328125,5.43212890625
2.0274999,0.7326257228851318,-0.18614917993545532,9.876082420349121,-0.732421875,-10.467529296875,-2.62451171875
2.0324999000000004,1.3940238952636719,-0.5303156971931458,9.717466354370117,4.058837890625,1.861572265625,-7.568359375
2.0374999000000003,1.7393875122070312,-0.7428010702133179,9.515155792236328,11.505126953125,13.458251953125,-17.425537109375
2.0424999,1.7842788696289062,-1.1162965297698975,9.499593734741211,1.922607421875,20.3857421875,-26.824951171875
2.0474999,1.6208745241165161,-0.690727174282074,9.621698379516602,2.62451171875,17.9443359375,-11.1083984375
2.0524999,1.1982979774475098,-0.5823895931243896,9.790489196777344,0.274658203125,13.031005859375,-10.6201171875
2.0574999000000003,0.5716156363487244,-0.5476736426353455,9.836577415466309,-2.01416015625,11.993408203125,-16.021728515625
2.0624999,0.18495208024978638,-0.5656301379203796,9.828198432922363,1.64794921875,9.46044921875,-7.293701171875
2.0674999,-0.17178396880626678,-0.518943190574646,9.956287384033203,5.67626953125,7.659912109375,8.72802734375
2.0724999,-0.4411316514015198,-0.36750996112823486,9.901819229125977,-2.593994140625,2.593994140625,8.697509765625
2.0774999000000003,-0.5590460896492004,-0.10354922711849213,10.061034202575684,-4.974365234375,-7.9345703125,15.594482421875
2.0824999,-0.606930136680603,-0.2825157940387726,10.011953353881836,-1.922607421875,-12.451171875,18.096923828125
2.0874999,-0.363918662071228,-0.40282443165779114,9.847949981689453,1.617431640625,-11.260986328125,15.31982421875
2.0924999,0.3705027103424072,-0.6260837316513062,9.773131370544434,3.692626953125,-10.772705078125,4.150390625
2.0974999000000003,0.618302583694458,-0.23942017555236816,9.847352027893066,0.152587890625,-11.3525390625,-4.119873046875
2.1024999,0.9989806413650513,-0.578798234462738,9.77013874053955,-2.197265625,-7.904052734375,-13.092041015625
2.1074999,1.3694833517074585,-0.45190557837486267,9.710882186889648,7.8125,1.28173828125,-6.4697265625
2.1124999,1.742978811264038,-0.8379706144332886,9.543886184692383,7.904052734375,13.458251953125,-18.280029296875
2.1174999000000003,1.7537527084350586,-0.9828197956085205,9.57441234588623,3.41796875,17.76123046875,-16.510009765625
2.1224999,1.6023194789886475,-0.4991910457611084,9.65222454071045,4.638671875,14.312744140625,-10.7421875
2.1274999,1.0977414846420288,-0.5279214978218079,9.813833236694336,-0.274658203125,10.3759765625,-14.739990234375
2.1324999,0.6105214357376099,-0.37409400939941406,9.868300437927246,-2.655029296875,9.521484375,-18.768310546875
2.1374999000000003,0.20051439106464386,-0.5279214978218079,9.824007987976074,0.640869140625,9.490966796875,-11.04736328125
2.1424999000000002,-0.09516951441764832,-0.4620809257030487,9.876082420349121,4.33349609375,8.36181640625,6.317138671875
2.1474999,-0.47584760189056396,-0.46507367491722107,9.819219589233398,-1.373291015625,1.983642578125,9.46044921875
2.1524999,-0.27413609623908997,-0.3585317134857178,9.959280967712402,8.453369140625,-11.23046875,18.035888671875
2.1574999000000004,0.1735796183347702,-0.4279635548591614,9.927556991577148,1.708984375,-15.960693359375,6.439208984375
2.1624999000000003,1.8303672075271606,-0.8379706144332886,9.502586364746094,3.143310546875,7.4462890625,-19.04296875
2.1674999,2.015319347381592,-0.9319429993629456,9.470863342285156,0.030517578125,17.059326171875,-10.772705078125
2.1724999,2.035670042037964,-0.52552729845047,9.502586364746094,3.082275390625,15.9912109375,-10.406494140625
2.1774999000000004,1.5753847360610962,-0.4752490520477295,9.575610160827637,0.91552734375,13.671875,-18.157958984375
2.1824999000000003,0.9965864419937134,-0.4141969084739685,9.775525093078613,-1.922607421875,14.46533203125,-11.41357421875
2.1874999,0.0065840547904372215,-0.5476736426353455,9.849146842956543,1.434326171875,8.819580078125,0.6103515625
2.1924999,-0.41958385705947876,-0.585382342338562,9.97364616394043,0.732421875,5.18798828125,7.537841796875
2.1974999,-0.7368155717849731,-0.4016273319721222,9.883264541625977,-4.547119140625,-4.852294921875,8.72802734375
2.2024999000000003,-0.9433154463768005,-0.18974047899246216,10.074800491333008,-0.152587890625,-14.190673828125,22.125244140625
2.2074999,-0.7715315222740173,-0.3866635859012604,9.928155899047852,-4.57763671875,-19.256591796875,14.190673828125
2.2124999,-0.6584054827690125,-0.26396074891090393,9.977835655212402,5.31005859375,-16.11328125,16.90673828125
2.2174999,-0.24001872539520264,-0.5823895931243896,9.955090522766113,6.927490234375,-21.66748046875,14.678955078125
2.2224999000000003,-0.05267243832349777,-0.2645592987537384,10.081384658813477,1.64794921875,-30.70068359375,7.568359375
2.2274999,0.152031809091568,-0.48482584953308105,10.00955867767334,-0.213623046875,-39.306640625,-1.922607421875
2.2324999,0.4836287498474121,-0.8110358119010925,9.982624053955078,4.7607421875,-40.985107421875,-9.09423828125
2.2374999,1.2324153184890747,-0.9516952037811279,9.785101890563965,11.138916015625,-26.702880859375,-14.923095703125
2.2424999000000003,3.9151182174682617,-0.3926490843296051,8.974664688110352,3.96728515625,58.441162109375,-11.1083984375
2.2474999,3.1531636714935303,-0.29209262132644653,9.098565101623535,0.335693359375,48.675537109375,-17.39501953125
2.2524999,1.580173134803772,-0.3100491166114807,9.411606788635254,-1.068115234375,23.25439453125,-18.4326171875
2.2574999,-0.15801730751991272,-0.345363587141037,9.809642791748047,3.265380859375,9.124755859375,-9.429931640625
2.2624999000000003,-1.3329718112945557,-0.2908954918384552,10.144830703735352,-2.716064453125,7.110595703125,-3.570556640625
2.2674999000000002,-1.9303251504898071,-0.3274070918560028,10.194510459899902,-10.284423828125,2.197265625,-5.035400390625
2.2724999,-1.9177556037902832,0.2513911724090576,10.307038307189941,3.509521484375,-14.556884765625,16.815185546875
2.2774999,-1.7070658206939697,-0.16340427100658417,10.238204956054688,-3.23486328125,-24.84130859375,27.099609375
2.2824999000000004,-1.3581109046936035,-0.20290859043598175,10.250774383544922,-0.274658203125,-27.557373046875,22.369384765625
2.2874999000000003,-0.8690952062606812,-0.5841852426528931,10.228029251098633,10.43701171875,-36.407470703125,28.01513671875
2.2924999,-0.3794809579849243,-0.7481880187988281,10.202890396118164,5.950927734375,-47.821044921875,13.275146484375
2.2974999,0.11552023142576218,-0.43993455171585083,10.169371604919434,4.852294921875,-55.328369140625,2.777099609375
2.3024999000000004,2.7467479705810547,-0.9205705523490906,9.167398452758789,1.89208984375,-16.05224609375,-29.11376953125
2.3074999000000003,3.5942952632904053,-0.5440823435783386,8.993818283081055,0.1220703125,16.998291015625,-37.7197265625
2.3124999,4.19224739074707,-0.2256535142660141,8.628703117370605,-3.11279296875,62.103271484375,-32.135009765625
2.3174999,4.434061527252197,-0.17417816817760468,8.604162216186523,-3.90625,87.738037109375,-26.0009765625
2.3224999,4.0569748878479,0.4554968774318695,8.553285598754883,-7.598876953125,96.710205078125,-21.30126953125
2.3274999000000003,2.535459518432617,0.6009446382522583,9.439739227294922,-10.68115234375,97.686767578125,-17.242431640625
2.3324999,-0.26815059781074524,0.20889410376548767,9.741408348083496,-11.444091796875,36.0107421875,-5.889892578125
2.3374999,-2.406172752380371,0.01975216343998909,10.572794914245605,-1.983642578125,-15.472412109375,2.044677734375
2.3424999,-3.9240965843200684,-0.31124621629714966,10.717045783996582,-1.617431640625,-25.177001953125,5.889892578125
2.3474999000000003,-2.363077163696289,-0.727837324142456,10.342951774597168,-0.67138671875,-14.129638671875,27.64892578125
2.3524999,-1.049857497215271,-0.6997054219245911,10.162189483642578,10.345458984375,-20.294189453125,35.430908203125
2.3574999,0.03531447425484657,-0.7625532150268555,9.967061996459961,5.0048828125,-29.296875,14.404296875
2.3624999,0.8104372620582581,-0.41120412945747375,9.928155899047852,-0.030517578125,-30.120849609375,0.54931640625
2.3674999000000003,1.622071623802185,-0.15442600846290588,9.77133560180664,-1.800537109375,-20.56884765625,-9.368896484375
2.3724999,2.1535844802856445,-0.48482584953308105,9.645041465759277,1.129150390625,-2.38037109375,-10.1318359375
2.3774999,2.5474305152893066,-0.6260837316513062,9.569025993347168,6.4697265625,9.1552734375,-10.833740234375
2.3824999,2.607884168624878,-0.7134721279144287,9.296086311340332,2.166748046875,13.946533203125,-29.571533203125
2.3874999000000003,2.5546131134033203,-0.4411316514015198,9.414599418640137,-6.988525390625,32.16552734375,-29.541015625
2.3924999000000002,1.9949685335159302,-0.23403321206569672,9.415796279907227,-6.988525390625,43.45703125,-11.65771484375
2.3974999,1.2473790645599365,-0.2902969419956207,9.50857162475586,-3.753662109375,31.79931640625,-20.8740234375
2.4024999,-1.533486247062683,-0.3944447338581085,10.296862602233887,-5.218505859375,-15.106201171875,19.561767578125
2.4074999000000004,-1.2437877655029297,-0.558447539806366,10.084976196289062,-7.781982421875,-18.707275390625,26.458740234375
2.4124999000000003,-0.7745242714881897,-0.7894880175590515,9.971850395202637,0.18310546875,-17.608642578125,21.026611328125
2.4174999,-0.2346317619085312,-1.071405291557312,9.816226959228516,9.46044921875,-19.439697265625,24.35302734375
2.4224999,0.20290859043598175,-1.0797849893569946,9.725247383117676,8.7890625,-23.284912109375,26.7333984375
2.4274999000000004,0.6763619780540466,-0.8457517623901367,9.756970405578613,8.697509765625,-25.634765625,17.059326171875
2.4324999000000003,1.3323732614517212,-0.46746787428855896,9.774927139282227,-0.30517578125,-19.8974609375,-10.833740234375
2.4374999,1.9907786846160889,-0.1412578970193863,9.700108528137207,-3.11279296875,-2.99072265625,-19.622802734375
2.4424999,2.449268341064453,-0.5422866940498352,9.611522674560547,0.396728515625,16.17431640625,-8.148193359375
2.4474999,2.6162638664245605,-0.8451532125473022,9.46487808227539,9.21630859375,22.857666015625,-22.0947265625
2.4524999000000003,2.4151508808135986,-0.6745663285255432,9.374496459960938,3.936767578125,33.02001953125,-48.797607421875
2.4574999,0.9522937536239624,-0.4429273009300232,9.527725219726562,-6.2255859375,27.16064453125,-19.317626953125
2.4624999,0.39145198464393616,0.3034650683403015,9.99339771270752,4.302978515625,13.885498046875,-24.5361328125
2.4674999,-0.6733692288398743,-0.5398924946784973,10.003573417663574,-10.25390625,14.495849609375,-16.632080078125
2.4724999000000003,-0.9540894031524658,-0.14065934717655182,10.044873237609863,-11.8408203125,2.899169921875,-3.662109375
2.4774999,-1.2701239585876465,-0.3298012912273407,10.179547309875488,-1.007080078125,-13.519287109375,25.87890625
2.4824999,-0.20350714027881622,-1.24917471408844,9.711481094360352,12.6953125,-12.39013671875,23.49853515625
2.4874999,0.24121582508087158,-1.2336124181747437,9.631275177001953,11.23046875,-14.09912109375,20.08056640625
2.4924999000000003,0.7056909799575806,-0.8265981078147888,9.688735961914062,9.368896484375,-15.5029296875,10.772705078125
2.4974999,1.270722508430481,-0.29867666959762573,9.784503936767578,-0.640869140625,-9.246826171875,-11.53564453125
2.5024999,1.742978811264038,0.17836803197860718,9.803657531738281,-3.265380859375,6.072998046875,-14.923095703125
2.5074999,2.190694570541382,-0.48901569843292236,9.703699111938477,12.725830078125,21.97265625,-31.67724609375
2.5124999000000003,1.8997989892959595,-0.5452794432640076,9.627683639526367,4.730224609375,32.958984375,-41.32080078125
2.5174999000000002,1.3545196056365967,-0.5279214978218079,9.829395294189453,-8.087158203125,33.38623046875,-25.0244140625
2.5224999,0.7667431235313416,-0.20709845423698425,9.719860076904297,-6.89697265625,19.10400390625,-34.454345703125
2.5274999,-0.14903905987739563,0.14425064623355865,10.094552993774414,-6.683349609375,10.7421875,-40.435791015625
2.5324999000000004,-1.1210849285125732,-0.4489128291606903,9.932345390319824,-18.85986328125,11.29150390625,-25.634765625
2.5374999000000003,-1.3012486696243286,-0.05446808785200119,9.998186111450195,-14.404296875,-9.429931640625,-0.244140625
2.5424999,-1.3377602100372314,-0.1825578808784485,10.124480247497559,-11.23046875,-22.125244140625,29.388427734375
2.5474999,-0.43275195360183716,-0.6428431272506714,9.7605619430542,-17.7001953125,-16.66259765625,30.6396484375
2.5524999000000004,0.4596867263317108,-1.313219666481018,9.39903736114502,1.068115234375,-12.054443359375,37.53662109375
2.5574999000000003,1.0444705486297607,-2.0853497982025146,9.28531265258789,32.989501953125,-8.209228515625,49.407958984375
2.5624999,1.1468225717544556,-2.1320366859436035,9.126696586608887,29.6630859375,-4.69970703125,39.9169921875
2.5674999,1.0073603391647339,0.002992752008140087,9.915586471557617,1.15966796875,-0.42724609375,-18.61572265625
2.5724999,1.1641805171966553,0.7930793166160583,10.128670692443848,-6.683349609375,11.53564453125,-17.852783203125
2.5774999000000003,1.5155296325683594,0.3992331326007843,9.954492568969727,5.523681640625,21.087646484375,-17.486572265625
2.5824999,1.886630892753601,0.2621650993824005,9.947908401489258,18.646240234375,33.477783203125,-43.304443359375
2.5874999,1.6915035247802734,-0.42616790533065796,9.79647445678711,5.035400390625,35.5224609375,-37.872314453125
2.5924999,1.3401544094085693,-0.6703764796257019,9.725846290588379,-4.669189453125,25.146484375,-33.416748046875
2.5974999000000003,0.739209771156311,0.02992752194404602,9.900622367858887,-6.04248046875,9.979248046875,-49.37744140625
2.6024999,-0.5153518915176392,-0.6584054827690125,9.883264541625977,-22.430419921875,-1.89208984375,-35.94970703125
2.6074999,-0.5153518915176392,-0.6584054827690125,9.883264541625977,-22.430419921875,-1.89208984375,-35.94970703125
2.6124999,-1.2773065567016602,-0.46507367491722107,9.59715747833252,-13.3056640625,-2.716064453125,-7.843017578125
2.6174999000000003,-1.9087773561477661,-0.545877993106842,9.72165584564209,-3.326416015625,-20.44677734375,24.627685546875
2.6224999,-1.8064252138137817,-0.7805097699165344,9.549273490905762,-11.871337890625,-26.123046875,27.2216796875
2.6274999,-0.18734627962112427,-1.2779051065444946,9.551069259643555,12.51220703125,-12.14599609375,30.1513671875
2.6324999,0.6093243360519409,-1.512536883354187,9.500192642211914,21.484375,-7.110595703125,26.06201171875
2.6374999000000003,1.0558429956436157,-1.2120646238327026,9.636063575744629,15.625,-6.103515625,14.495849609375
2.6424999000000002,1.7968484163284302,0.37169981002807617,10.010157585144043,-3.173828125,15.13671875,-12.237548828125
2.6474999,1.7968484163284302,0.37169981002807617,10.010157585144043,-3.173828125,15.13671875,-12.237548828125
2.6524999,1.9422961473464966,0.0035913025494664907,9.8784761428833,12.176513671875,22.15576171875,-29.571533203125
2.6574999000000004,1.8034324645996094,-0.21428105235099792,9.807249069213867,12.176513671875,30.670166015625,-44.189453125
2.6624999000000003,1.3353660106658936,-0.7248445749282837,9.732429504394531,-1.15966796875,27.34375,-20.99609375
2.6674999,0.9666589498519897,-0.23403321206569672,9.450512886047363,-6.04248046875,13.458251953125,-32.073974609375
2.6724999,-0.10594342648983002,-0.1604115068912506,9.940725326538086,-18.890380859375,-2.62451171875,-35.430908203125
2.6774999000000004,-1.1097124814987183,-0.375291109085083,9.498396873474121,-22.064208984375,-2.532958984375,-19.4091796875
2.6824999000000003,-1.9596540927886963,-0.436343252658844,9.882067680358887,-10.009765625,-30.975341796875,32.8369140625
2.6874999,-1.9596540927886963,-0.436343252658844,9.882067680358887,-10.009765625,-30.975341796875,32.8369140625
2.6924999,-1.2551602125167847,-0.7200561761856079,9.654618263244629,-17.76123046875,-23.49853515625,22.613525390625
2.6974999,-0.33518823981285095,-1.0995371341705322,9.553462982177734,-3.11279296875,-15.19775390625,28.25927734375
2.7024999000000003,0.5207388401031494,-1.7411831617355347,9.548674583435059,25.08544921875,-10.1318359375,34.5458984375
2.7074999,1.0420763492584229,-1.8471266031265259,9.350554466247559,24.47509765625,-7.537841796875,25.57373046875
2.7124999,1.3617022037506104,-1.2982559204101562,9.589376449584961,15.44189453125,-4.21142578125,4.0283203125
2.7174999,1.643619418144226,-0.31184476613998413,9.895236015319824,2.0751953125,3.173828125,-16.29638671875
2.7224999000000003,1.7860745191574097,0.45848962664604187,10.119093894958496,-4.5166015625,14.16015625,-15.19775390625
2.7274999,1.9171570539474487,0.21667525172233582,9.934141159057617,1.800537109375,18.829345703125,-15.960693359375
2.7324999,1.9147628545761108,0.04668693244457245,10.000580787658691,15.0146484375,30.426025390625,-44.49462890625
2.7374999,1.566406488418579,-0.5506663918495178,9.738415718078613,9.09423828125,32.8369140625,-38.818359375
2.7424999000000003,-2.139219284057617,-0.03232172131538391,9.860519409179688,-12.20703125,-30.853271484375,28.74755859375
2.7474999,-1.6352397203445435,-0.5009866952896118,9.701305389404297,-13.092041015625,-30.120849609375,33.02001953125
2.7524999,-0.5201402902603149,-0.9696516990661621,9.336788177490234,-14.373779296875,-16.448974609375,25.421142578125
2.7574999,0.4902127981185913,-1.6328455209732056,9.345766067504883,16.876220703125,-10.711669921875,35.552978515625
2.7624999000000003,1.1073182821273804,-2.074575662612915,9.190741539001465,33.416748046875,-8.36181640625,37.29248046875
2.7674999000000002,1.2659341096878052,-1.7405846118927002,9.270947456359863,22.918701171875,-5.06591796875,17.39501953125
2.7724999,1.3784615993499756,-0.8080430626869202,9.697713851928711,10.406494140625,-0.06103515625,-9.8876953125
2.7774999,1.4443022012710571,0.2472013235092163,10.082581520080566,-2.288818359375,7.75146484375,-19.622802734375
2.7824999000000004,1.7950527667999268,0.4034229815006256,10.112509727478027,-4.94384765625,14.95361328125,-9.063720703125
2.7874999000000003,0.5776011347770691,-0.12389993667602539,9.924564361572266,-1.922607421875,5.55419921875,5.035400390625
2.7924999,-0.12030863761901855,0.10893617570400238,10.002376556396484,-13.458251953125,1.220703125,-24.749755859375
2.7974999,-0.47584760189056396,0.20530278980731964,10.097545623779297,-10.986328125,9.979248046875,-24.810791015625
2.8024999000000004,-0.7583633661270142,-0.4967968463897705,10.053851127624512,-7.781982421875,4.8828125,-9.94873046875
2.8074999000000003,-0.5117605924606323,-0.41958385705947876,9.600150108337402,-8.48388671875,-1.068115234375,-18.37158203125
2.8124999,-0.5901707410812378,-0.7823054194450378,9.87967300415039,0.18310546875,-8.48388671875,4.119873046875
2.8174999,-0.39384618401527405,-0.4572925269603729,9.65222454071045,-15.411376953125,-20.01953125,33.3251953125
2.8224999,0.01735796220600605,-0.48482584953308105,9.758167266845703,-18.768310546875,-16.41845703125,20.111083984375
2.8274999000000003,0.26096799969673157,-0.6560112833976746,9.668983459472656,2.25830078125,-11.53564453125,18.24951171875
2.8324999,0.5536591410636902,-1.217451572418213,9.580398559570312,16.05224609375,-5.340576171875,9.94873046875
2.8374999,0.6661866307258606,-1.3006501197814941,9.321226119995117,10.101318359375,-7.8125,15.045166015625
2.8424999,0.9313444495201111,-0.8637082576751709,9.660005569458008,7.9345703125,-0.67138671875,-4.45556640625
2.8474999000000003,1.115697979927063,-0.22266076505184174,9.935338973999023,3.814697265625,6.16455078125,-10.223388671875
2.8524999,1.1743559837341309,0.0867898091673851,10.06043529510498,1.77001953125,9.674072265625,-7.14111328125
2.8574999,1.3850456476211548,0.14903905987739563,10.046669006347656,-0.335693359375,9.82666015625,-10.6201171875
2.8624999,1.0989385843276978,0.16220717132091522,10.046070098876953,2.99072265625,18.37158203125,-26.397705078125
2.8674999000000003,0.7637503147125244,0,9.988609313964844,0.732421875,14.434814453125,-2.3193359375
2.8724999,0.4183867573738098,-0.06404489278793335,9.93593692779541,-5.340576171875,4.913330078125,-8.23974609375
2.8774999,0.04369417950510979,-0.1364694982767105,9.908403396606445,-5.0048828125,7.2021484375,-20.111083984375
2.8824999,-0.18315643072128296,-0.4578910768032074,9.84376049041748,-4.21142578125,8.72802734375,-13.946533203125
2.8874999000000003,-0.2537853717803955,-0.4728548228740692,9.683348655700684,-4.913330078125,6.7138671875,-18.035888671875
2.8924999000000002,-0.11971008777618408,-0.4800374507904053,9.806051254272461,-4.33349609375,-0.823974609375,-25.482177734375
2.8974999,-0.3603273630142212,-0.333991140127182,9.912593841552734,-11.627197265625,-9.307861328125,20.233154296875
2.9024999,0.08978256583213806,-0.7906851172447205,9.714473724365234,2.01416015625,-10.92529296875,8.36181640625
2.9074999000000004,0.4752490520477295,-1.2156559228897095,9.297284126281738,4.150390625,-6.53076171875,15.2587890625
2.9124999000000003,0.7433996200561523,-1.5598224401474,9.396642684936523,18.890380859375,-7.87353515625,26.123046875
2.9174999,0.8517372608184814,-1.5065513849258423,9.334992408752441,15.838623046875,-5.035400390625,12.63427734375
2.9224999,0.8690952062606812,-1.0408791303634644,9.59596061706543,10.711669921875,-0.701904296875,-3.082275390625
2.9274999000000004,0.8762778043746948,-0.48482584953308105,9.874286651611328,5.767822265625,3.753662109375,-9.918212890625
2.9324999000000003,0.8870517015457153,0.04908113554120064,10.061633110046387,2.9296875,7.171630859375,-5.2490234375
2.9374999,1.0492589473724365,0.12449848651885986,10.049661636352539,1.373291015625,7.904052734375,-7.537841796875
2.9424999,1.0301052331924438,0.2759317457675934,10.165182113647461,1.8310546875,14.6484375,-21.881103515625
2.9474999,0.6889315247535706,0.13048399984836578,10.01075553894043,3.2958984375,18.341064453125,-10.3759765625
2.9524999000000003,0.39624038338661194,0.12689268589019775,10.06582260131836,-5.401611328125,2.44140625,4.119873046875
2.9574999,-0.11192893236875534,-0.2364274114370346,9.864709854125977,-3.7841796875,5.79833984375,-13.885498046875
2.9624999,-0.025737667456269264,-0.5536591410636902,9.819818496704102,-3.2958984375,6.805419921875,-7.2021484375
2.9674999,-0.22924481332302094,-0.9139865040779114,9.731232643127441,-5.401611328125,6.04248046875,-13.85498046875
2.9724999000000003,0.05267243832349777,-0.6200982332229614,9.588777542114258,-5.584716796875,1.922607421875,-32.89794921875
2.9774999,-0.2968810200691223,-0.5099649429321289,9.895236015319824,-2.349853515625,-12.8173828125,14.678955078125
2.9824999,-0.05267243832349777,-0.15801730751991272,9.751583099365234,-21.331787109375,-18.310546875,29.296875
2.9874999,0.16160862147808075,-0.2495955228805542,9.948506355285645,-16.082763671875,-13.031005859375,11.138916015625
2.9924999000000003,0.32860419154167175,-0.43095630407333374,9.654618263244629,-1.8310546875,-11.627197265625,15.5029296875
2.9974999,0.4800374507904053,-1.0755951404571533,9.714473724365234,14.373779296875,-6.04248046875,11.5966796875
3.0024999,0.6266822814941406,-1.22642982006073,9.257181167602539,5.7373046875,-7.01904296875,12.603759765625
3.0074999,0.6260837316513062,-1.2018892765045166,9.589975357055664,15.13671875,-9.21630859375,16.17431640625
3.0124999000000003,0.7230489253997803,-0.9852139949798584,9.589376449584961,9.490966796875,-2.25830078125,-1.708984375
3.0174999000000002,0.8954314589500427,-0.058059390634298325,10.065223693847656,2.44140625,6.072998046875,-6.34765625
3.0224999,0.9995791912078857,0.04728548228740692,10.073603630065918,0.8544921875,8.72802734375,-10.284423828125
3.0274999,0.7529764175415039,-0.05746084079146385,10.030508041381836,1.861572265625,15.533447265625,-16.357421875
3.0324999000000004,0.585382342338562,-0.03411737456917763,9.948506355285645,-2.9296875,7.049560546875,-0.091552734375
3.0374999000000003,0.35913026332855225,-0.18136078119277954,9.925761222839355,-3.997802734375,2.8076171875,-11.53564453125
3.0424999,0.02214636653661728,-0.4345476031303406,9.64923095703125,-3.7841796875,10.19287109375,-31.3720703125
3.0474999,-0.12330138683319092,-0.545877993106842,9.931747436523438,-1.983642578125,-1.190185546875,-5.31005859375
3.0524999000000004,-0.1430535465478897,-0.22266076505184174,9.837775230407715,-16.845703125,-12.87841796875,23.468017578125
3.0574999000000003,-0.0520738884806633,-0.12330138683319092,9.870096206665039,-18.768310546875,-12.603759765625,12.237548828125
3.0624999,0.7182605266571045,-1.456871747970581,9.422979354858398,16.90673828125,-7.32421875,21.881103515625
3.0674999,0.6715735793113708,-1.347337007522583,9.388861656188965,13.092041015625,-6.2255859375,11.260986328125
3.0724999000000004,0.6087257862091064,-0.9894038438796997,9.625887870788574,11.749267578125,-4.180908203125,-0.579833984375
3.0774999000000003,0.6488286852836609,-0.5219359993934631,9.816825866699219,5.950927734375,0.396728515625,-7.8125
3.0824999,0.7876923680305481,-0.07422025501728058,9.99339771270752,3.72314453125,6.04248046875,-6.2255859375
3.0874999,0.9199720025062561,0.10115502029657364,10.082581520080566,2.349853515625,7.8125,-7.476806640625
3.0924999,1.0169371366500854,0.26755204796791077,10.078392028808594,0.701904296875,9.796142578125,-13.031005859375
3.0974999000000003,0.862511157989502,-0.026336219161748886,10.028712272644043,-0.396728515625,13.85498046875,-14.404296875
3.1024999,0.7457938194274902,-0.10773907601833344,9.911994934082031,1.89208984375,13.885498046875,-16.6015625
3.1074999,0.243011474609375,-0.243011474609375,9.871891975402832,-4.21142578125,11.138916015625,-17.120361328125
3.1124999,-0.02454056777060032,-0.13706804811954498,9.91977596282959,-11.29150390625,6.04248046875,-15.07568359375
3.1174999000000003,-0.3256114423274994,-0.047884032130241394,9.97364616394043,-14.617919921875,-4.33349609375,-7.293701171875
3.1224999,0.5452794432640076,-1.569997787475586,9.329007148742676,12.5732421875,-9.490966796875,23.773193359375
3.1274999,0.702099621295929,-1.6735470294952393,9.256582260131836,20.477294921875,-9.185791015625,23.49853515625
3.1324999,0.6979097723960876,-1.434126853942871,9.366715431213379,18.402099609375,-7.32421875,13.5498046875
3.1374999000000003,0.7248445749282837,-0.8864531517028809,9.667786598205566,13.12255859375,-3.2958984375,-1.373291015625
3.1424999000000002,0.8565256595611572,-0.2017114907503128,9.938331604003906,5.340576171875,1.739501953125,-10.07080078125
3.1474999,1.1971008777618408,0.4495113790035248,10.225635528564453,0.091552734375,11.04736328125,-11.627197265625
3.1524999,1.1558008193969727,0.2795230448246002,10.111311912536621,0.274658203125,16.17431640625,-23.223876953125
3.1574999000000004,1.0217255353927612,-0.019153613597154617,10.062231063842773,5.55419921875,21.820068359375,-30.2734375
3.1624999000000003,0.7547720670700073,-0.2454056739807129,9.8784761428833,2.532958984375,20.6298828125,-27.83203125
3.1674999,0.38905778527259827,-0.12629413604736328,9.960477828979492,-6.28662109375,14.556884765625,-23.590087890625
3.1724999,-0.14065934717655182,-0.01496376097202301,10.00836181640625,-16.693115234375,1.129150390625,-24.017333984375
3.1774999000000004,-0.6536170840263367,0.10235211998224258,10.04188060760498,-21.42333984375,-4.150390625,-23.956298828125
3.1824999000000003,-0.9199720025062561,-0.03411737456917763,9.953893661499023,-19.561767578125,-11.383056640625,1.068115234375
3.1874999,-0.8457517623901367,-0.41359832882881165,9.86111831665039,-17.15087890625,-23.98681640625,28.228759765625
3.1924999,-0.30466216802597046,-0.9798270463943481,9.642647743225098,-13.427734375,-22.88818359375,35.003662109375
3.1974999000000004,0.3423708379268646,-1.5831658840179443,9.276334762573242,-2.01416015625,-15.411376953125,33.966064453125
3.2024999000000003,0.7793126702308655,-2.070984363555908,9.118915557861328,23.773193359375,-13.458251953125,38.726806640625
3.2074999,0.7595604658126831,-1.6873136758804321,9.284713745117188,28.1982421875,-5.828857421875,23.590087890625
3.2124999,0.6937199234962463,-0.6859387755393982,9.73781681060791,12.87841796875,-2.0751953125,3.0517578125
3.2174999,0.6937199234962463,-0.6859387755393982,9.73781681060791,12.87841796875,-2.0751953125,3.0517578125
3.2224999000000003,0.8678981065750122,0.35494041442871094,10.193912506103516,0.701904296875,0.701904296875,-15.625
3.2274999,1.148618221282959,0.9038111567497253,10.457873344421387,-3.936767578125,10.68115234375,-17.364501953125
3.2324999,1.3736732006072998,0.7876923680305481,10.213066101074219,-0.732421875,16.6015625,-19.10400390625
3.2374999,1.3964180946350098,0.3423708379268646,10.163984298706055,5.9814453125,26.153564453125,-38.87939453125
3.2424999000000003,1.1079168319702148,-0.3321954905986786,9.807847023010254,4.974365234375,26.91650390625,-40.802001953125
3.2474999,0.7894880175590515,-0.05506663769483566,9.956287384033203,-1.739501953125,17.852783203125,-32.989501953125
3.2524999,0.017956512048840523,-0.17896658182144165,10.06701946258545,-20.294189453125,6.439208984375,-29.541015625
3.2574999,-0.689530074596405,0.1933317929506302,10.110713958740234,-24.169921875,0.274658203125,-25.57373046875
3.2624999000000003,-1.2066776752471924,-0.002992752008140087,10.00955867767334,-19.22607421875,-14.801025390625,-5.31005859375
3.2674999000000002,1.0552444458007812,-2.270900249481201,8.994417190551758,37.41455078125,-12.725830078125,47.760009765625
3.2724999,0.861314058303833,-1.8022353649139404,9.206304550170898,29.144287109375,-2.899169921875,35.064697265625
3.2774999,0.7595604658126831,-0.656609833240509,9.703699111938477,12.664794921875,2.105712890625,11.444091796875
3.2824999000000004,1.2306196689605713,1.0552444458007812,10.415974617004395,-6.89697265625,10.833740234375,-22.5830078125
3.2874999000000003,1.5089455842971802,0.8559271097183228,10.193912506103516,0.274658203125,20.3857421875,-24.627685546875
3.2924999,1.5340847969055176,0.22206220030784607,10.119093894958496,7.659912109375,28.900146484375,-43.243408203125
3.2974999,1.1929110288619995,-0.47884035110473633,9.753378868103027,4.0283203125,27.679443359375,-45.867919921875
3.3024999000000004,0.7374141216278076,-0.04728548228740692,10.001777648925781,-6.317138671875,13.5498046875,-39.703369140625
3.3074999000000003,-1.291671872138977,-0.27892449498176575,9.879075050354004,-18.341064453125,-30.57861328125,32.196044921875
3.3124999,-0.37409400939941406,-1.0456676483154297,9.547477722167969,-19.866943359375,-23.193359375,42.205810546875
3.3174999,0.6111199855804443,-1.8285715579986572,9.14345645904541,-0.823974609375,-15.31982421875,45.135498046875
3.3224999000000004,1.2384008169174194,-2.4827871322631836,8.844181060791016,35.003662109375,-16.204833984375,56.549072265625
3.3274999000000003,1.2755109071731567,-2.56000018119812,8.74960994720459,47.027587890625,-10.25390625,55.755615234375
3.3324999,0.9600749015808105,-1.7651251554489136,9.062651634216309,30.120849609375,4.119873046875,34.271240234375
3.3374999,0.7625532150268555,-0.3597288131713867,9.810839653015137,7.14111328125,3.35693359375,-1.007080078125
3.3424999,0.7978677153587341,0.8487445116043091,10.375871658325195,-7.110595703125,2.38037109375,-25.787353515625
3.3474999000000003,1.0743980407714844,1.217451572418213,10.532691955566406,-6.256103515625,15.289306640625,-22.857666015625
3.3524999,1.2880805730819702,0.8505401611328125,10.294468879699707,3.2958984375,25.20751953125,-35.7666015625
3.3574999,-1.0971429347991943,0.040701430290937424,9.965266227722168,-25.604248046875,-8.331298828125,-20.538330078125
3.3624999,-1.436521053314209,-0.2298433631658554,9.958083152770996,-18.12744140625,-28.045654296875,18.6767578125
3.3674999000000003,-0.9493009448051453,-0.760757565498352,9.730634689331055,-18.06640625,-29.693603515625,42.083740234375
3.3724999,0.03890577703714371,-1.4616601467132568,9.28650951385498,-12.75634765625,-19.22607421875,44.7998046875
3.3774999,0.8475474119186401,-2.1535844802856445,9.024344444274902,21.66748046875,-16.326904296875,54.19921875
3.3824999,1.173158884048462,-2.5049335956573486,8.82323169708252,46.81396484375,-14.923095703125,60.577392578125
3.3874999000000003,0.9726444482803345,-2.032078742980957,8.96149730682373,37.567138671875,-1.129150390625,46.44775390625
3.3924999000000002,0.7595604658126831,-0.7236474752426147,9.560646057128906,14.34326171875,6.40869140625,16.632080078125
3.3974999,0.7703344225883484,0.6278793811798096,10.234015464782715,-4.974365234375,-1.52587890625,-17.76123046875
3.4024999,1.3820528984069824,0.9247604012489319,10.271723747253418,1.739501953125,23.13232421875,-31.6162109375
3.4074999000000004,1.5490485429763794,0.15083470940589905,10.15021800994873,11.16943359375,32.012939453125,-49.835205078125
3.4124999000000003,1.2958617210388184,-0.6805518269538879,9.712677955627441,5.096435546875,27.03857421875,-44.25048828125
3.4174999,0.8708908557891846,-0.15562310814857483,9.93474006652832,-7.537841796875,14.34326171875,-39.24560546875
3.4224999,-0.16160862147808075,-0.15502455830574036,10.053851127624512,-27.89306640625,5.43212890625,-35.430908203125
3.4274999000000004,-0.9666589498519897,0.44352585077285767,10.096348762512207,-28.9306640625,-2.74658203125,-31.158447265625
3.4324999000000003,-1.5029600858688354,0.1280897855758667,9.965266227722168,-21.6064453125,-20.5078125,2.8076171875
3.4374999,-1.280897855758667,-0.45010992884635925,9.815628051757812,-17.88330078125,-32.77587890625,38.360595703125
3.4424999,-0.29867666959762573,-1.2856862545013428,9.3427734375,-16.693115234375,-22.15576171875,45.654296875
3.4474999000000004,0.7116764783859253,-2.0913352966308594,8.993818283081055,9.46044921875,-15.0146484375,51.727294921875
3.4524999000000003,1.2557587623596191,-2.667739152908325,8.775946617126465,43.76220703125,-14.801025390625,61.859130859375
3.4574999,0.8990227580070496,-1.224035620689392,9.315838813781738,21.3623046875,7.14111328125,21.575927734375
3.4624999,0.7697358727455139,0.29807811975479126,10.092158317565918,-0.8544921875,0.732421875,-14.617919921875
3.4674999,0.9020155072212219,1.2731167078018188,10.565611839294434,-10.68115234375,8.056640625,-28.045654296875
3.4724999000000003,1.2198457717895508,1.1037269830703735,10.370484352111816,0.30517578125,21.97265625,-28.86962890625
3.4774999,1.4496891498565674,0.5009866952896118,10.247182846069336,11.77978515625,33.3251953125,-50.628662109375
3.4824999,1.3305776119232178,-0.44532153010368347,9.830592155456543,7.781982421875,29.327392578125,-48.858642578125
3.4874999,1.048660397529602,-0.09038111567497253,9.859322547912598,-4.5166015625,15.289306640625,-44.677734375
3.4924999000000003,0.10295066982507706,-0.1364694982767105,10.11669921875,-28.045654296875,4.547119140625,-45.318603515625
3.4974999,-0.8086416125297546,0.406415730714798,10.096348762512207,-30.120849609375,-2.01416015625,-39.276123046875
3.5024999,-1.5191209316253662,0.035913024097681046,9.962273597717285,-23.101806640625,-16.11328125,-10.833740234375
3.5074999,-1.558625340461731,-0.4321534037590027,9.865906715393066,-18.85986328125,-33.8134765625,34.66796875
3.5124999000000003,-0.7056909799575806,-1.2324153184890747,9.443329811096191,-19.195556640625,-27.862548828125,47.576904296875
3.5174999000000002,1.1569979190826416,-2.6641478538513184,8.768165588378906,38.0859375,-15.838623046875,61.553955078125
3.5224999,1.0055646896362305,-1.701080322265625,9.09377670288086,30.09033203125,7.01904296875,37.17041015625
3.5274999,0.8457517623901367,-0.12988543510437012,9.91738224029541,5.31005859375,4.791259765625,-1.556396484375
3.5324999000000004,0.8972271084785461,1.0959458351135254,10.471040725708008,-9.6435546875,3.47900390625,-28.38134765625
3.5374999000000003,1.2587515115737915,1.2407950162887573,10.439916610717773,-3.082275390625,20.20263671875,-27.679443359375
3.5424999,1.5466543436050415,0.838569164276123,10.309432983398438,9.58251953125,32.440185546875,-44.7998046875
3.5474999,1.4730325937271118,-0.07900865375995636,9.96825885772705,9.33837890625,32.745361328125,-51.483154296875
3.5524999000000004,1.1725603342056274,-0.20051439106464386,9.642048835754395,-2.25830078125,17.39501953125,-50.10986328125
3.5574999000000003,0.2950853705406189,-0.13108254969120026,10.008959770202637,-24.169921875,4.486083984375,-54.01611328125
3.5624999,-0.7056909799575806,0.08559270948171616,9.804255485534668,-29.571533203125,-0.091552734375,-46.38671875
3.5674999,-1.490989089012146,-0.06703764945268631,9.938331604003906,-23.25439453125,-11.932373046875,-23.0712890625
3.5724999000000004,-1.0965443849563599,-1.0432734489440918,9.727641105651855,-16.937255859375,-32.989501953125,50.1708984375
3.5774999000000003,0.02513911761343479,-1.688510775566101,9.397241592407227,-8.148193359375,-22.552490234375,52.825927734375
3.5824999,0.9133879542350769,-2.2008697986602783,9.130288124084473,21.759033203125,-14.95361328125,53.619384765625
3.5874999,1.290474772453308,-2.408566951751709,8.993220329284668,44.43359375,-13.0615234375,56.7626953125
3.5924999,1.0229226350784302,-1.9075802564620972,9.16201114654541,36.31591796875,-2.01416015625,47.088623046875
3.5974999000000003,0.7547720670700073,-0.7428010702133179,9.624691009521484,15.716552734375,4.425048828125,18.49365234375
3.6024999,1.0959458351135254,1.1893197298049927,10.376470565795898,-8.514404296875,8.97216796875,-29.205322265625
3.6074999,1.5047557353973389,1.1354501247406006,10.208277702331543,-1.40380859375,27.28271484375,-40.435791015625
3.6124999,1.6304513216018677,0.47884035110473633,10.053253173828125,5.401611328125,36.529541015625,-56.45751953125
3.6174999000000003,1.3730746507644653,-0.008379706181585789,9.771934509277344,1.708984375,23.284912109375,-56.121826171875
3.6224999,0.578798234462738,-0.07182604819536209,10.081384658813477,-22.705078125,9.6435546875,-58.65478515625
3.6274999,-1.2384008169174194,-0.6272808313369751,10.173561096191406,-28.01513671875,-35.980224609375,44.0673828125
3.6324999,0.0071826050989329815,-1.0995371341705322,9.685144424438477,-24.505615234375,-27.374267578125,62.19482421875
3.6374999000000003,1.2761094570159912,-1.867477297782898,9.131484985351562,4.08935546875,-29.083251953125,84.89990234375
3.6424999000000002,2.056020736694336,-2.449268341064453,8.379107475280762,40.58837890625,-23.193359375,89.569091796875
3.6474999,2.1080946922302246,-2.497152328491211,8.22767448425293,62.68310546875,-15.380859375,87.554931640625
3.6524999,1.4927847385406494,-1.96683669090271,8.548497200012207,44.00634765625,-0.06103515625,68.115234375
3.6574999000000004,0.7547720670700073,-0.9235633015632629,9.453505516052246,16.937255859375,9.368896484375,18.585205078125
3.6624999000000003,0.27234044671058655,0.24660277366638184,10.305841445922852,-0.06103515625,3.0517578125,-31.158447265625
3.6674999,0.3471592366695404,1.1180921792984009,10.649409294128418,-6.683349609375,16.05224609375,-45.867919921875
3.6724999,0.6727706789970398,1.3611036539077759,10.66137981414795,-11.41357421875,38.6962890625,-58.837890625
3.6774999000000004,0.5237316489219666,0.730231523513794,10.518924713134766,-15.716552734375,25.2685546875,-78.338623046875
3.6824999000000003,-0.18375498056411743,0.5512649416923523,10.47942066192627,-29.78515625,8.48388671875,-86.944580078125
3.6874999,-1.0157400369644165,0.09397241473197937,10.549450874328613,-38.238525390625,0.91552734375,-77.57568359375
3.6924999,-1.1701661348342896,-0.05985504388809204,10.354323387145996,-42.327880859375,-9.8876953125,-27.313232421875
3.6974999000000004,-0.6542156338691711,-0.6236895322799683,10.404003143310547,-41.107177734375,-28.594970703125,32.04345703125
3.7024999000000003,0.5871779918670654,-0.8708908557891846,10.071209907531738,-40.10009765625,-28.289794921875,69.51904296875
3.7074999,1.8291701078414917,-1.8614917993545532,9.566033363342285,-23.468017578125,-26.79443359375,94.7265625
3.7124999,2.6575639247894287,-2.301426410675049,8.553884506225586,10.894775390625,-19.8974609375,101.959228515625
3.7174999,2.6431987285614014,-2.7760767936706543,7.503427982330322,52.55126953125,-22.5830078125,105.28564453125
3.7224999000000003,1.9943699836730957,-2.6862943172454834,7.119158744812012,80.2001953125,-21.697998046875,95.27587890625
3.7274999,1.0283095836639404,-2.2038626670837402,7.7763671875,68.145751953125,-6.591796875,69.793701171875
3.7324999,0.11552023142576218,-1.2617442607879639,9.112930297851562,26.580810546875,11.871337890625,16.4794921875
3.7374999,-0.7559691667556763,0.7769184708595276,11.325172424316406,-3.5400390625,22.03369140625,-49.6826171875
3.7424999000000003,-0.6859387755393982,1.3682862520217896,11.363479614257812,-7.14111328125,30.670166015625,-62.225341796875
3.7474999,-0.46507367491722107,1.2892776727676392,11.033679008483887,-4.425048828125,34.271240234375,-77.178955078125
3.7524999,-0.32381579279899597,0.7080851793289185,10.671555519104004,-4.791259765625,22.94921875,-92.010498046875
3.7574999,-0.4016273319721222,0.33039984107017517,10.295665740966797,-16.54052734375,11.199951171875,-99.945068359375
3.7624999000000003,-0.6661866307258606,-0.11013327538967133,10.13525390625,-24.35302734375,1.495361328125,-78.9794921875
3.7674999000000002,-0.7050924301147461,-0.4339490532875061,9.90361499786377,-27.374267578125,-10.7421875,-30.181884765625
3.7724999,-0.26396074891090393,-0.3585317134857178,10.119093894958496,-23.92578125,-30.33447265625,27.40478515625
3.7774999,0.5027823448181152,-0.8349778652191162,10.120888710021973,-31.6162109375,-24.810791015625,45.7763671875
3.7824999000000004,1.4856021404266357,-1.1857284307479858,9.718064308166504,-24.90234375,-25.665283203125,70.25146484375
3.7874999000000003,2.2164323329925537,-1.713649868965149,9.147645950317383,14.984130859375,-31.524658203125,97.10693359375
3.7924999,2.382230758666992,-2.295440912246704,8.297704696655273,46.56982421875,-21.05712890625,87.646484375
3.7974999,2.033874273300171,-2.4235305786132812,8.109161376953125,55.48095703125,-6.378173828125,64.300537109375
3.8024999000000004,1.3311761617660522,-2.1481974124908447,8.455721855163574,37.353515625,7.4462890625,35.5224609375
3.8074999000000003,0.5925649404525757,-1.3706804513931274,9.329007148742676,21.636962890625,12.359619140625,-4.5166015625
3.8124999,0.1951274424791336,-0.29209262132644653,10.162787437438965,11.8408203125,16.448974609375,-33.935546875
3.8174999,0.26755204796791077,0.6871358752250671,10.623671531677246,2.593994140625,22.796630859375,-33.782958984375
3.8224999000000004,0.5273229479789734,1.1641805171966553,10.720038414001465,-4.7607421875,32.928466796875,-41.259765625
3.8274999000000003,0.6769605278968811,1.204882025718689,10.663774490356445,-1.52587890625,39.398193359375,-57.037353515625
3.8324999,0.35673606395721436,0.8289923667907715,10.408791542053223,-1.89208984375,22.247314453125,-66.71142578125
3.8374999,0.35673606395721436,0.8289923667907715,10.408791542053223,-1.89208984375,22.247314453125,-66.71142578125
3.8424999,0.41120412945747375,-0.761954665184021,9.931747436523438,-26.06201171875,-23.406982421875,44.25048828125
3.8474999000000003,0.41120412945747375,-0.761954665184021,9.931747436523438,-26.06201171875,-23.406982421875,44.25048828125
3.8524999,1.5394717454910278,-1.2288240194320679,9.518148422241211,-10.55908203125,-19.8974609375,58.258056640625
3.8574999,2.1505916118621826,-2.054823637008667,8.8878755569458,29.1748046875,-22.857666015625,74.249267578125
3.8624999,2.1481974124908447,-2.4881742000579834,8.430583000183105,52.67333984375,-11.474609375,64.14794921875
3.8674999000000003,1.625662922859192,-2.3989901542663574,8.493430137634277,41.9921875,1.251220703125,39.6728515625
3.8724999,0.9666589498519897,-1.7274165153503418,9.08719253540039,21.17919921875,8.7890625,2.960205078125
3.8774999,0.5656301379203796,-0.6380547285079956,9.883264541625977,11.65771484375,8.331298828125,-27.191162109375
3.8824999,0.5692214369773865,0.4129997789859772,10.381258964538574,3.662109375,15.289306640625,-25.634765625
3.8874999000000003,0.8924387097358704,1.0223240852355957,10.469843864440918,-0.79345703125,23.4375,-23.25439453125
3.8924999000000002,1.106719732284546,1.1115081310272217,10.54406452178955,-1.007080078125,35.980224609375,-45.0439453125
3.8974999,0.9002198576927185,0.8277952671051025,10.35372543334961,0.030517578125,34.393310546875,-54.473876953125
3.9024999,-0.3423708379268646,-0.9846154451370239,9.780912399291992,-19.71435546875,-31.402587890625,51.3916015625
3.9074999000000004,0.9367313981056213,-1.5406688451766968,9.52114200592041,-10.955810546875,-23.773193359375,56.0302734375
3.9124999000000003,1.8405425548553467,-2.1697452068328857,9.005789756774902,17.730712890625,-17.822265625,59.356689453125
3.9174999,2.1493945121765137,-2.5683798789978027,8.644864082336426,47.698974609375,-13.702392578125,62.6220703125
3.9224999,1.1091139316558838,-1.7980455160140991,9.100360870361328,27.679443359375,10.92529296875,20.69091796875
3.9274999000000004,1.1091139316558838,-1.7980455160140991,9.100360870361328,27.679443359375,10.92529296875,20.69091796875
3.9324999000000003,0.7595604658126831,-0.5602431893348694,9.868300437927246,12.0849609375,6.8359375,-18.096923828125
3.9374999,0.8978256583213806,0.5817909836769104,10.301651000976562,0.06103515625,12.054443359375,-30.548095703125
3.9424999,1.755548357963562,1.0791864395141602,10.323199272155762,6.439208984375,40.740966796875,-39.093017578125
3.9474999000000004,1.5622166395187378,0.44352585077285767,10.163984298706055,3.2958984375,36.346435546875,-50.23193359375
3.9524999000000003,0.8750807046890259,0.6045359373092651,10.140641212463379,-6.7138671875,13.85498046875,-63.8427734375
3.9574999,-0.43335050344467163,0.28969839215278625,10.20887565612793,-30.670166015625,1.739501953125,-71.990966796875
3.9624999,-1.6789339780807495,0.5829881429672241,10.231022834777832,-28.1982421875,-3.082275390625,-61.737060546875
3.9674999000000004,-2.4576480388641357,0.33039984107017517,10.021530151367188,-26.885986328125,-15.533447265625,-29.449462890625
3.9724999000000003,-2.3924059867858887,-0.050876785069704056,10.098742485046387,-21.392822265625,-36.07177734375,22.88818359375
3.9774999,-1.348534107208252,-0.5644330382347107,9.910798072814941,-22.125244140625,-38.2080078125,49.957275390625
3.9824999,0.23523031175136566,-1.3204022645950317,9.625887870788574,-17.822265625,-25.604248046875,48.553466796875
3.9874999,1.6077064275741577,-2.146401882171631,9.109338760375977,12.6953125,-18.646240234375,54.168701171875
3.9924999000000003,2.3295583724975586,-2.8574798107147217,8.67598819732666,49.346923828125,-16.54052734375,66.925048828125
3.9974999,2.166153907775879,-2.962824583053589,8.596980094909668,50.6591796875,-0.3662109375,60.1806640625
4.0024999,1.4562731981277466,1.2072762250900269,10.360309600830078,-1.678466796875,30.181884765625,-30.2734375
4.0074999,1.756745457649231,1.2563573122024536,10.301651000976562,6.072998046875,41.412353515625,-41.68701171875
4.0124999,1.5352818965911865,0.5225345492362976,10.136451721191406,3.143310546875,35.491943359375,-53.3447265625
4.0174999,0.8361749649047852,0.6278793811798096,10.132261276245117,-8.514404296875,12.420654296875,-66.986083984375
4.022499900000001,-0.5081692934036255,0.26994624733924866,10.218452453613281,-34.088134765625,0.42724609375,-72.723388671875
4.0274999000000005,-1.7884687185287476,0.5524620413780212,10.208277702331543,-30.029296875,-4.241943359375,-62.07275390625
4.0324999,-2.631826162338257,0.24839842319488525,10.013748168945312,-27.557373046875,-18.49365234375,-29.022216796875
4.0374999,-2.5743653774261475,-0.1256955862045288,10.038887977600098,-21.392822265625,-38.26904296875,25.543212890625
4.0424999,-1.4927847385406494,-0.6913257241249084,9.864709854125977,-20.263671875,-42.327880859375,55.23681640625
4.0474999,0.17477671802043915,-1.3389573097229004,9.589376449584961,-16.54052734375,-28.38134765625,54.13818359375
4.0524999,2.430713176727295,-2.7533318996429443,8.694543838500977,50.201416015625,-17.181396484375,74.127197265625
4.0574999,2.2649147510528564,-2.825756549835205,8.621520042419434,50.201416015625,2.3193359375,70.068359375
4.062499900000001,1.6124948263168335,-2.167949676513672,9.02135181427002,30.853271484375,21.05712890625,35.980224609375
4.0674999000000005,1.062427043914795,-0.7852981686592102,9.819818496704102,13.36669921875,11.41357421875,-8.23974609375
4.0724999,1.0372878313064575,0.47225627303123474,10.225635528564453,-2.197265625,7.50732421875,-33.26416015625
4.0774999,1.4389152526855469,1.0977414846420288,10.300454139709473,-2.38037109375,30.2734375,-36.31591796875
4.0824999,1.8267759084701538,1.1959037780761719,10.2561616897583,5.31005859375,42.96875,-44.3115234375
4.0874999,1.6268600225448608,0.5207388401031494,10.096348762512207,2.50244140625,37.200927734375,-52.490234375
4.0924999,0.8631097078323364,0.811634361743927,10.174758911132812,-9.6435546875,12.87841796875,-65.85693359375
4.0974999,-0.6165069341659546,0.3824737071990967,10.304045677185059,-35.0341796875,0.732421875,-72.20458984375
4.1024999,-1.9698294401168823,0.7817068696022034,10.294468879699707,-30.94482421875,-3.60107421875,-61.126708984375
4.1074999000000005,-2.7664999961853027,0.34835633635520935,10.11550235748291,-27.7099609375,-20.99609375,-26.031494140625
4.1124999,2.255936622619629,-2.870049238204956,8.539519309997559,52.825927734375,5.92041015625,78.369140625
4.1174999,1.5005658864974976,-2.191891670227051,8.972270965576172,31.890869140625,23.3154296875,40.771484375
4.1224999,0.9289502501487732,-0.8038532137870789,9.797672271728516,12.786865234375,11.505126953125,-6.53076171875
4.1274999,0.9564836025238037,0.4531026780605316,10.23880386352539,-2.8076171875,6.256103515625,-34.576416015625
4.1324999,1.4562731981277466,1.1091139316558838,10.308235168457031,-2.105712890625,31.1279296875,-38.726806640625
4.1374999,1.9381062984466553,1.1863269805908203,10.253169059753418,4.364013671875,45.166015625,-47.515869140625
4.1424999,1.7920600175857544,0.5560533404350281,10.091560363769531,2.01416015625,40.374755859375,-57.0068359375
4.147499900000001,1.0259153842926025,0.8415619134902954,10.177751541137695,-9.94873046875,13.763427734375,-69.061279296875
4.1524999000000005,-1.9602526426315308,0.7781155705451965,10.259154319763184,-32.1044921875,-3.631591796875,-65.185546875
4.1574999,-2.8413188457489014,0.37169981002807617,10.070611000061035,-29.510498046875,-21.6064453125,-31.158447265625
4.1624999,-2.674921751022339,-0.13168109953403473,10.06582260131836,-22.247314453125,-39.459228515625,24.10888671875
4.1674999,-1.380257248878479,-0.739209771156311,9.874286651611328,-23.37646484375,-41.8701171875,55.145263671875
4.1724999,0.4818331003189087,-1.5041571855545044,9.59177017211914,-18.00537109375,-26.4892578125,56.884765625
4.1774999,2.0608091354370117,-2.3343467712402344,9.00399398803711,15.533447265625,-20.599365234375,66.253662109375
4.1824999,2.7449522018432617,-3.026869535446167,8.524555206298828,55.7861328125,-17.7001953125,80.99365234375
4.187499900000001,2.4408886432647705,-3.0615854263305664,8.471882820129395,58.441162109375,5.37109375,74.005126953125
4.1924999000000005,1.625662922859192,-2.2451627254486084,8.940547943115234,33.0810546875,26.0009765625,35.46142578125
4.1974999,0.9642647504806519,-0.6991068720817566,9.837775230407715,11.199951171875,11.90185546875,-12.664794921875
4.2024999,0.8810662031173706,0.679354727268219,10.339360237121582,-3.631591796875,9.613037109375,-36.224365234375
4.2074999,1.470638394355774,0.5931634902954102,10.155006408691406,1.89208984375,35.5224609375,-59.814453125
4.2124999,0.7308300733566284,0.8337807655334473,10.213066101074219,-12.75634765625,10.284423828125,-72.906494140625
4.2174999,-0.6883329749107361,0.3471592366695404,10.271723747253418,-34.97314453125,0.3662109375,-75.958251953125
4.2224999,-2.0404584407806396,0.7368155717849731,10.217854499816895,-32.745361328125,-6.28662109375,-64.75830078125
4.2274999,-2.846705913543701,0.28311434388160706,10.046669006347656,-28.839111328125,-23.529052734375,-26.885986328125
4.2324999000000005,-2.6132712364196777,-0.15981295704841614,10.062829971313477,-21.54541015625,-42.1142578125,29.84619140625
4.2374999,-1.2988544702529907,-0.823006808757782,9.911994934082031,-24.566650390625,-43.121337890625,56.5185546875
4.2424999,2.3582887649536133,-3.0202853679656982,8.440757751464844,57.952880859375,9.735107421875,82.183837890625
4.2474999,0.910993754863739,-0.5937620401382446,9.913790702819824,9.857177734375,10.101318359375,-7.781982421875
4.2524999,0.900818407535553,0.7463923692703247,10.370484352111816,-5.31005859375,5.92041015625,-35.400390625
4.2574999,1.3413515090942383,1.423951506614685,10.42076301574707,-2.532958984375,31.25,-39.886474609375
4.2624999,1.7537527084350586,1.3551181554794312,10.3148193359375,1.922607421875,43.9453125,-49.285888671875
4.2674999,1.569997787475586,0.6206967830657959,10.092158317565918,1.708984375,37.90283203125,-59.722900390625
4.272499900000001,0.7026981711387634,0.849941611289978,10.253767013549805,-15.0146484375,10.711669921875,-70.220947265625
4.2774999000000005,-0.7846996188163757,0.3734954595565796,10.332776069641113,-34.66796875,1.89208984375,-72.479248046875
4.2824999,-2.1727380752563477,0.7643488645553589,10.341156005859375,-34.48486328125,-7.2021484375,-63.140869140625
4.2874999,-2.8634653091430664,0.292691171169281,10.126874923706055,-32.1044921875,-25.0244140625,-24.7802734375
4.2924999,-2.455253839492798,-0.1909375786781311,10.08078670501709,-23.193359375,-42.388916015625,29.876708984375
4.2974999,-0.9804255962371826,-0.961870551109314,9.848548889160156,-24.71923828125,-41.1376953125,56.976318359375
4.3024999,0.9277531504631042,-1.7070658206939697,9.4636812210083,-16.845703125,-26.79443359375,63.17138671875
4.3074999,0.7128735780715942,-0.44771572947502136,9.990405082702637,8.7890625,9.46044921875,-11.5966796875
4.312499900000001,0.7212532758712769,0.8918401598930359,10.471639633178711,-5.462646484375,7.293701171875,-37.29248046875
4.3174999000000005,1.213860273361206,1.5382746458053589,10.503362655639648,-1.953125,32.989501953125,-41.412353515625
4.3224999,0.7092822790145874,0.7829039692878723,10.284293174743652,-16.05224609375,9.27734375,-74.432373046875
4.3274999,-0.7469909191131592,0.32022446393966675,10.2962646484375,-34.36279296875,1.8310546875,-75.653076171875
4.3324999,-2.123656988143921,0.656609833240509,10.302249908447266,-33.172607421875,-7.904052734375,-63.232421875
4.3374999,-2.8125884532928467,0.21188685297966003,10.06582260131836,-28.839111328125,-25.634765625,-21.30126953125
4.3424999,-0.9876081943511963,-0.9780313968658447,9.809642791748047,-24.566650390625,-40.435791015625,57.098388671875
4.3474999,0.8631097078323364,-1.6927006244659424,9.426570892333984,-14.6484375,-26.153564453125,61.248779296875
4.352499900000001,2.296039342880249,-2.5330653190612793,8.803479194641113,26.092529296875,-23.74267578125,76.629638671875
4.3574999000000005,2.7503392696380615,-3.113659381866455,8.388684272766113,63.3544921875,-15.960693359375,89.691162109375
4.3624999,2.2613234519958496,-2.964620351791382,8.452729225158691,55.72509765625,13.73291015625,75.8056640625
4.3674999,1.3952209949493408,-1.968033790588379,9.081805229187012,28.350830078125,26.30615234375,32.073974609375
4.3724999,0.8301894664764404,-0.3531447649002075,10.034697532653809,7.415771484375,7.8125,-15.838623046875
4.3774999,0.8822633028030396,0.8966285586357117,10.441712379455566,-5.615234375,10.284423828125,-37.689208984375
4.3824999,1.368884801864624,1.492186188697815,10.460267066955566,-0.6103515625,33.8134765625,-39.55078125
4.3874999,1.7082629203796387,1.3000515699386597,10.33098030090332,2.593994140625,44.036865234375,-50.262451171875
4.3924999,1.4616601467132568,0.5829881429672241,10.095151901245117,1.15966796875,33.538818359375,-61.676025390625
4.397499900000001,0.5015852451324463,0.7649474143981934,10.272322654724121,-18.49365234375,6.500244140625,-73.028564453125
4.4024999000000005,-2.853888511657715,0.1388636976480484,10.026318550109863,-26.9775390625,-27.83203125,-14.22119140625
4.4074999,-2.342127799987793,-0.37409400939941406,9.98681354522705,-19.561767578125,-44.25048828125,37.841796875
4.4124999,-0.8104372620582581,-1.1510124206542969,9.756970405578613,-22.5830078125,-38.177490234375,55.511474609375
4.4174999,1.0145429372787476,-1.824381709098816,9.363722801208496,-9.735107421875,-25.909423828125,62.1337890625
4.4224999,2.3307554721832275,-2.630629062652588,8.805274963378906,32.623291015625,-25.360107421875,79.132080078125
4.4274999,2.6408045291900635,-3.0406360626220703,8.504204750061035,62.92724609375,-12.298583984375,90.423583984375
4.4324999,2.07397723197937,-2.738368272781372,8.601768493652344,47.760009765625,19.47021484375,72.723388671875
4.437499900000001,1.2509703636169434,-1.6166846752166748,9.278130531311035,23.895263671875,24.169921875,28.50341796875
4.4424999000000005,0.8176198601722717,-0.03770867735147476,10.10173511505127,4.852294921875,4.119873046875,-17.333984375
4.4474999,1.01753568649292,1.061229944229126,10.362703323364258,-6.7138671875,11.90185546875,-37.2314453125
4.4524999,0.43095630407333374,0.6703764796257019,10.292074203491211,-21.240234375,4.852294921875,-71.533203125
4.4574999,-1.1097124814987183,0.41359832882881165,10.2962646484375,-34.912109375,1.953125,-70.587158203125
4.4624999,-2.431910276412964,0.7056909799575806,10.3734769821167,-34.3017578125,-10.345458984375,-54.74853515625
4.4674999,-2.9083564281463623,0.22685061395168304,10.14902114868164,-29.052734375,-29.022216796875,-11.016845703125
4.4724999,-2.2810757160186768,-0.28969839215278625,10.108918190002441,-22.8271484375,-44.921875,38.604736328125
4.477499900000001,-0.6314706802368164,-1.149815320968628,9.786299705505371,-25.482177734375,-36.224365234375,55.35888671875
4.4824999000000005,1.6789339780807495,1.2030863761901855,10.318410873413086,1.739501953125,44.677734375,-52.581787109375
4.4874999,1.3395558595657349,0.8170213103294373,10.038289070129395,0.244140625,29.144287109375,-64.361572265625
4.4924999,0.24779987335205078,0.7182605266571045,10.298060417175293,-25.08544921875,4.913330078125,-74.310302734375
4.4974999,-1.247977614402771,0.6015431880950928,10.211869239807129,-34.088134765625,2.3193359375,-72.8759765625
4.5024999,-2.4833858013153076,0.5925649404525757,10.271124839782715,-34.7900390625,-13.092041015625,-53.22265625
4.5074999,-2.801215887069702,-0.002394201699644327,10.15021800994873,-28.13720703125,-31.92138671875,-4.45556640625
4.5124999,-2.0428526401519775,-0.5446808934211731,10.128670692443848,-23.25439453125,-45.013427734375,43.212890625
4.5174999,-0.3106476664543152,-1.389235496520996,9.817423820495605,-26.275634765625,-34.881591796875,57.586669921875
4.522499900000001,1.523909330368042,-2.115875720977783,9.291297912597656,-5.889892578125,-25.054931640625,68.115234375
4.5274999000000005,2.7539305686950684,-3.28963303565979,8.2127103805542,72.08251953125,-10.31494140625,96.8017578125
4.5324999,2.7539305686950684,-3.28963303565979,8.2127103805542,72.08251953125,-10.31494140625,96.8017578125
4.5374999,1.9800047874450684,-2.7952303886413574,8.422801971435547,52.337646484375,23.13232421875,72.69287109375
4.5424999,1.0582371950149536,-1.4634557962417603,9.305663108825684,21.514892578125,24.810791015625,21.6064453125
4.5474999,0.6206967830657959,0.20470423996448517,10.242993354797363,0.79345703125,2.593994140625,-25.20751953125
4.5524999,0.8678981065750122,1.2874820232391357,10.536283493041992,-6.89697265625,15.625,-39.97802734375
4.5574999,1.4496891498565674,1.6424223184585571,10.48061752319336,1.007080078125,38.787841796875,-43.212890625
4.562499900000001,1.3239935636520386,0.9421183466911316,9.961075782775879,-1.15966796875,26.275634765625,-68.511962890625
4.5674999000000005,0.13108254969120026,0.7068880796432495,10.250176429748535,-29.4189453125,4.180908203125,-76.904296875
4.5724999,-1.3431471586227417,0.7410054206848145,10.153809547424316,-33.69140625,1.861572265625,-75.836181640625
4.5774999,-2.588730573654175,0.44592007994651794,10.252570152282715,-34.60693359375,-15.228271484375,-50.384521484375
4.5824999,-1.9752163887023926,-0.8068459630012512,10.119093894958496,-20.5078125,-44.37255859375,46.295166015625
4.5874999,-0.1735796183347702,-1.6879122257232666,9.761758804321289,-21.240234375,-33.99658203125,57.67822265625
4.5924999,1.6400281190872192,-2.3912088871002197,9.147047996520996,0.396728515625,-25.848388671875,70.159912109375
4.5974999,2.7246015071868896,-3.2154128551483154,8.478466987609863,50.628662109375,-24.35302734375,89.141845703125
4.602499900000001,2.693476915359497,-3.3674447536468506,8.308478355407715,74.27978515625,-2.471923828125,96.86279296875
4.6074999000000005,1.8938134908676147,-2.626439332962036,8.58620548248291,46.173095703125,30.82275390625,68.2373046875
4.6124999,1.0564415454864502,-1.0791864395141602,9.55466079711914,16.082763671875,22.796630859375,13.61083984375
4.6174999,0.7320271730422974,0.585382342338562,10.360309600830078,-1.495361328125,1.800537109375,-29.84619140625
4.6224999,1.0989385843276978,1.50355863571167,10.523713111877441,-4.94384765625,21.3623046875,-38.970947265625
4.6274999,1.6615760326385498,1.6717513799667358,10.395025253295898,3.631591796875,41.8701171875,-45.745849609375
4.6324999,1.834557056427002,1.0247182846069336,10.22144603729248,1.922607421875,43.853759765625,-62.744140625
4.6374999,1.3491326570510864,0.9139865040779114,9.854534149169922,-3.875732421875,20.6298828125,-74.89013671875
4.6424999,-1.5478514432907104,0.524330198764801,9.999981880187988,-34.088134765625,0.213623046875,-75.408935546875
4.647499900000001,-2.8341362476348877,0.2555810213088989,9.960477828979492,-32.501220703125,-17.7001953125,-46.539306640625
4.6524999000000005,-3.069366693496704,-0.42437225580215454,9.95090103149414,-22.88818359375,-38.665771484375,8.6669921875
4.6574999,-2.1787235736846924,-0.9403226971626282,9.948506355285645,-16.510009765625,-44.86083984375,48.7060546875
4.6624999,-0.32620999217033386,-1.5963339805603027,9.695918083190918,-21.697998046875,-34.48486328125,56.82373046875
4.6674999,1.5286977291107178,-2.18770170211792,9.262567520141602,3.0517578125,-28.564453125,70.098876953125
4.6724999,2.6623523235321045,-2.891597032546997,8.7298583984375,50.201416015625,-23.101806640625,89.691162109375
4.6774999,2.690484046936035,-2.962226152420044,8.53652572631836,64.5751953125,3.326416015625,95.52001953125
4.6824999,1.9877859354019165,-2.270900249481201,8.810662269592285,39.520263671875,30.975341796875,64.727783203125
4.687499900000001,1.2563573122024536,-0.8846575021743774,9.657610893249512,14.923095703125,20.599365234375,10.650634765625
4.6924999000000005,0.9888052940368652,0.5746083855628967,10.278307914733887,-2.3193359375,3.35693359375,-30.426025390625
4.6974999,1.3299790620803833,1.335964560508728,10.395025253295898,-3.84521484375,24.505615234375,-37.933349609375
4.7024999,1.809417963027954,0.910993754863739,10.153210639953613,1.129150390625,42.510986328125,-64.94140625
4.7074999,1.2156559228897095,0.8864531517028809,9.99339771270752,-6.9580078125,19.4091796875,-78.216552734375
4.7124999,-0.2124854028224945,0.7553706169128418,10.248978614807129,-37.322998046875,1.220703125,-84.16748046875
4.7174999,-1.7208324670791626,0.862511157989502,10.198700904846191,-36.590576171875,-1.8310546875,-79.2236328125
4.7224999,-2.959831953048706,0.5105634927749634,10.220248222351074,-38.87939453125,-19.805908203125,-47.271728515625
4.727499900000001,-3.049614429473877,-0.11791443079710007,10.096946716308594,-34.027099609375,-40.130615234375,10.31494140625
4.7324999000000005,-1.9931728839874268,-0.8463503122329712,9.99220085144043,-24.10888671875,-45.22705078125,49.37744140625
4.7374999,-0.014365210197865963,-1.8405425548553467,9.663596153259277,-21.453857421875,-32.470703125,58.990478515625
4.7424999,1.9087773561477661,-2.5905263423919678,8.945934295654297,1.708984375,-26.4892578125,74.462890625
4.7474999,3.0119056701660156,-3.4356794357299805,8.160636901855469,55.11474609375,-24.017333984375,97.625732421875
4.7524999,2.934094190597534,-3.5865142345428467,8.057086944580078,83.282470703125,-2.166748046875,104.522705078125
4.7574999,2.050633668899536,-2.722805976867676,8.454524993896484,52.337646484375,31.829833984375,70.556640625
4.7624999,-1.502361536026001,0.9307458996772766,10.17176628112793,-37.2314453125,-1.3427734375,-79.742431640625
4.7674999,-2.719214677810669,0.7398083209991455,10.264541625976562,-38.818359375,-18.49365234375,-50.10986328125
4.772499900000001,-2.87064790725708,0.10295066982507706,10.18493366241455,-37.353515625,-39.764404296875,7.8125
4.7774999000000005,-1.8974047899246216,-0.6625953316688538,10.116100311279297,-32.77587890625,-44.952392578125,45.684814453125
4.7824999,0.03172317147254944,-1.6041151285171509,9.706093788146973,-25.726318359375,-32.012939453125,59.14306640625
4.7874999,1.935113549232483,-2.624643564224243,8.970475196838379,-0.54931640625,-24.23095703125,72.32666015625
4.7924999,3.0885202884674072,-3.797802448272705,7.733271598815918,85.601806640625,-8.85009765625,103.45458984375
4.7974999,2.2224178314208984,-3.0621838569641113,8.201936721801758,62.957763671875,25.604248046875,70.953369140625
4.8024999,1.1725603342056274,-1.4036006927490234,9.272144317626953,19.073486328125,29.083251953125,12.3291015625
4.8074999,0.558447539806366,0.39564183354377747,10.47702693939209,-1.251220703125,7.32421875,-31.25
4.812499900000001,0.5811924338340759,1.6041151285171509,10.867281913757324,-4.69970703125,21.148681640625,-38.51318359375
4.8174999000000005,0.9355342984199524,1.9698294401168823,10.733205795288086,-0.030517578125,38.2080078125,-46.44775390625
4.8224999,1.1127052307128906,1.3736732006072998,10.505158424377441,0.030517578125,41.168212890625,-66.680908203125
4.8274999,0.8134300112724304,1.191115379333496,10.3148193359375,-5.31005859375,21.728515625,-79.58984375
4.8324999,-0.2585737705230713,0.811634361743927,10.292074203491211,-35.614013671875,2.777099609375,-85.87646484375
4.8374999,-1.4700398445129395,0.8134300112724304,10.219051361083984,-34.66796875,-1.708984375,-82.855224609375
4.8424999,-2.5007436275482178,0.3058592677116394,10.09814453125,-37.04833984375,-18.12744140625,-51.483154296875
4.8474999,-2.565387010574341,-0.1711854189634323,9.820416450500488,-30.487060546875,-37.109375,7.2021484375
4.852499900000001,0.20111294090747833,-1.800439715385437,9.529520988464355,-22.8271484375,-32.257080078125,60.333251953125
4.8574999000000005,1.9375077486038208,-2.477998733520508,8.971672058105469,-2.01416015625,-25.970458984375,74.127197265625
4.8624999,2.9287071228027344,-3.2417490482330322,8.277952194213867,51.177978515625,-21.728515625,92.1630859375
4.8674999,2.7946319580078125,-3.3458969593048096,8.11634349822998,78.06396484375,-4.0283203125,97.10693359375
4.8724999,1.920149803161621,-2.5977089405059814,8.488043785095215,50.994873046875,24.59716796875,66.34521484375
4.8774999,0.9846154451370239,-1.1174936294555664,9.507973670959473,16.448974609375,23.4375,10.894775390625
4.8824999,1.4012064933776855,1.14742112159729,10.369287490844727,1.5869140625,40.557861328125,-61.920166015625
4.8874999,0.9756371974945068,1.026513934135437,10.068216323852539,-3.84521484375,20.3857421875,-74.951171875
4.8924999,-0.21368250250816345,0.7410054206848145,10.230423927307129,-33.416748046875,1.800537109375,-83.404541015625
4.897499900000001,-1.6962919235229492,-0.8936358094215393,9.934141159057617,-19.927978515625,-42.78564453125,48.065185546875
4.9024999000000005,0.038307227194309235,-1.701080322265625,9.706692695617676,-23.74267578125,-32.958984375,59.906005859375
4.9074999,1.731606364250183,-2.292448043823242,9.221267700195312,3.143310546875,-27.862548828125,74.89013671875
4.9124999,2.6671407222747803,-3.0573954582214355,8.605957984924316,51.8798828125,-22.491455078125,92.010498046875
4.9174999,2.558803081512451,-3.067570924758911,8.4293851852417,67.047119140625,1.52587890625,94.17724609375
4.9224999,1.777096152305603,-2.3523032665252686,8.741828918457031,40.130615234375,26.702880859375,64.117431640625
4.9274999,0.9798270463943481,-0.970848798751831,9.62828254699707,15.13671875,18.4326171875,12.298583984375
4.9324999,0.7140706777572632,0.5297171473503113,10.350133895874023,-0.8544921875,1.8310546875,-27.496337890625
4.937499900000001,1.082777738571167,1.304241418838501,10.47822380065918,-3.936767578125,20.660400390625,-35.82763671875
4.9424999000000005,1.2132617235183716,0.7589619159698486,9.792284965515137,-2.685546875,22.4609375,-71.197509765625
4.9474999,-0.002992752008140087,0.5734112858772278,10.11550235748291,-30.029296875,2.01416015625,-78.91845703125
4.9524999,-1.4802151918411255,0.4513070285320282,9.876680374145508,-32.28759765625,-1.068115234375,-71.1669921875
4.9574999,-2.5540146827697754,0.27473464608192444,9.92097282409668,-28.50341796875,-15.838623046875,-46.38671875
4.9624999,-2.69646954536438,-0.3585317134857178,10.011354446411133,-19.47021484375,-34.210205078125,5.67626953125
4.9674999,-2.69646954536438,-0.3585317134857178,10.011354446411133,-19.47021484375,-34.210205078125,5.67626953125
4.9724999,-1.8692729473114014,-0.8182184100151062,9.96825885772705,-19.134521484375,-41.839599609375,46.93603515625
4.977499900000001,-0.18974047899246216,-1.4472949504852295,9.770736694335938,-20.6298828125,-34.149169921875,59.38720703125
4.9824999000000005,1.4371196031570435,-2.0703859329223633,9.345168113708496,3.326416015625,-26.85546875,67.779541015625
4.9874999,2.3983914852142334,-2.757521867752075,8.832808494567871,44.73876953125,-20.1416015625,79.010009765625
4.9924999,2.389413356781006,-2.9077579975128174,8.649053573608398,56.121826171875,1.40380859375,80.56640625
4.9974999,1.9195512533187866,0.8720879554748535,10.15560531616211,3.448486328125,41.259765625,-57.9833984375
5.0024999,1.358709454536438,0.518943190574646,9.9586820602417,-3.35693359375,21.453857421875,-71.014404296875
5.0074999,0.17477671802043915,0.5668272376060486,10.226832389831543,-28.01513671875,2.38037109375,-82.183837890625
5.0124999,-1.2838906049728394,0.3824737071990967,10.128071784973145,-34.48486328125,0.244140625,-75.531005859375
5.0174999,-2.4420857429504395,0.42377370595932007,10.110713958740234,-30.242919921875,-12.420654296875,-51.727294921875
5.022499900000001,-2.7892448902130127,-0.060453593730926514,9.982025146484375,-21.392822265625,-29.449462890625,1.068115234375
5.0274999000000005,-2.1733365058898926,-0.5117605924606323,9.904213905334473,-19.95849609375,-44.3115234375,46.173095703125
5.0324999,-0.5991489887237549,-1.2000936269760132,9.646238327026367,-19.53125,-36.62109375,60.638427734375
5.0374999,1.1240776777267456,1.12467622756958,10.359710693359375,-3.997802734375,16.754150390625,-33.721923828125
5.0424999,0.3423708379268646,0.6631938815116882,10.24119758605957,-23.74267578125,2.777099609375,-78.9794921875
5.0474999,-1.1659762859344482,0.19812019169330597,10.237606048583984,-36.865234375,-0.701904296875,-72.75390625
5.0524999,-2.362478494644165,0.40462008118629456,10.259154319763184,-29.47998046875,-10.3759765625,-52.42919921875
5.0574999,-2.2804770469665527,-0.6177040338516235,9.996390342712402,-14.5263671875,-43.304443359375,39.24560546875
5.062499900000001,-0.8493430614471436,-1.3215993642807007,9.671378135681152,-20.1416015625,-35.919189453125,54.412841796875
5.0674999000000005,0.7864952683448792,-1.856104850769043,9.330802917480469,0.213623046875,-34.97314453125,75.98876953125
5.0724999,1.9183541536331177,-2.5725696086883545,8.976460456848145,42.083740234375,-30.426025390625,95.855712890625
5.0774999,2.1769278049468994,-2.694674015045166,8.780136108398438,50.4150390625,3.875732421875,97.015380859375
5.0824999,1.7741034030914307,-2.1966800689697266,8.969876289367676,33.69140625,27.52685546875,73.974609375
5.0874999,1.235408067703247,-1.1522095203399658,9.59057331085205,19.866943359375,18.49365234375,29.998779296875
5.0924999,1.0654197931289673,0.15143325924873352,10.102932929992676,4.058837890625,1.8310546875,-12.359619140625
5.0974999,1.4562731981277466,0.9792284965515137,10.198700904846191,-3.631591796875,11.53564453125,-31.92138671875
5.102499900000001,2.013523578643799,1.0983400344848633,10.125079154968262,2.227783203125,34.698486328125,-37.445068359375
5.1074999000000005,2.2427685260772705,0.9349357485771179,10.019135475158691,4.241943359375,43.121337890625,-55.35888671875
5.1124999,1.7345991134643555,0.35015198588371277,9.909002304077148,-2.655029296875,31.890869140625,-68.84765625
5.1174999,-0.8792705535888672,0.4578910768032074,10.22503662109375,-38.421630859375,-0.701904296875,-76.934814453125
5.1224999,-2.1936872005462646,0.49559974670410156,10.18912410736084,-31.036376953125,-6.77490234375,-62.92724609375
5.1274999,-2.8395233154296875,0.03711012750864029,9.939528465270996,-25.32958984375,-24.017333984375,-22.39990234375
5.1324999,-2.5007436275482178,-0.7032967209815979,9.889249801635742,-14.984130859375,-38.9404296875,28.4423828125
5.1374999,-1.2084733247756958,-1.235408067703247,9.736021041870117,-17.242431640625,-40.34423828125,53.985595703125
5.1424999,0.4854243993759155,-1.8800468444824219,9.435548782348633,-13.031005859375,-32.012939453125,65.49072265625
5.147499900000001,1.8201918601989746,-2.450465440750122,9.05606746673584,27.313232421875,-32.257080078125,85.87646484375
5.1524999000000005,2.2876596450805664,-2.8790276050567627,8.814253807067871,57.098388671875,-13.214111328125,96.435546875
5.1574999,1.9369091987609863,-2.561197280883789,8.808267593383789,45.440673828125,20.20263671875,86.36474609375
5.1624999,1.2545616626739502,-1.6238672733306885,9.357138633728027,24.505615234375,25.970458984375,46.173095703125
5.1674999,0.8415619134902954,-0.23044191300868988,10.035895347595215,8.6669921875,5.9814453125,-0.54931640625
5.1724999,1.0235211849212646,0.9361328482627869,10.277111053466797,-4.0283203125,2.288818359375,-29.144287109375
