# Time (seconds),Accel_X,Accel_Y,Accel_Z,Gyro_X,Gyro_Y,Gyro_Z
0.0024999,0.8810662031173706,-0.46327802538871765,9.782109260559082,6.04248046875,3.0517578125,-8.270263671875
0.0074999,0.8810662031173706,-0.46327802538871765,9.782109260559082,6.04248046875,3.0517578125,-8.270263671875
0.012499900000000001,0.9696516990661621,0.19452889263629913,10.089764595031738,-5.37109375,6.439208984375,-22.186279296875
0.0174999,1.091755986213684,0.19931729137897491,10.064026832580566,0.1220703125,15.655517578125,-18.402099609375
0.0224999,1.1079168319702148,-0.4040215313434601,9.791088104248047,4.791259765625,26.55029296875,-36.834716796875
0.0274999,0.8056488633155823,-0.4489128291606903,9.832387924194336,0.8544921875,26.42822265625,-35.33935546875
0.0324999,0.3519476354122162,-0.4734533727169037,9.728240013122559,-0.8544921875,21.728515625,-39.85595703125
0.0374999,-0.04967968538403511,0.03711012750864029,9.683947563171387,0.885009765625,9.185791015625,-37.53662109375
0.0424999,-0.5069721937179565,-0.013766659423708916,9.923367500305176,-16.998291015625,-3.021240234375,-14.923095703125
0.0474999,-0.7356184720993042,0.19213469326496124,9.592369079589844,-29.327392578125,5.157470703125,-11.505126953125
0.0524999,-0.7254431247711182,-0.08798690885305405,9.839570045471191,-21.759033203125,-11.505126953125,11.04736328125
0.0574999,-0.5991489887237549,-0.7056909799575806,9.794678688049316,-17.303466796875,-33.660888671875,47.210693359375
0.0624999,-0.12330138683319092,-1.092953085899353,9.502586364746094,-18.524169921875,-28.106689453125,46.142578125
0.0674999,0.3663128614425659,-1.5466543436050415,9.454702377319336,-1.251220703125,-22.27783203125,48.828125
0.0724999,0.7625532150268555,-1.6825252771377563,9.272144317626953,11.71875,-20.599365234375,48.858642578125
0.0774999,0.910993754863739,-1.6406266689300537,9.063849449157715,21.148681640625,-17.242431640625,44.921875
0.0824999,0.6590040326118469,-0.9534908533096313,9.430760383605957,21.514892578125,1.800537109375,16.510009765625
0.0874999,0.6446388363838196,-0.11432313174009323,9.816226959228516,2.44140625,1.8310546875,-11.71875
0.0924999,0.7655459642410278,0.5404910445213318,10.200496673583984,-6.9580078125,6.89697265625,-22.88818359375
0.0974999,0.9498994946479797,0.608127236366272,10.177751541137695,-3.2958984375,16.265869140625,-21.17919921875
0.1024999,1.0384849309921265,0.23822307586669922,10.02452278137207,4.730224609375,23.37646484375,-32.745361328125
0.1074999,0.9295487999916077,-0.2861070930957794,9.838972091674805,6.439208984375,27.862548828125,-44.25048828125
0.1124999,0.5997475385665894,-0.8104372620582581,9.710283279418945,1.495361328125,28.4423828125,-48.33984375
0.1174999,0.2621650993824005,-0.9552865028381348,9.592967987060547,2.197265625,22.76611328125,-51.971435546875
0.1224999,0.0005985504249110818,-0.375291109085083,10.001178741455078,-2.532958984375,6.65283203125,-38.055419921875
0.1274999,-0.48602294921875,-0.14664486050605774,9.940725326538086,-22.52197265625,2.838134765625,-19.256591796875
0.1324999,-0.5596446394920349,0.42616790533065796,10.15560531616211,-28.076171875,1.77001953125,-15.350341796875
0.1374999,-0.618302583694458,0.5285200476646423,10.162787437438965,-26.458740234375,-23.37646484375,25.726318359375
0.1424999,0.3561375141143799,-0.6308721303939819,9.670180320739746,-20.8740234375,-25.7568359375,54.62646484375
0.1474999,0.933738648891449,-1.4389152526855469,9.437344551086426,-1.03759765625,-20.782470703125,57.43408203125
0.1524999,1.2545616626739502,-1.9249382019042969,8.98124885559082,14.16015625,-18.035888671875,55.755615234375
0.1574999,1.1887211799621582,-2.144007682800293,8.6089506149292,31.982421875,-14.58740234375,50.079345703125
0.1624999,0.8361749649047852,-2.145204782485962,8.73105525970459,43.121337890625,-7.537841796875,39.4287109375
0.1674999,0.4884171485900879,-1.381454348564148,9.126696586608887,27.77099609375,3.204345703125,14.2822265625
0.1724999,0.34177228808403015,-0.36152446269989014,9.773131370544434,4.974365234375,5.37109375,-17.486572265625
0.17749990000000002,0.40043023228645325,0.5057750940322876,10.414777755737305,-3.60107421875,11.23046875,-26.214599609375
0.1824999,0.6027402877807617,0.7870938181877136,10.490793228149414,-2.655029296875,18.157958984375,-22.15576171875
0.1874999,0.727837324142456,0.38307225704193115,10.289680480957031,4.669189453125,24.627685546875,-34.332275390625
0.1924999,0.7206547260284424,-0.14425064623355865,10.029311180114746,10.6201171875,30.57861328125,-52.459716796875
0.1974999,0.4794389009475708,-0.8409633636474609,9.730035781860352,5.828857421875,29.72412109375,-55.7861328125
0.2024999,0.08379705995321274,-0.5626373887062073,9.922768592834473,-5.43212890625,5.0048828125,-41.44287109375
0.20749990000000001,-0.27892449498176575,-0.1909375786781311,9.814431190490723,-21.728515625,3.631591796875,-22.705078125
0.2124999,-0.43275195360183716,0.3292027413845062,10.20648193359375,-22.247314453125,0.1220703125,-13.427734375
0.2174999,-0.5781996846199036,0.5943605899810791,10.06462574005127,-25.93994140625,-21.30126953125,26.092529296875
0.2224999,-0.3597288131713867,-0.0520738884806633,10.020332336425781,-26.9775390625,-36.1328125,53.28369140625
0.2274999,0.13347674906253815,-0.536899745464325,9.616311073303223,-16.6015625,-28.38134765625,55.328369140625
0.2324999,0.6602011322975159,-1.260547161102295,9.39903736114502,3.23486328125,-20.660400390625,53.436279296875
0.2374999,0.9864110946655273,-1.7932571172714233,9.060855865478516,14.495849609375,-14.2822265625,45.013427734375
0.2424999,0.9780313968658447,-1.9117701053619385,8.82323169708252,27.313232421875,-11.29150390625,36.834716796875
0.2474999,0.7140706777572632,-1.8758569955825806,9.005789756774902,34.11865234375,-5.4931640625,28.4423828125
0.2524999,0.5039794445037842,-1.1366472244262695,9.339181900024414,20.01953125,1.129150390625,5.18798828125
0.2574999,0.4770447015762329,-0.2106897532939911,9.875483512878418,3.60107421875,4.45556640625,-20.263671875
0.2624999,0.7553706169128418,0.7433996200561523,10.38844108581543,-3.84521484375,16.815185546875,-19.775390625
0.2674999,0.7846996188163757,0.322618693113327,10.215459823608398,4.0283203125,22.857666015625,-35.0341796875
0.2724999,0.6542156338691711,-0.19033902883529663,9.983820915222168,9.613037109375,28.533935546875,-52.91748046875
0.2774999,0.36990416049957275,-0.8678981065750122,9.70549488067627,4.94384765625,27.740478515625,-54.931640625
0.2824999,0.1999158412218094,-1.0324994325637817,9.522936820983887,2.166748046875,16.815185546875,-51.69677734375
0.28749990000000003,0.005985504016280174,-0.606930136680603,9.93474006652832,-6.439208984375,3.2958984375,-37.04833984375
0.2924999,-0.2950853705406189,-0.20290859043598175,9.800664901733398,-20.782470703125,3.997802734375,-19.6533203125
0.2974999,-0.4159925580024719,0.243011474609375,10.28249740600586,-20.477294921875,-2.44140625,-9.185791015625
0.3024999,-0.5165489912033081,0.5608417391777039,10.101137161254883,-27.496337890625,-22.39990234375,25.482177734375
0.3074999,-0.25737667083740234,-0.07900865375995636,10.072406768798828,-27.557373046875,-34.698486328125,50.506591796875
0.3124999,0.22086510062217712,-0.5309142470359802,9.657610893249512,-15.594482421875,-28.900146484375,55.35888671875
0.3174999,0.7200561761856079,-1.1755530834197998,9.387065887451172,3.082275390625,-21.42333984375,54.8095703125
0.3224999,0.6446388363838196,-1.7866730690002441,9.020753860473633,34.36279296875,-7.659912109375,31.890869140625
0.3274999,0.4291606545448303,-1.1085153818130493,9.349357604980469,20.01953125,0.1220703125,8.97216796875
0.3324999,0.43514615297317505,-0.21428105235099792,9.913191795349121,3.84521484375,1.495361328125,-17.88330078125
0.3374999,0.6147112846374512,0.5219359993934631,10.361506462097168,-3.753662109375,9.3994140625,-22.308349609375
0.3424999,0.8325836658477783,0.7170634269714355,10.408791542053223,-4.119873046875,15.93017578125,-19.10400390625
0.34749990000000003,0.8984242081642151,0.3345896899700165,10.201693534851074,2.9296875,21.270751953125,-30.853271484375
0.35249990000000003,0.7930793166160583,-0.1999158412218094,9.9772367477417,8.697509765625,27.03857421875,-47.8515625
0.3574999,0.4704606235027313,-0.7422025203704834,9.719860076904297,4.0283203125,28.289794921875,-53.131103515625
0.3624999,0.2064998894929886,-1.0348936319351196,9.52353572845459,1.77001953125,20.050048828125,-51.1474609375
0.3674999,0.03950432687997818,-0.44592007994651794,9.888651847839355,-2.960205078125,6.011962890625,-38.02490234375
0.3724999,-0.3058592677116394,-0.17298106849193573,9.819219589233398,-19.287109375,3.814697265625,-19.683837890625
0.3774999,-0.43933600187301636,0.4686649739742279,10.129268646240234,-27.374267578125,-19.378662109375,21.026611328125
0.3824999,-0.43933600187301636,0.4686649739742279,10.129268646240234,-27.374267578125,-19.378662109375,21.026611328125
0.3874999,-0.1975216418504715,-0.14784196019172668,10.079588890075684,-27.496337890625,-33.050537109375,49.62158203125
0.3924999,0.2651578485965729,-0.585382342338562,9.689932823181152,-15.9912109375,-28.533935546875,54.5654296875
0.3974999,0.7230489253997803,-1.1115081310272217,9.409811019897461,2.44140625,-21.05712890625,55.084228515625
0.4024999,0.8684966564178467,-1.777694821357727,8.825626373291016,25.7568359375,-14.34326171875,39.947509765625
0.4074999,0.8684966564178467,-1.777694821357727,8.825626373291016,25.7568359375,-14.34326171875,39.947509765625
0.41249990000000003,0.5740098357200623,-1.8100165128707886,9.006986618041992,35.186767578125,-8.30078125,32.745361328125
0.41749990000000003,0.34596213698387146,-1.1917139291763306,9.312846183776855,23.3154296875,-0.396728515625,12.115478515625
0.4224999,0.3585317134857178,-0.26336219906806946,9.844358444213867,5.462646484375,0.762939453125,-14.678955078125
0.4274999,0.5692214369773865,0.5207388401031494,10.320804595947266,-3.997802734375,7.75146484375,-22.8271484375
0.4324999,0.8888474106788635,-0.15801730751991272,9.996390342712402,8.85009765625,26.947021484375,-46.173095703125
0.4374999,0.8888474106788635,-0.15801730751991272,9.996390342712402,8.85009765625,26.947021484375,-46.173095703125
0.4424999,0.5913678407669067,-0.6667851805686951,9.728838920593262,4.241943359375,29.9072265625,-54.01611328125
0.4474999,0.2908954918384552,-0.9989806413650513,9.55825138092041,2.044677734375,22.0947265625,-52.06298828125
0.4524999,0.09157821536064148,-0.4118026793003082,9.92097282409668,-1.0986328125,7.904052734375,-42.1142578125
0.4574999,-0.2783259451389313,-0.14245499670505524,9.889249801635742,-18.85986328125,3.692626953125,-22.52197265625
0.4624999,-0.3902548849582672,0.22685061395168304,10.249577522277832,-19.683837890625,2.349853515625,-12.908935546875
0.4674999,-0.4507084786891937,0.31603461503982544,10.180145263671875,-27.618408203125,-15.80810546875,14.312744140625
0.47249990000000003,-0.22445641458034515,-0.11552023142576218,10.063427925109863,-28.62548828125,-30.6396484375,46.7529296875
0.47749990000000003,0.21966800093650818,-0.7721300721168518,9.767744064331055,-18.1884765625,-28.564453125,53.03955078125
0.4824999,0.40222588181495667,-0.47884035110473633,9.675567626953125,9.765625,3.021240234375,-11.474609375
0.4874999,0.40222588181495667,-0.47884035110473633,9.675567626953125,9.765625,3.021240234375,-11.474609375
0.4924999,0.5781996846199036,0.3076549172401428,10.212467193603516,-0.67138671875,9.33837890625,-22.8271484375
0.4974999,0.778714120388031,0.7344213724136353,10.488997459411621,-4.364013671875,15.56396484375,-18.12744140625
0.5024999,0.8649053573608398,0.5171475410461426,10.335768699645996,-0.579833984375,19.8974609375,-25.482177734375
0.5074999,0.7769184708595276,0.06763619929552078,10.164583206176758,8.48388671875,25.604248046875,-43.88427734375
0.5124999,0.4950011968612671,-0.5057750940322876,9.830592155456543,5.43212890625,29.144287109375,-55.35888671875
0.5174999,0.23104046285152435,-0.9786299467086792,9.636063575744629,3.265380859375,23.529052734375,-53.558349609375
0.5224999,0.10893617570400238,-0.43993455171585083,9.650428771972656,0.823974609375,10.223388671875,-46.783447265625
0.5274999,-0.18495208024978638,-0.4411316514015198,9.867103576660156,-14.984130859375,1.89208984375,-25.08544921875
0.5324999,-0.2621650993824005,0.4489128291606903,10.022727012634277,-17.15087890625,3.753662109375,-11.90185546875
0.5374999,0.7978677153587341,-1.8602946996688843,8.940547943115234,17.822265625,-14.007568359375,38.0859375
0.5424999,0.585382342338562,-1.7286136150360107,8.994417190551758,26.85546875,-9.70458984375,27.9541015625
0.5474999,0.33099839091300964,-1.367687702178955,9.257779121398926,25.970458984375,-4.302978515625,16.6015625
0.5524999,0.3064578175544739,-0.6111199855804443,9.643245697021484,11.65771484375,-0.823974609375,-5.523681640625
0.5574999,0.49978959560394287,0.13587094843387604,10.107122421264648,1.556396484375,4.7607421875,-21.514892578125
0.5624999,0.7469909191131592,0.6512228846549988,10.40340518951416,-3.96728515625,13.12255859375,-18.646240234375
0.5674999000000001,0.8912416100502014,0.557250440120697,10.344746589660645,-3.2958984375,16.448974609375,-21.30126953125
0.5724999000000001,0.8331822156906128,0.1735796183347702,10.146028518676758,5.096435546875,21.91162109375,-37.53662109375
0.5774999000000001,0.32202014327049255,-0.7451952695846558,9.651026725769043,2.0751953125,25.81787109375,-53.497314453125
0.5824999,0.1759738177061081,-0.8571242094039917,9.512163162231445,2.50244140625,15.411376953125,-48.431396484375
0.5874999,0.011372458189725876,-0.4836287498474121,9.915586471557617,-10.07080078125,3.7841796875,-28.6865234375
0.5924999,-0.1346738487482071,0.019153613597154617,9.858723640441895,-16.448974609375,5.92041015625,-12.664794921875
0.5974999,-0.2124854028224945,0.06165069341659546,10.421361923217773,-19.195556640625,-5.2490234375,1.129150390625
0.6024999,-0.2059013396501541,0.1801636815071106,10.228628158569336,-33.203125,-20.782470703125,27.435302734375
0.6074999,0.06643909960985184,-0.3992331326007843,10.106523513793945,-26.031494140625,-30.975341796875,51.33056640625
0.6124999,0.4291606545448303,-1.1007342338562012,9.621698379516602,-7.965087890625,-27.130126953125,58.868408203125
0.6174999,0.7942764163017273,-1.324592113494873,9.211690902709961,10.986328125,-19.012451171875,56.793212890625
0.6224999,0.8924387097358704,-1.7711106538772583,8.982446670532227,18.829345703125,-14.892578125,45.013427734375
0.6274999,0.7254431247711182,-1.5310919284820557,8.883685111999512,22.430419921875,-10.711669921875,33.172607421875
0.6324999,0.43694180250167847,-1.4167689085006714,9.14585018157959,29.6630859375,-6.04248046875,22.918701171875
0.6374999,0.3944447338581085,-0.014365210197865963,9.951498985290527,6.072998046875,3.173828125,-17.608642578125
0.6424999,0.6290764808654785,0.5919663906097412,10.354323387145996,-1.5869140625,12.237548828125,-22.3388671875
0.6474999,0.811634361743927,0.7733271718025208,10.461463928222656,-4.730224609375,16.66259765625,-18.646240234375
0.6524999,0.7984662652015686,0.4124012291431427,10.24538803100586,1.373291015625,19.71435546875,-29.449462890625
0.6574999,0.6392518281936646,-0.1041477769613266,10.034697532653809,8.270263671875,25.45166015625,-48.370361328125
0.6624999,0.31842881441116333,-0.7350199222564697,9.677961349487305,3.326416015625,26.42822265625,-55.48095703125
0.6674999,0.1496376097202301,-1.1109095811843872,9.525331497192383,2.593994140625,18.890380859375,-52.1240234375
0.6724999,0.07541735470294952,-0.6332663297653198,9.80904483795166,-2.50244140625,6.28662109375,-36.56005859375
0.6774999,-0.12270283699035645,-0.5638344883918762,9.841365814208984,-13.092041015625,3.35693359375,-14.83154296875
0.6824999,-0.12210428714752197,0.42437225580215454,10.260351181030273,-17.333984375,0.91552734375,-5.218505859375
0.6874999,-0.25498247146606445,0.39145198464393616,10.35252857208252,-28.106689453125,-15.380859375,15.56396484375
0.6924999000000001,-0.07841010391712189,0.3321954905986786,10.11669921875,-31.463623046875,-27.16064453125,42.144775390625
0.6974999000000001,0.5213374495506287,-1.2300211191177368,9.315838813781738,4.913330078125,-21.240234375,54.595947265625
0.7024999000000001,0.7218518257141113,-1.8183962106704712,9.097966194152832,18.310546875,-16.448974609375,46.630859375
0.7074999,0.6853402256965637,-1.876455545425415,8.946533203125,18.218994140625,-13.3056640625,34.576416015625
0.7124999,0.4920084476470947,-1.5388731956481934,9.132682800292969,24.2919921875,-7.904052734375,23.62060546875
0.7174999,0.3663128614425659,-1.191115379333496,9.424176216125488,22.064208984375,-1.953125,10.101318359375
0.7224999,0.4429273009300232,-0.3824737071990967,9.793481826782227,10.43701171875,1.220703125,-8.880615234375
0.7274999,0.7158663272857666,0.2687491476535797,10.183138847351074,2.685546875,8.60595703125,-21.881103515625
0.7324999,0.9229647517204285,0.6655880808830261,10.389039993286133,-3.90625,16.29638671875,-18.157958984375
0.7374999,0.99479079246521,0.44831427931785583,10.274118423461914,-1.3427734375,16.693115234375,-19.134521484375
0.7424999,0.849941611289978,0.038307227194309235,10.077195167541504,9.09423828125,21.6064453125,-35.82763671875
0.7474999,0.5722141861915588,-0.5506663918495178,9.806650161743164,6.34765625,25.848388671875,-49.49951171875
0.7524999,0.28371289372444153,-0.8930372595787048,9.603741645812988,1.03759765625,23.681640625,-50.048828125
0.7574999,-0.2082955539226532,0.05626374110579491,9.743204116821289,-13.702392578125,4.2724609375,-7.110595703125
0.7624999,-0.24600422382354736,0.4381389021873474,10.3363676071167,-17.7001953125,-4.94384765625,3.692626953125
0.7674999,-0.2867056429386139,0.3495534360408783,10.17416000366211,-31.6162109375,-18.85986328125,22.491455078125
0.7724999,-0.08439560979604721,-0.12928688526153564,10.038887977600098,-19.04296875,-29.327392578125,47.088623046875
0.7774999,0.1173158809542656,-1.0223240852355957,9.592369079589844,0.823974609375,-26.55029296875,50.567626953125
0.7824999,0.40462008118629456,-1.3000515699386597,9.281721115112305,13.641357421875,-16.387939453125,42.29736328125
0.7874999,0.5129576921463013,-1.699883222579956,9.20091724395752,16.17431640625,-15.07568359375,31.768798828125
0.7924999,0.50876784324646,-1.4832079410552979,9.244012832641602,13.214111328125,-10.986328125,21.209716796875
0.7974999,0.48243165016174316,-1.2551602125167847,9.48882007598877,19.1650390625,-4.94384765625,12.542724609375
0.8024999,0.6189011335372925,-0.7206547260284424,9.692327499389648,12.542724609375,-0.274658203125,0.91552734375
0.8074999,1.2348095178604126,0.4513070285320282,10.254365921020508,-2.716064453125,17.27294921875,-15.106201171875
0.8124999,1.1019313335418701,0.10714052617549896,10.059837341308594,3.692626953125,17.974853515625,-22.03369140625
0.8174999000000001,0.828393816947937,-0.3106476664543152,9.904213905334473,9.552001953125,24.139404296875,-39.55078125
0.8224999000000001,0.4818331003189087,-0.7230489253997803,9.66299819946289,2.960205078125,26.458740234375,-47.027587890625
0.8274999000000001,0.24121582508087158,-0.9493009448051453,9.57201862335205,1.434326171875,19.927978515625,-43.975830078125
0.8324999000000001,0.02693476900458336,-0.6332663297653198,9.746196746826172,0.762939453125,7.8125,-29.296875
0.8374999,-0.1843535304069519,-0.30047231912612915,9.888651847839355,-9.46044921875,0.152587890625,-4.7607421875
0.8424999,-0.33039984107017517,0.322618693113327,10.102932929992676,-15.533447265625,3.35693359375,-4.638671875
0.8474999,-0.4908113479614258,0.33997663855552673,10.379463195800781,-20.01953125,-9.46044921875,11.444091796875
0.8524999,-0.44771572947502136,0.15083470940589905,10.019734382629395,-32.1044921875,-20.44677734375,25.665283203125
0.8574999,-0.22266076505184174,-0.5728127360343933,9.873687744140625,-13.214111328125,-29.998779296875,48.126220703125
0.8624999,0.578798234462738,-1.6166846752166748,9.233837127685547,12.603759765625,-10.55908203125,21.8505859375
0.8674999,0.5452794432640076,-1.1336544752120972,9.372700691223145,11.505126953125,-8.270263671875,11.8408203125
0.8724999,0.5422866940498352,-0.9660604000091553,9.650428771972656,16.326904296875,-4.608154296875,3.692626953125
0.8774999,0.6536170840263367,-0.3357867896556854,9.810839653015137,8.087158203125,-0.06103515625,-5.462646484375
0.8824999,0.8888474106788635,0.14784196019172668,10.094552993774414,4.21142578125,7.01904296875,-15.5029296875
0.8874999,1.0235211849212646,0.4423287510871887,10.247781753540039,-2.44140625,13.671875,-16.9677734375
0.8924999,0.973242998123169,0.37409400939941406,10.235212326049805,-2.899169921875,13.397216796875,-14.373779296875
0.8974999,0.7918822169303894,0.005985504016280174,10.052654266357422,3.47900390625,15.19775390625,-25.238037109375
0.9024999,0.568622887134552,-0.38067805767059326,9.861717224121094,8.1787109375,21.759033203125,-39.48974609375
0.9074999,0.3447650372982025,-0.761954665184021,9.661202430725098,1.64794921875,22.8271484375,-44.0673828125
0.9124999,0.23403321206569672,-1.0307037830352783,9.519944190979004,1.800537109375,19.683837890625,-39.306640625
0.9174999,-0.07242459803819656,-0.436343252658844,9.833584785461426,-8.11767578125,-1.28173828125,0.579833984375
0.9224999,-0.19273324310779572,0.29867666959762573,10.205883026123047,-17.39501953125,-0.30517578125,-3.662109375
0.9274999,-0.3687070608139038,0.33518823981285095,10.417171478271484,-23.3154296875,-11.5966796875,14.70947265625
0.9324999,-0.3208230137825012,0.0802057534456253,10.074202537536621,-33.721923828125,-22.5830078125,25.81787109375
0.9374999,-0.08140286058187485,-0.6631938815116882,9.844358444213867,-12.3291015625,-31.463623046875,50.6591796875
0.9424999000000001,0.25318682193756104,-1.4395138025283813,9.30925464630127,7.9345703125,-22.0947265625,50.6591796875
0.9474999000000001,0.5877765417098999,-1.4862006902694702,9.115324020385742,17.2119140625,-12.420654296875,36.68212890625
0.9524999000000001,0.6811503767967224,-1.6340426206588745,9.152434349060059,13.12255859375,-8.819580078125,21.30126953125
0.9574999000000001,0.5680243372917175,-1.1234791278839111,9.35654067993164,13.763427734375,-7.354736328125,12.87841796875
0.9624999,0.5841852426528931,-0.27413609623908997,9.847352027893066,9.063720703125,0.54931640625,-6.500244140625
0.9674999,0.8331822156906128,0.19033902883529663,10.144232749938965,4.5166015625,8.392333984375,-16.510009765625
0.9724999,0.9445125460624695,0.4387374520301819,10.266336441040039,-3.204345703125,13.214111328125,-14.434814453125
0.9774999,0.7469909191131592,0.055665191262960434,10.038289070129395,3.5400390625,16.6015625,-27.618408203125
0.9824999,0.5123591423034668,-0.3687070608139038,9.84256362915039,7.965087890625,22.88818359375,-43.39599609375
0.9874999,0.2861070930957794,-0.7691373229026794,9.616311073303223,1.64794921875,23.162841796875,-46.722412109375
0.9924999,0.19452889263629913,-1.0091559886932373,9.469666481018066,1.983642578125,18.829345703125,-40.924072265625
0.9974999,0.06404489278793335,-0.5949591398239136,9.82999324798584,-1.861572265625,4.57763671875,-21.453857421875
1.0024999,-0.10055647045373917,-0.5027823448181152,9.854534149169922,-9.58251953125,-1.3427734375,0.396728515625
1.0074999000000002,-0.10055647045373917,-0.5027823448181152,9.854534149169922,-9.58251953125,-1.3427734375,0.396728515625
1.0124999000000001,-0.20470423996448517,0.37409400939941406,10.266336441040039,-18.6767578125,-2.227783203125,-1.251220703125
1.0174999000000002,-0.3992331326007843,0.20051439106464386,10.508749961853027,-26.91650390625,-15.167236328125,16.815185546875
1.0224999000000001,-0.2687491476535797,0.19033902883529663,10.162189483642578,-36.224365234375,-24.71923828125,29.23583984375
1.0274999,-0.002992752008140087,-0.6901286244392395,9.94970417022705,-14.83154296875,-30.33447265625,50.018310546875
1.0324999000000001,0.7224503755569458,-1.4389152526855469,9.081207275390625,15.106201171875,-14.7705078125,41.6259765625
1.0374999,0.7823054194450378,-1.5658079385757446,8.9249849319458,14.0380859375,-8.9111328125,27.069091796875
1.0424999000000001,0.47165772318840027,-1.1174936294555664,9.394248962402344,20.263671875,-4.425048828125,4.638671875
1.0474999,0.47165772318840027,-1.1174936294555664,9.394248962402344,20.263671875,-4.425048828125,4.638671875
1.0524999000000002,0.49799394607543945,-0.46746787428855896,9.716867446899414,9.70458984375,1.434326171875,-10.772705078125
1.0574999,0.6661866307258606,0.04369417950510979,10.158597946166992,3.326416015625,9.124755859375,-19.134521484375
1.0624999000000002,0.7589619159698486,0.4991910457611084,10.400412559509277,-4.180908203125,11.474609375,-14.2822265625
1.0674999,0.7182605266571045,0.5147533416748047,10.392032623291016,-4.974365234375,11.962890625,-18.280029296875
1.0724999000000002,0.5237316489219666,0.1843535304069519,10.186131477355957,1.678466796875,17.822265625,-36.102294921875
1.0774999,0.2849099934101105,-0.24361002445220947,9.943120002746582,4.364013671875,21.66748046875,-48.797607421875
1.0824999000000002,0.10833762586116791,-0.5985504388809204,9.674968719482422,0.48828125,19.8974609375,-47.2412109375
1.0874999,0.0802057534456253,-0.657806932926178,9.593565940856934,0.9765625,14.984130859375,-40.740966796875
1.0924999000000002,-0.046088382601737976,-0.0035913025494664907,10.016741752624512,-21.697998046875,3.265380859375,-10.650634765625
1.0974999,-0.05267243832349777,0.38067805767059326,10.548852920532227,-26.123046875,-9.521484375,6.34765625
1.1024999000000002,-0.04429273307323456,0.29149407148361206,10.70986270904541,-39.794921875,-23.74267578125,26.458740234375
1.1074999,0.304063618183136,0.14784196019172668,10.549450874328613,-47.210693359375,-27.28271484375,43.76220703125
1.1124999000000002,0.690727174282074,-0.669179379940033,10.220847129821777,-33.02001953125,-26.580810546875,60.211181640625
1.1174999,1.071405291557312,-1.104325532913208,9.532513618469238,-9.765625,-22.705078125,65.61279296875
1.1224999000000002,1.2228385210037231,-1.6723499298095703,8.777143478393555,9.09423828125,-18.951416015625,58.65478515625
1.1274999,1.1007342338562012,-1.8722656965255737,8.110358238220215,27.89306640625,-14.22119140625,51.57470703125
1.1324999000000002,0.8349778652191162,-1.9524714946746826,7.965508937835693,48.828125,-13.12255859375,47.088623046875
1.1374999000000001,0.5578489899635315,-1.678335428237915,8.38808536529541,44.647216796875,-3.082275390625,34.637451171875
1.1424999000000002,0.2645592987537384,-0.9846154451370239,9.317634582519531,19.8974609375,5.096435546875,5.9814453125
1.1474999000000001,0.02753331884741783,-0.23822307586669922,10.226234436035156,-2.50244140625,9.1552734375,-23.529052734375
1.1524999000000002,-0.20949265360832214,0.2711433470249176,10.212467193603516,0.885009765625,26.824951171875,-69.64111328125
1.1574999000000001,-0.20949265360832214,-0.04908113554120064,9.855133056640625,4.241943359375,24.96337890625,-77.0263671875
1.1624999,-0.15562310814857483,-0.038307227194309235,10.016741752624512,-6.2255859375,15.625,-71.807861328125
1.1674999000000001,-0.07960720360279083,-0.12270283699035645,10.037092208862305,-20.660400390625,5.4931640625,-48.88916015625
1.1724999,0.23582886159420013,0.10055647045373917,10.4728364944458,-28.4423828125,-3.47900390625,-23.223876953125
1.1774999000000002,0.6326677799224854,-0.18974047899246216,10.676942825317383,-40.374755859375,-17.15087890625,17.852783203125
1.1824999,1.212663173675537,-0.39384618401527405,10.565611839294434,-50.4150390625,-29.388427734375,56.884765625
1.1874999000000002,1.6585832834243774,-1.2437877655029297,10.24239444732666,-39.0625,-29.541015625,77.484130859375
1.1924999,1.868674397468567,-1.512536883354187,9.487024307250977,-16.05224609375,-23.01025390625,81.787109375
1.1974999000000002,0.7050924301147461,-2.008735179901123,7.507019519805908,55.450439453125,-17.02880859375,60.48583984375
1.2024999,0.26336219906806946,-1.9189527034759521,7.882310390472412,60.9130859375,-8.544921875,52.42919921875
1.2074999000000002,-0.07960720360279083,-1.3341689109802246,8.938752174377441,42.1142578125,3.11279296875,26.42822265625
1.2124999,-0.32381579279899597,-0.4800374507904053,10.054450035095215,10.3759765625,7.9345703125,-11.627197265625
1.2174999000000002,-0.41778820753097534,0.365115761756897,11.027692794799805,-4.39453125,11.53564453125,-32.196044921875
1.2224999,-0.3513490855693817,0.8559271097183228,11.331756591796875,-3.204345703125,13.73291015625,-31.951904296875
1.2274999000000002,-0.1346738487482071,0.8547300100326538,11.062409400939941,-3.72314453125,19.34814453125,-40.435791015625
1.2324999,0.02214636653661728,0.44173020124435425,10.585963249206543,-0.1220703125,27.313232421875,-57.586669921875
1.2374999000000002,0.07003039866685867,-0.03232172131538391,10.04068374633789,5.462646484375,29.632568359375,-70.709228515625
1.2424999,0.11372458189725876,-0.2735375463962555,9.84495735168457,7.87353515625,22.15576171875,-73.516845703125
1.2474999000000002,0.06404489278793335,-0.5015852451324463,9.804854393005371,-10.25390625,11.77978515625,-56.488037109375
1.2524999,1.548449993133545,-1.5352818965911865,9.190741539001465,3.936767578125,-16.143798828125,66.436767578125
1.2574999000000002,1.215057373046875,-1.8782511949539185,8.647856712341309,18.1884765625,-12.847900390625,53.009033203125
1.2624999000000001,0.6542156338691711,-1.7573440074920654,8.239645004272461,29.937744140625,-9.613037109375,39.276123046875
1.2674999000000002,0.1256955862045288,-1.7310078144073486,8.368931770324707,44.677734375,-9.674072265625,28.9306640625
1.2724999000000001,-0.18794482946395874,-1.2791022062301636,8.865729331970215,35.888671875,-3.021240234375,12.969970703125
1.2774999000000002,-0.20889410376548767,-0.608127236366272,9.597756385803223,14.801025390625,6.927490234375,-11.932373046875
1.2824999000000001,0.15502455830574036,0.558447539806366,10.824784278869629,-0.1220703125,11.138916015625,-18.61572265625
1.2874999,0.44771572947502136,0.3076549172401428,10.506954193115234,4.7607421875,21.42333984375,-37.384033203125
1.2924999000000001,0.40880993008613586,-0.2017114907503128,10.122086524963379,7.080078125,24.078369140625,-47.210693359375
1.2974999,0.3489548861980438,-0.4734533727169037,9.790489196777344,5.218505859375,21.6064453125,-50.811767578125
1.3024999000000002,0.2801215946674347,-0.45489832758903503,9.874884605407715,3.143310546875,14.739990234375,-48.553466796875
1.3074999,0.1149216815829277,-0.4165911078453064,9.818022727966309,-9.70458984375,8.11767578125,-33.233642578125
1.3124999000000002,0.07661445438861847,0.10055647045373917,10.09934139251709,-14.892578125,0.8544921875,-15.869140625
1.3174999,-0.025737667456269264,-0.11013327538967133,10.320804595947266,-20.233154296875,-7.598876953125,5.43212890625
1.3224999000000002,0.07242459803819656,-0.030526071786880493,10.175955772399902,-33.38623046875,-18.1884765625,26.947021484375
1.3274999,0.30286651849746704,-0.6272808313369751,10.078990936279297,-24.47509765625,-26.85546875,46.44775390625
1.3324999000000002,0.5835866928100586,-1.1061211824417114,9.59835433959961,-8.9111328125,-22.125244140625,49.62158203125
1.3374999,0.7990648150444031,-1.3820528984069824,9.255385398864746,7.720947265625,-16.05224609375,46.20361328125
1.3424999000000002,0.7655459642410278,-1.7190368175506592,9.033921241760254,13.763427734375,-11.444091796875,33.99658203125
1.3474999,0.3064578175544739,-1.4508862495422363,9.070432662963867,29.11376953125,-6.65283203125,13.5498046875
1.3524999000000002,0.181959331035614,-0.922366201877594,9.333196640014648,21.881103515625,-2.5634765625,0.030517578125
1.3574999,0.3214215636253357,-0.3256114423274994,9.776124000549316,9.124755859375,4.669189453125,-16.05224609375
1.3624999000000002,0.5093663930892944,0.1951274424791336,10.266336441040039,3.35693359375,10.1318359375,-16.632080078125
1.3674999,0.6631938815116882,0.46327802538871765,10.4728364944458,-1.983642578125,8.97216796875,-10.528564453125
1.3724999000000002,0.6847416758537292,0.31124621629714966,10.381856918334961,-0.701904296875,11.688232421875,-18.157958984375
1.3774999,0.5835866928100586,-0.0077811554074287415,10.193313598632812,5.340576171875,17.7001953125,-33.02001953125
1.3824999000000002,0.45190557837486267,-0.39384618401527405,9.938929557800293,6.195068359375,20.660400390625,-39.154052734375
1.3874999000000001,0.3447650372982025,-0.71766197681427,9.734824180603027,2.50244140625,20.416259765625,-40.130615234375
1.3924999000000002,0.2998737692832947,-0.6733692288398743,9.671976089477539,4.33349609375,15.44189453125,-34.088134765625
1.3974999000000001,0.21847090125083923,-0.5009866952896118,9.79527759552002,-4.57763671875,5.828857421875,-20.32470703125
1.4024999000000002,0.1346738487482071,-0.06165069341659546,9.88625717163086,-10.162353515625,3.936767578125,-7.2021484375
1.4074999000000001,-0.08439560979604721,0.08798690885305405,10.19032096862793,-27.984619140625,-14.251708984375,16.265869140625
1.4124999,0.0017956512747332454,-0.23942017555236816,10.073603630065918,-22.216796875,-23.651123046875,36.62109375
1.4174999000000001,0.1843535304069519,-1.036689281463623,9.751583099365234,-7.62939453125,-24.139404296875,42.755126953125
1.4224999,0.46746787428855896,-1.2042834758758545,9.399636268615723,4.5166015625,-16.29638671875,40.1611328125
1.4274999000000002,0.618302583694458,-1.5999252796173096,9.305065155029297,9.6435546875,-11.260986328125,30.120849609375
1.4324999,0.5668272376060486,-1.3611036539077759,9.156025886535645,9.521484375,-8.575439453125,19.195556640625
1.4374999000000002,0.43335050344467163,-1.2802993059158325,9.279925346374512,21.148681640625,-8.148193359375,11.41357421875
1.4424999,0.3519476354122162,-0.9403226971626282,9.410409927368164,19.256591796875,-3.997802734375,0.030517578125
1.4474999000000002,0.4800374507904053,-0.48901569843292236,9.684545516967773,10.711669921875,3.0517578125,-13.427734375
1.4524999,0.6757634282112122,-0.04189852997660637,10.041281700134277,5.096435546875,8.636474609375,-13.0615234375
1.4574999000000002,0.8200140595436096,0.24361002445220947,10.254964828491211,-0.48828125,9.21630859375,-8.087158203125
1.4624999,0.8158242106437683,0.1454477459192276,10.254365921020508,-0.579833984375,9.94873046875,-13.36669921875
1.4674999000000002,0.5033808946609497,-0.4291606545448303,9.927556991577148,7.110595703125,19.1650390625,-32.470703125
1.4724999,0.3585317134857178,-0.6416460275650024,9.781511306762695,2.62451171875,19.22607421875,-34.698486328125
1.4774999000000002,0.26336219906806946,-0.8888474106788635,9.657610893249512,3.326416015625,17.852783203125,-30.1513671875
1.4824999,0.1885433793067932,-0.4985924959182739,9.882665634155273,-0.48828125,8.72802734375,-17.4560546875
1.4874999000000002,0.02274491637945175,-0.3734954595565796,9.88386344909668,-7.293701171875,2.9296875,-6.011962890625
1.4924999,-0.090979665517807,0.31603461503982544,10.217854499816895,-14.617919921875,-1.0986328125,-1.617431640625
1.4974999000000002,-0.22864626348018646,0.36990416049957275,10.230423927307129,-23.8037109375,-11.41357421875,9.21630859375
1.5024999,-0.19393034279346466,0.2561795711517334,10.015543937683105,-21.8505859375,-20.660400390625,28.167724609375
1.5074999000000002,-0.04728548228740692,-0.507570743560791,9.797073364257812,-8.636474609375,-24.90234375,36.31591796875
1.5124999000000001,0.243011474609375,-0.8954314589500427,9.437344551086426,0.3662109375,-17.9443359375,33.721923828125
1.5174999000000002,0.47405192255973816,-1.368884801864624,9.406219482421875,6.04248046875,-13.427734375,27.34375
1.5224999000000001,0.5823895931243896,-1.392826795578003,9.345766067504883,4.058837890625,-10.55908203125,20.5078125
1.5274999000000002,0.5638344883918762,-1.2623428106307983,9.41759204864502,14.70947265625,-10.7421875,17.181396484375
1.5324999000000001,0.5291185975074768,-1.1204863786697388,9.525331497192383,18.98193359375,-7.50732421875,8.880615234375
1.5374999000000003,0.6314706802368164,-0.7936778664588928,9.621698379516602,10.31494140625,-0.274658203125,-8.453369140625
1.5424999000000001,0.7972691655158997,-0.38127660751342773,9.891045570373535,5.7373046875,6.378173828125,-13.18359375
1.5474999,0.9355342984199524,-0.038307227194309235,10.070012092590332,1.52587890625,8.880615234375,-7.354736328125
1.5524999000000002,0.9475052952766418,0.05386953800916672,10.144830703735352,-1.0986328125,9.521484375,-9.82666015625
1.5574999,0.8212111592292786,-0.05506663769483566,10.037092208862305,2.01416015625,12.908935546875,-19.59228515625
1.5624999000000002,0.6356605291366577,-0.2968810200691223,9.93354320526123,6.77490234375,18.4326171875,-28.38134765625
1.5674999,0.4944026470184326,-0.5494692921638489,9.77791976928711,4.608154296875,20.477294921875,-31.524658203125
1.5724999000000002,0.3447650372982025,-0.7667431235313416,9.70429801940918,2.74658203125,19.500732421875,-30.242919921875
1.5774999,0.2322375625371933,-0.4878185987472534,9.810839653015137,3.326416015625,14.09912109375,-20.6298828125
1.5824999000000002,0.06584054976701736,-0.3842693865299225,9.9185791015625,-4.302978515625,4.150390625,-7.01904296875
1.5874999,-0.09157821536064148,0.23523031175136566,10.106523513793945,-13.24462890625,3.021240234375,-5.889892578125
1.5924999000000002,-0.2519897222518921,0.02513911761343479,10.322600364685059,-19.195556640625,-4.21142578125,1.861572265625
1.5974999,-0.28072014451026917,0.017956512048840523,10.019135475158691,-25.146484375,-14.678955078125,17.242431640625
1.6024999000000002,-0.19033902883529663,-0.6500257849693298,9.919178009033203,-12.8173828125,-23.5595703125,34.698486328125
1.6074999,0.06224924325942993,-1.026513934135437,9.48762321472168,-3.387451171875,-19.8974609375,33.75244140625
1.6124999000000002,0.34656068682670593,-1.1198878288269043,9.403825759887695,3.753662109375,-14.617919921875,29.35791015625
1.6174999,0.5309142470359802,-1.2575544118881226,9.389460563659668,3.173828125,-11.41357421875,22.674560546875
1.6224999000000002,0.5650315880775452,-1.0696096420288086,9.406818389892578,7.01904296875,-11.65771484375,19.775390625
1.6274999,0.48901569843292236,-1.0223240852355957,9.501389503479004,17.974853515625,-10.406494140625,14.373779296875
1.6324999000000002,0.5123591423034668,-0.761954665184021,9.567828178405762,14.007568359375,-5.4931640625,-0.42724609375
1.6374999000000001,0.6494272351264954,-0.4273650050163269,9.749788284301758,6.988525390625,1.953125,-12.725830078125
1.6424999000000002,0.8271966576576233,-0.09277531504631042,10.002974510192871,3.5400390625,6.9580078125,-9.46044921875
1.6474999000000001,0.9403226971626282,0.08499415963888168,10.117298126220703,-0.762939453125,8.4228515625,-7.415771484375
1.6524999000000002,0.596754789352417,-0.5728127360343933,9.848548889160156,6.2255859375,19.378662109375,-30.242919921875
1.6574999000000001,0.596754789352417,-0.5728127360343933,9.848548889160156,6.2255859375,19.378662109375,-30.242919921875
1.6624999000000003,0.48243165016174316,-0.706289529800415,9.719860076904297,2.899169921875,19.683837890625,-31.463623046875
1.6674999000000001,0.36571431159973145,-0.8631097078323364,9.695320129394531,4.302978515625,17.51708984375,-26.30615234375
1.6724999,0.26575639843940735,-0.46327802538871765,9.860519409179688,0.885009765625,10.345458984375,-14.862060546875
1.6774999000000002,0.08798690885305405,-0.28072014451026917,9.965266227722168,-6.04248046875,3.631591796875,-4.608154296875
1.6824999,-0.06524199992418289,0.32022446393966675,10.201693534851074,-14.801025390625,1.983642578125,-3.0517578125
1.6874999000000002,-0.22625206410884857,0.22625206410884857,10.226832389831543,-21.209716796875,-7.659912109375,7.01904296875
1.6924999,-0.22864626348018646,0.12749123573303223,9.96825885772705,-20.3857421875,-16.876220703125,23.86474609375
1.6974999000000002,-0.11851298063993454,-0.596754789352417,9.801262855529785,-7.232666015625,-23.162841796875,34.576416015625
1.7024999,0.15322890877723694,-0.8678981065750122,9.427767753601074,-0.457763671875,-16.78466796875,31.73828125
1.7074999000000002,0.50876784324646,-1.1851298809051514,9.442132949829102,10.498046875,-10.25390625,17.425537109375
1.7124999,0.50876784324646,-1.1851298809051514,9.442132949829102,10.498046875,-10.25390625,17.425537109375
1.7174999000000002,0.4537012279033661,-1.127070426940918,9.525331497192383,18.707275390625,-7.904052734375,9.796142578125
1.7224999,0.5410895943641663,-0.8176198601722717,9.570821762084961,11.71875,-1.739501953125,-6.988525390625
1.7274999000000002,0.7158663272857666,-0.4429273009300232,9.825803756713867,6.8359375,5.706787109375,-13.36669921875
1.7324999,0.8601169586181641,-0.05985504388809204,10.038887977600098,2.471923828125,7.965087890625,-6.2255859375
1.7374999000000002,0.9062053561210632,0.11791443079710007,10.15021800994873,-1.220703125,8.056640625,-7.843017578125
1.7424999,0.7930793166160583,-0.013766659423708916,10.08318042755127,0.457763671875,10.3759765625,-17.547607421875
1.7474999000000002,0.6206967830657959,-0.18974047899246216,9.971850395202637,5.615234375,15.899658203125,-26.580810546875
1.7524999,0.49978959560394287,-0.5997475385665894,9.802460670471191,5.92041015625,18.951416015625,-29.35791015625
1.7574999000000002,0.4076128304004669,-0.7493851184844971,9.716867446899414,2.74658203125,18.524169921875,-29.1748046875
1.7624999000000001,0.18734627962112427,-0.36750996112823486,9.880870819091797,-1.251220703125,5.31005859375,-6.988525390625
1.7674999000000002,0.008379706181585789,-0.02992752194404602,10.008959770202637,-9.613037109375,1.40380859375,-2.838134765625
1.7724999000000001,-0.14784196019172668,0.5051765441894531,10.301651000976562,-16.937255859375,-1.40380859375,-0.213623046875
1.7774999000000002,-0.2454056739807129,0.31364041566848755,10.19032096862793,-24.383544921875,-11.1083984375,10.19287109375
1.7824999000000001,-0.1843535304069519,0.004788403399288654,9.976638793945312,-16.4794921875,-19.95849609375,29.60205078125
1.7874999000000003,-0.02274491637945175,-0.7942764163017273,9.663596153259277,-3.692626953125,-22.125244140625,33.966064453125
1.7924999000000001,0.23822307586669922,-1.1264718770980835,9.391256332397461,2.288818359375,-14.129638671875,28.1982421875
1.7974999,0.42018240690231323,-1.371279001235962,9.41519832611084,3.875732421875,-11.53564453125,21.6064453125
1.8024999000000002,0.4836287498474121,-1.3186066150665283,9.39245319366455,4.0283203125,-11.53564453125,19.561767578125
1.8074999,0.4668693244457245,-1.1522095203399658,9.480440139770508,14.251708984375,-10.650634765625,15.93017578125
1.8124999000000002,0.507570743560791,-0.9929951429367065,9.556455612182617,16.78466796875,-6.683349609375,4.669189453125
1.8174999,0.6859387755393982,-0.6985083222389221,9.678560256958008,9.27734375,1.556396484375,-11.444091796875
1.8224999000000002,0.871489405632019,-0.33339259028434753,9.946710586547852,5.06591796875,7.87353515625,-11.505126953125
1.8274999,0.9385270476341248,0.010175357572734356,10.141240119934082,-0.823974609375,9.674072265625,-11.474609375
1.8324999000000002,0.7565677165985107,-0.13168109953403473,10.01075553894043,3.5400390625,14.251708984375,-22.857666015625
1.8374999,0.5835866928100586,-0.5045779943466187,9.871891975402832,7.537841796875,19.95849609375,-31.06689453125
1.8424999000000002,-0.3148375153541565,0.20949265360832214,10.369287490844727,-21.209716796875,-6.7138671875,3.631591796875
1.8474999,-0.3256114423274994,0.17238251864910126,9.95209789276123,-24.200439453125,-15.350341796875,19.561767578125
1.8524999000000002,-0.21188685297966003,-0.679354727268219,9.891644477844238,-8.544921875,-26.275634765625,37.811279296875
1.8574999,0.05446808785200119,-0.9756371974945068,9.402628898620605,-1.89208984375,-17.578125,30.70068359375
1.8624999000000002,0.48901569843292236,-1.2114660739898682,9.400833129882812,2.99072265625,-11.260986328125,19.10400390625
1.8674999,0.5171475410461426,-1.016338586807251,9.421183586120605,7.354736328125,-11.474609375,17.51708984375
1.8724999000000002,0.507570743560791,-1.0271124839782715,9.530119895935059,17.974853515625,-9.33837890625,10.650634765625
1.8774999,0.629675030708313,-0.7218518257141113,9.57441234588623,12.969970703125,-2.777099609375,-5.18798828125
1.8824999000000002,0.8271966576576233,-0.4189853072166443,9.81024169921875,6.561279296875,5.55419921875,-14.129638671875
1.8874999000000001,0.9756371974945068,-0.08259996026754379,10.029909133911133,2.227783203125,8.85009765625,-7.87353515625
1.8924999000000002,1.0103530883789062,0.07242459803819656,10.14902114868164,-0.67138671875,9.063720703125,-7.415771484375
1.8974999000000001,0.8565256595611572,-0.0454898327589035,10.072406768798828,1.40380859375,12.054443359375,-18.402099609375
1.9024999000000002,0.6536170840263367,-0.24779987335205078,9.96825885772705,6.378173828125,18.280029296875,-29.571533203125
1.9074999000000001,0.5111620426177979,-0.6817489266395569,9.737217903137207,6.011962890625,20.904541015625,-33.0810546875
1.9124999000000003,0.41359832882881165,-0.7841010689735413,9.713874816894531,6.8359375,19.287109375,-29.11376953125
1.9174999000000001,0.36092591285705566,-0.4776432514190674,9.758167266845703,5.06591796875,15.411376953125,-19.6533203125
1.9224999,-0.3429693877696991,-0.04249707981944084,10.339360237121582,-16.11328125,-5.43212890625,0.48828125
1.9274999000000002,-0.3824737071990967,0.30286651849746704,9.900622367858887,-28.1982421875,-13.97705078125,13.24462890625
1.9324999,-0.3232172429561615,-0.6224924325942993,10.02571964263916,-9.58251953125,-23.0712890625,33.87451171875
1.9374999000000002,0.016160860657691956,-0.8206126093864441,9.469067573547363,-6.04248046875,-19.134521484375,30.303955078125
1.9424999,0.35673606395721436,-1.116895079612732,9.487024307250977,-0.213623046875,-14.495849609375,29.815673828125
1.9474999000000002,0.5500678420066833,-1.1803414821624756,9.446921348571777,5.096435546875,-12.26806640625,26.824951171875
1.9524999,0.5662286877632141,-1.2114660739898682,9.406219482421875,4.69970703125,-11.71875,22.15576171875
1.9574999000000002,0.4836287498474121,-1.048660397529602,9.427767753601074,15.777587890625,-9.58251953125,13.946533203125
1.9624999,0.45669397711753845,-0.8637082576751709,9.53849983215332,18.035888671875,-5.43212890625,2.227783203125
1.9674999000000002,0.5985504388809204,-0.5823895931243896,9.671976089477539,8.056640625,1.495361328125,-11.04736328125
1.9724999,0.7846996188163757,-0.2017114907503128,9.975440979003906,2.3193359375,6.683349609375,-11.1083984375
1.9774999000000002,0.8966285586357117,-0.016759412363171577,10.142436981201172,0,10.009765625,-13.00048828125
1.9824999,0.7493851184844971,-0.2190694510936737,10.016142845153809,4.364013671875,15.19775390625,-24.261474609375
1.9874999000000002,0.6260837316513062,-0.7038952708244324,9.821015357971191,7.110595703125,18.5546875,-29.11376953125
1.9924999,0.536899745464325,-0.5746083855628967,9.730634689331055,4.913330078125,19.47021484375,-31.036376953125
1.9974999000000002,0.4189853072166443,-0.7948749661445618,9.80904483795166,6.28662109375,20.355224609375,-29.96826171875
2.0024999,0.3256114423274994,-0.15442600846290588,9.793481826782227,-2.655029296875,13.580322265625,-28.472900390625
2.0074999,0.076015904545784,0.005386953707784414,10.046669006347656,-5.706787109375,1.190185546875,-16.571044921875
2.0124999000000003,-0.2106897532939911,0.48901569843292236,10.109517097473145,-11.5966796875,0.732421875,-4.669189453125
2.0174999000000002,-0.3321954905986786,0.17178396880626678,10.078392028808594,-24.200439453125,-7.9345703125,4.45556640625
2.0224999,-0.3728969097137451,-0.04967968538403511,9.976638793945312,-18.402099609375,-19.561767578125,28.167724609375
2.0274999,-0.1777694821357727,-0.8277952671051025,9.815628051757812,-6.805419921875,-20.843505859375,30.487060546875
2.0324999000000004,0.46507367491722107,-1.2850877046585083,9.556455612182617,4.119873046875,-15.0146484375,32.867431640625
2.0374999000000003,0.5973533391952515,-1.2360066175460815,9.454702377319336,3.265380859375,-11.199951171875,26.30615234375
2.0424999,0.5829881429672241,-1.0187327861785889,9.413402557373047,6.927490234375,-8.85009765625,17.333984375
2.0474999,0.4950011968612671,-1.0336965322494507,9.50857162475586,18.5546875,-6.195068359375,8.453369140625
2.0524999,0.5021837949752808,-0.7015010714530945,9.57201862335205,14.434814453125,-1.64794921875,-4.08935546875
2.0574999000000003,0.6440402865409851,-0.4225766062736511,9.777320861816406,3.387451171875,5.035400390625,-14.0380859375
2.0624999,0.7841010689735413,-0.1107318252325058,10.071807861328125,1.739501953125,7.720947265625,-7.598876953125
2.0674999,0.8481459617614746,-0.07062894850969315,10.141838073730469,-0.274658203125,8.636474609375,-7.904052734375
2.0724999,0.7858967185020447,-0.11911153793334961,10.08198356628418,2.593994140625,12.054443359375,-17.669677734375
2.0774999000000003,0.6242880821228027,-0.3693056106567383,9.98681354522705,7.38525390625,16.41845703125,-25.2685546875
2.0824999,-0.08319851011037827,0.12689268589019775,9.925761222839355,-6.011962890625,-0.9765625,-10.467529296875
2.0874999,-0.28131869435310364,-0.20889410376548767,10.053253173828125,-12.908935546875,-3.84521484375,1.708984375
2.0924999,-0.32022446393966675,0.01496376097202301,9.867103576660156,-25.360107421875,-13.73291015625,12.725830078125
2.0974999000000003,-0.25917232036590576,-0.4854243993759155,9.911994934082031,-10.345458984375,-20.965576171875,32.04345703125
2.1024999,0.0011971008498221636,-0.9062053561210632,9.641449928283691,-5.035400390625,-18.341064453125,26.4892578125
2.1074999,0.2849099934101105,-1.0468647480010986,9.606734275817871,-0.54931640625,-17.242431640625,31.036376953125
2.1124999,0.5261258482933044,-1.0259153842926025,9.676764488220215,3.509521484375,-13.092041015625,26.885986328125
2.1174999000000003,0.5392939448356628,-1.0456676483154297,9.585784912109375,0.457763671875,-11.871337890625,22.918701171875
2.1224999,0.5554547905921936,-0.768538773059845,9.589376449584961,11.8408203125,-8.48388671875,13.916015625
2.1274999,0.4644751250743866,-0.5817909836769104,9.594164848327637,14.83154296875,-5.767822265625,6.988525390625
2.1324999,0.5668272376060486,-0.5261258482933044,9.660005569458008,7.87353515625,-2.532958984375,-6.378173828125
2.1374999000000003,0.8972271084785461,-0.19213469326496124,10.023324966430664,1.007080078125,7.38525390625,-5.767822265625
2.1424999000000002,0.9570821523666382,-0.26815059781074524,10.023923873901367,0.152587890625,8.6669921875,-8.331298828125
2.1474999,0.8684966564178467,-0.353743314743042,9.961674690246582,3.875732421875,12.20703125,-16.998291015625
2.1524999,0.6835445761680603,-0.5045779943466187,9.884461402893066,6.622314453125,15.869140625,-22.735595703125
2.1574999000000004,0.5740098357200623,-0.5991489887237549,9.751583099365234,2.716064453125,18.157958984375,-27.28271484375
2.1624999000000003,0.41718965768814087,-0.4991910457611084,9.8784761428833,2.99072265625,19.317626953125,-30.731201171875
2.1674999,0.2555810213088989,-0.7032967209815979,9.718663215637207,2.01416015625,17.578125,-27.130126953125
2.1724999,0.11911153793334961,-0.3292027413845062,9.88386344909668,0.030517578125,6.256103515625,-17.913818359375
2.1774999000000004,-0.10833762586116791,0.016759412363171577,9.888052940368652,-5.401611328125,-1.068115234375,-1.983642578125
2.1824999000000003,-0.27653029561042786,-0.15502455830574036,10.08318042755127,-15.167236328125,-4.8828125,3.90625
2.1874999,-0.2651578485965729,0.29388827085494995,9.87967300415039,-27.557373046875,-12.298583984375,10.833740234375
2.1924999,-0.22924481332302094,-0.3315969407558441,9.999382972717285,-8.758544921875,-19.500732421875,30.1513671875
2.1974999,0.27892449498176575,-0.9391255974769592,9.652822494506836,-0.396728515625,-16.41845703125,28.533935546875
2.2024999000000003,0.5129576921463013,-0.9594763517379761,9.6989107131958,1.739501953125,-11.71875,23.4375
2.2074999,0.5183446407318115,-0.9906009435653687,9.601346969604492,-1.373291015625,-12.237548828125,22.705078125
2.2124999,0.5422866940498352,-0.8900445103645325,9.583989143371582,11.90185546875,-8.85009765625,14.434814453125
2.2174999,0.4423287510871887,-0.7015010714530945,9.525331497192383,15.899658203125,-5.706787109375,6.77490234375
2.2224999000000003,0.5650315880775452,-0.767341673374176,9.609726905822754,9.1552734375,-2.105712890625,-7.049560546875
2.2274999,0.7362170219421387,-0.4429273009300232,9.785101890563965,1.46484375,4.2724609375,-11.627197265625
2.2324999,0.9085995554924011,-0.27234044671058655,10.013150215148926,1.52587890625,7.415771484375,-4.7607421875
2.2374999,0.9636662006378174,-0.2585737705230713,10.02811336517334,0,8.9111328125,-8.575439453125
2.2424999000000003,0.8565256595611572,-0.322618693113327,9.977835655212402,3.692626953125,12.298583984375,-17.181396484375
2.2474999,0.6637924313545227,-0.44532153010368347,9.894637107849121,7.049560546875,15.5029296875,-22.247314453125
2.2524999,0.5536591410636902,-0.5895721912384033,9.75936508178711,3.204345703125,17.303466796875,-25.634765625
2.2574999,0.27892449498176575,-0.7098808288574219,9.72165584564209,3.509521484375,17.669677734375,-25.08544921875
2.2624999000000003,0.14185644686222076,-0.30466216802597046,9.844358444213867,1.007080078125,6.805419921875,-15.07568359375
2.2674999000000002,-0.08499415963888168,0.0454898327589035,9.922768592834473,-4.8828125,-1.03759765625,-1.190185546875
2.2724999,-0.26815059781074524,-0.0035913025494664907,10.11789608001709,-14.862060546875,-4.852294921875,3.875732421875
2.2774999,-0.26815059781074524,-0.0035913025494664907,10.11789608001709,-14.862060546875,-4.852294921875,3.875732421875
2.2824999000000004,-0.25438392162323,0.2885012924671173,9.970054626464844,-29.052734375,-10.92529296875,8.331298828125
2.2874999000000003,-0.21847090125083923,-0.25318682193756104,10.068216323852539,-9.857177734375,-18.768310546875,30.1513671875
2.2924999,0.021547814831137657,-0.7984662652015686,9.68694019317627,-3.90625,-17.303466796875,26.336669921875
2.2974999,0.25318682193756104,-1.0115501880645752,9.657610893249512,-1.46484375,-16.204833984375,28.472900390625
2.3024999000000004,0.4704606235027313,-1.0420763492584229,9.671976089477539,1.922607421875,-11.53564453125,22.52197265625
2.3074999000000003,0.50876784324646,-1.0732009410858154,9.564237594604492,-1.953125,-11.993408203125,21.6064453125
2.3124999,0.5363011956214905,-0.8619126081466675,9.566033363342285,10.1318359375,-8.9111328125,13.336181640625
2.3174999,0.5524620413780212,-0.6805518269538879,9.59057331085205,10.55908203125,-2.38037109375,-5.92041015625
2.3224999,0.70090252161026,-0.43993455171585083,9.744400978088379,1.678466796875,3.997802734375,-12.20703125
2.3274999000000003,0.849941611289978,-0.2513911724090576,10.001777648925781,1.495361328125,7.01904296875,-5.157470703125
2.3324999,0.8924387097358704,-0.21667525172233582,10.059837341308594,-0.18310546875,7.8125,-7.32421875
2.3374999,0.778714120388031,-0.3076549172401428,9.98681354522705,1.64794921875,10.7421875,-16.326904296875
2.3424999,0.6075286865234375,-0.4357447028160095,9.920374870300293,6.591796875,13.7939453125,-21.42333984375
2.3474999000000003,0.5195417404174805,-0.6985083222389221,9.773131370544434,4.57763671875,15.80810546875,-23.0712890625
2.3524999,0.4596867263317108,-0.5285200476646423,9.81024169921875,1.28173828125,17.730712890625,-27.557373046875
2.3574999,0.35673606395721436,-0.6320692300796509,9.816825866699219,3.631591796875,18.035888671875,-25.726318359375
2.3624999,0.22864626348018646,-0.3693056106567383,9.84615421295166,1.495361328125,10.467529296875,-16.845703125
2.3674999000000003,-0.008379706181585789,-0.07781155407428741,9.93593692779541,-3.47900390625,-0.1220703125,-2.9296875
2.3724999,-0.22086510062217712,0.2124854028224945,10.145429611206055,-10.589599609375,-4.791259765625,5.2490234375
2.3774999,-0.16101007163524628,-0.06823474913835526,9.976638793945312,-15.899658203125,-15.411376953125,24.2919921875
2.3824999,0.023942016065120697,-0.8960300087928772,9.799467086791992,-0.579833984375,-16.998291015625,27.618408203125
2.3874999000000003,0.292691171169281,-0.9493009448051453,9.425971984863281,-2.288818359375,-14.312744140625,26.092529296875
2.3924999000000002,0.4507084786891937,-1.157596468925476,9.59715747833252,2.74658203125,-12.51220703125,23.101806640625
2.3974999,0.5123591423034668,-0.9804255962371826,9.566631317138672,-1.77001953125,-11.138916015625,18.85986328125
2.4024999,0.48303020000457764,-0.823006808757782,9.603142738342285,1.617431640625,-9.33837890625,13.97705078125
2.4074999000000004,0.4387374520301819,-0.9068039059638977,9.589975357055664,12.603759765625,-7.14111328125,6.378173828125
2.4124999000000003,0.4620809257030487,-0.7248445749282837,9.588179588317871,13.092041015625,-3.875732421875,-2.471923828125
2.4174999,0.619499683380127,-0.5877765417098999,9.66958236694336,5.462646484375,2.0751953125,-11.41357421875
2.4224999,0.7930793166160583,-0.27413609623908997,9.883264541625977,1.8310546875,5.859375,-6.134033203125
2.4274999000000004,0.8858546018600464,-0.18734627962112427,10.020332336425781,0.640869140625,6.805419921875,-4.364013671875
2.4324999000000003,0.6853402256965637,-0.3381809890270233,9.93354320526123,4.974365234375,10.589599609375,-16.204833984375
2.4374999,0.545877993106842,-0.5045779943466187,9.831191062927246,6.28662109375,13.24462890625,-19.04296875
2.4424999,0.5159504413604736,-0.5847837924957275,9.765948295593262,2.8076171875,15.411376953125,-21.91162109375
2.4474999,0.4225766062736511,-0.5494692921638489,9.850942611694336,3.204345703125,18.218994140625,-26.458740234375
2.4524999000000003,0.31364041566848755,-0.5913678407669067,9.778518676757812,3.11279296875,15.7470703125,-22.064208984375
2.4574999,0.15562310814857483,-0.33279404044151306,9.848548889160156,0.6103515625,6.072998046875,-10.284423828125
2.4624999,-0.06584054976701736,0.08918401598930359,9.907206535339355,-4.69970703125,-1.64794921875,3.2958984375
2.4674999,-0.22086510062217712,-0.09217676520347595,10.082581520080566,-13.702392578125,-6.256103515625,4.2724609375
2.4724999000000003,-0.17477671802043915,0.14604631066322327,9.882665634155273,-26.67236328125,-10.3759765625,6.683349609375
2.4774999,-0.09457096457481384,-0.38546648621559143,10.012551307678223,-6.77490234375,-16.326904296875,28.1982421875
2.4824999,0.11432313174009323,-0.8798691034317017,9.6618013381958,-1.46484375,-14.404296875,23.773193359375
2.4874999,0.29807811975479126,-0.9552865028381348,9.656414031982422,-1.46484375,-14.70947265625,25.20751953125
2.4924999000000003,0.44352585077285767,-0.9241618514060974,9.667786598205566,-4.82177734375,-11.8408203125,18.61572265625
2.4974999,0.48722004890441895,-0.7332242727279663,9.66958236694336,6.591796875,-8.7890625,12.542724609375
2.5024999,0.4411316514015198,-0.7547720670700073,9.528324127197266,13.7939453125,-6.378173828125,5.615234375
2.5074999,0.558447539806366,-0.7320271730422974,9.569025993347168,11.688232421875,-2.0751953125,-5.9814453125
2.5124999000000003,0.7056909799575806,-0.5949591398239136,9.671378135681152,3.11279296875,3.997802734375,-11.383056640625
2.5174999000000002,0.8517372608184814,-0.3728969097137451,9.8970308303833,1.52587890625,6.439208984375,-3.84521484375
2.5224999,0.8900445103645325,-0.28730419278144836,9.99220085144043,0.396728515625,7.14111328125,-5.950927734375
2.5274999,0.7829039692878723,-0.3728969097137451,9.954492568969727,1.678466796875,9.307861328125,-14.434814453125
2.5324999000000004,0.6230909824371338,-0.45010992884635925,9.893440246582031,6.34765625,12.26806640625,-18.4326171875
2.5374999000000003,0.5363011956214905,-0.6721721291542053,9.799467086791992,6.34765625,14.09912109375,-19.500732421875
2.5424999,0.5099649429321289,-0.5446808934211731,9.77791976928711,1.922607421875,16.4794921875,-23.4375
2.5474999,0.3932476341724396,-0.7858967185020447,9.843161582946777,4.5166015625,18.096923828125,-25.20751953125
2.5524999000000004,-0.15263035893440247,0.17896658182144165,10.083779335021973,-6.9580078125,-3.2958984375,4.913330078125
2.5574999000000003,-0.2513911724090576,-0.09457096457481384,10.17176628112793,-19.71435546875,-7.87353515625,1.953125
2.5624999,0.2148796021938324,-0.5201402902603149,9.428366661071777,-4.08935546875,-13.671875,22.5830078125
2.5674999,0.3687070608139038,-0.9235633015632629,9.664793968200684,0.67138671875,-14.2822265625,24.566650390625
2.5724999,0.4818331003189087,-0.5841852426528931,9.615114212036133,-2.532958984375,-11.016845703125,18.73779296875
2.5774999000000003,0.4752490520477295,-0.6835445761680603,9.621099472045898,-3.0517578125,-10.772705078125,16.845703125
2.5824999,0.4513070285320282,-0.8158242106437683,9.633070945739746,10.3759765625,-8.209228515625,9.21630859375
2.5874999,0.43035775423049927,-0.8224082589149475,9.519944190979004,14.129638671875,-5.859375,1.739501953125
2.5924999,0.595557689666748,-0.9792284965515137,9.611522674560547,8.1787109375,-0.091552734375,-9.8876953125
2.5974999000000003,0.8948329091072083,-0.4273650050163269,9.961674690246582,1.007080078125,6.439208984375,-3.0517578125
2.6024999,0.8786720037460327,-0.3250128924846649,9.996390342712402,0.1220703125,6.866455078125,-8.85009765625
2.6074999,0.7410054206848145,-0.36152446269989014,9.928754806518555,2.74658203125,9.6435546875,-16.11328125
2.6124999,0.5883750915527344,-0.4728548228740692,9.864709854125977,6.65283203125,12.75634765625,-18.463134765625
2.6174999000000003,0.5530605912208557,-0.6607996821403503,9.755773544311523,4.45556640625,14.862060546875,-19.6533203125
2.6224999,0.49619829654693604,-0.5111620426177979,9.810839653015137,1.861572265625,17.822265625,-25.69580078125
2.6274999,0.3794809579849243,-0.5668272376060486,9.814431190490723,4.425048828125,17.425537109375,-23.74267578125
2.6324999,0.23702596127986908,-0.37888240814208984,9.86889934539795,1.922607421875,9.27734375,-14.068603515625
2.6374999000000003,0,-0.03950432687997818,9.95090103149414,-2.593994140625,0.91552734375,-0.396728515625
2.6424999000000002,-0.1975216418504715,0.1801636815071106,10.170568466186523,-9.70458984375,-4.302978515625,5.401611328125
2.6474999,-0.20949265360832214,0.03232172131538391,10.02691650390625,-25.421142578125,-8.6669921875,2.899169921875
2.6524999,-0.15502455830574036,-0.05267243832349777,9.983222961425781,-13.24462890625,-14.58740234375,24.5361328125
2.6574999000000004,0.27653029561042786,-0.900818407535553,9.479243278503418,-3.875732421875,-14.312744140625,26.123046875
2.6624999000000003,0.4531026780605316,-1.0618284940719604,9.655217170715332,0.67138671875,-11.90185546875,22.857666015625
2.6674999,0.48901569843292236,-0.9798270463943481,9.604938507080078,-3.936767578125,-11.3525390625,20.44677734375
2.6724999,0.48901569843292236,-0.8553285598754883,9.605537414550781,2.593994140625,-9.063720703125,15.07568359375
2.6774999000000004,0.4040215313434601,-0.9876081943511963,9.541492462158203,14.007568359375,-6.988525390625,7.2021484375
2.6824999000000003,0.46567222476005554,-0.8158242106437683,9.546280860900879,14.2822265625,-3.173828125,-3.173828125
2.6874999,0.6320692300796509,-0.6482301354408264,9.642048835754395,5.279541015625,3.326416015625,-12.237548828125
2.6924999,0.8080430626869202,-0.2861070930957794,9.9000244140625,2.044677734375,6.622314453125,-5.218505859375
2.6974999,0.8954314589500427,-0.14365209639072418,10.050260543823242,0.518798828125,7.110595703125,-5.218505859375
2.7024999000000003,0.8224082589149475,-0.21009120345115662,10.022128105163574,0.701904296875,9.3994140625,-14.739990234375
2.7074999,0.6506243348121643,-0.2735375463962555,9.966463088989258,5.615234375,12.359619140625,-19.6533203125
2.7124999,0.5327098965644836,-0.5674257874488831,9.839570045471191,5.950927734375,14.22119140625,-21.42333984375
2.7174999,0.46986207365989685,-0.45429977774620056,9.792284965515137,1.3427734375,17.15087890625,-27.191162109375
2.7224999000000003,0.33339259028434753,-0.7601590156555176,9.847949981689453,4.21142578125,19.22607421875,-30.059814453125
2.7274999,0.23942017555236816,-0.36750996112823486,9.77253246307373,2.0751953125,12.542724609375,-21.759033203125
2.7324999,0.03890577703714371,-0.42437225580215454,9.955090522766113,-1.983642578125,0.8544921875,-8.941650390625
2.7374999,-0.15562310814857483,0.17298106849193573,10.087369918823242,-9.063720703125,-3.082275390625,3.90625
2.7424999000000003,-0.21966800093650818,0.05925649031996727,10.15021800994873,-24.7802734375,-8.697509765625,3.936767578125
2.7474999,-0.14245499670505524,0.1735796183347702,9.96945571899414,-21.30126953125,-14.678955078125,20.477294921875
2.7524999,-0.0011971008498221636,-0.6189011335372925,9.971850395202637,-3.021240234375,-18.524169921875,30.487060546875
2.7574999,0.3064578175544739,-0.6542156338691711,9.4822359085083,-5.55419921875,-16.082763671875,30.09033203125
2.7624999000000003,0.5117605924606323,-1.0797849893569946,9.678560256958008,0.274658203125,-13.671875,28.4423828125
2.7674999000000002,0.5841852426528931,-1.0223240852355957,9.592369079589844,-1.251220703125,-11.77978515625,24.749755859375
2.7724999,0.5321113467216492,-0.9187749028205872,9.512762069702148,1.953125,-10.772705078125,18.85986328125
2.7774999,0.45429977774620056,-1.0558429956436157,9.43375301361084,15.472412109375,-7.568359375,11.3525390625
2.7824999000000004,0.823006808757782,-0.12330138683319092,10.087369918823242,0.3662109375,7.415771484375,-6.28662109375
2.7874999000000003,0.7841010689735413,-0.14903905987739563,10.065223693847656,-0.91552734375,10.43701171875,-15.7470703125
2.7924999,0.6236895322799683,-0.2472013235092163,10.023923873901367,5.279541015625,14.22119140625,-23.98681640625
2.7974999,0.5159504413604736,-0.6147112846374512,9.862914085388184,6.439208984375,15.80810546875,-26.85546875
2.8024999000000004,0.37469255924224854,-0.6931213736534119,9.77672290802002,4.57763671875,20.08056640625,-32.623291015625
2.8074999000000003,0.3034650683403015,-0.3734954595565796,9.872490882873535,2.8076171875,8.7890625,-21.759033203125
2.8124999,0.11432313174009323,0.046088382601737976,9.97603988647461,-3.96728515625,1.64794921875,-7.843017578125
2.8174999,-0.08738835901021957,0.02693476900458336,10.230423927307129,-13.275146484375,-3.814697265625,4.82177734375
2.8224999,-0.09457096457481384,-0.20290859043598175,10.111311912536621,-15.80810546875,-17.303466796875,29.4189453125
2.8274999000000003,0.12988543510437012,-0.8248024582862854,9.804255485534668,-4.82177734375,-18.096923828125,32.1044921875
2.8324999,0.3669114112854004,-1.05105459690094,9.561842918395996,-4.150390625,-16.357421875,35.5224609375
2.8374999,0.5380968451499939,-1.0983400344848633,9.564237594604492,1.89208984375,-11.932373046875,29.754638671875
2.8424999,0.4704606235027313,-1.0989385843276978,9.407417297363281,-0.640869140625,-12.939453125,27.52685546875
2.8474999000000003,0.4315548539161682,-0.9367313981056213,9.318233489990234,11.23046875,-10.1318359375,16.9677734375
2.8524999,0.31184476613998413,-0.7631517648696899,9.297284126281738,22.308349609375,-7.2021484375,12.14599609375
2.8574999,0.40462008118629456,-0.7972691655158997,9.43255615234375,15.7470703125,-2.74658203125,-1.495361328125
2.8624999,0.5913678407669067,-0.4596867263317108,9.6803560256958,2.38037109375,4.730224609375,-13.519287109375
2.8674999000000003,0.7793126702308655,-0.23762452602386475,10.098742485046387,2.044677734375,7.720947265625,-8.697509765625
2.8724999,0.8469488620758057,-0.2041056901216507,10.169970512390137,-1.03759765625,9.21630859375,-10.650634765625
2.8774999,0.7565677165985107,-0.18076223134994507,10.122684478759766,1.46484375,13.24462890625,-21.209716796875
2.8824999,-0.17896658182144165,-0.06703764945268631,10.228029251098633,-24.017333984375,-8.056640625,4.669189453125
2.8874999000000003,-0.1280897855758667,0.34177228808403015,10.00836181640625,-26.580810546875,-13.763427734375,18.798828125
2.8924999000000002,0.0017956512747332454,-0.5147533416748047,10.047266960144043,-4.180908203125,-18.49365234375,32.65380859375
2.8974999,0.3274070918560028,-0.5261258482933044,9.452906608581543,-4.547119140625,-15.594482421875,32.073974609375
2.9024999,0.5452794432640076,-1.1276689767837524,9.606734275817871,1.800537109375,-13.641357421875,32.8369140625
2.9074999000000004,0.5919663906097412,-1.1546037197113037,9.475052833557129,1.556396484375,-11.5966796875,28.86962890625
2.9124999000000003,0.46746787428855896,-1.0720038414001465,9.399636268615723,4.486083984375,-11.474609375,22.125244140625
2.9174999,0.3603273630142212,-1.161187767982483,9.352949142456055,18.890380859375,-7.9345703125,12.725830078125
2.9224999,0.2932897210121155,-0.8649053573608398,9.455899238586426,21.30126953125,-5.37109375,5.31005859375
2.9274999000000004,0.47225627303123474,-0.5722141861915588,9.55705451965332,5.889892578125,1.678466796875,-11.962890625
2.9324999000000003,0.7044938206672668,-0.12449848651885986,9.986215591430664,1.46484375,6.622314453125,-10.8642578125
2.9374999,0.8487445116043091,0.038307227194309235,10.181343078613281,-0.79345703125,8.453369140625,-7.50732421875
2.9424999,0.8415619134902954,0.0011971008498221636,10.132261276245117,-0.9765625,11.474609375,-17.059326171875
2.9474999,0.6643909811973572,-0.16101007163524628,10.070012092590332,5.523681640625,15.350341796875,-25.726318359375
2.9524999000000003,0.5141547918319702,-0.5309142470359802,9.853935241699219,5.37109375,17.181396484375,-30.181884765625
2.9574999,0.3824737071990967,-0.47824180126190186,9.800664901733398,0.48828125,20.08056640625,-38.116455078125
2.9624999,0.21966800093650818,-0.3321954905986786,9.790489196777344,1.007080078125,7.01904296875,-24.993896484375
2.9674999,0.21966800093650818,-0.3321954905986786,9.790489196777344,1.007080078125,7.01904296875,-24.993896484375
2.9724999000000003,0.043095629662275314,0.06165069341659546,9.932944297790527,-5.828857421875,1.708984375,-9.124755859375
2.9774999,0.545877993106842,-1.0301052331924438,9.589975357055664,0.30517578125,-15.44189453125,37.261962890625
2.9824999,0.6631938815116882,-1.2216414213180542,9.595361709594727,3.326416015625,-10.986328125,28.839111328125
2.9874999,0.46627077460289,-1.1456254720687866,9.311649322509766,2.197265625,-13.36669921875,27.313232421875
2.9924999000000003,0.38546648621559143,-1.1480196714401245,9.339780807495117,19.134521484375,-9.521484375,16.66259765625
2.9974999,0.23523031175136566,-0.8696937561035156,9.336788177490234,23.5595703125,-6.195068359375,10.650634765625
3.0024999,0.4040215313434601,-0.7625532150268555,9.552865028381348,8.97216796875,-0.54931640625,-8.209228515625
3.0074999,0.6218938827514648,-0.2711433470249176,9.965266227722168,0.67138671875,6.16455078125,-15.350341796875
3.0124999000000003,0.8206126093864441,-0.05626374110579491,10.254365921020508,-0.30517578125,8.36181640625,-8.30078125
3.0174999000000002,0.8852560520172119,-0.03770867735147476,10.219051361083984,-1.373291015625,10.80322265625,-13.61083984375
3.0224999,0.5949591398239136,-0.47225627303123474,9.955090522766113,6.103515625,17.333984375,-29.327392578125
3.0274999,0.4465186297893524,-0.49320554733276367,9.827000617980957,0.244140625,19.22607421875,-36.0107421875
3.0324999000000004,0.34416648745536804,-0.5638344883918762,9.77253246307373,3.570556640625,19.22607421875,-35.797119140625
3.0374999000000003,0.24121582508087158,-0.4554968774318695,9.775525093078613,2.5634765625,9.490966796875,-25.909423828125
3.0424999,-0.166995570063591,0.060453593730926514,10.13525390625,-32.989501953125,-10.31494140625,6.04248046875
3.0474999,-0.07960720360279083,-0.08379705995321274,10.124480247497559,-20.32470703125,-16.876220703125,28.961181640625
3.0524999000000004,0.17477671802043915,-1.0091559886932373,9.88386344909668,-2.105712890625,-17.63916015625,33.38623046875
3.0574999000000003,0.45250412821769714,-1.1743559837341309,9.396044731140137,-2.227783203125,-14.984130859375,34.881591796875
3.0624999,0.6224924325942993,-1.3868412971496582,9.551667213439941,3.326416015625,-10.650634765625,26.947021484375
3.0674999,0.5225345492362976,-1.2743138074874878,9.282918930053711,-1.89208984375,-11.29150390625,24.47509765625
3.0724999000000004,0.314238965511322,-0.8619126081466675,9.296685218811035,22.796630859375,-6.195068359375,9.613037109375
3.0774999000000003,0.3579331636428833,-0.579995334148407,9.499593734741211,16.082763671875,-2.62451171875,-1.953125
3.0824999,0.5542576909065247,-0.363918662071228,9.733028411865234,0.9765625,4.302978515625,-15.350341796875
3.0874999,0.7487865686416626,-0.14245499670505524,10.153210639953613,1.495361328125,6.927490234375,-7.598876953125
3.0924999,0.849941611289978,-0.17178396880626678,10.180744171142578,-0.640869140625,8.11767578125,-7.38525390625
3.0974999000000003,0.7954735159873962,-0.2106897532939911,10.123882293701172,2.838134765625,11.71875,-17.425537109375
3.1024999,0.6123170852661133,-0.3932476341724396,10.018536567687988,6.439208984375,14.007568359375,-23.284912109375
3.1074999,0.49380409717559814,-0.6314706802368164,9.85034465789795,2.838134765625,15.716552734375,-27.40478515625
3.1124999,0.38307225704193115,-0.4255693554878235,9.84615421295166,-0.6103515625,17.974853515625,-32.40966796875
3.1174999000000003,0.3106476664543152,-0.6811503767967224,9.773131370544434,4.547119140625,16.05224609375,-26.580810546875
3.1224999,-0.035913024097681046,-0.40043023228645325,10.066421508789062,-11.1083984375,-16.815185546875,30.33447265625
3.1274999,0.17836803197860718,-0.9624691009521484,9.702502250671387,-0.9765625,-15.106201171875,28.3203125
3.1324999,0.3926490843296051,-1.0396820306777954,9.544485092163086,-1.3427734375,-14.09912109375,28.80859375
3.1374999000000003,0.5099649429321289,-1.0684125423431396,9.637260437011719,1.40380859375,-9.429931640625,19.8974609375
3.1424999000000002,0.46148237586021423,-0.9923965930938721,9.442731857299805,-5.2490234375,-11.29150390625,20.782470703125
3.1474999,0.456095427274704,-0.8337807655334473,9.504382133483887,12.298583984375,-9.368896484375,15.289306640625
3.1524999,0.365115761756897,-0.8080430626869202,9.351153373718262,19.195556640625,-5.126953125,5.18798828125
3.1574999000000004,0.45190557837486267,-0.7206547260284424,9.512762069702148,12.786865234375,-1.52587890625,-6.7138671875
3.1624999000000003,0.6111199855804443,-0.5051765441894531,9.707290649414062,1.708984375,3.753662109375,-13.275146484375
3.1674999,0.7691373229026794,-0.26755204796791077,10.031106948852539,0.9765625,5.67626953125,-4.33349609375
3.1724999,0.4537012279033661,-0.5129576921463013,9.79647445678711,-0.701904296875,17.242431640625,-27.89306640625
3.1774999000000004,0.36152446269989014,-0.5392939448356628,9.825803756713867,5.950927734375,16.326904296875,-23.4375
3.1824999000000003,0.2555810213088989,-0.5392939448356628,9.75637149810791,3.814697265625,9.521484375,-13.763427734375
3.1874999,0.07541735470294952,-0.19692309200763702,9.853337287902832,-2.13623046875,1.495361328125,-1.89208984375
3.1924999,-0.1364694982767105,0.11432313174009323,10.146028518676758,-8.819580078125,-5.401611328125,7.080078125
3.1974999000000004,-0.17657238245010376,0.06165069341659546,10.119691848754883,-28.411865234375,-8.026123046875,0.091552734375
3.2024999000000003,-0.055665191262960434,0.1322796493768692,9.961674690246582,-19.378662109375,-13.031005859375,21.78955078125
3.2074999,0.060453593730926514,-0.8493430614471436,9.947908401489258,1.953125,-15.68603515625,28.533935546875
3.2124999,0.31842881441116333,-0.7523778676986694,9.406818389892578,-3.387451171875,-12.939453125,24.566650390625
3.2174999,0.4429273009300232,-0.8026561141014099,9.3828763961792,15.07568359375,-3.936767578125,-1.953125
3.2224999000000003,0.5961562395095825,-0.7356184720993042,9.552865028381348,7.843017578125,0.762939453125,-11.566162109375
3.2274999,0.7715315222740173,-0.2579752206802368,9.817423820495605,1.5869140625,5.340576171875,-6.89697265625
3.2324999,0.9056068062782288,-0.18375498056411743,10.032901763916016,0.579833984375,7.62939453125,-4.608154296875
3.2374999,0.8750807046890259,-0.2711433470249176,10.023923873901367,1.5869140625,9.46044921875,-11.5966796875
3.2424999000000003,0.7362170219421387,-0.2944868206977844,9.991601943969727,7.4462890625,9.796142578125,-13.5498046875
3.2474999,0.5536591410636902,-0.48303020000457764,9.892242431640625,5.889892578125,12.908935546875,-18.85986328125
3.2524999,0.47824180126190186,-0.6254851818084717,9.841365814208984,1.678466796875,17.242431640625,-25.421142578125
3.2574999,0.41120412945747375,-0.5973533391952515,9.829395294189453,2.38037109375,17.486572265625,-26.275634765625
3.2624999000000003,0.15562310814857483,-0.41539400815963745,9.791088104248047,0.579833984375,5.828857421875,-7.720947265625
3.2674999000000002,-0.0454898327589035,0.2346317619085312,10.003573417663574,-4.33349609375,-1.861572265625,4.486083984375
3.2724999,-0.23343466222286224,0.1346738487482071,10.163386344909668,-16.632080078125,-7.049560546875,3.143310546875
3.2774999,-0.1412578970193863,0.3794809579849243,9.983820915222168,-31.036376953125,-8.758544921875,4.638671875
3.2824999000000004,-0.04010287672281265,-0.2669534981250763,10.028712272644043,-6.988525390625,-16.357421875,30.975341796875
3.2874999000000003,0.17896658182144165,-0.8367735147476196,9.61571216583252,0.457763671875,-13.519287109375,24.71923828125
3.2924999,0.37169981002807617,-0.9481038451194763,9.603142738342285,-1.220703125,-13.092041015625,23.956298828125
3.2974999,0.4728548228740692,-0.960673451423645,9.725247383117676,-1.129150390625,-9.6435546875,15.838623046875
3.3024999000000004,0.4345476031303406,-0.8684966564178467,9.592369079589844,-7.354736328125,-11.23046875,18.00537109375
3.3074999000000003,0.47465047240257263,-0.8200140595436096,9.658209800720215,10.1318359375,-7.843017578125,11.566162109375
3.3124999,0.3728969097137451,-0.8044517636299133,9.437344551086426,14.58740234375,-4.791259765625,2.410888671875
3.3174999,0.48482584953308105,-0.8319851160049438,9.536105155944824,11.41357421875,-2.349853515625,-7.904052734375
3.3224999000000004,0.8134300112724304,-0.37409400939941406,9.923966407775879,0.518798828125,6.04248046875,-4.33349609375
3.3274999000000003,0.8631097078323364,-0.3585317134857178,10.00836181640625,-0.1220703125,8.392333984375,-7.99560546875
3.3324999,0.7906851172447205,-0.3387795388698578,9.944915771484375,2.655029296875,9.70458984375,-15.07568359375
3.3374999,0.6075286865234375,-0.47824180126190186,9.896432876586914,7.87353515625,10.31494140625,-16.78466796875
3.3424999,0.48602294921875,-0.5512649416923523,9.812037467956543,4.8828125,15.2587890625,-23.956298828125
3.3474999000000003,0.4596867263317108,-0.5602431893348694,9.774927139282227,0.3662109375,17.9443359375,-28.839111328125
3.3524999,0.3860650360584259,-0.5704185366630554,9.844358444213867,6.34765625,16.7236328125,-23.651123046875
3.3574999,0.29807811975479126,-0.5321113467216492,9.780313491821289,4.241943359375,9.70458984375,-13.24462890625
3.3624999,0.1041477769613266,-0.24001872539520264,9.907206535339355,-1.89208984375,0.885009765625,-1.861572265625
3.3674999000000003,-0.11671733111143112,0.1538274586200714,10.169371604919434,-9.246826171875,-5.279541015625,6.805419921875
3.3724999,-0.1909375786781311,0.07062894850969315,10.154407501220703,-28.656005859375,-8.331298828125,0
3.3774999,-0.05446808785200119,0.16579847037792206,9.977835655212402,-20.721435546875,-13.73291015625,22.979736328125
3.3824999,0.3585317134857178,-0.7487865686416626,9.406219482421875,-3.2958984375,-12.8173828125,26.947021484375
3.3874999000000003,0.4495113790035248,-1.2102689743041992,9.72285270690918,0.67138671875,-11.71875,21.820068359375
3.3924999000000002,0.4495113790035248,-1.1007342338562012,9.61212158203125,-6.04248046875,-11.016845703125,18.06640625
3.3974999,0.4118026793003082,-0.8481459617614746,9.582792282104492,1.129150390625,-10.955810546875,16.78466796875
3.4024999,0.365115761756897,-1.1073182821273804,9.485228538513184,15.68603515625,-6.744384765625,5.9814453125
3.4074999000000004,0.3908534348011017,-0.7487865686416626,9.422380447387695,15.0146484375,-3.570556640625,-2.166748046875
3.4124999000000003,0.5644330382347107,-0.6643909811973572,9.535507202148438,6.561279296875,1.03759765625,-11.749267578125
3.4174999,0.7535749673843384,-0.2777273952960968,9.828198432922363,1.52587890625,5.279541015625,-8.087158203125
3.4224999,0.8655039072036743,-0.1933317929506302,10.031704902648926,0.6103515625,7.50732421875,-5.706787109375
3.4274999000000004,0.8254010081291199,-0.29209262132644653,10.00716495513916,0.8544921875,8.880615234375,-12.542724609375
3.4324999000000003,0.67815762758255,-0.3208230137825012,9.965864181518555,6.378173828125,9.82666015625,-16.510009765625
3.4374999,0.5027823448181152,-0.5117605924606323,9.873687744140625,6.622314453125,13.275146484375,-21.881103515625
3.4424999,0.42856210470199585,-0.7864952683448792,9.815628051757812,3.7841796875,17.852783203125,-27.34375
3.4474999000000004,0.37409400939941406,-0.7284358739852905,9.804854393005371,6.134033203125,13.031005859375,-16.90673828125
3.4524999000000003,0.21847090125083923,-0.7038952708244324,9.829395294189453,-0.030517578125,4.119873046875,-6.134033203125
3.4574999,0.002992752008140087,0.23104046285152435,10.059837341308594,-5.279541015625,-2.99072265625,5.615234375
3.4624999,-0.2064998894929886,-0.10594342648983002,10.337564468383789,-21.331787109375,-7.568359375,1.40380859375
3.4674999,-0.07960720360279083,0.5997475385665894,9.987412452697754,-29.876708984375,-10.467529296875,11.8408203125
3.4724999000000003,-0.002992752008140087,-0.3250128924846649,10.152013778686523,-3.11279296875,-17.4560546875,33.99658203125
3.4774999,0.30466216802597046,-0.5081692934036255,9.50737476348877,-0.946044921875,-12.3291015625,26.763916015625
3.4824999,0.40462008118629456,-0.7846996188163757,9.545681953430176,0.6103515625,-13.031005859375,25.665283203125
3.4874999,0.4644751250743866,-0.8391677141189575,9.622296333312988,-1.495361328125,-9.6435546875,16.632080078125
3.4924999000000003,0.34177228808403015,-0.7769184708595276,9.45111083984375,-4.8828125,-11.627197265625,18.12744140625
3.4974999,0.3519476354122162,-1.0079588890075684,9.561244010925293,14.251708984375,-8.23974609375,9.1552734375
3.5024999,0.6775590777397156,-0.6147112846374512,9.75517463684082,2.349853515625,4.180908203125,-10.040283203125
3.5074999,0.8720879554748535,-0.375291109085083,10.036493301391602,0.335693359375,6.988525390625,-5.126953125
3.5124999000000003,0.8559271097183228,-0.37169981002807617,10.05923843383789,-0.213623046875,8.60595703125,-9.918212890625
3.5174999000000002,0.7625532150268555,-0.2717418968677521,10.007762908935547,3.662109375,9.70458984375,-15.716552734375
3.5224999,0.547075092792511,-0.49140989780426025,9.911994934082031,6.591796875,11.5966796875,-19.439697265625
3.5274999,0.547075092792511,-0.49140989780426025,9.911994934082031,6.591796875,11.5966796875,-19.439697265625
3.5324999000000004,0.47225627303123474,-0.639850378036499,9.818022727966309,3.448486328125,16.6015625,-27.28271484375
3.5374999000000003,0.4279635548591614,-0.4926069974899292,9.783905029296875,1.03759765625,17.88330078125,-29.205322265625
3.5424999,0.38965633511543274,-0.6751648783683777,9.791088104248047,7.293701171875,15.44189453125,-20.233154296875
3.5474999,0.27892449498176575,-0.34177228808403015,9.806650161743164,2.593994140625,7.38525390625,-10.25390625
3.5524999000000004,0.3423708379268646,-1.0295066833496094,9.457695007324219,-1.40380859375,-12.969970703125,26.519775390625
3.5574999000000003,0.43035775423049927,-1.0115501880645752,9.632472038269043,0.18310546875,-10.528564453125,18.157958984375
3.5624999,0.3705027103424072,-0.849941611289978,9.455301284790039,-7.32421875,-11.749267578125,17.88330078125
3.5674999,0.3824737071990967,-0.7272387742996216,9.57441234588623,7.75146484375,-9.674072265625,12.939453125
3.5724999000000004,0.3232172429561615,-0.8092401623725891,9.400833129882812,15.5029296875,-5.523681640625,3.662109375
3.5774999000000003,0.456095427274704,-0.7733271718025208,9.513958930969238,13.48876953125,-2.838134765625,-5.828857421875
3.5824999,0.6350619792938232,-0.6422445774078369,9.657610893249512,4.33349609375,2.471923828125,-11.29150390625
3.5874999,0.8439561128616333,-0.3298012912273407,9.95329475402832,0.6103515625,6.16455078125,-5.67626953125
3.5924999,0.8206126093864441,-0.24839842319488525,10.020332336425781,1.373291015625,9.21630859375,-14.190673828125
3.5974999000000003,0.6027402877807617,-0.375291109085083,9.95748519897461,6.591796875,10.528564453125,-18.035888671875
3.6024999,0.44412440061569214,-0.5009866952896118,9.85034465789795,4.638671875,15.07568359375,-25.482177734375
3.6074999,0.40222588181495667,-0.585382342338562,9.767146110534668,0.1220703125,17.333984375,-29.84619140625
3.6124999,0.33758243918418884,-0.6272808313369751,9.812037467956543,5.340576171875,16.021728515625,-23.8037109375
3.6174999000000003,0.28790274262428284,-0.6332663297653198,9.75936508178711,4.119873046875,9.58251953125,-13.00048828125
3.6224999,0.13048399984836578,-0.3214215636253357,9.879075050354004,-1.861572265625,1.5869140625,-0.6103515625
3.6274999,-0.06703764945268631,0.10295066982507706,10.207080841064453,-8.6669921875,-5.462646484375,6.561279296875
3.6324999,-0.12629413604736328,0.076015904545784,10.183138847351074,-29.11376953125,-7.843017578125,-0.274658203125
3.6374999000000003,0.01496376097202301,0.18734627962112427,10.010157585144043,-21.087646484375,-13.671875,24.2919921875
3.6424999000000002,0.1412578970193863,-0.8194155097007751,9.956886291503906,1.739501953125,-15.594482421875,31.67724609375
3.6474999,0.4159925580024719,-0.7475894689559937,9.378087997436523,-2.288818359375,-11.932373046875,27.52685546875
3.6524999,0.4010287821292877,-0.8756792545318604,9.550470352172852,1.495361328125,-9.918212890625,15.838623046875
3.6574999000000004,0.3214215636253357,-1.146224021911621,9.484031677246094,16.17431640625,-6.378173828125,6.072998046875
3.6624999000000003,0.35434186458587646,-0.7835025191307068,9.407417297363281,15.777587890625,-3.23486328125,-3.082275390625
3.6674999,0.5237316489219666,-0.6721721291542053,9.554061889648438,7.62939453125,1.46484375,-11.993408203125
3.6724999,0.7266402244567871,-0.2322375625371933,9.855731010437012,1.434326171875,5.55419921875,-7.38525390625
3.6774999000000004,0.8445546627044678,-0.09876082092523575,10.081384658813477,0,7.659912109375,-5.55419921875
3.6824999000000003,0.41778820753097534,-0.6033388376235962,9.798869132995605,1.3427734375,16.845703125,-29.1748046875
3.6874999,0.39145198464393616,-0.8277952671051025,9.820416450500488,3.72314453125,17.486572265625,-27.008056640625
3.6924999,-0.005985504016280174,0.12270283699035645,10.065223693847656,-6.2255859375,-3.662109375,6.622314453125
3.6974999000000004,-0.152031809091568,-0.0736217051744461,10.34953498840332,-23.223876953125,-7.843017578125,0.732421875
3.7024999000000003,-0.01735796220600605,0.5560533404350281,10.032901763916016,-27.28271484375,-10.955810546875,15.167236328125
3.7074999,0.0802057534456253,-0.3944447338581085,10.134655952453613,-1.46484375,-16.326904296875,32.379150390625
3.7124999,0.3663128614425659,-0.4345476031303406,9.44871711730957,-2.38037109375,-11.932373046875,27.130126953125
3.7174999,0.4770447015762329,-0.899621307849884,9.532513618469238,0.762939453125,-12.542724609375,26.06201171875
3.7224999000000003,0.4626794755458832,-0.9744400978088379,9.473258018493652,-2.532958984375,-9.429931640625,17.27294921875
3.7274999,0.38546648621559143,-0.8672995567321777,9.386467933654785,-4.119873046875,-10.009765625,16.357421875
3.7324999,0.322618693113327,-1.1552022695541382,9.459490776062012,14.556884765625,-7.476806640625,8.575439453125
3.7374999,0.2890998423099518,-0.9139865040779114,9.379284858703613,17.059326171875,-4.241943359375,0.274658203125
3.7424999000000003,0.46507367491722107,-0.900818407535553,9.588179588317871,9.033203125,0.244140625,-10.80322265625
3.7474999,0.8212111592292786,-0.2519897222518921,10.118494987487793,-0.274658203125,7.62939453125,-10.162353515625
3.7524999,0.6979097723960876,-0.25917232036590576,10.005967140197754,3.326416015625,9.613037109375,-17.51708984375
3.7574999,0.5057750940322876,-0.48602294921875,9.895236015319824,7.14111328125,12.054443359375,-21.728515625
3.7624999000000003,0.47644615173339844,-0.7182605266571045,9.767146110534668,4.82177734375,16.265869140625,-26.458740234375
3.7674999000000002,0.4770447015762329,-0.6362590789794922,9.717466354370117,2.197265625,17.913818359375,-27.9541015625
3.7724999,0.42437225580215454,-0.7990648150444031,9.75517463684082,7.171630859375,15.228271484375,-19.622802734375
3.7774999,0.2998737692832947,-0.444722980260849,9.753378868103027,2.044677734375,6.16455078125,-9.82666015625
3.7824999000000004,0.0520738884806633,0.13766659796237946,9.989806175231934,-3.60107421875,-1.89208984375,3.5400390625
3.7874999000000003,-0.18375498056411743,0.016160860657691956,10.20528507232666,-14.892578125,-7.171630859375,3.936767578125
3.7924999,-0.12270283699035645,0.3082534670829773,10.011953353881836,-30.364990234375,-9.33837890625,5.4931640625
3.7974999,-0.028131870552897453,-0.3010708689689636,10.082581520080566,-7.537841796875,-15.93017578125,31.280517578125
3.8024999000000004,0.4165911078453064,-0.9163807034492493,9.624691009521484,-1.220703125,-14.129638671875,28.228759765625
3.8074999000000003,0.4668693244457245,-0.8786720037460327,9.728240013122559,-0.762939453125,-10.528564453125,19.256591796875
3.8124999,0.3974374830722809,-0.8271966576576233,9.609726905822754,-6.8359375,-10.955810546875,17.669677734375
3.8174999,0.3902548849582672,-0.8146271109580994,9.576208114624023,9.552001953125,-8.575439453125,11.65771484375
3.8224999000000004,0.314238965511322,-0.7751228213310242,9.41519832611084,17.63916015625,-5.55419921875,4.8828125
3.8274999000000003,0.4638765752315521,-0.9157821536064148,9.476250648498535,12.420654296875,-1.46484375,-7.62939453125
3.8324999,0.6536170840263367,-0.6129156351089478,9.666589736938477,2.716064453125,4.241943359375,-11.505126953125
3.8374999,0.8236053586006165,-0.3758896589279175,9.986215591430664,1.129150390625,6.8359375,-4.547119140625
3.8424999,0.8415619134902954,-0.2561795711517334,10.07779312133789,-0.885009765625,7.4462890625,-7.8125
3.8474999000000003,0.7266402244567871,-0.24839842319488525,10.039485931396484,1.28173828125,9.58251953125,-16.90673828125
3.8524999,0.5045779943466187,-0.3734954595565796,9.954492568969727,5.950927734375,12.054443359375,-22.03369140625
3.8574999,0.4225766062736511,-0.6386532783508301,9.838373184204102,5.0048828125,14.984130859375,-26.580810546875
3.8624999,0.4010287821292877,-0.52552729845047,9.780313491821289,0.9765625,17.88330078125,-30.70068359375
3.8674999000000003,0.38067805767059326,-0.7398083209991455,9.77253246307373,6.103515625,16.204833984375,-23.8037109375
3.8724999,0.30286651849746704,-0.3687070608139038,9.794678688049316,2.349853515625,6.89697265625,-13.031005859375
3.8774999,0.10833762586116791,0.060453593730926514,9.941324234008789,-3.448486328125,-1.28173828125,1.251220703125
3.8824999,-0.1107318252325058,-0.03950432687997818,10.196905136108398,-14.373779296875,-6.927490234375,5.279541015625
3.8874999000000003,-0.07960720360279083,0.14903905987739563,10.046070098876953,-32.196044921875,-9.735107421875,4.852294921875
3.8924999000000002,0.011971008032560349,-0.3585317134857178,10.08078670501709,-10.833740234375,-16.326904296875,31.06689453125
3.8974999,0.2537853717803955,-0.899621307849884,9.706093788146973,-0.30517578125,-13.641357421875,29.11376953125
3.9024999,0.4710591733455658,-0.9690531492233276,9.589975357055664,-1.251220703125,-14.068603515625,30.975341796875
3.9074999000000004,0.5279214978218079,-0.950498104095459,9.67077922821045,0,-10.040283203125,21.54541015625
3.9124999000000003,0.44771572947502136,-0.8816647529602051,9.537900924682617,-6.011962890625,-10.92529296875,19.6533203125
3.9174999,0.40282443165779114,-0.8738836050033569,9.485827445983887,10.528564453125,-8.97216796875,13.702392578125
3.9224999,0.8170213103294373,-0.36092591285705566,10.027515411376953,1.983642578125,7.8125,-5.79833984375
3.9274999000000004,0.8607155084609985,-0.27413609623908997,10.107122421264648,-0.335693359375,8.36181640625,-7.75146484375
3.9324999000000003,0.7679402232170105,-0.23163901269435883,10.050858497619629,1.861572265625,11.1083984375,-17.486572265625
3.9374999,0.5488707423210144,-0.3705027103424072,9.983222961425781,7.476806640625,13.763427734375,-23.25439453125
3.9424999,0.46507367491722107,-0.6739677786827087,9.814431190490723,5.126953125,16.998291015625,-28.62548828125
3.9474999000000004,0.42616790533065796,-0.5949591398239136,9.756970405578613,2.01416015625,19.287109375,-31.73828125
3.9524999000000003,0.3860650360584259,-0.8134300112724304,9.75278091430664,7.598876953125,15.655517578125,-22.430419921875
3.9574999,0.28969839215278625,-0.4381389021873474,9.7605619430542,2.166748046875,5.4931640625,-12.908935546875
3.9624999,0.043095629662275314,0.1735796183347702,9.981427192687988,-3.72314453125,-0.396728515625,1.922607421875
3.9674999000000004,-0.21547815203666687,0.008978256024420261,10.174758911132812,-16.143798828125,-6.683349609375,4.302978515625
3.9724999000000003,0.47405192255973816,-0.8756792545318604,9.773131370544434,-0.79345703125,-9.765625,17.7001953125
3.9774999,0.3842693865299225,-0.7930793166160583,9.597756385803223,-5.859375,-10.7421875,16.815185546875
3.9824999,0.365115761756897,-0.8954314589500427,9.646238327026367,12.298583984375,-8.514404296875,10.19287109375
3.9874999,0.2974795699119568,-0.7625532150268555,9.425971984863281,16.387939453125,-5.218505859375,2.25830078125
3.9924999000000003,0.47584760189056396,-0.9139865040779114,9.548674583435059,9.94873046875,-1.434326171875,-9.033203125
3.9974999,0.6763619780540466,-0.5410895943641663,9.747992515563965,1.556396484375,4.150390625,-11.077880859375
4.0024999,0.8619126081466675,-0.33279404044151306,10.058639526367188,-1.068115234375,7.2021484375,-8.880615234375
4.0074999,0.74040687084198,-0.2585737705230713,10.002974510192871,2.3193359375,9.796142578125,-17.578125
4.0124999,0.4489128291606903,-0.6625953316688538,9.806650161743164,2.5634765625,15.68603515625,-28.045654296875
4.0174999,0.4297592043876648,-0.6039373874664307,9.740809440612793,0.67138671875,17.7001953125,-29.937744140625
4.022499900000001,0.3932476341724396,-0.8044517636299133,9.764751434326172,6.561279296875,14.6484375,-20.20263671875
4.0274999000000005,0.30705636739730835,-0.49140989780426025,9.723451614379883,1.556396484375,5.645751953125,-8.544921875
4.0324999,0.09516951441764832,0.13527239859104156,9.973047256469727,-3.997802734375,-1.983642578125,4.638671875
4.0374999,-0.1454477459192276,-0.07302315533161163,10.182539939880371,-17.02880859375,-6.89697265625,3.265380859375
4.0424999,-0.07242459803819656,0.375291109085083,9.937732696533203,-31.3720703125,-9.6435546875,8.23974609375
4.0474999,0.0071826050989329815,-0.36092591285705566,10.062231063842773,-6.134033203125,-16.41845703125,33.203125
4.0524999,0.272938996553421,-0.7272387742996216,9.596558570861816,0.30517578125,-12.5732421875,28.533935546875
4.0574999,0.44173020124435425,-0.8702923059463501,9.643844604492188,-0.091552734375,-13.092041015625,28.228759765625
4.062499900000001,0.4878185987472534,-0.862511157989502,9.768342971801758,-0.91552734375,-9.307861328125,17.669677734375
4.0674999000000005,0.3728969097137451,-0.8200140595436096,9.605537414550781,-5.615234375,-10.43701171875,17.242431640625
4.0724999,0.2825157940387726,-0.8343793153762817,9.39903736114502,18.035888671875,-4.425048828125,2.38037109375
4.0774999,0.45908817648887634,-0.9906009435653687,9.515754699707031,12.0849609375,-0.518798828125,-9.09423828125
4.0824999,0.40282443165779114,-0.4752490520477295,9.805453300476074,0.335693359375,17.730712890625,-29.449462890625
4.0874999,0.3776853084564209,-0.7038952708244324,9.784503936767578,6.4697265625,15.44189453125,-21.392822265625
4.0924999,0.28550854325294495,-0.3214215636253357,9.802460670471191,1.953125,5.523681640625,-10.6201171875
4.0974999,0.08559270948171616,0.10893617570400238,9.966463088989258,-3.5400390625,-1.89208984375,2.8076171875
4.1024999,-0.06763619929552078,0.14903905987739563,10.033500671386719,-31.280517578125,-9.429931640625,5.035400390625
4.1074999000000005,-0.06763619929552078,0.14903905987739563,10.033500671386719,-31.280517578125,-9.429931640625,5.035400390625
4.1124999,0.030526071786880493,-0.4183867573738098,10.06462574005127,-8.758544921875,-15.899658203125,31.79931640625
4.1174999,0.24899697303771973,-0.9576807022094727,9.658807754516602,1.3427734375,-13.12255859375,29.144287109375
4.1224999,0.4207809567451477,-1.0043675899505615,9.568427085876465,-0.396728515625,-13.0615234375,28.350830078125
4.1274999,0.4620809257030487,-0.9385270476341248,9.677363395690918,-0.030517578125,-9.1552734375,17.486572265625
4.1324999,0.383670836687088,-0.8289923667907715,9.545681953430176,-6.622314453125,-10.101318359375,17.059326171875
4.1374999,0.3693056106567383,-0.8188169598579407,9.582193374633789,10.80322265625,-7.9345703125,11.5966796875
4.1424999,0.2992752194404602,-0.7739257216453552,9.385271072387695,17.852783203125,-4.57763671875,3.448486328125
4.147499900000001,0.4554968774318695,-0.8774749040603638,9.50857162475586,13.7939453125,-1.03759765625,-7.537841796875
4.1524999000000005,0.6338648796081543,-0.5859808921813965,9.667187690734863,3.326416015625,4.57763671875,-12.26806640625
4.1574999,0.8050503134727478,-0.314238965511322,9.99220085144043,0.67138671875,7.01904296875,-4.5166015625
4.1624999,0.50876784324646,-0.414795458316803,9.967061996459961,7.26318359375,11.29150390625,-20.3857421875
4.1674999,0.50876784324646,-0.414795458316803,9.967061996459961,7.26318359375,11.29150390625,-20.3857421875
4.1724999,0.42856210470199585,-0.6063315868377686,9.834781646728516,4.150390625,15.350341796875,-26.153564453125
4.1774999,0.38726213574409485,-0.4710591733455658,9.802460670471191,0.42724609375,17.852783203125,-29.998779296875
4.1824999,0.3585317134857178,-0.6619967818260193,9.78989028930664,7.110595703125,15.5029296875,-21.759033203125
4.187499900000001,0.2579752206802368,-0.2902969419956207,9.808445930480957,2.25830078125,5.55419921875,-10.498046875
4.1924999000000005,0.07182604819536209,0.14903905987739563,9.962273597717285,-3.753662109375,-1.800537109375,2.044677734375
4.1974999,-0.1454477459192276,0.033518824726343155,10.228029251098633,-14.46533203125,-7.049560546875,4.608154296875
4.2024999,-0.1149216815829277,0.13587094843387604,10.054450035095215,-31.890869140625,-9.979248046875,4.364013671875
4.2074999,-0.0293289702385664,-0.395043283700943,10.068815231323242,-9.490966796875,-16.4794921875,31.3720703125
4.2124999,0.1933317929506302,-0.9780313968658447,9.67077922821045,1.434326171875,-13.73291015625,28.25927734375
4.2174999,0.38726213574409485,-1.0157400369644165,9.552266120910645,-0.335693359375,-13.336181640625,27.16064453125
4.2224999,0.4118026793003082,-0.8421604633331299,9.532513618469238,-5.67626953125,-11.077880859375,17.9443359375
4.2274999,0.42197805643081665,-0.8271966576576233,9.540295600891113,10.68115234375,-8.48388671875,12.054443359375
4.2324999000000005,0.35494041442871094,-0.7523778676986694,9.410409927368164,17.7001953125,-4.638671875,5.157470703125
4.2374999,0.5105634927749634,-0.8684966564178467,9.501389503479004,12.359619140625,-1.129150390625,-7.537841796875
4.2424999,0.46507367491722107,-0.6607996821403503,9.808445930480957,3.72314453125,16.05224609375,-26.397705078125
4.2474999,0.4159925580024719,-0.5351040959358215,9.776124000549316,0.640869140625,18.951416015625,-31.31103515625
4.2524999,-0.1173158809542656,0.31603461503982544,9.97364616394043,-32.012939453125,-10.6201171875,7.415771484375
4.2574999,-0.013168109580874443,-0.3597288131713867,10.040084838867188,-7.62939453125,-17.15087890625,33.75244140625
4.2624999,0.25917232036590576,-0.8637082576751709,9.575610160827637,0.762939453125,-13.12255859375,29.510498046875
4.2674999,0.444722980260849,-0.99479079246521,9.596558570861816,1.190185546875,-12.725830078125,27.679443359375
4.272499900000001,0.4991910457611084,-0.9810241460800171,9.68694019317627,0.213623046875,-8.636474609375,16.2353515625
4.2774999000000005,0.37469255924224854,-0.8930372595787048,9.551667213439941,-4.486083984375,-10.650634765625,16.693115234375
4.2824999,0.3687070608139038,-0.9475052952766418,9.577404975891113,12.969970703125,-7.8125,9.8876953125
4.2874999,0.30466216802597046,-0.8056488633155823,9.388861656188965,17.822265625,-3.90625,2.74658203125
4.2924999,0.48961424827575684,-0.9151836037635803,9.537900924682617,12.20703125,-0.152587890625,-8.453369140625
4.2974999,0.8277952671051025,-0.2495955228805542,10.041281700134277,0.030517578125,6.744384765625,-4.08935546875
4.3024999,0.821809709072113,-0.2783259451389313,10.079588890075684,-1.220703125,7.26318359375,-8.392333984375
4.3074999,0.7050924301147461,-0.20470423996448517,10.028712272644043,3.23486328125,9.94873046875,-16.815185546875
4.312499900000001,0.507570743560791,-0.4507084786891937,9.947908401489258,6.9580078125,11.16943359375,-19.927978515625
4.3174999000000005,0.4638765752315521,-0.6500257849693298,9.819818496704102,3.173828125,15.716552734375,-25.970458984375
4.3224999,0.28072014451026917,-0.2908954918384552,9.799467086791992,1.800537109375,5.096435546875,-9.033203125
4.3274999,0.05925649031996727,0.1604115068912506,9.95748519897461,-3.692626953125,-2.166748046875,3.11279296875
4.3324999,-0.152031809091568,0.0694318488240242,10.214861869812012,-14.404296875,-6.805419921875,4.2724609375
4.3374999,-0.13407529890537262,0.18614917993545532,10.055048942565918,-31.3720703125,-9.33837890625,3.84521484375
4.3424999,-0.03172317147254944,-0.3818751573562622,10.074202537536621,-9.033203125,-16.021728515625,31.890869140625
4.3474999,0.44412440061569214,-0.9564836025238037,9.634865760803223,0.18310546875,-8.85009765625,14.801025390625
4.352499900000001,0.3884592354297638,-0.8367735147476196,9.49121379852295,-6.4697265625,-10.68115234375,15.777587890625
4.3574999000000005,0.4225766062736511,-0.7894880175590515,9.587580680847168,10.162353515625,-7.8125,10.8642578125
4.3624999,0.3585317134857178,-0.7829039692878723,9.384073257446289,15.838623046875,-4.150390625,2.38037109375
4.3674999,0.5135562419891357,-0.8044517636299133,9.55466079711914,13.18359375,-1.251220703125,-6.89697265625
4.3724999,0.6506243348121643,-0.5674257874488831,9.70310115814209,2.9296875,3.84521484375,-11.5966796875
4.3774999,0.7936778664588928,-0.26815059781074524,10.010157585144043,-0.457763671875,6.317138671875,-4.547119140625
4.3824999,0.800261914730072,-0.2932897210121155,10.073004722595215,-0.8544921875,6.927490234375,-7.50732421875
4.3874999,0.707486629486084,-0.25079262256622314,10.014945983886719,2.86865234375,8.6669921875,-14.70947265625
4.3924999,0.5237316489219666,-0.4704606235027313,9.925163269042969,7.2021484375,9.765625,-16.571044921875
4.397499900000001,0.45848962664604187,-0.5141547918319702,9.82640266418457,3.875732421875,14.068603515625,-22.52197265625
4.4024999000000005,0.3944447338581085,-0.5841852426528931,9.81263542175293,6.40869140625,15.380859375,-19.744873046875
4.4074999,0.2944868206977844,-0.5847837924957275,9.740809440612793,3.96728515625,8.056640625,-9.796142578125
4.4124999,0.08499415963888168,-0.2519897222518921,9.870096206665039,-2.166748046875,0.18310546875,1.373291015625
4.4174999,-0.11911153793334961,0.10055647045373917,10.165780067443848,-8.85009765625,-5.950927734375,6.16455078125
4.4224999,-0.1711854189634323,0.03292027488350868,10.110713958740234,-28.045654296875,-7.8125,-1.15966796875
4.4274999,-0.015562310814857483,0.07481880486011505,9.9586820602417,-17.486572265625,-12.725830078125,23.773193359375
4.4324999,0.0933738648891449,-0.8810662031173706,9.885659217834473,4.0283203125,-14.556884765625,29.052734375
4.437499900000001,0.3387795388698578,-0.7631517648696899,9.403825759887695,-0.946044921875,-11.77978515625,22.64404296875
4.4424999000000005,0.4082113802433014,-1.1252747774124146,9.710882186889648,1.007080078125,-10.345458984375,16.143798828125
4.4474999,0.4489128291606903,-0.9977835416793823,9.642647743225098,-6.805419921875,-9.6435546875,13.12255859375
4.4524999,0.4686649739742279,-0.821809709072113,9.667187690734863,2.166748046875,-8.60595703125,13.824462890625
4.4574999,0.4381389021873474,-1.2006921768188477,9.548076629638672,14.34326171875,-4.7607421875,4.791259765625
4.4624999,0.8265981078147888,-0.10055647045373917,10.049062728881836,-1.15966796875,6.34765625,-4.2724609375
4.4674999,0.7799112200737,-0.20051439106464386,9.99459457397461,1.3427734375,7.87353515625,-12.0849609375
4.4724999,0.6332663297653198,-0.33758243918418884,9.938331604003906,7.26318359375,8.392333984375,-13.48876953125
4.477499900000001,0.5033808946609497,-0.5374982953071594,9.825204849243164,4.8828125,11.077880859375,-17.303466796875
4.4824999000000005,0.48063600063323975,-0.7493851184844971,9.774328231811523,1.678466796875,14.5263671875,-21.575927734375
4.4874999,0.444722980260849,-0.6254851818084717,9.774927139282227,2.166748046875,15.625,-22.430419921875
4.4924999,0.34596213698387146,-0.7835025191307068,9.783307075500488,7.32421875,11.505126953125,-12.969970703125
4.4974999,0.20470423996448517,-0.38546648621559143,9.791088104248047,0.885009765625,4.425048828125,-4.730224609375
4.5024999,0.010773907415568829,0.26755204796791077,10.028712272644043,-4.08935546875,-2.410888671875,5.279541015625
4.5074999,-0.18076223134994507,0.1562216579914093,10.198101997375488,-16.082763671875,-6.591796875,1.800537109375
4.5124999,0.19273324310779572,-0.8637082576751709,9.610325813293457,1.800537109375,-11.71875,22.8271484375
4.5174999,0.3298012912273407,-0.9475052952766418,9.662399291992188,-0.457763671875,-12.176513671875,20.81298828125
4.522499900000001,0.4207809567451477,-0.8810662031173706,9.748590469360352,-2.227783203125,-8.697509765625,12.14599609375
4.5274999000000005,0.414795458316803,-0.7846996188163757,9.628880500793457,-8.148193359375,-10.467529296875,15.838623046875
4.5324999,0.4800374507904053,-0.7966706156730652,9.667187690734863,9.368896484375,-6.378173828125,10.345458984375
4.5374999,0.43694180250167847,-0.8403648138046265,9.394248962402344,14.801025390625,-3.2958984375,1.0986328125
4.5424999,0.5650315880775452,-0.8738836050033569,9.53849983215332,13.214111328125,-0.701904296875,-8.544921875
4.5474999,0.6829460263252258,-0.6853402256965637,9.66958236694336,2.86865234375,4.2724609375,-11.16943359375
4.5524999,0.8206126093864441,-0.37229835987091064,9.951498985290527,-1.251220703125,6.53076171875,-3.082275390625
4.5574999,0.829590916633606,-0.45250412821769714,10.020931243896484,-0.091552734375,7.75146484375,-7.32421875
4.562499900000001,0.7481880187988281,-0.3770867586135864,9.951498985290527,4.486083984375,9.46044921875,-13.275146484375
4.5674999000000005,0.5781996846199036,-0.585382342338562,9.88625717163086,8.453369140625,9.765625,-12.786865234375
4.5724999,0.4967968463897705,-0.5009866952896118,9.81024169921875,5.035400390625,13.946533203125,-18.06640625
4.5774999,0.46148237586021423,-0.5345055460929871,9.778518676757812,1.0986328125,16.05224609375,-21.54541015625
4.5824999,0.35254621505737305,-0.646434485912323,9.848548889160156,5.035400390625,15.777587890625,-20.08056640625
4.5874999,0.19033902883529663,-0.5291185975074768,9.794678688049316,4.730224609375,9.3994140625,-10.8642578125
4.5924999,-0.01496376097202301,-0.5901707410812378,9.88745403289795,-1.46484375,1.373291015625,-1.983642578125
4.5974999,-0.19393034279346466,0.3166331648826599,10.104129791259766,-6.9580078125,-5.7373046875,6.500244140625
4.602499900000001,-0.30226796865463257,-0.05985504388809204,10.340557098388672,-22.88818359375,-8.026123046875,-1.03759765625
4.6074999000000005,-0.07721300423145294,0.5321113467216492,9.967061996459961,-26.641845703125,-10.68115234375,12.359619140625
4.6124999,0.01975216343998909,-0.4231751561164856,10.094552993774414,0.091552734375,-16.998291015625,31.036376953125
4.6174999,0.3064578175544739,-0.4728548228740692,9.427767753601074,-1.46484375,-12.298583984375,21.42333984375
4.6224999,0.40521863102912903,-0.8032546639442444,9.576807022094727,-0.213623046875,-12.176513671875,17.88330078125
4.6274999,0.46806642413139343,-0.7314286231994629,9.52353572845459,-6.53076171875,-10.55908203125,15.56396484375
4.6324999,0.4991910457611084,-0.9864110946655273,9.55466079711914,11.260986328125,-6.04248046875,7.659912109375
4.6374999,0.4626794755458832,-0.9080010056495667,9.354146003723145,14.923095703125,-4.058837890625,0.091552734375
4.6424999,0.6847416758537292,-0.40222588181495667,9.962871551513672,5.523681640625,9.246826171875,-15.472412109375
4.647499900000001,0.524330198764801,-0.656609833240509,9.84256362915039,8.23974609375,9.82666015625,-15.0146484375
4.6524999000000005,0.5063736438751221,-0.578798234462738,9.77791976928711,4.974365234375,14.46533203125,-19.83642578125
4.6574999,0.4967968463897705,-0.6278793811798096,9.742605209350586,0.885009765625,16.6015625,-22.5830078125
4.6624999,0.40701428055763245,-0.5494692921638489,9.823410034179688,7.32421875,14.923095703125,-17.303466796875
4.6674999,-0.23822307586669922,0.07062894850969315,10.16637897491455,-28.01513671875,-7.6904296875,-1.190185546875
4.6724999,-0.05147533491253853,0.20769700407981873,9.955090522766113,-20.050048828125,-13.275146484375,22.735595703125
4.6774999,0.05686229094862938,-0.7835025191307068,9.907206535339355,3.5400390625,-15.472412109375,29.754638671875
4.6824999,0.31842881441116333,-0.5937620401382446,9.363123893737793,-1.52587890625,-11.322021484375,22.064208984375
4.687499900000001,0.406415730714798,-1.0989385843276978,9.723451614379883,-0.152587890625,-10.406494140625,15.533447265625
4.6924999000000005,0.406415730714798,-1.0989385843276978,9.723451614379883,-0.152587890625,-10.406494140625,15.533447265625
4.6974999,0.4554968774318695,-0.9906009435653687,9.656414031982422,-7.4462890625,-10.528564453125,13.85498046875
4.7024999,0.44173020124435425,-0.8655039072036743,9.679757118225098,-0.06103515625,-10.040283203125,15.045166015625
4.7074999,0.44352585077285767,-1.2665326595306396,9.548076629638672,13.519287109375,-5.55419921875,5.43212890625
4.7124999,0.47165772318840027,-0.8439561128616333,9.451709747314453,15.533447265625,-3.41796875,-1.983642578125
4.7174999,0.7667431235313416,-0.17956513166427612,9.805453300476074,-1.220703125,5.43212890625,-6.77490234375
4.7224999,0.8391677141189575,-0.05985504388809204,10.04188060760498,-1.068115234375,6.805419921875,-4.913330078125
4.727499900000001,0.7667431235313416,-0.16879121959209442,10.002376556396484,0.732421875,8.331298828125,-13.458251953125
4.7324999000000005,0.6123170852661133,-0.29388827085494995,9.944316864013672,6.8359375,9.185791015625,-16.357421875
4.7374999,0.48243165016174316,-0.5638344883918762,9.833584785461426,6.53076171875,11.749267578125,-18.951416015625
4.7424999,0.49140989780426025,-0.8631097078323364,9.768342971801758,3.0517578125,16.021728515625,-23.92578125
4.7474999,0.4967968463897705,-0.7613561153411865,9.742006301879883,2.74658203125,16.876220703125,-23.406982421875
4.7524999,0.4165911078453064,-0.8678981065750122,9.783905029296875,8.087158203125,11.962890625,-12.420654296875
4.7574999,0.2513911724090576,-0.43694180250167847,9.765948295593262,0.79345703125,4.364013671875,-3.631591796875
4.7624999,0.014365210197865963,0.35673606395721436,10.056245803833008,-4.241943359375,-2.716064453125,5.462646484375
4.7674999,-0.2256535142660141,0.13706804811954498,10.20887565612793,-18.4326171875,-6.866455078125,0.67138671875
4.772499900000001,-0.08798690885305405,0.5225345492362976,9.95748519897461,-30.517578125,-9.429931640625,9.063720703125
4.7774999000000005,0.4531026780605316,-0.8541314601898193,9.78989028930664,-3.448486328125,-8.880615234375,12.8173828125
4.7824999,0.4531026780605316,-0.8541314601898193,9.78989028930664,-3.448486328125,-8.880615234375,12.8173828125
4.7874999,0.3585317134857178,-0.74040687084198,9.672574996948242,-7.568359375,-11.871337890625,17.578125
4.7924999,0.38546648621559143,-0.8595184087753296,9.684545516967773,10.07080078125,-7.232666015625,9.70458984375
4.7974999,0.3477577865123749,-0.760757565498352,9.410409927368164,14.617919921875,-4.0283203125,1.03759765625
4.8024999,0.4926069974899292,-0.9026140570640564,9.564835548400879,11.8408203125,-0.946044921875,-9.09423828125
4.8074999,0.6326677799224854,-0.5949591398239136,9.709685325622559,0.335693359375,3.47900390625,-10.80322265625
4.812499900000001,0.767341673374176,-0.3669114112854004,10.002376556396484,-3.021240234375,5.279541015625,-4.45556640625
4.8174999000000005,0.7332242727279663,-0.3627215623855591,10.077195167541504,-2.01416015625,6.866455078125,-10.223388671875
4.8224999,0.6141127347946167,-0.3208230137825012,9.990405082702637,1.373291015625,8.48388671875,-18.61572265625
4.8274999,0.4495113790035248,-0.6075286865234375,9.879075050354004,5.218505859375,8.880615234375,-19.47021484375
4.8324999,0.5105634927749634,-0.7541735172271729,9.700108528137207,-0.30517578125,15.594482421875,-24.5361328125
4.8374999,0.5446808934211731,-0.7829039692878723,9.740809440612793,6.04248046875,14.404296875,-17.852783203125
4.8424999,0.49140989780426025,-0.7224503755569458,9.730634689331055,5.18798828125,8.148193359375,-7.537841796875
4.8474999,0.2992752194404602,-0.5051765441894531,9.869498252868652,-0.885009765625,1.89208984375,1.64794921875
4.852499900000001,0.04668693244457245,-0.05985504388809204,10.190919876098633,-7.904052734375,-3.631591796875,5.035400390625
4.8574999000000005,-0.04489128291606903,-0.041299980133771896,10.195708274841309,-26.4892578125,-6.195068359375,0.518798828125
4.8624999,0.12210428714752197,0.10893617570400238,9.988609313964844,-21.087646484375,-12.39013671875,25.054931640625
4.8674999,0.23523031175136566,-0.7882909178733826,9.891644477844238,5.218505859375,-13.336181640625,34.271240234375
4.8724999,0.4381389021873474,-0.629675030708313,9.355342864990234,1.922607421875,-7.598876953125,24.658203125
4.8774999,0.44352585077285767,-1.1103110313415527,9.59177017211914,1.373291015625,-7.354736328125,16.845703125
4.8824999,0.3082534670829773,-0.8062474131584167,9.41519832611084,18.035888671875,-1.617431640625,-3.41796875
4.8874999,0.4842272996902466,-0.7050924301147461,9.659406661987305,9.490966796875,3.265380859375,-12.847900390625
4.8924999,0.6446388363838196,-0.1454477459192276,9.931148529052734,-0.1220703125,5.18798828125,-6.40869140625
4.897499900000001,0.7314286231994629,0.04189852997660637,10.184335708618164,-1.8310546875,5.9814453125,-4.5166015625
4.9024999000000005,0.6434416770935059,0.028730420395731926,10.153210639953613,-0.732421875,7.720947265625,-13.427734375
4.9074999,0.5021837949752808,-0.09038111567497253,10.047865867614746,3.570556640625,8.30078125,-17.02880859375
4.9124999,0.3387795388698578,-0.33339259028434753,9.911994934082031,4.150390625,9.613037109375,-19.04296875
4.9174999,0.34656068682670593,-0.5303156971931458,9.848548889160156,0.79345703125,13.275146484375,-24.0478515625
4.9224999,0.32381579279899597,-0.3944447338581085,9.824007987976074,-2.838134765625,14.34326171875,-25.7568359375
4.9274999,0.29388827085494995,-0.46627077460289,9.840767860412598,2.0751953125,11.199951171875,-19.775390625
4.9324999,0.17298106849193573,-0.12749123573303223,9.914389610290527,-3.23486328125,3.60107421875,-14.007568359375
4.937499900000001,0.05985504388809204,0.30286651849746704,10.141240119934082,-12.237548828125,-3.47900390625,-1.89208984375
4.9424999000000005,-0.05686229094862938,0.21009120345115662,10.539276123046875,-26.031494140625,-8.11767578125,4.0283203125
4.9474999,0.12629413604736328,0.4058171808719635,10.482413291931152,-49.25537109375,-8.056640625,4.08935546875
4.9524999,0.3627215623855591,-0.033518824726343155,10.527304649353027,-32.65380859375,-15.9912109375,31.18896484375
4.9574999,0.6123170852661133,-0.5877765417098999,10.223240852355957,-21.148681640625,-16.082763671875,36.80419921875
4.9624999,0.3818751573562622,-1.0259153842926025,9.17817211151123,-18.49365234375,-8.270263671875,15.228271484375
4.9674999,0.3148375153541565,-1.3305776119232178,8.701725959777832,11.627197265625,-8.48388671875,15.533447265625
4.9724999,0.40282443165779114,-1.614290475845337,8.428787231445312,27.923583984375,-3.326416015625,9.8876953125
4.977499900000001,0.5261258482933044,-1.7118542194366455,8.513182640075684,19.195556640625,2.0751953125,1.617431640625
4.9824999000000005,0.5045779943466187,-1.577778935432434,9.020753860473633,10.955810546875,5.67626953125,-4.638671875
4.9874999,0.03531447425484657,-0.7835025191307068,9.934141159057617,11.71875,8.85009765625,-25.81787109375
4.9924999,-0.20769700407981873,-0.42018240690231323,9.989208221435547,10.650634765625,9.979248046875,-33.721923828125
4.9974999,-0.2777273952960968,-0.1628057211637497,9.97484302520752,17.120361328125,14.068603515625,-45.440673828125
5.0024999,-0.1388636976480484,-0.2454056739807129,9.853935241699219,19.927978515625,17.9443359375,-55.023193359375
5.0074999,0.11013327538967133,-0.5003881454467773,9.75517463684082,18.37158203125,18.37158203125,-57.43408203125
5.0124999,0.46746787428855896,-0.6045359373092651,9.821614265441895,17.4560546875,13.12255859375,-52.978515625
5.0174999,0.7679402232170105,-0.6320692300796509,10.089764595031738,8.36181640625,5.340576171875,-32.16552734375
5.022499900000001,0.9217676520347595,0.04429273307323456,10.555437088012695,-7.50732421875,-0.06103515625,-2.99072265625
5.0274999000000005,0.9983820915222168,0.03711012750864029,11.009138107299805,-32.470703125,-5.37109375,12.75634765625
5.0324999,1.2072762250900269,0.5333084464073181,10.781688690185547,-44.49462890625,-14.129638671875,36.376953125
5.0374999,1.1725603342056274,-0.3663128614425659,10.653000831604004,-16.41845703125,-16.876220703125,54.19921875
5.0424999,1.1899182796478271,-0.5710170865058899,9.819219589233398,-8.819580078125,-10.55908203125,50.628662109375
5.0474999,0.4465186297893524,-1.037886381149292,9.100360870361328,-3.326416015625,-7.659912109375,29.876708984375
5.0524999,0.053270988166332245,-1.1073182821273804,8.815450668334961,4.57763671875,-9.09423828125,27.679443359375
5.0574999,-0.03950432687997818,-1.002571940422058,8.5903959274292,23.345947265625,-6.378173828125,23.74267578125
5.062499900000001,-0.03232172131538391,-1.1306617259979248,8.665214538574219,32.89794921875,-5.18798828125,21.97265625
5.0674999000000005,0.04249707981944084,-1.2713210582733154,9.03511905670166,25.2685546875,1.251220703125,5.767822265625
5.0724999,0.030526071786880493,-0.9457096457481384,9.642048835754395,13.092041015625,6.072998046875,-8.36181640625
5.0774999,-0.04668693244457245,-0.5626373887062073,10.284892082214355,6.195068359375,6.591796875,-16.17431640625
5.0824999,-0.11133038252592087,0.0035913025494664907,10.690709114074707,-0.152587890625,5.401611328125,-19.83642578125
5.0874999,-0.08978256583213806,0.37828385829925537,10.763134002685547,-7.50732421875,6.34765625,-24.35302734375
5.0924999,-0.008978256024420261,0.4141969084739685,10.554838180541992,-6.04248046875,10.80322265625,-30.975341796875
5.0974999,0.11851298063993454,0.10175357013940811,10.225635528564453,3.60107421875,16.29638671875,-42.388916015625
5.102499900000001,0.19452889263629913,-0.12509703636169434,9.725247383117676,7.50732421875,17.63916015625,-51.7578125
5.1074999000000005,0.4040215313434601,-0.6278793811798096,9.44752025604248,4.39453125,5.889892578125,-48.15673828125
5.1124999,0.5123591423034668,-0.3345896899700165,9.751583099365234,-5.950927734375,0.335693359375,-22.94921875
5.1174999,0.5985504388809204,-0.7170634269714355,10.286687850952148,-19.683837890625,-3.96728515625,1.495361328125
5.1224999,0.9301473498344421,-0.36152446269989014,10.268132209777832,-42.8466796875,-10.986328125,21.42333984375
5.1274999,1.1216834783554077,-0.8708908557891846,10.368090629577637,-23.193359375,-17.425537109375,49.835205078125
5.1324999,1.245583415031433,-1.2324153184890747,9.947309494018555,-3.84521484375,-13.427734375,51.361083984375
5.1374999,1.136048674583435,-1.2779051065444946,9.494805335998535,-4.0283203125,-11.383056640625,47.91259765625
5.1424999,0.7326257228851318,-1.4059948921203613,9.403825759887695,3.204345703125,-7.476806640625,31.890869140625
5.147499900000001,0.25977087020874023,-1.3102269172668457,8.966883659362793,6.9580078125,-8.636474609375,27.435302734375
5.1524999000000005,0.055665191262960434,-1.0552444458007812,8.750208854675293,24.35302734375,-6.2255859375,22.5830078125
5.1574999,-0.05746084079146385,-1.0851719379425049,8.734047889709473,38.51318359375,-4.69970703125,20.111083984375
5.1624999,-0.016759412363171577,-0.9744400978088379,9.042900085449219,31.951904296875,0.30517578125,7.38525390625
5.1674999,0.06763619929552078,-0.28790274262428284,10.29746150970459,8.36181640625,5.889892578125,-13.00048828125
5.1724999,0.11312603205442429,0.076015904545784,10.655993461608887,3.2958984375,4.241943359375,-10.833740234375
5.1774999,0.22206220030784607,0.33937808871269226,10.714052200317383,-2.471923828125,5.92041015625,-13.97705078125
5.1824999,0.29628247022628784,0.13706804811954498,10.520122528076172,-1.03759765625,9.82666015625,-20.416259765625
