# Time (seconds),Accel_X,Accel_Y,Accel_Z,Gyro_X,Gyro_Y,Gyro_Z
0.0024999,2.8167781829833984,-0.7428010702133179,9.70429801940918,36.92626953125,47.4853515625,-20.416259765625
0.0074999,2.8167781829833984,-0.7428010702133179,9.70429801940918,36.92626953125,47.4853515625,-20.416259765625
0.012499900000000001,2.364872694015503,-1.0342950820922852,9.981427192687988,13.5498046875,40.58837890625,-25.69580078125
0.0174999,1.2533645629882812,0.17956513166427612,9.938929557800293,-2.532958984375,18.98193359375,-33.172607421875
0.0224999,-0.35494041442871094,0.3214215636253357,9.891644477844238,-14.46533203125,-17.669677734375,-46.234130859375
0.0274999,-2.3953988552093506,-0.3315969407558441,9.458293914794922,-36.0107421875,-39.36767578125,26.7333984375
0.0324999,-1.6849194765090942,-0.585382342338562,9.045293807983398,-35.46142578125,-30.059814453125,9.368896484375
0.0374999,-0.8098387122154236,-1.7310078144073486,9.100360870361328,0.8544921875,-14.923095703125,25.726318359375
0.0424999,0.6727706789970398,-2.6833014488220215,8.529942512512207,3.936767578125,-9.185791015625,33.63037109375
0.0474999,1.4077905416488647,-3.1759085655212402,8.743025779724121,15.44189453125,-5.218505859375,42.205810546875
0.0524999,1.4610615968704224,-2.251746654510498,9.141660690307617,24.0478515625,10.19287109375,54.473876953125
0.0574999,1.5418659448623657,-1.0043675899505615,9.553462982177734,2.349853515625,2.410888671875,19.378662109375
0.0624999,1.589151382446289,-0.6218938827514648,9.734824180603027,-11.41357421875,-3.47900390625,-29.815673828125
0.0674999,2.115875720977783,-0.689530074596405,9.949105262756348,16.693115234375,25.634765625,-25.054931640625
0.0724999,2.7252001762390137,-0.6865373253822327,9.789292335510254,40.679931640625,47.91259765625,-19.744873046875
0.0774999,2.5773582458496094,-1.1204863786697388,9.907206535339355,22.3388671875,47.760009765625,-23.895263671875
0.0824999,-1.6502034664154053,1.1851298809051514,9.64923095703125,-17.730712890625,-34.1796875,-24.71923828125
0.0874999,-2.5546131134033203,0.3315969407558441,9.473855972290039,-30.792236328125,-40.985107421875,22.39990234375
0.0924999,-2.1936872005462646,-0.02274491637945175,8.989029884338379,-42.54150390625,-37.41455078125,16.693115234375
0.0974999,-1.0995371341705322,-1.1378443241119385,9.196128845214844,-8.36181640625,-20.08056640625,17.791748046875
0.1024999,0.25258827209472656,-2.341529369354248,8.774748802185059,3.692626953125,-9.58251953125,31.18896484375
0.1074999,1.4443022012710571,-3.1250317096710205,8.922591209411621,9.735107421875,-8.331298828125,35.308837890625
0.1124999,1.5364789962768555,-2.675520420074463,9.214683532714844,23.0712890625,7.110595703125,51.81884765625
0.1174999,1.5185223817825317,-1.4449007511138916,9.47265911102295,9.3994140625,6.988525390625,35.82763671875
0.1224999,1.5376760959625244,-0.8433575630187988,9.862914085388184,-11.505126953125,-6.500244140625,-19.439697265625
0.1274999,1.935113549232483,-0.6548141837120056,9.786897659301758,6.378173828125,15.838623046875,-28.594970703125
0.1324999,2.6443958282470703,-0.829590916633606,9.973047256469727,38.604736328125,43.487548828125,-19.805908203125
0.1374999,2.8095955848693848,-1.1240776777267456,9.858125686645508,30.57861328125,53.52783203125,-23.651123046875
0.1424999,0.6619967818260193,0.32202014327049255,9.889249801635742,-5.157470703125,4.669189453125,-39.55078125
0.1474999,-1.0971429347991943,0.3645172119140625,9.687539100646973,-19.47021484375,-31.402587890625,-37.567138671875
0.1524999,-2.343923568725586,0.43335050344467163,9.557653427124023,-25.20751953125,-39.97802734375,11.383056640625
0.1574999,-2.473210334777832,-0.19931729137897491,9.208698272705078,-41.07666015625,-41.015625,22.430419921875
0.1624999,1.5520412921905518,-1.4101848602294922,9.475651741027832,14.7705078125,9.521484375,43.060302734375
0.1674999,1.6202759742736816,-0.760757565498352,9.820416450500488,-8.636474609375,-5.859375,-8.056640625
0.1724999,1.8632874488830566,-0.7116764783859253,9.621099472045898,-0.91552734375,7.415771484375,-30.242919921875
0.17749990000000002,2.5288755893707275,-0.8361749649047852,9.955689430236816,31.79931640625,36.102294921875,-17.15087890625
0.1824999,2.295440912246704,-1.0492589473724365,9.891045570373535,14.892578125,42.510986328125,-20.69091796875
0.1874999,1.0678139925003052,0.1388636976480484,9.890447616577148,0.518798828125,15.380859375,-33.843994140625
0.1924999,-0.6607996821403503,0.314238965511322,9.800664901733398,-18.1884765625,-25.604248046875,-45.71533203125
0.1974999,-2.1422119140625,1.0743980407714844,9.700706481933594,-21.331787109375,-36.62109375,-2.288818359375
0.2024999,-2.6827030181884766,0.11312603205442429,9.50617790222168,-36.834716796875,-42.999267578125,25.115966796875
0.20749990000000001,-1.944091796875,-0.14185644686222076,9.248202323913574,-32.196044921875,-34.271240234375,12.481689453125
0.2124999,-0.9097966551780701,-1.45806884765625,9.12849235534668,1.953125,-15.472412109375,26.9775390625
0.2174999,0.6865373253822327,-2.604292869567871,8.662221908569336,2.685546875,-7.965087890625,27.679443359375
0.2224999,1.4107834100723267,-2.9993362426757812,8.892065048217773,15.31982421875,-1.556396484375,40.069580078125
0.2274999,1.469441294670105,-2.029684543609619,9.208099365234375,18.24951171875,9.674072265625,55.450439453125
0.2324999,1.5717934370040894,-1.025316834449768,9.643844604492188,-3.936767578125,-3.173828125,13.153076171875
0.2374999,1.7699135541915894,-0.8655039072036743,9.553462982177734,-8.056640625,-2.227783203125,-30.70068359375
0.2424999,2.5276784896850586,-1.0438719987869263,9.955689430236816,15.106201171875,42.633056640625,-22.857666015625
0.2474999,1.4718354940414429,0.14006079733371735,9.936535835266113,3.326416015625,21.514892578125,-31.25
0.2524999,-0.21667525172233582,0.3214215636253357,9.854534149169922,-11.8408203125,-13.580322265625,-47.271728515625
0.2574999,-1.7304092645645142,0.8188169598579407,9.660005569458008,-18.035888671875,-30.670166015625,-12.5732421875
0.2624999,-2.454655408859253,0.15263035893440247,9.526528358459473,-32.012939453125,-39.886474609375,24.383544921875
0.2674999,-2.005143880844116,-0.28131869435310364,9.122507095336914,-39.85595703125,-36.346435546875,12.420654296875
0.2724999,-1.0660183429718018,-1.3323732614517212,9.242815971374512,-3.7841796875,-18.73779296875,22.5830078125
0.2774999,0.39624038338661194,-2.427720546722412,8.757989883422852,2.471923828125,-8.30078125,29.754638671875
0.2824999,1.381454348564148,-3.073556423187256,8.940547943115234,11.566162109375,-6.439208984375,36.834716796875
0.28749990000000003,1.5065513849258423,-2.324171304702759,9.290101051330566,21.453857421875,7.9345703125,57.098388671875
0.2924999,1.6484078168869019,-0.9564836025238037,9.755773544311523,-11.016845703125,-3.753662109375,-28.99169921875
0.2974999,2.211045265197754,-0.7661445140838623,9.907206535339355,15.716552734375,22.94921875,-23.0712890625
0.3024999,2.8652608394622803,-0.8918401598930359,9.82640266418457,39.55078125,48.40087890625,-19.83642578125
0.3074999,2.7252001762390137,-0.9786299467086792,9.943120002746582,23.01025390625,49.62158203125,-24.871826171875
0.3124999,1.8285715579986572,-0.22685061395168304,9.888052940368652,4.638671875,31.341552734375,-30.364990234375
0.3174999,0.38486793637275696,0.48243165016174316,9.84495735168457,-8.453369140625,-3.997802734375,-54.931640625
0.3224999,-2.3540987968444824,-0.3274070918560028,8.83699893951416,-42.48046875,-39.794921875,21.697998046875
0.3274999,-1.4844050407409668,-1.1546037197113037,9.226056098937988,-14.556884765625,-25.32958984375,16.11328125
0.3324999,-0.21607670187950134,-2.03507137298584,8.971672058105469,2.5634765625,-10.68115234375,29.083251953125
0.3374999,1.169567584991455,-2.668936252593994,9.124302864074707,8.819580078125,-7.843017578125,34.576416015625
0.3424999,1.646013617515564,-1.3365631103515625,9.561244010925293,10.589599609375,7.537841796875,41.046142578125
0.34749990000000003,1.679532527923584,-0.8954314589500427,9.855731010437012,-8.514404296875,-3.814697265625,-18.707275390625
0.35249990000000003,2.0015525817871094,-0.7631517648696899,9.758167266845703,7.537841796875,15.93017578125,-28.1982421875
0.3574999,2.5438392162323,-0.8092401623725891,9.928155899047852,35.33935546875,40.22216796875,-16.571044921875
0.3624999,2.674921751022339,-0.8990227580070496,9.899425506591797,27.40478515625,49.713134765625,-25.909423828125
0.3674999,1.9159599542617798,-0.3758896589279175,9.941922187805176,7.965087890625,35.919189453125,-28.839111328125
0.3724999,0.6829460263252258,0.4465186297893524,9.910798072814941,-6.561279296875,6.195068359375,-46.32568359375
0.3774999,-0.8912416100502014,0.30286651849746704,9.68813705444336,-16.54052734375,-27.191162109375,-49.49951171875
0.3824999,-2.145204782485962,0.19273324310779572,9.343372344970703,-21.881103515625,-35.797119140625,2.74658203125
0.3874999,-2.426523447036743,-0.5638344883918762,9.026739120483398,-38.818359375,-39.306640625,28.076171875
0.3924999,-1.677138328552246,-0.9103952050209045,9.0859956741333,-23.74267578125,-30.6396484375,12.939453125
0.3974999,-0.6302735805511475,-1.710058569908142,8.926182746887207,0.54931640625,-14.312744140625,27.435302734375
0.4024999,1.6645687818527222,-1.6047136783599854,9.459490776062012,15.31982421875,8.941650390625,53.1005859375
0.4074999,1.7447744607925415,-0.8810662031173706,9.860519409179688,-5.18798828125,-2.288818359375,-3.082275390625
0.41249990000000003,1.9614497423171997,-0.8212111592292786,9.668384552001953,0.152587890625,8.72802734375,-32.5927734375
0.41749990000000003,2.5348610877990723,-0.7128735780715942,10.020931243896484,31.036376953125,36.224365234375,-16.17431640625
0.4224999,2.8610711097717285,-0.8487445116043091,9.814431190490723,33.233642578125,52.032470703125,-22.979736328125
0.4274999,2.2439656257629395,-0.6111199855804443,9.99459457397461,12.6953125,41.717529296875,-27.64892578125
0.4324999,1.1552022695541382,0.32441434264183044,9.9000244140625,-1.953125,16.754150390625,-42.633056640625
0.4374999,-0.4339490532875061,0.3824737071990967,9.793481826782227,-14.617919921875,-20.172119140625,-57.952880859375
0.4424999,-1.9267338514328003,0.7846996188163757,9.687539100646973,-19.1650390625,-33.660888671875,-14.617919921875
0.4474999,-2.562992811203003,-0.04489128291606903,9.424775123596191,-34.088134765625,-40.374755859375,27.16064453125
0.4524999,-2.0452468395233154,-0.10534487664699554,9.241618156433105,-34.423828125,-37.78076171875,15.2587890625
0.4574999,0.5003881454467773,-2.253542423248291,8.695141792297363,2.0751953125,-8.056640625,28.86962890625
0.4624999,1.445499300956726,-2.8999767303466797,8.876502990722656,15.289306640625,-3.326416015625,42.54150390625
0.4674999,1.647210717201233,-2.096123695373535,9.205705642700195,19.8974609375,9.8876953125,58.349609375
0.47249990000000003,1.7375918626785278,-1.0648212432861328,9.534908294677734,-0.396728515625,0.48828125,16.143798828125
0.47749990000000003,1.7747019529342651,-0.9684545993804932,9.572616577148438,-7.87353515625,-1.0986328125,-31.219482421875
0.4824999,2.276885747909546,-0.6631938815116882,9.922170639038086,22.125244140625,27.801513671875,-19.561767578125
0.4874999,2.276885747909546,-0.6631938815116882,9.922170639038086,22.125244140625,27.801513671875,-19.561767578125
0.4924999,2.831143617630005,-0.8457517623901367,9.77013874053955,36.773681640625,49.957275390625,-20.843505859375
0.4974999,2.4414870738983154,-1.0043675899505615,9.987412452697754,17.791748046875,45.47119140625,-24.688720703125
0.5024999,1.6089035272598267,-0.047884032130241394,9.951498985290527,3.204345703125,25.054931640625,-34.759521484375
0.5074999,0.04908113554120064,0.406415730714798,9.870096206665039,-8.880615234375,-8.880615234375,-54.74853515625
0.5124999,-1.6651673316955566,0.7643488645553589,9.536704063415527,-19.073486328125,-31.1279296875,-26.3671875
0.5174999,1.348534107208252,-2.9448680877685547,9.124302864074707,10.1318359375,-7.415771484375,36.1328125
0.5224999,1.5670050382614136,-2.425326347351074,9.435548782348633,20.99609375,7.4462890625,59.112548828125
0.5274999,1.6352397203445435,-1.2982559204101562,9.656414031982422,6.04248046875,4.608154296875,37.384033203125
0.5324999,1.6388310194015503,-0.9894038438796997,9.832387924194336,-11.474609375,-6.65283203125,-23.0712890625
0.5374999,2.121262788772583,-0.7649474143981934,9.851541519165039,11.41357421875,19.012451171875,-26.092529296875
0.5424999,2.6850972175598145,-0.9421183466911316,9.833584785461426,38.177490234375,46.2646484375,-18.035888671875
0.5474999,2.7682957649230957,-1.0247182846069336,9.846753120422363,25.909423828125,51.177978515625,-21.1181640625
0.5524999,1.9063831567764282,-0.5249287486076355,9.851541519165039,6.134033203125,32.257080078125,-30.8837890625
0.5574999,0.6859387755393982,0.49380409717559814,9.821015357971191,-4.180908203125,3.082275390625,-54.99267578125
0.5624999,1.61069917678833,-1.4185645580291748,9.44871711730957,14.434814453125,9.246826171875,50.628662109375
0.5674999000000001,1.61069917678833,-1.4185645580291748,9.44871711730957,14.434814453125,9.246826171875,50.628662109375
0.5724999000000001,1.6196774244308472,-0.9085995554924011,9.797672271728516,-7.843017578125,-5.0048828125,-8.4228515625
0.5774999000000001,1.8986018896102905,-0.7918822169303894,9.6618013381958,2.685546875,10.101318359375,-30.94482421875
0.5824999,2.5103204250335693,-0.811634361743927,9.991601943969727,32.89794921875,37.90283203125,-16.9677734375
0.5874999,2.8562827110290527,-0.9810241460800171,9.835380554199219,32.28759765625,53.314208984375,-22.674560546875
0.5924999,2.2200236320495605,-0.5973533391952515,9.99459457397461,11.627197265625,40.435791015625,-26.4892578125
0.5974999,-0.5159504413604736,0.3998316824436188,9.812037467956543,-15.289306640625,-22.03369140625,-54.19921875
0.6024999,-2.011728048324585,0.812831461429596,9.703699111938477,-20.20263671875,-34.149169921875,-8.7890625
0.6074999,-2.5731682777404785,-0.02513911761343479,9.473258018493652,-35.858154296875,-42.29736328125,27.099609375
0.6124999,-2.0410568714141846,-0.14784196019172668,9.315239906311035,-33.477783203125,-38.26904296875,14.6484375
0.6174999,-1.1121066808700562,-1.3634978532791138,9.133280754089355,-0.579833984375,-17.578125,24.749755859375
0.6224999,0.5476736426353455,-2.3953988552093506,8.720879554748535,3.35693359375,-8.209228515625,30.364990234375
0.6274999,1.3844470977783203,-2.9005753993988037,8.91540813446045,15.2587890625,-1.64794921875,45.379638671875
0.6324999,1.5735890865325928,-2.0590133666992188,9.224260330200195,17.364501953125,8.941650390625,60.272216796875
0.6374999,1.669357180595398,-1.0761936902999878,9.640253067016602,-1.28173828125,-1.007080078125,16.7236328125
0.6424999,1.7974469661712646,-1.0205284357070923,9.59476375579834,-5.55419921875,0.030517578125,-30.548095703125
0.6474999,2.3750481605529785,-0.7445967197418213,9.966463088989258,23.284912109375,28.99169921875,-18.768310546875
0.6524999,2.9442696571350098,-0.8325836658477783,9.758766174316406,35.430908203125,50.1708984375,-20.32470703125
0.6574999,1.5807716846466064,0.2908954918384552,9.922768592834473,1.46484375,23.773193359375,-35.919189453125
0.6624999,-0.01975216343998909,0.43335050344467163,9.852140426635742,-13.092041015625,-12.176513671875,-56.243896484375
0.6674999,-1.5897499322891235,0.900818407535553,9.490615844726562,-17.2119140625,-31.31103515625,-28.961181640625
0.6724999,-2.4205379486083984,0.02274491637945175,9.260173797607422,-28.839111328125,-37.811279296875,21.759033203125
0.6774999,-2.1422119140625,-0.1951274424791336,8.87291145324707,-39.12353515625,-38.238525390625,19.10400390625
0.6824999,-1.2994530200958252,-1.236605167388916,9.07103157043457,-6.40869140625,-22.064208984375,20.172119140625
0.6874999,0.15442600846290588,-2.279878616333008,8.783727645874023,1.434326171875,-9.58251953125,30.09033203125
0.6924999000000001,1.259350061416626,-2.9239187240600586,9.05606746673584,11.3525390625,-6.9580078125,40.1611328125
0.6974999000000001,1.5508441925048828,-2.4384944438934326,9.38167953491211,19.561767578125,7.26318359375,57.159423828125
0.7024999000000001,1.6561890840530396,-1.2910733222961426,9.658209800720215,6.4697265625,4.547119140625,32.379150390625
0.7074999,1.6633716821670532,-0.9433154463768005,9.841964721679688,-8.36181640625,-3.875732421875,-22.552490234375
0.7124999,1.8058266639709473,-0.06344634294509888,9.941324234008789,3.997802734375,31.73828125,-32.28759765625
0.7174999,0.49799394607543945,0.6290764808654785,9.913790702819824,-9.979248046875,-0.06103515625,-56.060791015625
0.7224999,-1.0552444458007812,0.414795458316803,9.655815124511719,-17.578125,-28.86962890625,-49.37744140625
0.7274999,-2.1924901008605957,0.04010287672281265,9.351153373718262,-21.881103515625,-35.0341796875,8.331298828125
0.7324999,-2.2888567447662354,-0.5650315880775452,8.89685344696045,-37.750244140625,-37.445068359375,25.543212890625
0.7374999,-1.5418659448623657,-1.0073603391647339,9.098565101623535,-17.15087890625,-26.092529296875,13.24462890625
0.7424999,-0.44352585077285767,-1.5185223817825317,8.809465408325195,1.64794921875,-13.214111328125,32.623291015625
0.7474999,0.9923965930938721,-2.279279947280884,8.987235069274902,4.364013671875,-10.80322265625,33.38623046875
0.7524999,1.4873977899551392,-2.2894554138183594,9.27453899383545,17.852783203125,1.708984375,48.675537109375
0.7574999,1.580173134803772,-1.4221558570861816,9.516951560974121,15.106201171875,9.033203125,49.163818359375
0.7624999,2.433706045150757,-0.7086837291717529,10.073603630065918,29.632568359375,35.614013671875,-18.06640625
0.7674999,2.757521867752075,-0.8104372620582581,9.740809440612793,33.63037109375,50.84228515625,-20.294189453125
0.7724999,2.207453966140747,-0.7236474752426147,9.970054626464844,11.3525390625,38.970947265625,-27.252197265625
0.7774999,1.1342530250549316,0.4124012291431427,9.8784761428833,-2.532958984375,15.9912109375,-43.212890625
0.7824999,-0.456095427274704,0.4429273009300232,9.770736694335938,-17.181396484375,-21.42333984375,-54.6875
0.7874999,-1.8638859987258911,0.8152256608009338,9.701904296875,-16.204833984375,-30.1513671875,-9.857177734375
0.7924999,-2.433107376098633,-0.1646013706922531,9.379883766174316,-31.768798828125,-38.604736328125,26.7333984375
0.7974999,-1.868674397468567,-0.4596867263317108,9.209895133972168,-31.494140625,-33.5693359375,11.566162109375
0.8024999,-1.037886381149292,-1.4664485454559326,9.132083892822266,0.579833984375,-15.594482421875,26.4892578125
0.8074999,0.48722004890441895,-2.4432828426361084,8.777742385864258,0.8544921875,-10.101318359375,31.585693359375
0.8124999,1.3281834125518799,-2.911947727203369,8.927379608154297,11.53564453125,-5.67626953125,35.58349609375
0.8174999000000001,1.6508020162582397,-0.973242998123169,9.601346969604492,1.861572265625,1.3427734375,18.096923828125
0.8224999000000001,1.6801310777664185,-0.7056909799575806,9.724050521850586,-10.284423828125,-3.265380859375,-28.228759765625
0.8274999000000001,2.1487960815429688,-0.7577648162841797,9.92097282409668,14.984130859375,23.773193359375,-23.468017578125
0.8324999000000001,2.760514497756958,-0.7852981686592102,9.81024169921875,39.306640625,47.393798828125,-19.195556640625
0.8374999,2.561795711517334,-0.9726444482803345,9.961674690246582,21.8505859375,47.088623046875,-22.705078125
0.8424999,1.6514005661010742,0.03292027488350868,9.90241813659668,1.46484375,27.28271484375,-29.998779296875
0.8474999,0.19273324310779572,0.6949170231819153,9.86889934539795,-14.5263671875,-10.223388671875,-53.64990234375
0.8524999,-1.4083890914916992,0.7158663272857666,9.64683723449707,-16.845703125,-30.76171875,-32.8369140625
0.8574999,-2.316390037536621,0.04189852997660637,9.337985038757324,-23.651123046875,-35.21728515625,21.42333984375
0.8624999,-2.075772762298584,-0.5201402902603149,8.936357498168945,-37.29248046875,-36.102294921875,18.85986328125
0.8674999,-1.1893197298049927,-1.1546037197113037,9.151237487792969,-9.3994140625,-20.08056640625,15.380859375
0.8724999,-0.08140286058187485,-1.7920600175857544,8.850166320800781,2.3193359375,-10.55908203125,33.050537109375
0.8774999,2.428917646408081,-0.7918822169303894,9.985616683959961,32.135009765625,36.9873046875,-17.913818359375
0.8824999,2.0248961448669434,-0.5644330382347107,9.929352760314941,9.21630859375,37.109375,-22.430419921875
0.8874999,0.8487445116043091,0.42616790533065796,9.894038200378418,-9.46044921875,6.2255859375,-44.25048828125
0.8924999,-0.7637503147125244,0.47165772318840027,9.792284965515137,-17.7001953125,-26.092529296875,-49.6826171875
0.8974999,-2.0428526401519775,0.7858967185020447,9.749788284301758,-14.58740234375,-28.900146484375,4.974365234375
0.9024999,-2.3313539028167725,-0.25498247146606445,9.439739227294922,-32.684326171875,-38.4521484375,29.1748046875
0.9074999,-1.5352818965911865,-0.46627077460289,9.323619842529297,-26.42822265625,-29.052734375,8.087158203125
0.9124999,0.7529764175415039,-2.452261209487915,8.818443298339844,2.166748046875,-9.429931640625,30.914306640625
0.9174999,1.3778630495071411,-2.8119897842407227,8.9249849319458,11.65771484375,-3.753662109375,35.70556640625
0.9224999,1.4802151918411255,-1.9087773561477661,9.280524253845215,17.51708984375,9.94873046875,45.7763671875
0.9274999,1.6364368200302124,-0.8601169586181641,9.605537414550781,-1.312255859375,-0.518798828125,4.57763671875
0.9324999,1.690904974937439,-0.6703764796257019,9.633668899536133,-8.23974609375,0.54931640625,-30.181884765625
0.9374999,2.169146776199341,-0.7194576263427734,9.915586471557617,18.98193359375,25.57373046875,-18.035888671875
0.9424999000000001,2.7036523818969727,-0.8571242094039917,9.790489196777344,37.445068359375,47.05810546875,-20.751953125
0.9474999000000001,2.3283610343933105,-0.8804676532745361,10.001777648925781,17.425537109375,43.02978515625,-22.4609375
0.9524999000000001,1.3838485479354858,0.060453593730926514,9.94970417022705,-2.532958984375,21.270751953125,-32.71484375
0.9574999000000001,-0.0802057534456253,0.5973533391952515,9.880271911621094,-15.167236328125,-14.892578125,-52.8564453125
0.9624999,-1.5735890865325928,0.6631938815116882,9.41100788116455,-13.946533203125,-28.564453125,-20.5078125
0.9674999,-2.300827741622925,-0.12090718746185303,9.239823341369629,-23.37646484375,-34.942626953125,28.25927734375
0.9724999,-0.8774749040603638,-1.2802993059158325,9.147645950317383,-5.462646484375,-17.02880859375,15.777587890625
0.9774999,0.2495955228805542,-2.033874273300171,8.987833023071289,2.410888671875,-7.080078125,30.1513671875
0.9824999,1.3281834125518799,-2.5564088821411133,9.254188537597656,8.11767578125,-8.97216796875,33.02001953125
0.9874999,1.3880383968353271,-2.1505916118621826,9.518148422241211,17.08984375,5.4931640625,43.88427734375
0.9924999,1.4622586965560913,-1.049857497215271,9.715670585632324,8.575439453125,6.2255859375,25.665283203125
0.9974999,1.5107412338256836,-0.7044938206672668,9.910199165344238,-9.735107421875,-4.669189453125,-22.64404296875
1.0024999,1.8710685968399048,-0.5961562395095825,9.786897659301758,6.500244140625,15.167236328125,-22.0947265625
1.0074999000000002,2.430713176727295,-0.8493430614471436,9.86351203918457,34.85107421875,39.6728515625,-17.2119140625
1.0124999000000001,2.580350875854492,-0.7996633648872375,9.806650161743164,27.435302734375,48.03466796875,-22.52197265625
1.0174999000000002,1.7735048532485962,-0.35434186458587646,9.865906715393066,4.486083984375,32.28759765625,-26.031494140625
1.0224999000000001,0.5835866928100586,0.596754789352417,9.876680374145508,-9.979248046875,0.701904296875,-45.989990234375
1.0274999,-0.9744400978088379,0.38546648621559143,9.730634689331055,-16.7236328125,-27.77099609375,-40.924072265625
1.0324999000000001,-2.20924973487854,-0.40880993008613586,9.311649322509766,-32.89794921875,-38.726806640625,27.130126953125
1.0374999,-1.2874820232391357,-0.5464765429496765,9.346364974975586,-21.270751953125,-27.984619140625,9.8876953125
1.0424999000000001,-0.43694180250167847,-1.4987702369689941,9.051877975463867,2.960205078125,-8.697509765625,24.871826171875
1.0474999,0.9199720025062561,-2.3762452602386475,8.943540573120117,3.997802734375,-8.148193359375,30.82275390625
1.0524999000000002,1.3664906024932861,-2.5689783096313477,9.036913871765137,11.90185546875,-2.410888671875,39.9169921875
1.0574999,1.427542805671692,-1.5717934370040894,9.378087997436523,14.190673828125,9.21630859375,43.121337890625
1.0624999000000002,1.5634137392044067,-0.829590916633606,9.744999885559082,-4.69970703125,-3.143310546875,-3.082275390625
1.0674999,1.7477672100067139,-0.629675030708313,9.610923767089844,-4.5166015625,3.60107421875,-27.83203125
1.0724999000000002,2.2840683460235596,-0.71766197681427,10.014347076416016,23.834228515625,29.388427734375,-15.93017578125
1.0774999,2.7515363693237305,-0.760757565498352,9.763554573059082,33.660888671875,47.271728515625,-20.20263671875
1.0824999000000002,2.1942858695983887,-0.6548141837120056,10.000580787658691,12.237548828125,38.87939453125,-24.0478515625
1.0874999,2.1942858695983887,-0.6548141837120056,10.000580787658691,12.237548828125,38.87939453125,-24.0478515625
1.0924999000000002,-0.3381809890270233,0.45010992884635925,9.806650161743164,-15.07568359375,-18.035888671875,-49.835205078125
1.0974999,-1.7585411071777344,0.6392518281936646,9.47146224975586,-12.20703125,-26.4892578125,-9.6435546875
1.1024999000000002,-2.319382905960083,-0.3405751883983612,9.254786491394043,-24.627685546875,-35.125732421875,29.296875
1.1074999,-1.713649868965149,-0.6248866319656372,8.948328971862793,-31.646728515625,-34.24072265625,14.46533203125
1.1124999000000002,-0.8050503134727478,-1.43532395362854,9.10874080657959,-1.953125,-14.984130859375,17.27294921875
1.1174999,0.46746787428855896,-2.2703018188476562,8.999205589294434,2.50244140625,-5.462646484375,27.496337890625
1.1224999000000002,1.3850456476211548,-2.034472942352295,9.57321548461914,15.80810546875,6.744384765625,46.783447265625
1.1274999,1.3850456476211548,-2.034472942352295,9.57321548461914,15.80810546875,6.744384765625,46.783447265625
1.1324999000000002,1.4850035905838013,-0.922366201877594,9.801861763000488,4.69970703125,3.47900390625,19.927978515625
1.1374999000000001,1.5490485429763794,-0.6631938815116882,9.868300437927246,-10.040283203125,-4.669189453125,-25.08544921875
1.1424999000000002,1.975814938545227,-0.7254431247711182,9.906009674072266,10.711669921875,18.85986328125,-20.44677734375
1.1474999000000001,-1.1456254720687866,-0.8026561141014099,9.202713012695312,-16.204833984375,-24.139404296875,10.7421875
1.1524999000000002,-1.1456254720687866,-0.8026561141014099,9.202713012695312,-16.204833984375,-24.139404296875,10.7421875
1.1574999000000001,-0.21667525172233582,-1.5388731956481934,8.96389102935791,3.082275390625,-7.354736328125,25.543212890625
1.1624999,1.0528502464294434,-2.296039342880249,9.111733436584473,5.096435546875,-9.21630859375,32.135009765625
1.1674999000000001,1.346139907836914,-2.320580005645752,9.312846183776855,14.129638671875,0.06103515625,44.49462890625
1.1724999,1.382651448249817,-1.3251906633377075,9.583989143371582,13.214111328125,8.7890625,40.313720703125
1.1774999000000002,1.5065513849258423,-0.7248445749282837,9.885659217834473,-6.988525390625,-5.43212890625,-9.429931640625
1.1824999,2.121262788772583,-0.5129576921463013,9.944316864013672,9.490966796875,36.68212890625,-25.634765625
1.1874999000000002,1.0402805805206299,0.43514615297317505,9.894038200378418,-6.927490234375,10.284423828125,-40.6494140625
1.1924999,-0.4902127981185913,0.3908534348011017,9.825803756713867,-16.357421875,-21.484375,-50.23193359375
1.1974999000000002,-1.7896658182144165,0.6751648783683777,9.642048835754395,-11.474609375,-25.2685546875,-4.241943359375
1.2024999,-1.5670050382614136,-0.4189853072166443,9.19972038269043,-29.47998046875,-32.623291015625,13.00048828125
1.2074999000000002,-1.5670050382614136,-0.4189853072166443,9.19972038269043,-29.47998046875,-32.623291015625,13.00048828125
1.2124999,-0.7930793166160583,-1.3084312677383423,9.204508781433105,-0.06103515625,-13.18359375,18.951416015625
1.2174999000000002,0.5363011956214905,-2.206855535507202,8.99740982055664,2.01416015625,-6.40869140625,28.167724609375
1.2224999,1.2617442607879639,-2.6844985485076904,9.150638580322266,10.25390625,-6.683349609375,36.9873046875
1.2274999000000002,1.3491326570510864,-1.9949685335159302,9.469666481018066,16.510009765625,8.514404296875,46.7529296875
1.2324999,1.6298527717590332,-0.7428010702133179,9.73661994934082,-9.613037109375,-2.960205078125,-26.85546875
1.2374999000000002,2.1290438175201416,-0.7433996200561523,9.932345390319824,13.85498046875,21.514892578125,-18.24951171875
1.2424999,2.6013002395629883,-0.9977835416793823,9.744400978088379,36.80419921875,44.219970703125,-17.27294921875
1.2474999000000002,2.4648306369781494,-0.8912416100502014,9.8970308303833,20.5078125,44.25048828125,-22.52197265625
1.2524999,1.478419542312622,-0.11372458189725876,9.8599214553833,-1.434326171875,23.8037109375,-30.94482421875
1.2574999000000002,0.2322375625371933,0.707486629486084,9.841365814208984,-13.61083984375,-9.3994140625,-52.24609375
1.2624999000000001,-1.2216414213180542,0.38965633511543274,9.651026725769043,-15.19775390625,-27.64892578125,-30.76171875
1.2674999000000002,-2.1062989234924316,-0.011971008032560349,9.440337181091309,-16.632080078125,-28.656005859375,22.857666015625
1.2724999000000001,-1.9399019479751587,-0.706289529800415,9.004592895507812,-33.69140625,-35.491943359375,22.735595703125
1.2774999000000002,-1.0785878896713257,-1.1001356840133667,9.229647636413574,-12.115478515625,-21.91162109375,11.505126953125
1.2824999000000001,1.0654197931289673,-2.23199462890625,9.134477615356445,5.9814453125,-9.033203125,31.982421875
1.2874999,2.4151508808135986,-0.6913257241249084,9.941324234008789,30.303955078125,34.332275390625,-13.763427734375
1.2924999000000001,2.7234044075012207,-0.7942764163017273,9.791088104248047,30.059814453125,47.698974609375,-22.552490234375
1.2974999,2.005143880844116,-0.4920084476470947,9.923966407775879,7.659912109375,34.881591796875,-24.2919921875
1.3024999000000002,0.8906430602073669,0.44173020124435425,9.935338973999023,-7.8125,6.866455078125,-41.50390625
1.3074999,-0.6602011322975159,0.3477577865123749,9.834183692932129,-16.510009765625,-23.92578125,-47.027587890625
1.3124999000000002,-1.8644845485687256,0.657806932926178,9.691129684448242,-12.176513671875,-25.543212890625,1.953125
1.3174999,-2.23199462890625,-0.27413609623908997,9.44991397857666,-28.778076171875,-35.64453125,29.35791015625
1.3224999000000002,-1.4329297542572021,-0.39863458275794983,9.218873977661133,-28.86962890625,-31.402587890625,11.53564453125
1.3274999,-0.6745663285255432,-1.3311761617660522,9.134477615356445,1.953125,-11.871337890625,21.30126953125
1.3324999000000002,1.3060370683670044,-2.6641478538513184,8.992621421813965,10.894775390625,-4.791259765625,37.872314453125
1.3374999,1.3754688501358032,-1.8291701078414917,9.348758697509766,16.510009765625,9.063720703125,47.088623046875
1.3424999000000002,1.5646108388900757,-0.8164227604866028,9.642048835754395,0,-0.48828125,9.033203125
1.3474999,1.6585832834243774,-0.7445967197418213,9.637260437011719,-9.185791015625,-1.28173828125,-28.4423828125
1.3524999000000002,2.1948843002319336,-0.7769184708595276,9.925163269042969,17.730712890625,23.681640625,-16.29638671875
1.3574999,2.6629507541656494,-1.0157400369644165,9.746196746826172,36.712646484375,45.745849609375,-18.951416015625
1.3624999000000002,2.3983914852142334,-0.9672574996948242,9.964667320251465,17.88330078125,43.39599609375,-24.10888671875
1.3674999,1.4221558570861816,-0.04249707981944084,9.912593841552734,-1.495361328125,22.064208984375,-31.463623046875
1.3724999000000002,0.08319851011037827,0.6631938815116882,9.87967300415039,-14.0380859375,-12.725830078125,-51.81884765625
1.3774999,-1.315613865852356,0.3387795388698578,9.621099472045898,-15.0146484375,-27.52685546875,-25.146484375
1.3824999000000002,-2.1517887115478516,-0.13108254969120026,9.48462963104248,-18.157958984375,-29.937744140625,25.177001953125
1.3874999000000001,-1.8698714971542358,-0.7128735780715942,9.012971878051758,-33.966064453125,-35.491943359375,20.843505859375
1.3924999000000002,-0.02992752194404602,-1.544858694076538,8.942343711853027,3.0517578125,-6.28662109375,26.458740234375
1.3974999000000001,1.115697979927063,-2.0596120357513428,9.190143585205078,6.561279296875,-8.575439453125,31.463623046875
1.4024999000000002,1.2970588207244873,-1.8160020112991333,9.429563522338867,15.5029296875,4.33349609375,44.7998046875
1.4074999000000001,1.4012064933776855,-0.8313865661621094,9.664793968200684,9.46044921875,6.8359375,31.585693359375
1.4124999,1.5005658864974976,-0.6434416770935059,9.858125686645508,-10.040283203125,-6.256103515625,-17.669677734375
1.4174999000000001,1.8758569955825806,-0.5716156363487244,9.744999885559082,4.302978515625,11.8408203125,-22.857666015625
1.4224999,2.472013235092163,-0.7338228225708008,9.86231517791748,33.3251953125,37.109375,-14.251708984375
1.4274999000000002,2.674323320388794,-0.884058952331543,9.800065994262695,26.763916015625,47.271728515625,-24.169921875
1.4324999,1.9141643047332764,-0.4165911078453064,9.869498252868652,5.828857421875,32.928466796875,-25.0244140625
1.4374999000000002,0.7691373229026794,0.48063600063323975,9.916184425354004,-7.26318359375,3.84521484375,-42.48046875
1.4424999,-1.9081788063049316,0.707486629486084,9.768941879272461,-12.26806640625,-24.383544921875,6.988525390625
1.4474999000000002,-2.208052635192871,-0.30945056676864624,9.497200012207031,-29.083251953125,-36.56005859375,28.289794921875
1.4524999,-1.3766659498214722,-0.37229835987091064,9.391854286193848,-24.444580078125,-30.70068359375,11.993408203125
1.4574999000000002,-0.5877765417098999,-1.3593080043792725,9.147047996520996,3.997802734375,-10.1318359375,22.308349609375
1.4624999,0.7254431247711182,-2.254140853881836,8.910021781921387,3.7841796875,-5.79833984375,26.3671875
1.4674999000000002,1.2629413604736328,-2.564788579940796,9.004592895507812,10.8642578125,-2.74658203125,35.858154296875
1.4724999,1.3102269172668457,-1.6124948263168335,9.37389850616455,14.434814453125,8.758544921875,45.7763671875
1.4774999000000002,1.4586673974990845,-0.8475474119186401,9.733028411865234,-2.899169921875,-2.471923828125,5.55419921875
1.4824999,1.6831238269805908,-0.7368155717849731,9.57860279083252,-6.134033203125,-0.3662109375,-26.55029296875
1.4874999000000002,2.342726469039917,-0.6524199843406677,10.008959770202637,22.39990234375,26.79443359375,-14.892578125
1.4924999,2.829946517944336,-0.9870096445083618,9.759963035583496,34.60693359375,49.774169921875,-21.514892578125
1.4974999000000002,2.4468741416931152,-0.7751228213310242,9.942521095275879,15.777587890625,42.6025390625,-20.44677734375
1.5024999,1.3964180946350098,0.0586579404771328,9.952696800231934,-0.701904296875,19.439697265625,-33.75244140625
1.5074999000000002,-1.5005658864974976,0.2190694510936737,9.655217170715332,-16.54052734375,-28.38134765625,-19.317626953125
1.5124999000000001,-2.2816741466522217,-0.2669534981250763,9.476250648498535,-20.6298828125,-31.79931640625,25.2685546875
1.5174999000000002,-1.902193307876587,-0.8762778043746948,9.06983470916748,-33.3251953125,-37.139892578125,19.744873046875
1.5224999000000001,0.035913024097681046,-1.7836803197860718,8.901641845703125,3.90625,-4.547119140625,25.45166015625
1.5274999000000002,1.1743559837341309,-2.1350293159484863,9.191938400268555,7.232666015625,-6.7138671875,29.632568359375
1.5324999000000001,1.2671312093734741,-1.7016788721084595,9.474454879760742,14.34326171875,5.645751953125,43.9453125
1.5374999000000003,1.3742717504501343,-0.7038952708244324,9.71926212310791,7.110595703125,5.645751953125,29.052734375
1.5424999000000001,1.482010841369629,-0.7625532150268555,9.790489196777344,-9.429931640625,-6.28662109375,-17.852783203125
1.5474999,2.0452468395233154,-0.7182605266571045,9.84256362915039,9.3994140625,15.289306640625,-20.3857421875
1.5524999000000002,2.673126220703125,-0.9074024558067322,9.766547203063965,36.56005859375,45.0439453125,-16.7236328125
1.5574999,2.8179752826690674,-1.0905588865280151,9.867103576660156,25.5126953125,51.025390625,-22.247314453125
1.5624999000000002,0.6697779297828674,0.579995334148407,9.877877235412598,-5.767822265625,2.777099609375,-45.745849609375
1.5674999,-1.0408791303634644,0.47584760189056396,9.70549488067627,-19.1650390625,-29.144287109375,-38.818359375
1.5724999000000002,-2.2409727573394775,0.9301473498344421,9.720458984375,-15.625,-29.083251953125,7.415771484375
1.5774999,-2.5312697887420654,-0.0802057534456253,9.407417297363281,-32.16552734375,-42.510986328125,26.67236328125
1.5824999000000002,-1.6136919260025024,-0.24660277366638184,9.456498146057129,-24.4140625,-34.0576171875,13.36669921875
1.5874999,-0.6218938827514648,-1.3832499980926514,9.172186851501465,3.570556640625,-9.46044921875,21.30126953125
1.5924999000000002,0.8978256583213806,-2.366069793701172,9.05606746673584,4.150390625,-3.90625,25.604248046875
1.5974999,1.4951789379119873,-2.6204538345336914,9.125499725341797,10.498046875,-1.15966796875,34.3017578125
1.6024999000000002,1.6041151285171509,-0.9630676507949829,9.730035781860352,-4.119873046875,-2.9296875,1.220703125
1.6074999,1.8040310144424438,-0.7422025203704834,9.576807022094727,-3.23486328125,1.800537109375,-23.712158203125
1.6124999000000002,2.431311845779419,-0.6051344871520996,9.962273597717285,25.543212890625,30.487060546875,-14.678955078125
1.6174999,-0.19273324310779572,0.5057750940322876,9.781511306762695,-13.214111328125,-15.31982421875,-48.675537109375
1.6224999000000002,-1.701080322265625,0.28371289372444153,9.596558570861816,-17.51708984375,-29.35791015625,-16.876220703125
1.6274999,-2.4809916019439697,0.008978256024420261,9.476250648498535,-22.186279296875,-35.2783203125,22.3388671875
1.6324999000000002,-2.187103271484375,-0.5602431893348694,9.083600997924805,-35.369873046875,-43.45703125,20.20263671875
1.6374999000000001,-1.1222820281982422,-1.0283095836639404,9.369708061218262,-8.209228515625,-22.94921875,15.594482421875
1.6424999000000002,0.10474632680416107,-1.6956933736801147,9.047688484191895,3.5400390625,-3.448486328125,23.162841796875
1.6474999000000001,1.4179660081863403,-2.1727380752563477,9.327810287475586,6.591796875,-5.37109375,26.67236328125
1.6524999000000002,1.5975310802459717,-1.810615062713623,9.583989143371582,12.725830078125,5.615234375,37.445068359375
1.6574999000000001,1.635838270187378,-0.8678981065750122,9.776124000549316,6.16455078125,5.55419921875,22.64404296875
1.6624999000000003,1.5999252796173096,-0.9600749015808105,9.768342971801758,-8.7890625,-5.889892578125,-18.157958984375
1.6674999000000001,0.6865373253822327,0.5051765441894531,9.79288387298584,-4.302978515625,4.241943359375,-45.22705078125
1.6724999,-0.9564836025238037,0.6003460884094238,9.672574996948242,-16.937255859375,-25.177001953125,-36.224365234375
1.6774999000000002,-2.2164323329925537,0.9666589498519897,9.569025993347168,-14.5263671875,-26.275634765625,7.110595703125
1.6824999,-2.2164323329925537,0.9666589498519897,9.569025993347168,-14.5263671875,-26.275634765625,7.110595703125
1.6874999000000002,-2.5528175830841064,0.05686229094862938,9.383475303649902,-32.3486328125,-44.464111328125,25.0244140625
1.6924999,-1.7675193548202515,-0.20949265360832214,9.320028305053711,-27.83203125,-38.604736328125,14.129638671875
1.6974999000000002,-0.7284358739852905,-1.3808557987213135,9.20091724395752,2.3193359375,-10.7421875,20.416259765625
1.7024999,0.8176198601722717,-2.3726539611816406,9.149441719055176,4.119873046875,-3.082275390625,24.96337890625
1.7074999000000002,1.5526398420333862,-2.6659436225891113,9.27034854888916,9.09423828125,-1.983642578125,29.632568359375
1.7124999,1.8579005002975464,-0.8140285611152649,9.622895240783691,-2.166748046875,1.678466796875,-21.8505859375
1.7174999000000002,1.8579005002975464,-0.8140285611152649,9.622895240783691,-2.166748046875,1.678466796875,-21.8505859375
1.7224999,2.411559581756592,-0.6476315855979919,9.961674690246582,24.566650390625,29.84619140625,-15.07568359375
1.7274999000000002,2.7323827743530273,-1.1091139316558838,9.778518676757812,32.04345703125,51.483154296875,-21.697998046875
1.7324999,2.3756465911865234,-0.6901286244392395,9.911396026611328,17.08984375,43.39599609375,-15.106201171875
1.7374999000000002,1.2826935052871704,-0.10055647045373917,9.971251487731934,3.509521484375,21.881103515625,-33.477783203125
1.7424999,-0.16819266974925995,0.4207809567451477,9.728838920593262,-11.53564453125,-12.3291015625,-45.440673828125
1.7474999000000002,-1.7208324670791626,0.32680854201316833,9.589975357055664,-17.27294921875,-28.717041015625,-14.892578125
1.7524999,-2.5528175830841064,0.3363853394985199,9.457695007324219,-22.8271484375,-36.468505859375,21.3623046875
1.7574999000000002,-2.337339401245117,-0.2406172752380371,9.096170425415039,-36.80419921875,-46.966552734375,20.050048828125
1.7624999000000001,-1.2437877655029297,-0.6554127335548401,9.317634582519531,-10.528564453125,-25.177001953125,15.106201171875
1.7674999000000002,0.0520738884806633,-1.4514847993850708,9.032724380493164,4.669189453125,-3.021240234375,24.71923828125
1.7724999000000001,1.6753426790237427,-1.8692729473114014,9.570821762084961,12.237548828125,5.645751953125,36.224365234375
1.7774999000000002,1.677138328552246,-0.9810241460800171,9.775525093078613,6.805419921875,5.92041015625,26.85546875
1.7824999000000001,1.6759412288665771,-1.1109095811843872,9.749189376831055,-7.537841796875,-6.04248046875,-14.312744140625
1.7874999000000003,2.1344308853149414,-0.9169792532920837,9.907805442810059,10.55908203125,14.862060546875,-19.53125
1.7924999000000001,2.6390087604522705,-1.0684125423431396,9.708487510681152,33.966064453125,45.47119140625,-17.27294921875
1.7974999,2.719214677810669,-1.2527660131454468,9.883264541625977,24.017333984375,49.560546875,-18.890380859375
1.8024999000000002,1.9506758451461792,-0.2735375463962555,9.837775230407715,10.467529296875,34.11865234375,-21.636962890625
1.8074999,0.6548141837120056,0.4165911078453064,9.807847023010254,-1.953125,7.781982421875,-43.182373046875
1.8124999000000002,-1.0229226350784302,0.5554547905921936,9.696516990661621,-17.364501953125,-24.71923828125,-34.088134765625
1.8174999,-2.3319525718688965,1.1210849285125732,9.561842918395996,-16.082763671875,-29.052734375,5.7373046875
1.8224999000000002,-2.7018566131591797,0.24361002445220947,9.374496459960938,-33.8134765625,-47.36328125,24.322509765625
1.8274999,-1.8698714971542358,0.008379706181585789,9.254188537597656,-29.754638671875,-40.008544921875,14.09912109375
1.8324999000000002,0.8978256583213806,-2.3265655040740967,9.103353500366211,5.18798828125,-2.8076171875,26.30615234375
1.8374999,1.6466121673583984,-2.6880898475646973,9.282918930053711,8.9111328125,-0.823974609375,27.801513671875
1.8424999000000002,1.6729484796524048,-1.20368492603302,9.807249069213867,-3.11279296875,-2.3193359375,4.852294921875
1.8474999,1.8734627962112427,-0.862511157989502,9.647436141967773,-1.068115234375,1.556396484375,-21.759033203125
1.8524999000000002,2.4151508808135986,-0.7637503147125244,9.954492568969727,25.146484375,31.463623046875,-16.876220703125
1.8574999,2.759916067123413,-1.0911574363708496,9.828198432922363,30.364990234375,51.422119140625,-19.805908203125
1.8624999000000002,2.3983914852142334,-0.7846996188163757,9.90241813659668,16.29638671875,42.144775390625,-17.669677734375
1.8674999,1.3455413579940796,-0.03950432687997818,9.987412452697754,6.28662109375,23.468017578125,-32.501220703125
1.8724999000000002,-0.1885433793067932,0.3824737071990967,9.73542308807373,-10.8642578125,-10.7421875,-42.022705078125
1.8774999,-1.7070658206939697,0.395043283700943,9.563638687133789,-18.12744140625,-29.4189453125,-14.739990234375
1.8824999000000002,-2.607884168624878,0.4620809257030487,9.418789863586426,-23.8037109375,-38.57421875,20.111083984375
1.8874999000000001,0.0520738884806633,-1.5514427423477173,8.94773006439209,6.011962890625,-2.960205078125,26.67236328125
1.8924999000000002,1.4359225034713745,-2.294243812561035,9.23323917388916,7.080078125,-4.241943359375,25.32958984375
1.8974999000000001,1.7064672708511353,-1.942894697189331,9.546878814697266,12.20703125,6.378173828125,34.72900390625
1.9024999000000002,1.7220295667648315,-1.006163239479065,9.748590469360352,6.16455078125,5.7373046875,27.16064453125
1.9074999000000001,1.7591396570205688,-1.113303780555725,9.730634689331055,-6.591796875,-5.340576171875,-14.068603515625
1.9124999000000003,2.2457611560821533,-0.7942764163017273,9.973047256469727,12.39013671875,17.39501953125,-21.514892578125
1.9174999000000001,2.741959571838379,-1.013944387435913,9.720458984375,34.698486328125,48.614501953125,-16.41845703125
1.9224999,2.7958290576934814,-1.2348095178604126,9.9586820602417,23.895263671875,50.994873046875,-19.59228515625
1.9274999000000002,2.0374655723571777,-0.4076128304004669,9.847352027893066,12.420654296875,36.92626953125,-24.871826171875
1.9324999,0.6961141228675842,0.25498247146606445,9.758167266845703,1.251220703125,11.23046875,-41.168212890625
1.9374999000000002,0.8655039072036743,-2.4420857429504395,9.12968921661377,5.7373046875,-2.166748046875,26.458740234375
1.9424999,1.7256208658218384,-2.765302896499634,9.284713745117188,9.368896484375,0.732421875,25.909423828125
1.9474999000000002,1.86508309841156,-1.711255669593811,9.617507934570312,12.26806640625,9.521484375,32.958984375
1.9524999,1.8644845485687256,-1.2964602708816528,9.801262855529785,-2.899169921875,-0.9765625,0.701904296875
1.9574999000000002,2.011129379272461,-0.8720879554748535,9.695320129394531,1.983642578125,6.134033203125,-21.6064453125
1.9624999,2.4863784313201904,-0.778714120388031,9.95748519897461,26.85546875,34.0576171875,-15.960693359375
1.9674999000000002,2.764704465866089,-1.061229944229126,9.891644477844238,30.33447265625,52.642822265625,-21.270751953125
1.9724999,2.3535003662109375,-0.6877344250679016,9.929352760314941,17.51708984375,44.281005859375,-17.547607421875
1.9774999000000002,-0.2950853705406189,0.43993455171585083,9.714473724365234,-10.345458984375,-10.650634765625,-42.1142578125
1.9824999,-1.933916449546814,0.4082113802433014,9.445125579833984,-19.500732421875,-31.31103515625,-15.106201171875
1.9874999000000002,-2.937685489654541,0.5895721912384033,9.41759204864502,-26.397705078125,-44.647216796875,21.148681640625
1.9924999,-2.722805976867676,-0.02454056777060032,9.033323287963867,-39.61181640625,-54.99267578125,20.32470703125
1.9974999000000002,-1.521515130996704,-0.5596446394920349,9.374496459960938,-11.749267578125,-27.618408203125,15.19775390625
2.0024999,2.030881643295288,-1.9446903467178345,9.647436141967773,11.77978515625,6.8359375,31.982421875
2.0074999,2.0207061767578125,-1.0438719987869263,9.751583099365234,5.615234375,5.43212890625,22.369384765625
2.0124999000000003,1.9189527034759521,-1.182137131690979,9.68694019317627,-5.401611328125,-2.227783203125,-17.08984375
2.0174999000000002,2.229600429534912,-0.8882488012313843,9.903017044067383,12.63427734375,18.12744140625,-17.486572265625
2.0224999,2.6426000595092773,-1.1623848676681519,9.712677955627441,33.172607421875,46.32568359375,-17.608642578125
2.0274999,1.835754156112671,-0.33039984107017517,9.914389610290527,11.383056640625,35.7666015625,-22.247314453125
2.0324999000000004,0.6015431880950928,0.44352585077285767,9.77672290802002,-1.0986328125,8.4228515625,-43.9453125
2.0374999000000003,-1.1659762859344482,0.49559974670410156,9.686341285705566,-16.571044921875,-24.444580078125,-30.853271484375
2.0424999,-2.5085248947143555,1.1079168319702148,9.457097053527832,-16.2353515625,-29.693603515625,8.575439453125
2.0474999,-2.9275100231170654,0.19393034279346466,9.327810287475586,-35.64453125,-53.619384765625,23.8037109375
2.0524999,-2.0374655723571777,0.035913024097681046,9.25059700012207,-30.2734375,-43.975830078125,14.404296875
2.0574999000000003,-0.750582218170166,-1.2431892156600952,9.206902503967285,1.373291015625,-10.7421875,20.599365234375
2.0624999,1.0319008827209473,-2.3122003078460693,9.222464561462402,4.425048828125,-0.946044921875,22.88818359375
2.0674999,1.8854337930679321,-2.632424831390381,9.406219482421875,9.033203125,0.701904296875,23.62060546875
2.0724999,1.9476830959320068,-1.6753426790237427,9.67077922821045,11.749267578125,9.09423828125,31.646728515625
2.0774999000000003,1.8884265422821045,-1.291671872138977,9.859322547912598,-2.777099609375,-0.42724609375,-2.3193359375
2.0824999,2.2445640563964844,-0.6727706789970398,9.898228645324707,18.768310546875,45.501708984375,-13.336181640625
2.0874999,1.2072762250900269,-0.10893617570400238,9.961075782775879,5.523681640625,24.444580078125,-33.843994140625
2.0924999,-0.3058592677116394,0.507570743560791,9.721057891845703,-9.1552734375,-9.8876953125,-40.52734375
2.0974999000000003,-1.9273324012756348,0.41359832882881165,9.489418029785156,-17.76123046875,-29.296875,-10.19287109375
2.1024999,-2.868852138519287,0.6224924325942993,9.54209041595459,-24.35302734375,-42.05322265625,21.514892578125
2.1074999,-2.670133352279663,-0.08499415963888168,9.160215377807617,-39.398193359375,-56.15234375,18.5546875
2.1124999,-1.492186188697815,-0.5841852426528931,9.528324127197266,-13.61083984375,-29.632568359375,15.960693359375
2.1174999000000003,0.06763619929552078,-1.6394295692443848,9.223063468933105,4.2724609375,-2.410888671875,23.4375
2.1224999,1.6202759742736816,-2.4205379486083984,9.437344551086426,5.9814453125,-1.15966796875,20.5078125
2.1274999,2.0482394695281982,-2.1811177730560303,9.59177017211914,10.894775390625,6.317138671875,29.388427734375
2.1324999,2.058414936065674,-1.1713632345199585,9.699509620666504,5.92041015625,6.134033203125,21.392822265625
2.1374999000000003,2.1996726989746094,-0.800261914730072,9.847352027893066,12.359619140625,17.486572265625,-15.380859375
2.1424999000000002,2.5995044708251953,-1.1743559837341309,9.67077922821045,33.38623046875,45.5322265625,-17.303466796875
2.1474999,2.5546131134033203,-1.0103530883789062,9.925163269042969,24.871826171875,50.567626953125,-18.035888671875
2.1524999,1.8100165128707886,-0.3645172119140625,9.900622367858887,11.016845703125,35.614013671875,-20.69091796875
2.1574999000000004,0.5961562395095825,0.38726213574409485,9.7791166305542,0.06103515625,9.70458984375,-41.80908203125
2.1624999000000003,-1.1665748357772827,0.44532153010368347,9.704896926879883,-14.434814453125,-21.453857421875,-26.580810546875
2.1674999,-2.4839842319488525,0.839766263961792,9.326014518737793,-15.960693359375,-29.23583984375,9.735107421875
2.1724999,-2.9706058502197266,0.13347674906253815,9.296685218811035,-34.912109375,-54.5654296875,22.03369140625
2.1774999000000004,-2.1104888916015625,-0.07781155407428741,9.127894401550293,-32.77587890625,-48.4619140625,15.31982421875
2.1824999000000003,-0.7942764163017273,-1.1312602758407593,9.27034854888916,-0.213623046875,-13.336181640625,19.71435546875
2.1874999,0.9876081943511963,-2.050035238265991,9.371503829956055,4.2724609375,-0.701904296875,22.369384765625
2.1924999,1.9273324012756348,-2.3924059867858887,9.592369079589844,7.415771484375,0.42724609375,21.30126953125
2.1974999,1.9405004978179932,-0.8577227592468262,9.726444244384766,1.312255859375,5.37109375,-20.355224609375
2.2024999000000003,2.3511061668395996,-0.8816647529602051,9.925163269042969,24.139404296875,30.2734375,-12.8173828125
2.2074999,2.581547975540161,-1.0881646871566772,9.785700798034668,30.029296875,49.835205078125,-20.81298828125
2.2124999,2.1978771686553955,-0.689530074596405,9.84615421295166,17.39501953125,43.3349609375,-14.434814453125
2.2174999,1.1803414821624756,-0.10534487664699554,9.914987564086914,4.302978515625,22.94921875,-33.203125
2.2224999000000003,-0.24839842319488525,0.43993455171585083,9.689932823181152,-7.354736328125,-6.927490234375,-37.628173828125
2.2274999,-1.8142063617706299,0.3711012601852417,9.494206428527832,-15.56396484375,-25.970458984375,-7.171630859375
2.2324999,-2.7269957065582275,0.667982280254364,9.67077922821045,-22.125244140625,-38.604736328125,20.44677734375
2.2374999,-2.5743653774261475,-0.031124621629714966,9.27034854888916,-38.665771484375,-55.60302734375,18.096923828125
2.2424999000000003,1.998559832572937,-2.204461097717285,9.497797966003418,10.19287109375,5.4931640625,28.4423828125
2.2474999,2.008735179901123,-1.2425906658172607,9.671378135681152,6.591796875,6.7138671875,23.773193359375
2.2524999,1.8896236419677734,-1.3407529592514038,9.610325813293457,-5.279541015625,-2.655029296875,-16.082763671875
2.2574999,2.144007682800293,-0.973242998123169,9.816226959228516,10.986328125,16.265869140625,-16.082763671875
2.2624999000000003,2.563591480255127,-1.217451572418213,9.65222454071045,32.684326171875,43.670654296875,-15.31982421875
2.2674999000000002,2.582146644592285,-1.0450690984725952,9.86770248413086,25.146484375,50.048828125,-19.317626953125
2.2724999,1.8166005611419678,-0.33698388934135437,9.86111831665039,10.772705078125,35.70556640625,-20.050048828125
2.2774999,0.6883329749107361,0.4967968463897705,9.768342971801758,0.213623046875,10.711669921875,-40.1611328125
2.2824999000000004,-1.0678139925003052,0.5578489899635315,9.719860076904297,-13.641357421875,-20.355224609375,-27.40478515625
2.2874999000000003,-2.3145945072174072,0.6057330369949341,9.330802917480469,-15.13671875,-27.77099609375,8.026123046875
2.2924999,-2.9041666984558105,0,9.321226119995117,-32.379150390625,-51.33056640625,22.308349609375
2.2974999,-2.095525026321411,-0.3818751573562622,9.099761962890625,-33.69140625,-48.88916015625,15.869140625
2.3024999000000004,1.9620482921600342,-1.4766238927841187,9.841964721679688,11.3525390625,9.27734375,31.55517578125
2.3074999000000003,1.9620482921600342,-1.4766238927841187,9.841964721679688,11.3525390625,9.27734375,31.55517578125
2.3124999,1.9159599542617798,-1.0791864395141602,9.95329475402832,-1.434326171875,0.1220703125,2.3193359375
2.3174999,1.9405004978179932,-0.7966706156730652,9.716269493103027,0.335693359375,4.241943359375,-20.263671875
2.3224999,2.6228480339050293,-1.0690110921859741,9.765948295593262,31.3720703125,49.835205078125,-19.83642578125
2.3274999000000003,2.6228480339050293,-1.0690110921859741,9.765948295593262,31.3720703125,49.835205078125,-19.83642578125
2.3324999,2.252345323562622,-0.7164648771286011,9.88386344909668,18.5546875,45.013427734375,-15.68603515625
2.3374999,1.269525408744812,-0.16759411990642548,9.9185791015625,5.035400390625,24.7802734375,-31.463623046875
2.3424999,-0.1586158573627472,0.46567222476005554,9.693524360656738,-6.317138671875,-5.096435546875,-37.9638671875
2.3474999000000003,-1.5454572439193726,-0.3411737382411957,9.609128952026367,-18.4326171875,-34.149169921875,15.31982421875
2.3524999,-0.05506663769483566,-1.522712230682373,9.284713745117188,4.241943359375,-3.662109375,23.345947265625
2.3574999,1.5310919284820557,-2.4438812732696533,9.315838813781738,5.401611328125,-1.617431640625,21.17919921875
2.3624999,2.0213048458099365,-2.3277626037597656,9.412205696105957,10.6201171875,5.584716796875,28.62548828125
2.3674999000000003,2.011129379272461,-1.3150153160095215,9.604938507080078,7.598876953125,7.26318359375,26.397705078125
2.3724999,1.8836381435394287,-1.368884801864624,9.604340553283691,-5.523681640625,-3.936767578125,-14.068603515625
2.3774999,2.1314380168914795,-1.0229226350784302,9.803657531738281,9.70458984375,14.46533203125,-17.669677734375
2.3824999,2.5462334156036377,-1.146224021911621,9.678560256958008,31.829833984375,42.510986328125,-14.129638671875
2.3874999000000003,2.654571056365967,-1.1007342338562012,9.883264541625977,24.932861328125,49.530029296875,-20.20263671875
2.3924999000000002,1.8584990501403809,-0.29149407148361206,9.86111831665039,11.1083984375,35.64453125,-19.683837890625
2.3974999,-1.025316834449768,0.6260837316513062,9.724050521850586,-13.916015625,-20.538330078125,-28.1982421875
2.4024999,-2.296039342880249,0.6254851818084717,9.315239906311035,-15.7470703125,-28.472900390625,7.38525390625
2.4074999000000004,-2.871845006942749,0.008379706181585789,9.299078941345215,-32.40966796875,-50.994873046875,22.430419921875
2.4124999000000003,-2.057217836380005,-0.4423287510871887,9.015366554260254,-33.75244140625,-48.004150390625,15.594482421875
2.4174999,-0.8619126081466675,-1.3221979141235352,9.239224433898926,-0.54931640625,-14.373779296875,19.4091796875
2.4224999,0.768538773059845,-2.076969861984253,9.247604370117188,4.69970703125,-0.823974609375,24.017333984375
2.4274999000000004,1.7459715604782104,-2.3499090671539307,9.560047149658203,7.080078125,-0.274658203125,22.186279296875
2.4324999000000003,1.7950527667999268,-1.4443022012710571,9.807249069213867,12.02392578125,9.185791015625,36.1328125
2.4374999,1.7848774194717407,-1.027711033821106,9.944915771484375,-1.0986328125,-0.640869140625,7.720947265625
2.4424999,1.877652645111084,-0.7942764163017273,9.702502250671387,-0.701904296875,1.46484375,-20.3857421875
2.4474999,2.3995885848999023,-0.6613982319831848,9.955090522766113,22.552490234375,28.80859375,-14.495849609375
2.4524999000000003,2.713229179382324,-1.1001356840133667,9.776124000549316,30.6396484375,50.628662109375,-19.34814453125
2.4574999,-2.580949544906616,-0.16160862147808075,9.320627212524414,-37.567138671875,-54.229736328125,19.989013671875
2.4624999,-1.4664485454559326,-0.5716156363487244,9.604340553283691,-16.41845703125,-31.463623046875,15.0146484375
2.4674999,-0.053270988166332245,-1.6873136758804321,9.264962196350098,5.615234375,-2.8076171875,24.10888671875
2.4724999000000003,1.4472949504852295,-2.519897222518921,9.297284126281738,5.31005859375,-1.708984375,20.416259765625
2.4774999,1.8567034006118774,-2.2685060501098633,9.405621528625488,10.284423828125,5.401611328125,30.303955078125
2.4824999,1.7794904708862305,-1.3198037147521973,9.525930404663086,-4.7607421875,-4.82177734375,-10.68115234375
2.4874999,2.1942858695983887,-0.821809709072113,9.781511306762695,10.467529296875,14.34326171875,-18.707275390625
2.4924999000000003,2.7036523818969727,-1.0606313943862915,9.932345390319824,22.979736328125,48.76708984375,-20.294189453125
2.4974999,1.9321208000183105,-0.22385786473751068,9.923966407775879,11.04736328125,33.38623046875,-21.514892578125
2.5024999,0.67815762758255,0.3166331648826599,9.783307075500488,0.885009765625,10.55908203125,-37.933349609375
2.5074999,-1.049857497215271,0.4315548539161682,9.700706481933594,-14.892578125,-21.1181640625,-26.2451171875
2.5124999000000003,-2.297835111618042,0.6332663297653198,9.28531265258789,-16.78466796875,-29.205322265625,6.927490234375
2.5174999000000002,-2.8143839836120605,0.04010287672281265,9.282320022583008,-33.233642578125,-51.788330078125,22.705078125
2.5224999,-1.955464243888855,-0.38726213574409485,8.995016098022461,-32.470703125,-45.318603515625,15.350341796875
2.5274999,-0.7332242727279663,-1.368884801864624,9.229647636413574,0.91552734375,-12.237548828125,20.111083984375
2.5324999000000004,0.8858546018600464,-2.0919337272644043,9.278130531311035,5.828857421875,-0.67138671875,24.169921875
2.5374999000000003,1.764526605606079,-2.427121877670288,9.57321548461914,7.415771484375,0.518798828125,22.674560546875
2.5424999,1.766920804977417,-1.3611036539077759,9.840168952941895,11.444091796875,9.307861328125,35.430908203125
2.5474999,1.7537527084350586,-1.2497732639312744,9.929951667785645,-0.946044921875,0.1220703125,6.7138671875
2.5524999000000004,2.7664999961853027,-1.1851298809051514,9.839570045471191,29.1748046875,52.79541015625,-20.416259765625
2.5574999000000003,2.426523447036743,-0.74040687084198,9.821614265441895,18.096923828125,44.25048828125,-18.310546875
2.5624999,-0.22505496442317963,0.4465186297893524,9.70429801940918,-8.85009765625,-8.1787109375,-40.0390625
2.5674999,-1.8471266031265259,0.4495113790035248,9.477447509765625,-19.47021484375,-29.84619140625,-14.617919921875
2.5724999,-2.9035680294036865,0.8589198589324951,9.529520988464355,-25.08544921875,-42.78564453125,19.927978515625
2.5774999000000003,-2.782062292098999,0.09576806426048279,9.155426979064941,-39.520263671875,-56.15234375,20.20263671875
2.5824999,-1.6041151285171509,-0.44412440061569214,9.44991397857666,-14.34326171875,-29.541015625,14.892578125
2.5874999,-0.028730420395731926,-1.5526398420333862,9.153631210327148,4.94384765625,-2.716064453125,24.810791015625
2.5924999,1.5263035297393799,-2.4588451385498047,9.361329078674316,6.683349609375,-1.190185546875,21.78955078125
2.5974999000000003,1.956661343574524,-2.1912930011749268,9.540295600891113,10.284423828125,6.195068359375,30.2734375
2.6024999,2.2697031497955322,-0.8008604645729065,9.912593841552734,13.5498046875,17.7001953125,-18.157958984375
2.6074999,2.6647465229034424,-0.9355342984199524,9.68155288696289,30.8837890625,46.844482421875,-17.39501953125
2.6124999,2.650381326675415,-0.9672574996948242,9.94970417022705,21.484375,47.393798828125,-19.195556640625
2.6174999000000003,1.8279730081558228,-0.20769700407981873,9.91977596282959,10.92529296875,32.470703125,-24.658203125
2.6224999,0.518943190574646,0.3561375141143799,9.747393608093262,-0.213623046875,7.293701171875,-38.75732421875
2.6274999,-1.212663173675537,0.3292027413845062,9.66299819946289,-17.08984375,-24.566650390625,-24.47509765625
2.6324999,-2.5438392162323,0.9929951429367065,9.418190956115723,-17.608642578125,-31.646728515625,10.345458984375
2.6374999000000003,-2.9029695987701416,0.1646013706922531,9.259574890136719,-36.529541015625,-55.267333984375,23.101806640625
2.6424999000000002,1.1121066808700562,-2.251148223876953,9.132682800292969,6.34765625,-0.274658203125,23.406982421875
2.6474999,1.722628116607666,-1.478419542312622,9.798869132995605,-2.655029296875,-1.800537109375,2.197265625
2.6524999,2.0446481704711914,-0.9313444495201111,9.816226959228516,4.302978515625,6.591796875,-19.927978515625
2.6574999000000004,2.5246856212615967,-0.933738648891449,9.824606895446777,28.3203125,38.116455078125,-15.838623046875
2.6624999000000003,2.866457939147949,-1.0755951404571533,9.955090522766113,26.42822265625,51.26953125,-21.148681640625
2.6674999,2.3289597034454346,-0.5291185975074768,9.850942611694336,15.07568359375,40.10009765625,-19.378662109375
2.6724999,1.2641384601593018,0.12030863761901855,9.917980194091797,6.16455078125,20.904541015625,-37.4755859375
2.6774999000000004,-0.46088382601737976,0.444722980260849,9.710283279418945,-11.810302734375,-14.16015625,-36.346435546875
2.6824999000000003,-2.0009541511535645,0.35494041442871094,9.430760383605957,-18.06640625,-28.99169921875,-6.591796875
2.6874999,-2.940079689025879,0.25737667083740234,9.41639518737793,-27.4658203125,-46.234130859375,22.88818359375
2.6924999,-2.53725528717041,-0.3345896899700165,9.063250541687012,-37.2314453125,-52.093505859375,18.157958984375
2.6974999,0.30705636739730835,-1.725022315979004,9.15961742401123,5.645751953125,-0.518798828125,24.688720703125
2.7024999000000003,1.6023194789886475,-2.315791606903076,9.481039047241211,7.080078125,-0.1220703125,21.728515625
2.7074999,1.8908207416534424,-1.6645687818527222,9.731831550598145,10.772705078125,7.2021484375,32.989501953125
2.7124999,1.8632874488830566,-1.0869675874710083,9.86650562286377,3.387451171875,3.662109375,18.157958984375
2.7174999,1.935113549232483,-1.0199298858642578,9.667786598205566,-1.8310546875,-0.823974609375,-17.059326171875
2.7224999000000003,2.7120320796966553,-0.9349357485771179,9.758167266845703,29.72412109375,49.285888671875,-19.71435546875
2.7274999,2.491166830062866,-0.8236053586006165,9.899425506591797,18.310546875,44.00634765625,-18.585205078125
2.7324999,1.5837644338607788,-0.15263035893440247,9.962871551513672,8.453369140625,28.076171875,-31.55517578125
2.7374999,0.1472434103488922,0.34596213698387146,9.70549488067627,-3.570556640625,0.152587890625,-38.51318359375
2.7424999000000003,-1.4760253429412842,0.25977087020874023,9.569623947143555,-18.00537109375,-26.458740234375,-17.76123046875
2.7474999,-2.62823486328125,0.9804255962371826,9.619303703308105,-19.53125,-35.675048828125,15.7470703125
2.7524999,-0.29209262132644653,-1.3533225059509277,9.194931983947754,5.340576171875,-4.2724609375,23.468017578125
2.7574999,1.2575544118881226,-2.270900249481201,9.17936897277832,7.01904296875,-0.48828125,23.101806640625
2.7624999000000003,1.7962498664855957,-2.3708581924438477,9.277531623840332,8.270263671875,3.448486328125,30.09033203125
2.7674999000000002,1.8154034614562988,-1.2018892765045166,9.55825138092041,8.575439453125,7.110595703125,33.355712890625
2.7724999,1.7836803197860718,-1.459265947341919,9.545681953430176,-3.35693359375,-3.7841796875,-4.730224609375
2.7774999,2.2463598251342773,-0.8942343592643738,9.884461402893066,10.009765625,13.702392578125,-17.547607421875
2.7824999000000004,2.690484046936035,-0.960673451423645,9.723451614379883,30.181884765625,44.5556640625,-16.510009765625
2.7874999000000003,2.7898435592651367,-1.0432734489440918,9.98681354522705,22.674560546875,48.248291015625,-20.477294921875
2.7924999,2.074575662612915,-0.2992752194404602,9.880870819091797,11.41357421875,34.24072265625,-23.895263671875
2.7974999,0.8655039072036743,0.28969839215278625,9.7791166305542,2.9296875,13.519287109375,-40.557861328125
2.8024999000000004,-0.8810662031173706,0.3842693865299225,9.666589736938477,-14.46533203125,-18.9208984375,-30.303955078125
2.8074999000000003,-2.8772318363189697,-0.05686229094862938,9.305065155029297,-32.806396484375,-52.337646484375,23.468017578125
2.8124999,-2.121262788772583,-0.5081692934036255,9.008183479309082,-33.477783203125,-47.05810546875,16.143798828125
2.8174999,-0.9319429993629456,-1.5167267322540283,9.236231803894043,-0.48828125,-13.885498046875,19.256591796875
2.8224999,0.7164648771286011,-2.144606113433838,9.278728485107422,6.988525390625,0.213623046875,25.970458984375
2.8274999000000003,1.6101006269454956,-2.452261209487915,9.561842918395996,7.87353515625,0.42724609375,25.2685546875
2.8324999,1.702277421951294,-1.3634978532791138,9.831789016723633,10.162353515625,7.598876953125,35.980224609375
2.8374999,1.6873136758804321,-1.2030863761901855,9.92097282409668,-0.701904296875,-0.885009765625,9.307861328125
2.8424999,2.0015525817871094,-0.8667010068893433,9.782109260559082,3.11279296875,4.608154296875,-17.63916015625
2.8474999000000003,2.538452386856079,-0.7272387742996216,9.861717224121094,26.123046875,35.46142578125,-15.228271484375
2.8524999,2.764105796813965,-0.9953893423080444,9.82999324798584,26.885986328125,50.567626953125,-21.026611328125
2.8574999,2.3594858646392822,-0.5554547905921936,9.797073364257812,14.70947265625,39.12353515625,-19.989013671875
2.8624999,1.2868833541870117,0.03172317147254944,9.895833969116211,6.34765625,21.97265625,-37.933349609375
2.8674999000000003,-1.7262194156646729,0.2735375463962555,9.485827445983887,-17.608642578125,-27.52685546875,-11.474609375
2.8724999,-2.697666883468628,0.4620809257030487,9.495404243469238,-24.627685546875,-42.022705078125,19.989013671875
2.8774999,-2.5288755893707275,-0.14425064623355865,9.126696586608887,-37.384033203125,-52.398681640625,20.599365234375
2.8824999,1.824381709098816,-1.8974047899246216,9.665990829467773,9.8876953125,6.40869140625,34.088134765625
2.8874999000000003,1.824381709098816,-1.8974047899246216,9.665990829467773,9.8876953125,6.40869140625,34.088134765625
2.8924999000000002,1.835754156112671,-1.158793568611145,9.834781646728516,4.33349609375,3.753662109375,22.03369140625
2.8974999,1.9267338514328003,-1.1629834175109863,9.633668899536133,-2.227783203125,-2.227783203125,-13.7939453125
2.9024999,2.407968282699585,-0.7775170207023621,9.967061996459961,17.974853515625,23.92578125,-16.7236328125
2.9074999000000004,2.7754783630371094,-0.9403226971626282,9.713874816894531,30.33447265625,49.37744140625,-18.5546875
2.9124999000000003,0.3130418658256531,0.3405751883983612,9.710882186889648,-2.86865234375,2.471923828125,-41.50390625
2.9174999,-1.3198037147521973,0.2693476974964142,9.594164848327637,-17.364501953125,-25.115966796875,-22.491455078125
2.9224999,-2.5079262256622314,0.8972271084785461,9.606135368347168,-18.035888671875,-32.989501953125,11.77978515625
2.9274999000000004,-2.780266761779785,0.07481880486011505,9.357138633728027,-36.68212890625,-53.8330078125,24.139404296875
2.9324999000000003,-1.7938556671142578,-0.16519992053508759,9.45410442352295,-23.5595703125,-37.4755859375,14.617919921875
2.9374999,-0.4572925269603729,-1.404199242591858,9.165003776550293,4.180908203125,-5.950927734375,22.8271484375
2.9424999,1.1815385818481445,-2.3307554721832275,9.167398452758789,7.26318359375,-0.91552734375,25.7568359375
2.9474999,1.7603367567062378,-2.451063871383667,9.28650951385498,8.9111328125,3.84521484375,29.266357421875
2.9524999000000003,1.8088194131851196,-1.3126211166381836,9.578003883361816,8.9111328125,7.537841796875,30.94482421875
2.9574999,1.7848774194717407,-1.4939818382263184,9.618705749511719,-3.814697265625,-3.84521484375,-5.584716796875
2.9624999,2.6653449535369873,-0.9331400990486145,9.784503936767578,31.1279296875,45.22705078125,-16.66259765625
2.9674999,0.9187749028205872,0.36571431159973145,9.7791166305542,3.631591796875,14.739990234375,-41.93115234375
2.9724999000000003,0.9187749028205872,0.36571431159973145,9.7791166305542,3.631591796875,14.739990234375,-41.93115234375
2.9774999,-0.8942343592643738,0.4734533727169037,9.655217170715332,-15.167236328125,-19.622802734375,-33.050537109375
2.9824999,-2.23199462890625,0.49320554733276367,9.48462963104248,-18.37158203125,-30.57861328125,0.030517578125
2.9874999,-2.983175277709961,0.08798690885305405,9.32661247253418,-32.28759765625,-52.6123046875,24.688720703125
2.9924999000000003,-2.252943754196167,-0.3800795078277588,9.154230117797852,-34.5458984375,-48.88916015625,16.9677734375
2.9974999,-0.9911994934082031,-1.2737152576446533,9.164405822753906,-1.77001953125,-15.0146484375,18.402099609375
3.0024999,0.7080851793289185,-1.8962076902389526,9.070432662963867,6.53076171875,0,26.947021484375
3.0074999,1.6891093254089355,-2.2852654457092285,9.366715431213379,7.720947265625,1.220703125,24.47509765625
3.0124999000000003,1.7956513166427612,-1.3108254671096802,9.66539192199707,10.772705078125,8.209228515625,35.247802734375
3.0174999000000002,1.7501614093780518,-1.1905168294906616,9.82640266418457,-0.54931640625,-0.823974609375,9.765625
3.0224999,2.7323827743530273,-1.0558429956436157,9.844358444213867,26.9775390625,50.323486328125,-20.93505859375
3.0274999,2.3361423015594482,-0.596754789352417,9.821614265441895,15.13671875,39.764404296875,-19.805908203125
3.0324999000000004,1.280897855758667,-0.04967968538403511,9.91738224029541,7.080078125,23.162841796875,-37.109375
3.0374999000000003,-0.2585737705230713,0.3728969097137451,9.719860076904297,-8.6669921875,-8.36181640625,-38.02490234375
3.0424999,-1.7549498081207275,0.2669534981250763,9.498396873474121,-18.402099609375,-28.045654296875,-11.41357421875
3.0474999,-2.7479450702667236,0.5961562395095825,9.531316757202148,-24.35302734375,-42.05322265625,20.721435546875
3.0524999000000004,-2.5953147411346436,-0.11013327538967133,9.127894401550293,-37.78076171875,-54.3212890625,20.751953125
3.0574999000000003,-1.4628572463989258,-0.6560112833976746,9.39365005493164,-12.0849609375,-26.67236328125,15.13671875
3.0624999,0.08379705995321274,-1.6160861253738403,9.123703956604004,6.04248046875,-1.434326171875,26.30615234375
3.0674999,1.4778209924697876,-2.429516077041626,9.350554466247559,7.049560546875,-0.54931640625,22.613525390625
3.0724999000000004,1.820790410041809,-1.9776105880737305,9.576208114624023,9.796142578125,6.591796875,32.562255859375
3.0774999000000003,1.9243396520614624,-1.2120646238327026,9.607931137084961,-1.739501953125,-1.373291015625,-13.36669921875
3.0824999,2.388216257095337,-0.7721300721168518,9.974244117736816,17.333984375,23.49853515625,-16.693115234375
3.0874999,2.7760767936706543,-0.9331400990486145,9.749189376831055,30.120849609375,48.9501953125,-18.402099609375
3.0924999,2.5785553455352783,-0.8822633028030396,9.955090522766113,18.951416015625,44.647216796875,-19.927978515625
3.0974999000000003,1.7190368175506592,-0.13108254969120026,9.962871551513672,9.307861328125,29.388427734375,-30.8837890625
3.1024999,0.3148375153541565,0.35075053572654724,9.739612579345703,-2.25830078125,3.11279296875,-40.71044921875
3.1074999,-1.323395013809204,0.28730419278144836,9.640851974487305,-17.63916015625,-25.360107421875,-22.308349609375
3.1124999,-2.540247917175293,0.8864531517028809,9.557653427124023,-18.06640625,-32.684326171875,11.932373046875
3.1174999000000003,-2.8377275466918945,0.10654197633266449,9.366715431213379,-36.712646484375,-55.48095703125,24.59716796875
3.1224999,-1.8758569955825806,-0.25677812099456787,9.41639518737793,-24.59716796875,-38.818359375,14.495849609375
3.1274999,-0.4950011968612671,-1.414973258972168,9.188945770263672,4.364013671875,-6.04248046875,23.3154296875
3.1324999,1.821987509727478,-2.451662540435791,9.37629222869873,8.544921875,3.96728515625,26.519775390625
3.1374999000000003,1.8944120407104492,-1.2737152576446533,9.64564037322998,8.758544921875,7.080078125,30.8837890625
3.1424999000000002,1.8800468444824219,-1.4778209924697876,9.640253067016602,-2.960205078125,-2.9296875,-4.57763671875
3.1474999,2.252345323562622,-0.921169102191925,9.912593841552734,9.613037109375,14.068603515625,-18.035888671875
3.1524999,2.6797101497650146,-0.9241618514060974,9.744999885559082,30.059814453125,43.9453125,-15.594482421875
3.1574999000000004,2.735974073410034,-1.0283095836639404,9.968857765197754,22.674560546875,48.004150390625,-21.728515625
3.1624999000000003,2.035670042037964,-0.2717418968677521,9.859322547912598,11.749267578125,34.088134765625,-24.200439453125
3.1674999,0.8457517623901367,0.3172317147254944,9.75517463684082,2.899169921875,13.275146484375,-40.313720703125
3.1724999,-0.9032126069068909,0.4213795065879822,9.66419506072998,-15.350341796875,-20.20263671875,-30.364990234375
3.1774999000000004,-2.1751322746276855,0.517746090888977,9.43494987487793,-17.608642578125,-29.9072265625,1.617431640625
3.1824999000000003,-2.8820202350616455,0.035913024097681046,9.372102737426758,-31.73828125,-52.032470703125,25.2685546875
3.1874999,-2.0907366275787354,-0.40940847992897034,9.154829025268555,-33.63037109375,-47.18017578125,16.17431640625
3.1924999,1.6639702320098877,-2.274491548538208,9.442132949829102,7.62939453125,1.77001953125,23.406982421875
3.1974999000000004,1.7525556087493896,-1.2515689134597778,9.721057891845703,10.528564453125,7.99560546875,35.0341796875
3.2024999000000003,2.009932279586792,-0.9056068062782288,9.759963035583496,3.47900390625,6.103515625,-19.073486328125
3.2074999,2.539649486541748,-0.7637503147125244,9.871891975402832,26.67236328125,36.4990234375,-15.19775390625
3.2124999,2.783259391784668,-1.0534487962722778,9.871294021606445,27.28271484375,51.3916015625,-21.42333984375
3.2174999,2.3481132984161377,-0.568622887134552,9.825204849243164,15.5029296875,40.496826171875,-20.44677734375
3.2224999000000003,1.3000515699386597,0.02513911761343479,9.904213905334473,7.110595703125,23.0712890625,-37.9638671875
3.2274999,-0.333991140127182,0.42197805643081665,9.714473724365234,-10.3759765625,-11.23046875,-38.726806640625
3.2324999,-1.8453309535980225,0.29388827085494995,9.458293914794922,-18.98193359375,-29.022216796875,-12.5732421875
3.2374999,-2.8886044025421143,0.5841852426528931,9.517550468444824,-24.993896484375,-43.609619140625,21.881103515625
3.2424999000000003,-1.5095441341400146,-0.7272387742996216,9.419986724853516,-11.322021484375,-26.153564453125,16.387939453125
3.2474999,0.12449848651885986,-1.6400281190872192,9.154230117797852,6.195068359375,-1.3427734375,26.031494140625
3.2524999,1.5520412921905518,-2.4420857429504395,9.410409927368164,7.354736328125,0.1220703125,21.697998046875
3.2574999,1.9153614044189453,-1.9105730056762695,9.631275177001953,10.040283203125,6.77490234375,31.25
3.2624999000000003,1.9410990476608276,-1.258152961730957,9.781511306762695,4.241943359375,4.150390625,20.5078125
3.2674999000000002,2.011129379272461,-1.183334231376648,9.610325813293457,-0.579833984375,0.335693359375,-14.46533203125
3.2724999,2.4456770420074463,-0.7182605266571045,9.917980194091797,18.829345703125,25.146484375,-15.472412109375
3.2774999,2.7533318996429443,-0.9457096457481384,9.739612579345703,28.86962890625,48.675537109375,-20.050048828125
3.2824999000000004,0.20769700407981873,0.3597288131713867,9.745597839355469,-3.41796875,0.8544921875,-40.10009765625
3.2874999000000003,-1.4167689085006714,0.2849099934101105,9.64803409576416,-18.890380859375,-26.7333984375,-21.392822265625
3.2924999,-1.8734627962112427,-0.14245499670505524,9.396044731140137,-23.25439453125,-37.17041015625,15.228271484375
3.2974999,-0.3944447338581085,-1.3634978532791138,9.093177795410156,4.69970703125,-4.791259765625,23.86474609375
3.3024999000000004,1.2144588232040405,-2.2912509441375732,9.132682800292969,6.927490234375,-0.244140625,23.01025390625
3.3074999000000003,1.8142063617706299,-2.365471363067627,9.267355918884277,8.575439453125,4.058837890625,28.62548828125
3.3124999,1.868674397468567,-1.2018892765045166,9.478046417236328,8.23974609375,7.049560546875,31.646728515625
3.3174999,1.8704700469970703,-1.4844050407409668,9.515155792236328,-2.349853515625,-2.44140625,-5.340576171875
3.3224999000000004,2.295440912246704,-0.8655039072036743,9.847949981689453,11.53564453125,16.082763671875,-16.998291015625
3.3274999000000003,2.714426279067993,-0.9804255962371826,9.747393608093262,29.96826171875,45.379638671875,-16.78466796875
3.3324999,2.757521867752075,-1.0875661373138428,10.049661636352539,22.247314453125,47.760009765625,-20.782470703125
3.3374999,2.05123233795166,-0.3148375153541565,9.970054626464844,12.115478515625,34.271240234375,-24.71923828125
3.3424999,0.8170213103294373,0.25318682193756104,9.818022727966309,2.44140625,12.176513671875,-41.6259765625
3.3474999000000003,-2.213439464569092,0.5386953949928284,9.272743225097656,-17.51708984375,-29.754638671875,1.678466796875
3.3524999,-2.9221231937408447,0.0035913025494664907,9.300874710083008,-32.623291015625,-52.55126953125,24.47509765625
3.3574999,-2.120664119720459,-0.46627077460289,9.042301177978516,-32.53173828125,-46.32568359375,16.54052734375
3.3624999,1.668160080909729,-2.33913516998291,9.570222854614258,7.568359375,1.434326171875,23.162841796875
3.3674999000000003,1.7932571172714233,-1.2360066175460815,9.85034465789795,10.406494140625,8.819580078125,32.958984375
3.3724999,1.7375918626785278,-1.3204022645950317,9.880870819091797,-1.129150390625,-0.518798828125,5.31005859375
3.3774999,2.056020736694336,-0.821809709072113,9.870695114135742,4.791259765625,7.080078125,-16.9677734375
3.3824999,2.4869771003723145,-0.8433575630187988,9.833584785461426,26.3671875,36.62109375,-15.167236328125
3.3874999000000003,2.7269957065582275,-1.113303780555725,9.924564361572266,25.69580078125,49.8046875,-22.4609375
3.3924999000000002,2.3020248413085938,-0.5620388388633728,9.79288387298584,15.7470703125,39.886474609375,-18.5546875
3.3974999,-2.871845006942749,0.6147112846374512,9.367912292480469,-26.641845703125,-45.318603515625,21.8505859375
3.4024999,-2.5300726890563965,-0.033518824726343155,8.99740982055664,-37.29248046875,-53.52783203125,19.134521484375
3.4074999000000004,-1.359906554222107,-0.6039373874664307,9.240421295166016,-9.429931640625,-24.10888671875,17.242431640625
3.4124999000000003,0.2932897210121155,-1.512536883354187,9.048885345458984,6.256103515625,-0.152587890625,25.421142578125
3.4174999,1.6274585723876953,-2.255936622619629,9.384672164916992,7.110595703125,-0.152587890625,22.613525390625
3.4224999,1.9183541536331177,-1.6831238269805908,9.672574996948242,10.43701171875,7.415771484375,32.623291015625
3.4274999000000004,1.8740613460540771,-1.260547161102295,9.838373184204102,3.11279296875,3.265380859375,19.47021484375
3.4324999000000003,1.9937714338302612,-1.0989385843276978,9.68813705444336,-0.06103515625,0.244140625,-13.641357421875
3.4374999,2.4163479804992676,-0.8409633636474609,9.910199165344238,19.775390625,25.93994140625,-14.801025390625
3.4424999,-2.785055160522461,0.1430535465478897,9.431957244873047,-37.41455078125,-55.999755859375,22.308349609375
3.4474999000000004,-1.8393454551696777,-0.19572599232196808,9.558850288391113,-21.759033203125,-36.163330078125,15.838623046875
3.4524999000000003,-0.3579331636428833,-1.48081374168396,9.238027572631836,5.126953125,-3.875732421875,23.86474609375
3.4574999,1.2557587623596191,-2.4229321479797363,9.18355941772461,6.805419921875,-0.67138671875,23.193359375
3.4624999,1.8465280532836914,-2.3487119674682617,9.317035675048828,8.941650390625,4.94384765625,27.40478515625
3.4674999,1.868674397468567,-1.334767460823059,9.475651741027832,7.904052734375,7.32421875,28.656005859375
3.4724999000000003,1.8997989892959595,-1.45806884765625,9.474454879760742,-2.38037109375,-2.685546875,-7.171630859375
3.4774999,2.278082847595215,-0.821809709072113,9.85034465789795,12.908935546875,16.998291015625,-15.869140625
3.4824999,2.6850972175598145,-0.9253589510917664,9.727641105651855,28.778076171875,45.10498046875,-17.852783203125
3.4874999,2.7521347999572754,-0.9911994934082031,10.001777648925781,21.91162109375,47.210693359375,-19.989013671875
3.4924999000000003,2.0027496814727783,-0.2017114907503128,9.987412452697754,12.14599609375,33.14208984375,-23.74267578125
3.4974999,0.7697358727455139,0.25917232036590576,9.793481826782227,1.495361328125,10.284423828125,-41.290283203125
3.5024999,-0.9923965930938721,0.39145198464393616,9.710283279418945,-16.998291015625,-22.4609375,-30.2734375
3.5074999,-2.3493103981018066,0.7068880796432495,9.294290542602539,-17.974853515625,-31.036376953125,3.875732421875
3.5124999000000003,-2.9263129234313965,0.15741875767707825,9.276334762573242,-33.75244140625,-53.680419921875,24.4140625
3.5174999000000002,-2.0925323963165283,-0.2669534981250763,9.024943351745605,-31.6162109375,-45.22705078125,15.899658203125
3.5224999,-0.801459014415741,-1.2886791229248047,9.150638580322266,1.373291015625,-10.894775390625,20.660400390625
3.5274999,0.9415197968482971,-2.014122247695923,9.265560150146484,6.744384765625,-0.1220703125,25.238037109375
3.5324999000000004,1.7615338563919067,-2.321178436279297,9.533711433410645,8.087158203125,2.44140625,23.681640625
3.5374999000000003,1.7459715604782104,-1.367687702178955,9.841964721679688,-2.01416015625,-1.89208984375,4.08935546875
3.5424999,2.079962730407715,-0.8481459617614746,9.888052940368652,6.011962890625,8.087158203125,-16.54052734375
3.5474999,2.516904592514038,-0.8589198589324951,9.833584785461426,27.03857421875,37.994384765625,-15.5029296875
3.5524999000000004,2.805405855178833,-1.1755530834197998,9.943717956542969,25.634765625,50.4150390625,-21.97265625
3.5574999000000003,2.315791606903076,-0.518943190574646,9.82879638671875,15.56396484375,39.48974609375,-18.85986328125
3.5624999,1.237802267074585,-0.03651157766580582,9.841365814208984,6.8359375,20.965576171875,-37.841796875
3.5674999,-0.43335050344467163,0.41718965768814087,9.664793968200684,-11.962890625,-13.36669921875,-37.384033203125
3.5724999000000004,-1.955464243888855,0.37828385829925537,9.409213066101074,-19.256591796875,-29.998779296875,-9.124755859375
3.5774999000000003,-2.941276788711548,0.5111620426177979,9.408614158630371,-27.4658203125,-46.38671875,22.308349609375
3.5824999,-2.562992811203003,-0.1604115068912506,9.043498039245605,-37.139892578125,-52.459716796875,19.195556640625
3.5874999,-1.4095861911773682,-0.8487445116043091,9.338583946228027,-7.8125,-22.125244140625,17.303466796875
3.5924999,0.2849099934101105,-1.6645687818527222,9.151836395263672,6.622314453125,-0.579833984375,26.458740234375
3.5974999000000003,1.8938134908676147,-1.6071078777313232,9.758766174316406,10.31494140625,8.23974609375,31.341552734375
3.6024999,1.9105730056762695,-1.3275848627090454,9.897629737854004,2.105712890625,2.410888671875,15.350341796875
3.6074999,2.0620062351226807,-1.0809820890426636,9.75278091430664,2.25830078125,3.326416015625,-14.678955078125
3.6124999,2.469619035720825,-0.7721300721168518,9.91738224029541,22.064208984375,29.47998046875,-14.495849609375
3.6174999000000003,2.7323827743530273,-1.0223240852355957,9.834781646728516,26.519775390625,48.309326171875,-21.8505859375
3.6224999,2.4612393379211426,-0.7122750282287598,9.82640266418457,17.852783203125,42.205810546875,-17.974853515625
3.6274999,1.5245078802108765,-0.11312603205442429,9.953893661499023,10.07080078125,27.496337890625,-32.135009765625
3.6324999,0.0999579206109047,0.3381809890270233,9.697115898132324,-4.974365234375,-1.373291015625,-41.229248046875
3.6374999000000003,-1.5059528350830078,0.30705636739730835,9.583989143371582,-19.775390625,-28.106689453125,-20.843505859375
3.6424999000000002,-2.692878246307373,1.0307037830352783,9.750386238098145,-21.3623046875,-37.78076171875,14.892578125
3.6474999,-2.8119897842407227,0.18495208024978638,9.457097053527832,-38.57421875,-57.403564453125,23.25439453125
3.6524999,-1.7764976024627686,-0.2082955539226532,9.649829864501953,-20.3857421875,-34.48486328125,14.95361328125
3.6574999000000004,1.3623007535934448,-2.430713176727295,9.223662376403809,6.866455078125,-0.579833984375,22.5830078125
3.6624999000000003,1.9153614044189453,-2.3038206100463867,9.328408241271973,9.368896484375,6.072998046875,26.7333984375
3.6674999,1.9357120990753174,-1.3664906024932861,9.498396873474121,7.049560546875,6.500244140625,26.397705078125
3.6724999,1.9393033981323242,-1.4437036514282227,9.445125579833984,-1.77001953125,-1.8310546875,-8.941650390625
3.6774999000000004,2.301426410675049,-0.8391677141189575,9.845556259155273,14.129638671875,18.463134765625,-15.960693359375
3.6824999000000003,0.645237386226654,0.2753331959247589,9.755773544311523,1.007080078125,9.735107421875,-41.07666015625
3.6874999,-1.1276689767837524,0.35494041442871094,9.667786598205566,-17.913818359375,-24.2919921875,-28.80859375
3.6924999,-2.519897222518921,0.8583213090896606,9.3828763961792,-18.4326171875,-32.196044921875,5.7373046875
3.6974999000000004,-3.0196869373321533,0.17238251864910126,9.290101051330566,-35.247802734375,-55.389404296875,24.749755859375
3.7024999000000003,1.0959458351135254,-2.214038133621216,9.23682975769043,6.744384765625,-0.152587890625,24.993896484375
3.7074999,1.8393454551696777,-2.492363929748535,9.475052833557129,8.087158203125,2.99072265625,22.76611328125
3.7124999,1.8692729473114014,-1.3221979141235352,9.749788284301758,10.1318359375,8.819580078125,32.2265625
3.7174999,1.7806875705718994,-1.50355863571167,9.78869342803955,-2.0751953125,-1.5869140625,1.678466796875
3.7224999000000003,2.099714994430542,-0.9193734526634216,9.910199165344238,6.7138671875,9.552001953125,-17.822265625
3.7274999,2.5330653190612793,-0.8756792545318604,9.827000617980957,28.350830078125,39.703369140625,-15.350341796875
3.7324999,2.7275943756103516,-1.2779051065444946,9.988011360168457,24.688720703125,50.262451171875,-23.406982421875
3.7374999,2.229600429534912,-0.4291606545448303,9.86231517791748,16.082763671875,39.215087890625,-17.02880859375
3.7424999000000003,1.0857704877853394,-0.0065840547904372215,9.845556259155273,6.317138671875,19.6533203125,-37.689208984375
3.7474999,-0.585382342338562,0.47644615173339844,9.668983459472656,-13.85498046875,-16.754150390625,-36.163330078125
3.7524999,-2.0691888332366943,0.46327802538871765,9.405022621154785,-19.439697265625,-30.70068359375,-6.34765625
3.7574999,0.4950011968612671,-1.6059107780456543,9.036913871765137,6.805419921875,0.091552734375,27.069091796875
3.7624999000000003,1.8417396545410156,-1.173158884048462,9.87967300415039,1.495361328125,2.38037109375,14.617919921875
3.7674999000000002,1.985990285873413,-0.9510966539382935,9.75637149810791,0.91552734375,2.01416015625,-16.54052734375
3.7724999,2.433107376098633,-0.8104372620582581,9.928754806518555,22.76611328125,29.510498046875,-15.106201171875
3.7774999,2.7299885749816895,-1.1749545335769653,9.854534149169922,27.64892578125,50.10986328125,-22.52197265625
3.7824999000000004,2.495356798171997,-0.8164227604866028,9.815628051757812,19.500732421875,44.403076171875,-15.5029296875
3.7874999000000003,1.482010841369629,-0.16400282084941864,9.9586820602417,10.223388671875,27.77099609375,-30.303955078125
3.7924999,-0.026336219161748886,0.3597288131713867,9.684545516967773,-7.568359375,-5.37109375,-41.473388671875
3.7974999,-2.831143617630005,1.0857704877853394,9.733028411865234,-22.918701171875,-39.9169921875,18.280029296875
3.8024999000000004,-2.7778725624084473,0.15502455830574036,9.355941772460938,-39.764404296875,-56.732177734375,19.47021484375
3.8074999000000003,-1.699883222579956,-0.31124621629714966,9.588777542114258,-17.9443359375,-31.92138671875,15.716552734375
3.8124999,-0.14185644686222076,-1.6250643730163574,9.187150001525879,6.591796875,-2.349853515625,27.313232421875
3.8174999,1.4203602075576782,-2.6180596351623535,9.172784805297852,6.8359375,-0.67138671875,21.636962890625
3.8224999000000004,1.9015947580337524,-2.3301568031311035,9.322422981262207,9.613037109375,6.256103515625,28.472900390625
3.8274999000000003,1.920149803161621,-1.4257471561431885,9.531316757202148,6.805419921875,6.927490234375,27.496337890625
3.8324999,1.9584569931030273,-1.4185645580291748,9.44752025604248,-2.288818359375,-1.983642578125,-10.55908203125
3.8374999,2.382829189300537,-0.8451532125473022,9.877279281616211,15.411376953125,20.01953125,-17.364501953125
3.8424999,-2.0416555404663086,0.08559270948171616,9.199121475219727,-30.303955078125,-43.243408203125,13.7939453125
3.8474999000000003,-0.6643909811973572,-1.2431892156600952,9.111733436584473,3.631591796875,-8.056640625,24.505615234375
3.8524999,1.2078747749328613,-2.2254104614257812,9.172186851501465,7.049560546875,-0.091552734375,24.0478515625
3.8574999,1.945288896560669,-2.5707740783691406,9.379883766174316,8.36181640625,3.265380859375,20.751953125
3.8624999,1.968033790588379,-1.382651448249817,9.683947563171387,10.345458984375,9.429931640625,30.21240234375
3.8674999000000003,1.8555063009262085,-1.6508020162582397,9.716269493103027,-2.288818359375,-1.5869140625,-1.129150390625
3.8724999,2.166153907775879,-0.9534908533096313,9.91738224029541,7.50732421875,10.07080078125,-19.256591796875
3.8774999,2.540247917175293,-0.960673451423645,9.803657531738281,29.693603515625,42.3583984375,-16.693115234375
3.8824999,2.161365509033203,-0.38546648621559143,9.852738380432129,16.90673828125,39.459228515625,-15.045166015625
3.8874999000000003,0.9199720025062561,0.03651157766580582,9.829395294189453,5.55419921875,18.24951171875,-38.177490234375
3.8924999000000002,-0.7284358739852905,0.48901569843292236,9.620500564575195,-15.13671875,-18.341064453125,-36.0107421875
3.8974999,-2.1559786796569824,0.5596446394920349,9.423578262329102,-19.22607421875,-31.829833984375,-2.01416015625
3.9024999,-3.022081136703491,0.32022446393966675,9.396044731140137,-32.40966796875,-53.497314453125,22.64404296875
3.9074999000000004,-2.366668462753296,-0.33279404044151306,9.055469512939453,-38.787841796875,-52.337646484375,14.83154296875
3.9124999000000003,-1.18094003200531,-1.1677719354629517,9.301473617553711,-4.425048828125,-18.4326171875,20.843505859375
3.9174999,0.586579442024231,-1.7830817699432373,9.081207275390625,7.293701171875,0.18310546875,27.191162109375
3.9224999,1.9243396520614624,-1.315613865852356,9.708487510681152,10.92529296875,8.697509765625,31.402587890625
3.9274999000000004,1.844732403755188,-1.215057373046875,9.841365814208984,1.03759765625,1.953125,13.275146484375
3.9324999000000003,2.02848744392395,-0.8978256583213806,9.752182006835938,1.708984375,2.288818359375,-17.02880859375
3.9374999,2.5037364959716797,-0.7972691655158997,9.786897659301758,19.927978515625,44.464111328125,-13.580322265625
3.9424999,1.4443022012710571,-0.15083470940589905,9.94970417022705,10.07080078125,26.9775390625,-31.097412109375
3.9474999000000004,-0.06584054976701736,0.3076549172401428,9.66419506072998,-8.270263671875,-6.134033203125,-41.9921875
3.9524999000000003,-1.7154455184936523,0.4944026470184326,9.545083999633789,-19.47021484375,-29.11376953125,-15.80810546875
3.9574999,-2.8562827110290527,1.0654197931289673,9.651026725769043,-23.651123046875,-41.1376953125,18.585205078125
3.9624999,-2.7928361892700195,0.2585737705230713,9.29309368133545,-40.008544921875,-56.671142578125,17.822265625
3.9674999000000004,-1.710058569908142,-0.20949265360832214,9.544485092163086,-16.632080078125,-31.31103515625,17.181396484375
3.9724999000000003,-0.10115502029657364,-1.4293384552001953,9.173982620239258,6.317138671875,-2.166748046875,26.519775390625
3.9774999,1.4520833492279053,-2.449268341064453,9.249998092651367,7.110595703125,-0.732421875,20.8740234375
3.9824999,1.9865888357162476,-2.1152772903442383,9.412803649902344,10.1318359375,7.32421875,26.06201171875
3.9874999,1.9949685335159302,-1.4431051015853882,9.586981773376465,6.134033203125,7.080078125,23.712158203125
3.9924999000000003,2.4235305786132812,-0.8517372608184814,9.895236015319824,17.120361328125,21.881103515625,-16.937255859375
3.9974999,2.737769603729248,-1.003769040107727,9.754576683044434,29.47998046875,49.13330078125,-19.439697265625
4.0024999,2.6803088188171387,-1.0079588890075684,9.934141159057617,21.942138671875,48.2177734375,-17.51708984375
4.0074999,1.8465280532836914,-0.2172738015651703,9.982624053955078,14.22119140625,33.63037109375,-23.01025390625
4.0124999,0.43933600187301636,0.22685061395168304,9.712677955627441,0.06103515625,7.843017578125,-40.46630859375
4.0174999,-1.3593080043792725,0.38905778527259827,9.606734275817871,-18.646240234375,-25.360107421875,-24.810791015625
4.022499900000001,-2.800018787384033,1.2545616626739502,9.49001693725586,-20.263671875,-35.736083984375,10.498046875
4.0274999000000005,-3.180098295211792,0.4878185987472534,9.339181900024414,-39.886474609375,-60.791015625,21.1181640625
4.0324999,-2.1254525184631348,0.20530278980731964,9.321824073791504,-29.937744140625,-44.464111328125,15.045166015625
4.0374999,-0.6248866319656372,-1.212663173675537,9.196727752685547,3.814697265625,-7.415771484375,24.505615234375
4.0424999,1.2862848043441772,-2.228403329849243,9.25059700012207,7.720947265625,0.396728515625,24.932861328125
4.0474999,2.0201077461242676,-2.541445016860962,9.446921348571777,8.544921875,4.69970703125,23.651123046875
4.0524999,2.2391772270202637,-0.9253589510917664,9.911396026611328,10.7421875,13.641357421875,-15.56396484375
4.0574999,2.580350875854492,-0.9600749015808105,9.79408073425293,28.228759765625,42.877197265625,-18.24951171875
4.062499900000001,2.694075345993042,-1.3569138050079346,10.054450035095215,23.4375,49.49951171875,-21.54541015625
4.0674999000000005,2.16495680809021,-0.3974374830722809,9.944915771484375,16.7236328125,38.02490234375,-16.632080078125
4.0724999,0.9588778018951416,-0.05746084079146385,9.832387924194336,6.65283203125,19.4091796875,-39.459228515625
4.0774999,0.9588778018951416,-0.05746084079146385,9.832387924194336,6.65283203125,19.4091796875,-39.459228515625
4.0824999,-2.186504602432251,0.6476315855979919,9.485827445983887,-19.561767578125,-32.379150390625,-2.50244140625
4.0874999,-2.186504602432251,0.6476315855979919,9.485827445983887,-19.561767578125,-32.379150390625,-2.50244140625
4.0924999,-3.1214404106140137,0.44532153010368347,9.361927032470703,-34.11865234375,-56.5185546875,21.97265625
4.0974999,-2.478597402572632,-0.11911153793334961,9.138668060302734,-39.0625,-54.534912109375,15.655517578125
4.1024999,-1.2401964664459229,-1.0414776802062988,9.23443603515625,-4.39453125,-18.6767578125,20.32470703125
4.1074999000000005,1.3934253454208374,-0.11192893236875534,9.917980194091797,10.55908203125,26.85546875,-33.26416015625
4.1124999,-0.16879121959209442,0.33937808871269226,9.656414031982422,-8.9111328125,-6.7138671875,-40.6494140625
4.1174999,-1.811812162399292,0.5093663930892944,9.540295600891113,-20.538330078125,-30.914306640625,-14.678955078125
4.1224999,-2.982576847076416,1.0995371341705322,9.57441234588623,-26.641845703125,-45.928955078125,18.951416015625
4.1274999,-2.8868086338043213,0.32860419154167175,9.225458145141602,-41.473388671875,-59.356689453125,18.157958984375
4.1324999,1.988384485244751,-1.445499300956726,9.694122314453125,5.645751953125,5.859375,25.054931640625
4.1374999,1.988384485244751,-1.445499300956726,9.694122314453125,5.645751953125,5.859375,25.054931640625
4.1424999,2.0380642414093018,-1.334767460823059,9.565434455871582,-1.312255859375,-1.5869140625,-10.467529296875
4.147499900000001,2.427720546722412,-0.8391677141189575,9.906607627868652,17.364501953125,22.430419921875,-17.120361328125
4.1524999000000005,2.808398485183716,-0.9995791912078857,9.743204116821289,29.84619140625,49.9267578125,-19.989013671875
4.1574999,2.7012581825256348,-1.0067617893218994,9.921571731567383,21.759033203125,48.33984375,-17.88330078125
4.1624999,-2.033874273300171,0.08379705995321274,9.336788177490234,-28.411865234375,-42.449951171875,13.641357421875
4.1674999,-0.6332663297653198,-1.2886791229248047,9.14345645904541,3.35693359375,-7.354736328125,25.390625
4.1724999,1.2348095178604126,-2.270900249481201,9.152434349060059,7.080078125,-0.732421875,24.810791015625
4.1774999,1.9081788063049316,-2.540247917175293,9.337985038757324,9.46044921875,4.69970703125,23.92578125
4.1824999,1.9039889574050903,-1.437718152999878,9.588777542114258,9.8876953125,8.880615234375,31.463623046875
4.187499900000001,1.833359956741333,-1.5771803855895996,9.627084732055664,-3.11279296875,-2.9296875,-1.15966796875
4.1924999000000005,2.185307502746582,-0.9995791912078857,9.888052940368652,9.002685546875,11.65771484375,-18.49365234375
4.1974999,2.60548996925354,-0.9678560495376587,9.775525093078613,29.693603515625,43.365478515625,-16.4794921875
4.2024999,2.7521347999572754,-1.4000093936920166,10.018536567687988,24.505615234375,51.1474609375,-21.78955078125
4.2074999,2.2415714263916016,-0.4495113790035248,9.884461402893066,16.845703125,38.848876953125,-17.08984375
4.2124999,1.0031704902648926,0.02274491637945175,9.841365814208984,6.34765625,18.85986328125,-38.87939453125
4.2174999,-0.7469909191131592,0.4297592043876648,9.641449928283691,-15.472412109375,-18.341064453125,-35.33935546875
4.2224999,-3.0777463912963867,0.5213374495506287,9.3427734375,-33.843994140625,-55.023193359375,23.193359375
4.2274999,-2.3983914852142334,0.016160860657691956,9.081805229187012,-38.360595703125,-51.727294921875,14.46533203125
4.2324999000000005,-1.1749545335769653,-0.961870551109314,9.220070838928223,-3.204345703125,-17.242431640625,21.087646484375
4.2374999,0.6494272351264954,-1.7501614093780518,9.127894401550293,6.927490234375,-0.30517578125,26.885986328125
4.2424999,2.0410568714141846,-0.9570821523666382,9.758167266845703,1.953125,3.47900390625,-17.7001953125
4.2474999,2.491166830062866,-0.7637503147125244,9.88386344909668,24.627685546875,32.3486328125,-16.510009765625
4.2524999,2.741959571838379,-1.1905168294906616,9.836577415466309,27.679443359375,51.239013671875,-21.575927734375
4.2574999,2.4893712997436523,-0.7625532150268555,9.78869342803955,19.1650390625,43.701171875,-14.923095703125
4.2624999,-0.13587094843387604,0.3076549172401428,9.668384552001953,-8.7890625,-6.317138671875,-40.191650390625
4.2674999,-1.7609353065490723,0.4602852761745453,9.539097785949707,-19.805908203125,-30.181884765625,-14.556884765625
4.272499900000001,-2.940079689025879,0.973242998123169,9.569025993347168,-25.848388671875,-44.586181640625,19.622802734375
4.2774999000000005,-2.8395233154296875,0.15502455830574036,9.216479301452637,-41.290283203125,-58.074951171875,17.39501953125
4.2824999,-1.6950948238372803,-0.35673606395721436,9.469067573547363,-15.625,-30.426025390625,16.54052734375
4.2874999,-0.033518824726343155,-1.5496470928192139,9.167398452758789,6.134033203125,-1.77001953125,27.252197265625
4.2924999,1.5245078802108765,-2.5504233837127686,9.329605102539062,7.781982421875,-0.42724609375,21.6064453125
4.2974999,2.0009541511535645,-2.161964178085327,9.531915664672852,10.68115234375,7.232666015625,28.1982421875
4.3024999,1.98958158493042,-1.3646949529647827,9.716269493103027,5.889892578125,6.378173828125,24.71923828125
4.3074999,1.98958158493042,-1.3198037147521973,9.575610160827637,-2.716064453125,-2.25830078125,-11.5966796875
4.312499900000001,2.3983914852142334,-0.8032546639442444,9.938929557800293,15.93017578125,20.416259765625,-17.76123046875
4.3174999000000005,2.761711597442627,-0.9690531492233276,9.733028411865234,30.6396484375,49.37744140625,-19.34814453125
4.3224999,-3.095702886581421,0.2190694510936737,9.372700691223145,-38.848876953125,-58.2275390625,21.240234375
4.3274999,-2.005143880844116,-0.0975637212395668,9.370905876159668,-28.80859375,-42.266845703125,13.641357421875
4.3324999,-0.6212953329086304,-1.449090600013733,9.199121475219727,3.7841796875,-7.171630859375,25.0244140625
4.3374999,1.2443863153457642,-2.366668462753296,9.20091724395752,7.2021484375,-0.42724609375,24.261474609375
4.3424999,1.9243396520614624,-2.633023262023926,9.365518569946289,8.758544921875,3.7841796875,23.37646484375
4.3474999,1.9171570539474487,-1.447893500328064,9.619303703308105,9.857177734375,9.246826171875,31.005859375
4.352499900000001,1.8255788087844849,-1.5867571830749512,9.678560256958008,-3.082275390625,-2.0751953125,-1.251220703125
4.3574999000000005,2.139219284057617,-0.9720458984375,9.879075050354004,7.38525390625,10.1318359375,-19.256591796875
4.3624999,0.9313444495201111,0.11432313174009323,9.841964721679688,4.119873046875,16.143798828125,-38.970947265625
4.3674999,-0.7709329724311829,0.4596867263317108,9.644442558288574,-15.045166015625,-18.9208984375,-33.172607421875
4.3724999,-2.186504602432251,0.7451952695846558,9.520543098449707,-17.76123046875,-30.029296875,0.42724609375
4.3774999,-2.9502551555633545,0.36990416049957275,9.384672164916992,-32.745361328125,-52.91748046875,22.857666015625
4.3824999,-2.233790159225464,-0.11791443079710007,9.151237487792969,-36.9873046875,-49.98779296875,13.946533203125
4.3874999,-1.058835744857788,-1.0522516965866089,9.232640266418457,-2.532958984375,-16.05224609375,21.3623046875
4.3924999,0.6949170231819153,-1.7633295059204102,9.07641887664795,7.2021484375,0.6103515625,26.397705078125
4.397499900000001,1.7064672708511353,-2.24935245513916,9.36013126373291,7.904052734375,0.640869140625,21.78955078125
4.4024999000000005,2.7892448902130127,-1.159990668296814,9.856928825378418,28.9306640625,52.825927734375,-21.820068359375
4.4074999,2.5061306953430176,-0.7769184708595276,9.804854393005371,18.890380859375,44.25048828125,-15.9912109375
4.4124999,1.425148606300354,-0.020949264988303185,9.952696800231934,8.636474609375,25.69580078125,-34.576416015625
4.4174999,-0.16160862147808075,0.3477577865123749,9.663596153259277,-9.857177734375,-9.185791015625,-41.412353515625
4.4224999,-1.7938556671142578,0.4357447028160095,9.516951560974121,-18.85986328125,-29.083251953125,-14.556884765625
4.4274999,-2.919728994369507,0.7529764175415039,9.497797966003418,-25.0244140625,-42.938232421875,20.111083984375
4.4324999,-2.786850690841675,-0.016160860657691956,9.178771018981934,-39.97802734375,-55.328369140625,17.333984375
4.437499900000001,-1.703474521636963,-0.5518634915351868,9.437943458557129,-14.0380859375,-28.9306640625,17.4560546875
4.4424999000000005,-0.04189852997660637,-1.6657658815383911,9.187150001525879,6.072998046875,-1.03759765625,25.7568359375
4.4474999,1.4496891498565674,-2.5528175830841064,9.397241592407227,7.75146484375,-0.79345703125,22.247314453125
4.4524999,1.9345149993896484,-2.097320795059204,9.607333183288574,10.589599609375,7.171630859375,27.89306640625
4.4574999,1.9812018871307373,-1.2611457109451294,9.633668899536133,-2.5634765625,-1.312255859375,-14.0380859375
4.4624999,2.4145524501800537,-0.8170213103294373,9.947309494018555,17.02880859375,21.575927734375,-17.364501953125
4.4674999,2.7670986652374268,-0.9510966539382935,9.75637149810791,31.005859375,49.86572265625,-19.989013671875
4.4724999,2.672527551651001,-0.9852139949798584,9.892841339111328,22.308349609375,49.285888671875,-18.035888671875
4.477499900000001,1.7962498664855957,-0.07242459803819656,9.93474006652832,11.65771484375,32.470703125,-25.482177734375
4.4824999000000005,-0.5321113467216492,-1.2515689134597778,9.315838813781738,4.08935546875,-5.828857421875,24.566650390625
4.4874999,1.3096283674240112,-2.252943754196167,9.229048728942871,7.50732421875,-0.244140625,25.0244140625
4.4924999,1.876455545425415,-1.4131776094436646,9.555258750915527,9.521484375,8.819580078125,33.26416015625
4.4974999,1.789067268371582,-1.5430630445480347,9.607931137084961,-3.753662109375,-3.23486328125,-1.708984375
4.5024999,2.1703438758850098,-0.9570821523666382,9.858723640441895,8.758544921875,11.260986328125,-18.6767578125
4.5074999,2.6144683361053467,-0.9133879542350769,9.77791976928711,29.998779296875,43.365478515625,-17.51708984375
4.5124999,2.759317398071289,-1.368884801864624,9.986215591430664,25.5126953125,51.94091796875,-21.17919921875
4.5174999,2.1978771686553955,-0.284311443567276,9.87967300415039,15.228271484375,37.994384765625,-17.486572265625
4.522499900000001,0.9313444495201111,0.038307227194309235,9.828198432922363,2.86865234375,14.495849609375,-41.229248046875
4.5274999000000005,-0.7583633661270142,0.4507084786891937,9.625288963317871,-15.80810546875,-19.744873046875,-36.376953125
4.5324999,-2.190694570541382,0.7930793166160583,9.248202323913574,-17.63916015625,-30.2734375,-0.244140625
4.5374999,-2.9514522552490234,0.23403321206569672,9.293692588806152,-33.14208984375,-53.131103515625,22.369384765625
4.5424999,-2.24935245513916,-0.21009120345115662,8.987235069274902,-36.0107421875,-49.530029296875,15.167236328125
4.5474999,-1.095347285270691,-1.2988544702529907,9.276334762573242,-1.708984375,-14.984130859375,20.6298828125
4.5524999,1.6915035247802734,-2.4833858013153076,9.57860279083252,8.087158203125,0.762939453125,22.125244140625
4.5574999,1.8656816482543945,-1.4113819599151611,9.854534149169922,11.688232421875,9.8876953125,31.494140625
4.562499900000001,2.4815900325775146,-0.5805938839912415,9.823410034179688,19.59228515625,45.22705078125,-14.58740234375
4.5674999000000005,1.3491326570510864,-0.05386953800916672,9.931148529052734,7.720947265625,24.627685546875,-33.5693359375
4.5724999,-0.2148796021938324,0.3758896589279175,9.617507934570312,-11.16943359375,-10.43701171875,-42.8466796875
4.5774999,-1.9500772953033447,0.5183446407318115,9.49001693725586,-19.53125,-31.158447265625,-12.5732421875
4.5824999,-3.0202853679656982,0.750582218170166,9.37748908996582,-27.16064453125,-46.0205078125,20.843505859375
4.5874999,-2.801215887069702,0.07122749835252762,9.071630477905273,-41.046142578125,-56.854248046875,17.547607421875
4.5924999,-1.601720929145813,-0.4596867263317108,9.316437721252441,-13.092041015625,-28.38134765625,17.4560546875
4.5974999,-1.601720929145813,-0.4596867263317108,9.316437721252441,-13.092041015625,-28.38134765625,17.4560546875
4.602499900000001,0.10833762586116791,-1.5209165811538696,9.088988304138184,6.988525390625,-0.335693359375,26.79443359375
4.6074999000000005,1.601720929145813,-2.3930046558380127,9.361329078674316,7.843017578125,-0.274658203125,22.918701171875
4.6124999,2.0003554821014404,-1.923741102218628,9.609128952026367,10.955810546875,7.4462890625,32.65380859375
4.6174999,1.9410990476608276,-1.2078747749328613,9.81024169921875,5.37109375,5.645751953125,25.848388671875
4.6224999,1.9620482921600342,-1.148618221282959,9.651026725769043,-3.11279296875,-3.204345703125,-11.77978515625
4.6274999,2.382230758666992,-0.8708908557891846,9.960477828979492,16.66259765625,20.93505859375,-17.913818359375
4.6324999,2.779668092727661,-1.0019733905792236,9.770736694335938,30.57861328125,49.224853515625,-18.524169921875
4.6374999,2.74076247215271,-1.1049240827560425,9.882665634155273,22.308349609375,49.041748046875,-17.822265625
4.6424999,0.4345476031303406,0.30226796865463257,9.683947563171387,-3.570556640625,3.23486328125,-44.219970703125
4.647499900000001,-1.9039889574050903,0.06165069341659546,9.55825138092041,-26.397705078125,-40.52734375,14.6484375
4.6524999000000005,-0.5398924946784973,-1.380257248878479,9.312247276306152,4.94384765625,-5.523681640625,23.92578125
4.6574999,1.2779051065444946,-2.3965959548950195,9.20211410522461,7.2021484375,-0.518798828125,23.895263671875
4.6624999,1.8926163911819458,-2.536058187484741,9.32421875,9.552001953125,4.180908203125,25.848388671875
4.6674999,1.84233820438385,-1.4502876996994019,9.529520988464355,10.101318359375,9.27734375,32.867431640625
4.6724999,1.7663222551345825,-1.449090600013733,9.622296333312988,-3.96728515625,-3.570556640625,-1.3427734375
4.6774999,2.1122844219207764,-0.8906430602073669,9.835380554199219,7.476806640625,10.009765625,-20.233154296875
4.6824999,2.5791537761688232,-0.8242039084434509,9.77672290802002,29.96826171875,42.327880859375,-16.2353515625
4.687499900000001,2.7240030765533447,-1.3275848627090454,9.99100399017334,25.604248046875,51.727294921875,-21.270751953125
4.6924999000000005,2.1577742099761963,-0.2801215946674347,9.865307807922363,15.106201171875,37.811279296875,-16.876220703125
4.6974999,-0.8122329115867615,0.4638765752315521,9.651026725769043,-16.937255859375,-21.78955078125,-36.2548828125
4.7024999,-2.228403329849243,0.8900445103645325,9.2841157913208,-18.06640625,-31.219482421875,0.946044921875
4.7074999,-2.9089550971984863,0.28371289372444153,9.30386734008789,-33.87451171875,-52.55126953125,23.101806640625
4.7124999,-2.137423515319824,-0.1562216579914093,8.948328971862793,-36.1328125,-48.03466796875,14.58740234375
4.7174999,-0.9810241460800171,-1.279700756072998,9.228450775146484,-0.30517578125,-14.190673828125,21.331787109375
4.7224999,1.6735470294952393,-2.5246856212615967,9.527725219726562,8.72802734375,0.8544921875,23.62060546875
4.727499900000001,1.6735470294952393,-2.5246856212615967,9.527725219726562,8.72802734375,0.8544921875,23.62060546875
4.7324999000000005,1.7405846118927002,-1.434126853942871,9.816825866699219,12.359619140625,10.009765625,36.31591796875
4.7374999,1.690904974937439,-1.1528080701828003,9.943717956542969,-0.3662109375,0.79345703125,13.519287109375
4.7424999,1.9261353015899658,-0.8529343605041504,9.778518676757812,0.274658203125,1.28173828125,-19.83642578125
4.7474999,2.4833858013153076,-0.702099621295929,9.943120002746582,25.20751953125,32.65380859375,-17.181396484375
4.7524999,2.8544869422912598,-1.260547161102295,9.84495735168457,30.792236328125,54.3212890625,-19.6533203125
4.7574999,1.4437036514282227,-0.06524199992418289,9.96945571899414,8.880615234375,25.299072265625,-29.754638671875
4.7624999,-0.16160862147808075,0.40701428055763245,9.657610893249512,-11.993408203125,-10.650634765625,-46.112060546875
4.7674999,-1.8884265422821045,0.5931634902954102,9.534309387207031,-21.54541015625,-33.660888671875,-17.9443359375
4.772499900000001,-3.001730442047119,0.8409633636474609,9.52114200592041,-24.993896484375,-43.02978515625,20.660400390625
4.7774999000000005,-2.8365304470062256,-0.016759412363171577,9.194931983947754,-40.95458984375,-55.328369140625,18.463134765625
4.7824999,-1.6549919843673706,-0.5746083855628967,9.470264434814453,-15.350341796875,-29.4189453125,16.510009765625
4.7874999,-0.015562310814857483,-1.7334020137786865,9.144054412841797,6.561279296875,-1.89208984375,26.67236328125
4.7924999,1.5544354915618896,-2.604292869567871,9.322422981262207,7.659912109375,-0.1220703125,20.56884765625
4.7974999,1.965639591217041,-2.1763293743133545,9.511565208435059,12.481689453125,8.60595703125,30.2734375
4.8024999,1.9410990476608276,-1.3670891523361206,9.68574333190918,6.7138671875,7.110595703125,28.1982421875
4.8074999,1.9345149993896484,-1.2701239585876465,9.569623947143555,-3.509521484375,-3.265380859375,-11.993408203125
4.812499900000001,2.3564929962158203,-0.99479079246521,9.913191795349121,15.655517578125,20.111083984375,-20.263671875
4.8174999000000005,-1.3413515090942383,0.6482301354408264,9.59596061706543,-21.453857421875,-29.4189453125,-33.447265625
4.8224999,-2.849100112915039,1.3850456476211548,9.490615844726562,-19.8974609375,-35.58349609375,8.60595703125
4.8274999,-3.2579100131988525,0.3968389332294464,9.371503829956055,-39.337158203125,-58.563232421875,23.529052734375
4.8324999,-2.1589713096618652,0.016160860657691956,9.321824073791504,-31.158447265625,-44.158935546875,14.007568359375
4.8374999,-0.730231523513794,-1.4484920501708984,9.236231803894043,3.60107421875,-8.514404296875,24.200439453125
4.8424999,1.2306196689605713,-2.5049335956573486,9.178771018981934,6.2255859375,-0.091552734375,22.705078125
4.8474999,1.999756932258606,-2.759317398071289,9.39245319366455,9.979248046875,4.669189453125,22.186279296875
4.852499900000001,1.9674352407455444,-1.6178817749023438,9.630077362060547,11.16943359375,10.25390625,32.867431640625
4.8574999000000005,1.8363527059555054,-1.5101426839828491,9.749788284301758,-3.875732421875,-2.197265625,0.30517578125
4.8624999,2.5336639881134033,-0.8457517623901367,9.829395294189453,30.181884765625,40.10009765625,-15.716552734375
4.8674999,2.674323320388794,-1.3946224451065063,9.914389610290527,28.1982421875,53.802490234375,-20.8740234375
4.8724999,2.270900249481201,-0.44412440061569214,9.809642791748047,18.6767578125,42.05322265625,-11.138916015625
4.8774999,0.9690531492233276,0.05626374110579491,9.892242431640625,3.72314453125,17.39501953125,-38.421630859375
4.8824999,-2.31758713722229,-0.3489548861980438,9.098565101623535,-39.48974609375,-51.483154296875,14.22119140625
4.8874999,-1.20368492603302,-1.1408370733261108,9.37629222869873,-4.8828125,-19.34814453125,19.989013671875
4.8924999,0.49559974670410156,-1.8046295642852783,9.090185165405273,7.01904296875,0.335693359375,26.55029296875
4.897499900000001,1.6968904733657837,-2.2894554138183594,9.410409927368164,8.209228515625,0.030517578125,20.416259765625
4.9024999000000005,1.867477297782898,-1.4449007511138916,9.679159164428711,12.0849609375,9.09423828125,32.71484375
4.9074999,1.8800468444824219,-0.8798691034317017,9.666589736938477,-2.593994140625,-1.312255859375,-18.463134765625
4.9124999,2.362478494644165,-0.7439981698989868,9.9586820602417,20.751953125,25.665283203125,-17.4560546875
4.9174999,2.7437551021575928,-1.2108675241470337,9.767146110534668,32.012939453125,52.490234375,-19.744873046875
4.9224999,2.5899276733398438,-0.9738415479660034,9.862914085388184,22.52197265625,48.7060546875,-12.63427734375
4.9274999,1.591545581817627,-0.12090718746185303,9.935338973999023,10.101318359375,27.740478515625,-24.383544921875
4.9324999,0.0975637212395668,0.3172317147254944,9.641449928283691,-9.3994140625,-6.04248046875,-47.42431640625
4.937499900000001,-1.5568296909332275,0.5805938839912415,9.57441234588623,-19.8974609375,-29.632568359375,-22.39990234375
4.9424999000000005,-2.7760767936706543,1.1953052282333374,9.6989107131958,-19.83642578125,-35.675048828125,18.6767578125
4.9474999,-2.7551276683807373,0.17477671802043915,9.507973670959473,-39.97802734375,-56.09130859375,18.096923828125
4.9524999,-1.6891093254089355,-0.009576806798577309,9.583989143371582,-22.308349609375,-36.163330078125,15.68603515625
4.9574999,-0.26096799969673157,-1.5017629861831665,9.248202323913574,6.04248046875,-3.448486328125,25.360107421875
4.9624999,2.565387010574341,-1.591545581817627,9.917980194091797,25.87890625,51.81884765625,-17.547607421875
4.9674999,2.049436569213867,-0.322618693113327,9.856329917907715,15.411376953125,35.919189453125,-12.176513671875
4.9724999,0.6332663297653198,0.181959331035614,9.862914085388184,-1.28173828125,8.9111328125,-42.510986328125
4.977499900000001,-0.8631097078323364,0.641047477722168,9.667187690734863,-18.1884765625,-22.94921875,-37.04833984375
4.9824999000000005,-2.2403743267059326,1.1701661348342896,9.385869026184082,-15.899658203125,-29.35791015625,5.706787109375
4.9874999,-2.7682957649230957,0.345363587141037,9.36013126373291,-33.26416015625,-50.72021484375,21.8505859375
4.9924999,-1.9728221893310547,-0.08738835901021957,8.953117370605469,-36.0107421875,-46.600341796875,13.458251953125
4.9974999,0.8804676532745361,-2.1936872005462646,9.168595314025879,6.34765625,0,24.078369140625
5.0024999,1.7884687185287476,-2.542043685913086,9.519944190979004,8.514404296875,1.373291015625,20.20263671875
5.0074999,1.8249802589416504,-1.521515130996704,9.77253246307373,12.542724609375,10.68115234375,33.538818359375
5.0124999,1.7369933128356934,-1.1755530834197998,9.903017044067383,-0.42724609375,1.15966796875,9.033203125
5.0174999,1.8962076902389526,-0.8702923059463501,9.740211486816406,-0.3662109375,1.678466796875,-21.087646484375
5.022499900000001,2.410362482070923,-0.7511807680130005,9.939528465270996,25.543212890625,32.53173828125,-16.54052734375
5.0274999000000005,2.760514497756958,-1.27191960811615,9.825204849243164,32.196044921875,54.6875,-18.524169921875
5.0324999,2.5049335956573486,-0.8050503134727478,9.855731010437012,21.91162109375,47.454833984375,-11.199951171875
5.0374999,1.4179660081863403,-0.017956512048840523,9.941324234008789,8.1787109375,24.59716796875,-29.296875
5.0424999,-0.15143325924873352,0.36810851097106934,9.637260437011719,-12.603759765625,-10.80322265625,-48.248291015625
5.0474999,-1.8160020112991333,0.6344634294509888,9.519346237182617,-19.683837890625,-30.6396484375,-18.6767578125
5.0524999,-2.937685489654541,0.9552865028381348,9.571419715881348,-23.3154296875,-40.4052734375,20.44677734375
5.0574999,-1.7369933128356934,-0.22685061395168304,9.548674583435059,-17.15087890625,-32.073974609375,17.059326171875
5.062499900000001,-0.1256955862045288,-1.4012064933776855,9.179967880249023,5.401611328125,-2.716064453125,25.909423828125
5.0674999000000005,1.4700398445129395,-2.383427858352661,9.29189682006836,6.7138671875,-1.556396484375,21.026611328125
5.0724999,1.9698294401168823,-2.1787235736846924,9.461885452270508,11.77978515625,7.4462890625,28.50341796875
5.0774999,2.0003554821014404,-1.2342109680175781,9.61331844329834,7.049560546875,7.537841796875,26.85546875
5.0824999,1.912368655204773,-1.2844891548156738,9.606135368347168,-6.500244140625,-5.035400390625,-12.6953125
5.0874999,2.276287317276001,-1.028908133506775,9.879075050354004,11.993408203125,15.716552734375,-20.20263671875
5.0924999,2.652775526046753,-1.1450269222259521,9.734225273132324,32.989501953125,47.42431640625,-16.357421875
5.0974999,2.536058187484741,-1.680729627609253,9.931148529052734,24.932861328125,51.177978515625,-16.4794921875
5.102499900000001,1.8525135517120361,-0.24241292476654053,9.865906715393066,13.73291015625,33.599853515625,-14.923095703125
5.1074999000000005,0.39564183354377747,0.15921440720558167,9.81024169921875,-4.119873046875,4.547119140625,-44.464111328125
5.1124999,-1.1450269222259521,0.6949170231819153,9.620500564575195,-18.524169921875,-25.20751953125,-32.562255859375
5.1174999,-2.785055160522461,0.43933600187301636,9.355342864990234,-36.68212890625,-53.16162109375,20.32470703125
5.1224999,1.1653777360916138,-2.4175450801849365,9.078214645385742,6.134033203125,-0.732421875,24.23095703125
5.1274999,1.890222191810608,-2.7299885749816895,9.363123893737793,9.33837890625,2.197265625,22.27783203125
5.1324999,1.8297686576843262,-1.6484078168869019,9.625288963317871,11.932373046875,10.43701171875,34.912109375
5.1374999,1.7411831617355347,-1.3389573097229004,9.815628051757812,-3.0517578125,-1.678466796875,3.96728515625
5.1424999,1.9614497423171997,-0.943913996219635,9.73661994934082,1.800537109375,4.638671875,-22.308349609375
5.147499900000001,2.47560453414917,-0.7846996188163757,9.895236015319824,28.106689453125,36.468505859375,-16.204833984375
5.1524999000000005,2.7246015071868896,-1.3072341680526733,9.867103576660156,30.1513671875,53.802490234375,-18.6767578125
5.1574999,2.3965959548950195,-0.46627077460289,9.840168952941895,18.707275390625,42.938232421875,-12.786865234375
5.1624999,1.1180921792984009,0.12509703636169434,9.97484302520752,3.265380859375,18.1884765625,-35.82763671875
5.1674999,-2.0183119773864746,0.619499683380127,9.503185272216797,-17.486572265625,-29.937744140625,-7.4462890625
5.1724999,-2.8772318363189697,0.20290859043598175,9.368511199951172,-28.350830078125,-46.966552734375,24.10888671875
5.1774999,-2.4205379486083984,-0.3728969097137451,8.99621295928955,-39.36767578125,-50.994873046875,15.68603515625
5.1824999,-1.304241418838501,-1.05105459690094,9.266159057617188,-7.598876953125,-21.484375,18.06640625
5.187499900000001,0.32620999217033386,-1.721431016921997,9.024344444274902,6.988525390625,-0.579833984375,28.3203125
5.1924999000000005,1.5957354307174683,-2.253542423248291,9.346963882446289,7.537841796875,-1.15966796875,20.660400390625
5.1974999,1.5957354307174683,-2.253542423248291,9.346963882446289,7.537841796875,-1.15966796875,20.660400390625
