# Time (seconds),Accel_X,Accel_Y,Accel_Z,Gyro_X,Gyro_Y,Gyro_Z
0.0024999,0.3106476664543152,-0.2968810200691223,9.871891975402832,-0.823974609375,-0.244140625,2.0751953125
0.0074999,0.3106476664543152,-0.2968810200691223,9.871891975402832,-0.823974609375,-0.244140625,2.0751953125
0.012499900000000001,0.41359832882881165,-0.28790274262428284,9.494206428527832,-4.547119140625,-0.244140625,-1.03759765625
0.0174999,0.48303020000457764,-0.32381579279899597,9.888052940368652,6.65283203125,1.8310546875,-1.678466796875
0.0224999,0.23104046285152435,-0.27653029561042786,9.885659217834473,-2.13623046875,0.06103515625,2.227783203125
0.0274999,0.46746787428855896,-0.2932897210121155,9.591172218322754,-4.119873046875,-1.434326171875,-1.64794921875
0.0324999,0.4944026470184326,-0.34596213698387146,9.998785018920898,6.28662109375,0.396728515625,-1.15966796875
0.0374999,0.5386953949928284,-0.3082534670829773,9.619902610778809,-2.471923828125,0.3662109375,-1.8310546875
0.0424999,0.45489832758903503,-0.3034650683403015,9.988011360168457,6.16455078125,0.42724609375,-0.579833984375
0.0474999,0.28969839215278625,-0.2555810213088989,9.805453300476074,-4.730224609375,-0.701904296875,1.983642578125
0.0524999,0.5195417404174805,-0.2902969419956207,9.618106842041016,-1.46484375,-1.46484375,-2.50244140625
0.0574999,0.41718965768814087,-0.28969839215278625,9.962871551513672,5.55419921875,0.1220703125,-0.152587890625
0.0624999,0.3082534670829773,-0.3016694188117981,9.689932823181152,-5.18798828125,0.091552734375,1.708984375
0.0674999,0.4991910457611084,-0.2825157940387726,9.59057331085205,0.823974609375,1.495361328125,-2.532958984375
0.0724999,0.3669114112854004,-0.26755204796791077,9.964069366455078,4.94384765625,-0.213623046875,0.335693359375
0.0774999,0.26336219906806946,-0.23104046285152435,9.64564037322998,-5.7373046875,-0.3662109375,1.40380859375
0.0824999,0.3471592366695404,-0.24001872539520264,9.979032516479492,3.875732421875,-0.518798828125,0.79345703125
0.0874999,0.3471592366695404,-0.24001872539520264,9.979032516479492,3.875732421875,-0.518798828125,0.79345703125
0.0924999,0.292691171169281,-0.25438392162323,9.605537414550781,-6.439208984375,0.030517578125,1.190185546875
0.0974999,0.38307225704193115,-0.27712884545326233,9.926360130310059,2.471923828125,-1.15966796875,1.190185546875
0.1024999,0.3561375141143799,-0.30226796865463257,9.549273490905762,-6.4697265625,-0.8544921875,0.274658203125
0.1074999,0.5488707423210144,-0.30526071786880493,9.749189376831055,4.39453125,1.03759765625,-2.349853515625
0.1124999,0.33339259028434753,-0.26156654953956604,10.000580787658691,1.52587890625,-0.335693359375,1.708984375
0.1174999,0.3824737071990967,-0.2795230448246002,9.588179588317871,-5.828857421875,-0.152587890625,-0.06103515625
0.1224999,0.557250440120697,-0.3190273642539978,9.847352027893066,5.2490234375,0.152587890625,-2.349853515625
0.1274999,0.32620999217033386,-0.27413609623908997,9.898228645324707,-0.30517578125,-0.42724609375,1.983642578125
0.1324999,0.424970805644989,-0.2783259451389313,9.487024307250977,-5.035400390625,0,-0.67138671875
0.1374999,0.5213374495506287,-0.3130418658256531,9.821614265441895,5.767822265625,0.030517578125,-1.953125
0.1424999,0.2513911724090576,-0.22864626348018646,9.865906715393066,-1.434326171875,-0.457763671875,2.0751953125
0.1474999,0.42197805643081665,-0.26994624733924866,9.548076629638672,-3.875732421875,0.946044921875,-1.03759765625
0.1524999,0.48722004890441895,-0.2902969419956207,9.97065258026123,6.317138671875,0.152587890625,-1.64794921875
0.1574999,0.26815059781074524,-0.2645592987537384,9.862914085388184,-3.143310546875,-0.946044921875,2.044677734375
0.1624999,0.5231330990791321,-0.31364041566848755,9.608530044555664,-2.3193359375,0.152587890625,-1.922607421875
0.1674999,0.4902127981185913,-0.3016694188117981,9.984419822692871,6.28662109375,-0.244140625,-1.0986328125
0.1724999,0.2974795699119568,-0.2759317457675934,9.813833236694336,-4.364013671875,-0.946044921875,1.922607421875
0.17749990000000002,0.5285200476646423,-0.322618693113327,9.62828254699707,-1.64794921875,-0.518798828125,-1.922607421875
0.1824999,0.42616790533065796,-0.25498247146606445,9.99339771270752,5.706787109375,0,-0.3662109375
0.1874999,0.2944868206977844,-0.29568392038345337,9.764751434326172,-5.462646484375,-0.54931640625,1.861572265625
0.1924999,0.5147533416748047,-0.30226796865463257,9.609128952026367,-0.091552734375,-0.06103515625,-2.197265625
0.1974999,0.39624038338661194,-0.24480712413787842,9.989208221435547,5.126953125,-0.3662109375,0.152587890625
0.2024999,0.29628247022628784,-0.28371289372444153,9.668983459472656,-6.072998046875,-0.9765625,1.46484375
0.20749990000000001,0.46148237586021423,-0.24181437492370605,9.660005569458008,1.678466796875,0.640869140625,-2.532958984375
0.2124999,0.3411737382411957,-0.20231004059314728,10.037690162658691,4.150390625,-0.457763671875,0.42724609375
0.2174999,0.46507367491722107,-0.2519897222518921,9.701904296875,3.173828125,1.0986328125,-2.3193359375
0.2224999,0.3561375141143799,-0.2495955228805542,9.983222961425781,2.99072265625,0.030517578125,1.251220703125
0.2274999,0.31364041566848755,-0.322618693113327,9.586383819580078,-6.40869140625,-0.885009765625,0.396728515625
0.2324999,0.5273229479789734,-0.28131869435310364,9.761159896850586,4.45556640625,1.190185546875,-2.532958984375
0.2374999,0.33698388934135437,-0.2687491476535797,10.038887977600098,1.739501953125,0,1.52587890625
0.2424999,0.45010992884635925,-0.31184476613998413,9.559449195861816,-5.096435546875,-0.91552734375,-0.946044921875
0.2474999,0.569819986820221,-0.3130418658256531,9.849745750427246,5.828857421875,-0.244140625,-2.13623046875
0.2524999,0.304063618183136,-0.29149407148361206,9.911994934082031,-0.946044921875,-0.579833984375,2.105712890625
0.2574999,0.4183867573738098,-0.2795230448246002,9.545083999633789,-4.119873046875,0.518798828125,-0.91552734375
0.2624999,0.23343466222286224,-0.28969839215278625,9.929352760314941,-2.716064453125,-0.823974609375,2.044677734375
0.2674999,0.47884035110473633,-0.29388827085494995,9.64564037322998,-3.11279296875,0.42724609375,-1.64794921875
0.2724999,0.4842272996902466,-0.33279404044151306,10.001777648925781,6.40869140625,0.732421875,-1.220703125
0.2774999,0.29209262132644653,-0.28311434388160706,9.785700798034668,-3.7841796875,-0.762939453125,2.25830078125
0.2824999,0.5297171473503113,-0.292691171169281,9.55466079711914,-1.983642578125,0.244140625,-1.861572265625
0.28749990000000003,0.43754035234451294,-0.2849099934101105,9.892841339111328,6.04248046875,-0.152587890625,-0.67138671875
0.2924999,0.2885012924671173,-0.25498247146606445,9.731831550598145,-4.669189453125,-0.48828125,1.8310546875
0.2974999,0.524330198764801,-0.2902969419956207,9.586981773376465,-0.701904296875,0.335693359375,-2.532958984375
0.3024999,0.4213795065879822,-0.2801215946674347,9.980229377746582,5.67626953125,0.1220703125,-0.06103515625
0.3074999,0.3232172429561615,-0.2902969419956207,9.72165584564209,-5.218505859375,-0.67138671875,1.678466796875
0.3124999,0.5009866952896118,-0.2585737705230713,9.658807754516602,1.3427734375,1.64794921875,-2.655029296875
0.3174999,0.363918662071228,-0.2472013235092163,10.046070098876953,4.669189453125,-0.274658203125,0.213623046875
0.3224999,0.3345896899700165,-0.2663549482822418,9.8970308303833,2.349853515625,0.54931640625,1.40380859375
0.3274999,0.3363853394985199,-0.28072014451026917,9.515754699707031,-5.67626953125,0,0.30517578125
0.3324999,0.5351040959358215,-0.28790274262428284,9.725247383117676,4.302978515625,-0.274658203125,-2.410888671875
0.3374999,0.32860419154167175,-0.25258827209472656,9.942521095275879,0.946044921875,-0.42724609375,1.495361328125
0.3424999,0.4082113802433014,-0.2651578485965729,9.535507202148438,-5.157470703125,0.701904296875,-0.30517578125
0.34749990000000003,0.5662286877632141,-0.3298012912273407,9.82640266418457,5.279541015625,-0.030517578125,-2.01416015625
0.35249990000000003,0.32202014327049255,-0.2645592987537384,9.919178009033203,-0.3662109375,0.152587890625,1.953125
0.3574999,0.4207809567451477,-0.2932897210121155,9.566631317138672,-4.150390625,1.64794921875,-0.762939453125
0.3624999,0.2759317457675934,-0.30226796865463257,9.888052940368652,-3.326416015625,-0.213623046875,2.166748046875
0.3674999,0.5249287486076355,-0.33099839091300964,9.636063575744629,-2.5634765625,-0.1220703125,-1.77001953125
0.3724999,0.4578910768032074,-0.29209262132644653,9.991601943969727,6.378173828125,0.244140625,-0.823974609375
0.3774999,0.2825157940387726,-0.2621650993824005,9.801262855529785,-4.425048828125,-0.823974609375,1.861572265625
0.3824999,0.5195417404174805,-0.2968810200691223,9.609726905822754,-0.762939453125,0.91552734375,-2.166748046875
0.3874999,0.4207809567451477,-0.24181437492370605,9.95090103149414,5.889892578125,0.579833984375,0
0.3924999,0.31603461503982544,-0.28969839215278625,9.6989107131958,-5.279541015625,-0.42724609375,1.739501953125
0.3974999,0.5117605924606323,-0.28072014451026917,9.549872398376465,0.30517578125,0.91552734375,-2.38037109375
0.4024999,0.38546648621559143,-0.22625206410884857,9.928754806518555,5.157470703125,0.244140625,0.79345703125
0.4074999,0.46327802538871765,-0.2190694510936737,9.598953247070312,2.25830078125,1.312255859375,-2.8076171875
0.41249990000000003,0.35733461380004883,-0.19572599232196808,9.968857765197754,4.150390625,-0.030517578125,1.0986328125
0.41749990000000003,0.28550854325294495,-0.2579752206802368,9.605537414550781,-6.195068359375,-0.335693359375,1.0986328125
0.4224999,0.5027823448181152,-0.27712884545326233,9.694721221923828,3.47900390625,0.79345703125,-3.021240234375
0.4274999,0.36152446269989014,-0.25318682193756104,9.991601943969727,2.960205078125,0.274658203125,1.3427734375
0.4324999,0.3345896899700165,-0.3058592677116394,9.617507934570312,-5.79833984375,0.030517578125,0.6103515625
0.4374999,0.5380968451499939,-0.2603694200515747,9.816226959228516,4.57763671875,0.457763671875,-2.716064453125
0.4424999,0.33937808871269226,-0.243011474609375,10.0580415725708,1.46484375,-0.30517578125,1.678466796875
0.4474999,0.38726213574409485,-0.2932897210121155,9.619303703308105,-5.950927734375,0.732421875,0.30517578125
0.4524999,0.5716156363487244,-0.2902969419956207,9.867103576660156,5.31005859375,0.396728515625,-2.410888671875
0.4574999,0.34835633635520935,-0.32022446393966675,9.95209789276123,-0.3662109375,-0.3662109375,1.8310546875
0.4624999,0.43514615297317505,-0.3429693877696991,9.5408935546875,-4.7607421875,-0.030517578125,-0.579833984375
0.4674999,0.2561795711517334,-0.29149407148361206,9.911994934082031,-1.434326171875,0.091552734375,2.13623046875
0.47249990000000003,0.4034229815006256,-0.2825157940387726,9.570222854614258,-4.0283203125,0.54931640625,-1.068115234375
0.47749990000000003,0.4752490520477295,-0.2735375463962555,9.959878921508789,5.950927734375,-0.152587890625,-1.739501953125
0.4824999,0.243011474609375,-0.28969839215278625,9.839570045471191,-2.99072265625,-0.518798828125,1.953125
0.4874999,0.5015852451324463,-0.31543606519699097,9.575011253356934,-2.838134765625,0.48828125,-1.52587890625
0.4924999,0.48063600063323975,-0.29149407148361206,9.910798072814941,5.645751953125,-0.091552734375,-1.129150390625
0.4974999,0.28730419278144836,-0.3010708689689636,9.762955665588379,-4.302978515625,-0.8544921875,2.0751953125
0.5024999,0.5201402902603149,-0.2974795699119568,9.57321548461914,-1.739501953125,-0.213623046875,-1.89208984375
0.5074999,0.4225766062736511,-0.2735375463962555,9.955689430236816,5.615234375,0.1220703125,-0.396728515625
0.5124999,0.2908954918384552,-0.2908954918384552,9.774927139282227,-5.645751953125,-0.6103515625,2.044677734375
0.5174999,0.52552729845047,-0.2902969419956207,9.617507934570312,-0.48828125,-0.79345703125,-2.50244140625
0.5224999,0.4183867573738098,-0.2908954918384552,9.974244117736816,5.67626953125,0.79345703125,-0.1220703125
0.5274999,0.365115761756897,-0.23343466222286224,9.955090522766113,4.21142578125,-0.30517578125,0.213623046875
0.5324999,0.2651578485965729,-0.20889410376548767,9.62947940826416,-6.011962890625,-0.579833984375,1.0986328125
0.5374999,0.4644751250743866,-0.2537853717803955,9.646238327026367,2.532958984375,0.30517578125,-2.5634765625
0.5424999,0.3669114112854004,-0.2645592987537384,9.945513725280762,3.509521484375,0.701904296875,1.068115234375
0.5474999,0.3196259140968323,-0.30885201692581177,9.539097785949707,-5.79833984375,1.28173828125,0.8544921875
0.5524999,0.5351040959358215,-0.3172317147254944,9.653421401977539,3.814697265625,0.48828125,-2.44140625
0.5574999,0.3579331636428833,-0.27473464608192444,9.962871551513672,2.166748046875,-0.152587890625,1.190185546875
0.5624999,0.41718965768814087,-0.27712884545326233,9.575610160827637,-5.859375,-0.48828125,-0.274658203125
0.5674999000000001,0.41958385705947876,-0.3106476664543152,9.548076629638672,-4.2724609375,0.8544921875,-0.640869140625
0.5724999000000001,0.41958385705947876,-0.3106476664543152,9.548076629638672,-4.2724609375,0.8544921875,-0.640869140625
0.5774999000000001,0.5003881454467773,-0.31124621629714966,9.946710586547852,6.072998046875,-0.030517578125,-2.105712890625
0.5824999,0.23702596127986908,-0.27413609623908997,9.95329475402832,-2.3193359375,-1.0986328125,2.01416015625
0.5874999,0.45250412821769714,-0.32022446393966675,9.643245697021484,-3.84521484375,-1.739501953125,-1.46484375
0.5924999,0.4920084476470947,-0.31603461503982544,10.026318550109863,6.622314453125,0.9765625,-1.373291015625
0.5974999,0.2902969419956207,-0.32441434264183044,9.894038200378418,-3.173828125,0.030517578125,1.922607421875
0.6024999,0.5327098965644836,-0.35015198588371277,9.637260437011719,-2.38037109375,0.091552734375,-1.739501953125
0.6074999,0.4692635238170624,-0.28311434388160706,10.016142845153809,6.103515625,0.457763671875,-0.701904296875
0.6124999,0.29149407148361206,-0.2801215946674347,9.81263542175293,-4.638671875,-0.396728515625,1.739501953125
0.6174999,0.5225345492362976,-0.30047231912612915,9.621099472045898,-0.6103515625,1.129150390625,-2.197265625
0.6224999,0.31184476613998413,-0.2968810200691223,9.689932823181152,-5.55419921875,-0.6103515625,1.64794921875
0.6274999,0.5147533416748047,-0.27653029561042786,9.557653427124023,-0.1220703125,-0.640869140625,-2.288818359375
0.6324999,0.37888240814208984,-0.2059013396501541,9.920374870300293,4.7607421875,-0.579833984375,0.48828125
0.6374999,0.27653029561042786,-0.27054479718208313,9.592369079589844,-6.378173828125,-0.762939453125,1.40380859375
0.6424999,0.333991140127182,-0.22685061395168304,9.980828285217285,3.814697265625,0.396728515625,0.823974609375
0.6474999,0.272938996553421,-0.2735375463962555,9.625288963317871,-6.072998046875,-0.518798828125,1.0986328125
0.6524999,0.5003881454467773,-0.2908954918384552,9.68933391571045,3.387451171875,1.03759765625,-2.5634765625
0.6574999,0.3770867586135864,-0.3130418658256531,9.973047256469727,2.960205078125,0.244140625,0.9765625
0.6624999,0.3513490855693817,-0.33339259028434753,9.586981773376465,-6.011962890625,-0.396728515625,0.335693359375
0.6674999,0.5476736426353455,-0.3100491166114807,9.756970405578613,4.730224609375,0.030517578125,-2.74658203125
0.6724999,0.34177228808403015,-0.2974795699119568,10.011953353881836,1.28173828125,-1.40380859375,1.40380859375
0.6774999,0.45429977774620056,-0.27712884545326233,9.553462982177734,-4.730224609375,0.1220703125,-0.6103515625
0.6824999,0.5734112858772278,-0.32202014327049255,9.888052940368652,5.706787109375,1.03759765625,-1.800537109375
0.6874999,0.304063618183136,-0.23104046285152435,9.952696800231934,-1.15966796875,0,2.288818359375
0.6924999000000001,0.43993455171585083,-0.2513911724090576,9.601346969604492,-4.730224609375,0.091552734375,-1.0986328125
0.6974999000000001,0.5021837949752808,-0.32202014327049255,10.000580787658691,5.889892578125,0.335693359375,-1.678466796875
0.7024999000000001,0.24779987335205078,-0.2849099934101105,9.90122127532959,-2.01416015625,-0.42724609375,2.13623046875
0.7074999,0.49799394607543945,-0.3208230137825012,9.62828254699707,-3.021240234375,0.30517578125,-1.708984375
0.7124999,0.46986207365989685,-0.3645172119140625,10.000580787658691,6.53076171875,0.946044921875,-1.129150390625
0.7174999,0.2759317457675934,-0.2795230448246002,9.845556259155273,-3.72314453125,-0.54931640625,2.044677734375
0.7224999,0.2645592987537384,-0.1711854189634323,9.548076629638672,-6.53076171875,-0.091552734375,1.46484375
0.7274999,0.44592007994651794,-0.21787235140800476,9.586383819580078,2.105712890625,-0.457763671875,-2.74658203125
0.7324999,0.3471592366695404,-0.24241292476654053,9.925761222839355,3.570556640625,-0.48828125,0.946044921875
0.7374999,0.28311434388160706,-0.2950853705406189,9.565434455871582,-6.28662109375,-0.244140625,0.701904296875
0.7424999,0.5123591423034668,-0.33698388934135437,9.68574333190918,3.997802734375,0.274658203125,-2.716064453125
0.7474999,0.3555389642715454,-0.28790274262428284,9.57201862335205,-6.04248046875,-0.244140625,0.091552734375
0.7524999,0.5632359385490417,-0.292691171169281,9.802460670471191,5.2490234375,0.335693359375,-2.5634765625
0.7574999,0.35254621505737305,-0.2454056739807129,9.966463088989258,0.701904296875,-0.67138671875,1.52587890625
0.7624999,0.43514615297317505,-0.262763649225235,9.541492462158203,-5.79833984375,-0.3662109375,-0.396728515625
0.7674999,0.579995334148407,-0.3106476664543152,9.800065994262695,5.2490234375,0.213623046875,-2.01416015625
0.7724999,0.33099839091300964,-0.24600422382354736,9.871891975402832,-0.762939453125,-0.6103515625,2.105712890625
0.7774999,0.42856210470199585,-0.2669534981250763,9.503185272216797,-5.096435546875,-0.885009765625,-1.0986328125
0.7824999,0.5027823448181152,-0.31124621629714966,9.916783332824707,6.65283203125,1.190185546875,-1.861572265625
0.7874999,0.23942017555236816,-0.25258827209472656,9.932345390319824,-1.64794921875,-0.274658203125,2.3193359375
0.7924999,0.4602852761745453,-0.31364041566848755,9.62947940826416,-3.692626953125,-0.030517578125,-1.373291015625
0.7974999,0.5009866952896118,-0.3315969407558441,10.022727012634277,6.134033203125,-0.06103515625,-1.46484375
0.8024999,0.2932897210121155,-0.26815059781074524,9.839570045471191,-4.08935546875,-0.091552734375,1.953125
0.8074999,0.5225345492362976,-0.31364041566848755,9.64923095703125,-1.068115234375,-0.274658203125,-2.288818359375
0.8124999,0.42437225580215454,-0.2561795711517334,9.973047256469727,5.889892578125,-0.30517578125,-0.54931640625
0.8174999000000001,0.32022446393966675,-0.3010708689689636,9.715670585632324,-5.126953125,-1.03759765625,1.373291015625
0.8224999000000001,0.5111620426177979,-0.2819172441959381,9.572616577148438,1.007080078125,1.739501953125,-2.38037109375
0.8274999000000001,0.39145198464393616,-0.23942017555236816,9.944316864013672,5.157470703125,0.701904296875,0.18310546875
0.8324999000000001,0.28311434388160706,-0.2472013235092163,9.607931137084961,-5.645751953125,0.54931640625,1.3427734375
0.8374999,0.46627077460289,-0.24001872539520264,9.626486778259277,2.471923828125,1.0986328125,-2.471923828125
0.8424999,0.3621230125427246,-0.21547815203666687,9.986215591430664,4.180908203125,-0.335693359375,0.701904296875
0.8474999,0.29628247022628784,-0.27054479718208313,9.619303703308105,-6.2255859375,-0.335693359375,0.732421875
0.8524999,0.5231330990791321,-0.2908954918384552,9.692327499389648,3.173828125,-0.244140625,-2.471923828125
0.8574999,0.3423708379268646,-0.25258827209472656,10.070012092590332,1.190185546875,-0.1220703125,1.861572265625
0.8624999,0.395043283700943,-0.2944868206977844,9.616909980773926,-5.92041015625,-0.42724609375,-0.152587890625
0.8674999,0.5626373887062073,-0.29867666959762573,9.856329917907715,5.43212890625,0.6103515625,-2.25830078125
0.8724999,0.3298012912273407,-0.2974795699119568,9.926959037780762,-0.396728515625,-0.48828125,2.105712890625
0.8774999,0.4189853072166443,-0.34177228808403015,9.5223388671875,-4.913330078125,-0.244140625,-0.946044921875
0.8824999,0.5195417404174805,-0.29867666959762573,9.9000244140625,5.523681640625,-0.91552734375,-2.166748046875
0.8874999,0.2555810213088989,-0.2885012924671173,9.95748519897461,-2.25830078125,-1.373291015625,2.105712890625
0.8924999,0.41958385705947876,-0.29628247022628784,9.627683639526367,-4.08935546875,-0.640869140625,-1.190185546875
0.8974999,0.49380409717559814,-0.26755204796791077,10.033500671386719,5.9814453125,-0.152587890625,-1.3427734375
0.9024999,0.2579752206802368,-0.30705636739730835,9.903017044067383,-3.265380859375,-0.823974609375,2.197265625
0.9074999,0.4818331003189087,-0.2890998423099518,9.986215591430664,6.622314453125,0.946044921875,-1.068115234375
0.9124999,0.29388827085494995,-0.30286651849746704,9.81143856048584,-3.814697265625,-0.274658203125,2.105712890625
0.9174999,0.5327098965644836,-0.31184476613998413,9.627683639526367,-1.556396484375,-0.030517578125,-2.166748046875
0.9224999,0.44173020124435425,-0.26336219906806946,9.995193481445312,6.072998046875,0.54931640625,-0.3662109375
0.9274999,0.31543606519699097,-0.30945056676864624,9.783905029296875,-4.8828125,-0.18310546875,1.953125
0.9324999,0.5398924946784973,-0.29209262132644653,9.634865760803223,0.244140625,0.701904296875,-2.471923828125
0.9374999,0.41718965768814087,-0.24660277366638184,10.013150215148926,5.31005859375,0.213623046875,0.06103515625
0.9424999000000001,0.31184476613998413,-0.27054479718208313,9.703699111938477,-5.889892578125,-0.48828125,1.46484375
0.9474999000000001,0.46507367491722107,-0.22206220030784607,9.6803560256958,1.373291015625,0.701904296875,-2.716064453125
0.9524999000000001,0.33758243918418884,-0.21128830313682556,10.063427925109863,4.39453125,-0.457763671875,0.579833984375
0.9574999000000001,0.24660277366638184,-0.23762452602386475,9.682151794433594,-5.859375,-1.8310546875,0.640869140625
0.9624999,0.456095427274704,-0.2561795711517334,9.6989107131958,2.410888671875,-0.06103515625,-2.62451171875
0.9674999,0.3130418658256531,-0.3016694188117981,9.569025993347168,-6.34765625,-0.274658203125,0.67138671875
0.9724999,0.5333084464073181,-0.27413609623908997,9.71926212310791,4.39453125,1.5869140625,-2.5634765625
0.9774999,0.33997663855552673,-0.24361002445220947,10.00836181640625,2.13623046875,0.3662109375,1.5869140625
0.9824999,0.3579331636428833,-0.2663549482822418,9.612719535827637,-5.859375,0.396728515625,0.091552734375
0.9874999,0.557250440120697,-0.2663549482822418,9.864110946655273,4.5166015625,-0.18310546875,-2.25830078125
0.9924999,0.34177228808403015,-0.27712884545326233,10.00836181640625,0.244140625,-0.457763671875,2.01416015625
0.9974999,0.43993455171585083,-0.3190273642539978,9.582193374633789,-4.974365234375,0.18310546875,-0.54931640625
1.0024999,0.5644330382347107,-0.3100491166114807,9.898826599121094,5.67626953125,0.152587890625,-2.01416015625
1.0074999000000002,0.30286651849746704,-0.27712884545326233,9.94970417022705,-1.129150390625,-0.762939453125,1.953125
1.0124999000000001,0.40043023228645325,-0.31543606519699097,9.588777542114258,-4.57763671875,-0.274658203125,-1.03759765625
1.0174999000000002,0.4770447015762329,-0.24899697303771973,9.99459457397461,6.9580078125,1.8310546875,-1.5869140625
1.0224999000000001,0.21667525172233582,-0.3034650683403015,9.932944297790527,-2.166748046875,0.030517578125,1.983642578125
1.0274999,0.444722980260849,-0.2495955228805542,9.951498985290527,6.04248046875,0.213623046875,-0.67138671875
1.0324999000000001,0.2777273952960968,-0.26815059781074524,9.77253246307373,-4.425048828125,-0.67138671875,1.983642578125
1.0374999,0.5105634927749634,-0.27473464608192444,9.601945877075195,-1.3427734375,-1.190185546875,-2.197265625
1.0424999000000001,0.406415730714798,-0.22266076505184174,9.95209789276123,5.340576171875,-0.18310546875,-0.152587890625
1.0474999,0.30705636739730835,-0.29388827085494995,9.691129684448242,-5.7373046875,-0.335693359375,1.89208984375
1.0524999000000002,0.5033808946609497,-0.2663549482822418,9.583989143371582,1.129150390625,1.434326171875,-2.685546875
1.0574999,0.37648820877075195,-0.21966800093650818,9.96945571899414,4.791259765625,-0.3662109375,0.18310546875
1.0624999000000002,0.2777273952960968,-0.23762452602386475,9.637859344482422,-6.072998046875,-0.9765625,1.40380859375
1.0674999,0.45190557837486267,-0.18555063009262085,9.654618263244629,2.0751953125,0.701904296875,-2.410888671875
1.0724999000000002,0.2819172441959381,-0.2537853717803955,9.62947940826416,-6.04248046875,-0.091552734375,0.91552734375
1.0774999,0.5141547918319702,-0.30526071786880493,9.6989107131958,3.143310546875,0.48828125,-2.655029296875
1.0824999000000002,0.37169981002807617,-0.31184476613998413,9.942521095275879,2.86865234375,0.213623046875,1.312255859375
1.0874999,0.35015198588371277,-0.3100491166114807,9.563638687133789,-6.2255859375,0.213623046875,0.67138671875
1.0924999000000002,0.5398924946784973,-0.29807811975479126,9.712677955627441,3.631591796875,-0.946044921875,-2.593994140625
1.0974999,0.3274070918560028,-0.24779987335205078,9.963470458984375,1.03759765625,-0.48828125,1.5869140625
1.1024999000000002,0.3663128614425659,-0.2585737705230713,9.552865028381348,-5.67626953125,0.1220703125,-0.091552734375
1.1074999,0.5440823435783386,-0.3082534670829773,9.804854393005371,5.462646484375,0.91552734375,-2.13623046875
1.1124999000000002,0.32022446393966675,-0.28131869435310364,9.912593841552734,0.396728515625,-0.244140625,1.739501953125
1.1174999,0.4207809567451477,-0.2579752206802368,9.528324127197266,-4.913330078125,0.1220703125,-0.79345703125
1.1224999000000002,0.52552729845047,-0.31543606519699097,9.871891975402832,6.072998046875,1.617431640625,-1.739501953125
1.1274999,0.25498247146606445,-0.2124854028224945,9.914389610290527,-1.15966796875,0.30517578125,2.166748046875
1.1324999000000002,0.5111620426177979,-0.31783026456832886,9.62828254699707,-3.11279296875,0.244140625,-1.678466796875
1.1374999000000001,0.48602294921875,-0.3471592366695404,10.00955867767334,5.9814453125,-0.762939453125,-1.220703125
1.1424999000000002,0.29867666959762573,-0.28072014451026917,9.832387924194336,-4.08935546875,-1.28173828125,2.044677734375
1.1474999000000001,0.5297171473503113,-0.30885201692581177,9.637260437011719,-1.46484375,1.3427734375,-1.89208984375
1.1524999000000002,0.4315548539161682,-0.28969839215278625,9.99339771270752,5.7373046875,-0.30517578125,-0.42724609375
1.1574999000000001,0.29388827085494995,-0.25917232036590576,9.797672271728516,-5.096435546875,-1.129150390625,2.105712890625
1.1624999,0.29388827085494995,-0.25917232036590576,9.797672271728516,-5.096435546875,-1.129150390625,2.105712890625
1.1674999000000001,0.5159504413604736,-0.2908954918384552,9.618705749511719,-0.030517578125,0.6103515625,-2.471923828125
1.1724999,0.40222588181495667,-0.2717418968677521,9.976638793945312,5.31005859375,-0.244140625,-0.06103515625
1.1774999000000002,0.3082534670829773,-0.27054479718208313,9.668983459472656,-5.9814453125,-0.885009765625,1.434326171875
1.1824999,0.3603273630142212,-0.21966800093650818,9.992799758911133,4.7607421875,-0.274658203125,0.54931640625
1.1874999000000002,0.26575639843940735,-0.19213469326496124,9.643245697021484,-6.072998046875,-0.42724609375,1.129150390625
1.1924999,0.4794389009475708,-0.24600422382354736,9.671976089477539,2.50244140625,0.335693359375,-2.593994140625
1.1974999000000002,0.3776853084564209,-0.24181437492370605,9.964667320251465,3.387451171875,-0.213623046875,1.007080078125
1.2024999,0.3387795388698578,-0.2687491476535797,9.98681354522705,2.62451171875,0.396728515625,1.40380859375
1.2074999000000002,0.3411737382411957,-0.26994624733924866,9.600150108337402,-5.4931640625,0.30517578125,0.06103515625
1.2124999,0.5404910445213318,-0.27653029561042786,9.832986831665039,4.45556640625,-0.640869140625,-2.532958984375
1.2174999000000002,0.33518823981285095,-0.22744916379451752,9.981427192687988,0.732421875,-0.579833984375,1.64794921875
1.2224999,0.424970805644989,-0.2585737705230713,9.544485092163086,-5.340576171875,-1.15966796875,-0.701904296875
1.2274999000000002,0.569819986820221,-0.30526071786880493,9.824007987976074,5.279541015625,-0.030517578125,-2.044677734375
1.2324999,0.50876784324646,-0.30526071786880493,9.921571731567383,6.622314453125,1.0986328125,-1.739501953125
1.2374999000000002,0.50876784324646,-0.30526071786880493,9.921571731567383,6.622314453125,1.0986328125,-1.739501953125
1.2424999,0.2472013235092163,-0.27054479718208313,9.920374870300293,-1.678466796875,-0.152587890625,2.13623046875
1.2474999000000002,0.46746787428855896,-0.33039984107017517,9.633070945739746,-3.570556640625,1.03759765625,-0.946044921875
1.2524999,0.4985924959182739,-0.31783026456832886,10.02691650390625,6.622314453125,0.823974609375,-1.15966796875
1.2574999000000002,0.28969839215278625,-0.30466216802597046,9.850942611694336,-3.47900390625,0,1.8310546875
1.2624999000000001,0.5291185975074768,-0.32202014327049255,9.610325813293457,-2.166748046875,0.823974609375,-1.953125
1.2674999000000002,0.44771572947502136,-0.2603694200515747,9.95748519897461,5.767822265625,-0.6103515625,-0.701904296875
1.2724999000000001,0.27892449498176575,-0.26336219906806946,9.775525093078613,-4.913330078125,-1.0986328125,1.861572265625
1.2774999000000002,0.50876784324646,-0.30226796865463257,9.600150108337402,-0.946044921875,0.091552734375,-2.044677734375
1.2824999000000001,0.41359832882881165,-0.2346317619085312,9.966463088989258,5.31005859375,-0.457763671875,-0.396728515625
1.2874999,0.2861070930957794,-0.24839842319488525,9.616311073303223,-6.28662109375,-0.885009765625,1.251220703125
1.2924999000000001,0.2861070930957794,-0.24839842319488525,9.616311073303223,-6.28662109375,-0.885009765625,1.251220703125
1.2974999,0.46148237586021423,-0.19871874153614044,9.632472038269043,2.288818359375,1.28173828125,-2.593994140625
1.3024999000000002,0.3603273630142212,-0.1933317929506302,9.972448348999023,3.84521484375,0.152587890625,0.823974609375
1.3074999,0.29867666959762573,-0.27653029561042786,9.607333183288574,-6.4697265625,-0.48828125,1.007080078125
1.3124999000000002,0.517746090888977,-0.2651578485965729,9.706692695617676,3.35693359375,0.18310546875,-2.593994140625
1.3174999,0.37229835987091064,-0.29867666959762573,10.007762908935547,2.685546875,-0.42724609375,1.3427734375
1.3224999000000002,0.3471592366695404,-0.3256114423274994,9.640253067016602,-6.072998046875,0.030517578125,0.457763671875
1.3274999,0.5446808934211731,-0.272938996553421,9.854534149169922,5.035400390625,1.64794921875,-2.288818359375
1.3324999000000002,0.33099839091300964,-0.272938996553421,10.066421508789062,1.220703125,-0.152587890625,1.495361328125
1.3374999,0.3944447338581085,-0.272938996553421,9.616311073303223,-5.767822265625,-0.579833984375,-0.457763671875
1.3424999000000002,0.4405331015586853,-0.28550854325294495,9.486425399780273,-4.7607421875,-0.396728515625,-0.946044921875
1.3474999,0.5345055460929871,-0.3315969407558441,9.827000617980957,5.9814453125,0.42724609375,-1.983642578125
1.3524999000000002,0.2621650993824005,-0.25318682193756104,9.885659217834473,-1.251220703125,-0.091552734375,2.044677734375
1.3574999,0.41718965768814087,-0.25737667083740234,9.546280860900879,-3.90625,0.579833984375,-1.373291015625
1.3624999000000002,0.47644615173339844,-0.32381579279899597,9.974244117736816,5.950927734375,0.213623046875,-1.434326171875
1.3674999,0.24361002445220947,-0.28131869435310364,9.870096206665039,-2.655029296875,-0.42724609375,2.166748046875
1.3724999000000002,0.5045779943466187,-0.304063618183136,9.603741645812988,-2.50244140625,-0.030517578125,-1.8310546875
1.3774999,0.47225627303123474,-0.3429693877696991,9.996390342712402,6.011962890625,-0.335693359375,-1.007080078125
1.3824999000000002,0.2861070930957794,-0.26396074891090393,9.798270225524902,-4.21142578125,-0.42724609375,2.166748046875
1.3874999000000001,0.5309142470359802,-0.2825157940387726,9.651625633239746,-2.0751953125,-0.091552734375,-2.0751953125
1.3924999000000002,0.42377370595932007,-0.2968810200691223,9.997588157653809,5.67626953125,0.244140625,-0.54931640625
1.3974999000000001,0.2998737692832947,-0.262763649225235,9.733028411865234,-5.645751953125,-0.3662109375,1.40380859375
1.4024999000000002,0.46806642413139343,-0.228047713637352,9.678560256958008,1.8310546875,1.77001953125,-2.38037109375
1.4074999000000001,0.3447650372982025,-0.2322375625371933,10.02811336517334,4.33349609375,-0.640869140625,0.54931640625
1.4124999,0.2687491476535797,-0.1867477297782898,9.6618013381958,-6.2255859375,-1.434326171875,0.885009765625
1.4174999000000001,0.4704606235027313,-0.2472013235092163,9.665990829467773,3.143310546875,1.3427734375,-2.38037109375
1.4224999,0.37169981002807617,-0.272938996553421,9.926360130310059,3.509521484375,0.762939453125,1.28173828125
1.4274999000000002,0.3274070918560028,-0.2795230448246002,9.529520988464355,-6.195068359375,1.129150390625,0.701904296875
1.4324999,0.5410895943641663,-0.33339259028434753,9.624092102050781,4.33349609375,1.129150390625,-2.5634765625
1.4374999000000002,0.3495534360408783,-0.272938996553421,9.893440246582031,2.471923828125,0.30517578125,1.495361328125
1.4424999,0.36750996112823486,-0.26755204796791077,9.482834815979004,-5.340576171875,0.67138671875,-0.030517578125
1.4474999000000002,0.35075053572654724,-0.25977087020874023,9.921571731567383,0.3662109375,-0.274658203125,2.13623046875
1.4524999,0.44771572947502136,-0.2711433470249176,9.529520988464355,-5.67626953125,0.091552734375,-0.48828125
1.4574999000000002,0.5776011347770691,-0.34835633635520935,9.8784761428833,5.9814453125,0.701904296875,-1.983642578125
1.4624999,0.31364041566848755,-0.24121582508087158,9.961674690246582,-0.579833984375,-0.152587890625,2.044677734375
1.4674999000000002,0.4315548539161682,-0.26336219906806946,9.631275177001953,-4.33349609375,0.335693359375,-0.885009765625
1.4724999,0.5039794445037842,-0.30286651849746704,10.053253173828125,5.7373046875,-0.091552734375,-1.89208984375
1.4774999000000002,0.23942017555236816,-0.23044191300868988,9.974244117736816,-2.655029296875,-0.244140625,2.01416015625
1.4824999,0.48303020000457764,-0.2849099934101105,9.66299819946289,-3.265380859375,0.91552734375,-1.220703125
1.4874999000000002,0.4704606235027313,-0.333991140127182,10.001178741455078,6.28662109375,0.244140625,-1.15966796875
1.4924999,0.27653029561042786,-0.28790274262428284,9.834781646728516,-3.47900390625,-0.640869140625,1.861572265625
1.4974999000000002,0.5105634927749634,-0.3172317147254944,9.621099472045898,-1.983642578125,-0.762939453125,-1.89208984375
1.5024999,0.4231751561164856,-0.31783026456832886,10.010157585144043,6.2255859375,0.213623046875,-0.67138671875
1.5074999000000002,0.4207809567451477,-0.27413609623908997,10.002376556396484,5.0048828125,-0.48828125,-0.030517578125
1.5124999000000001,0.32860419154167175,-0.26396074891090393,9.667786598205566,-5.706787109375,-1.190185546875,1.495361328125
1.5174999000000002,0.5003881454467773,-0.25079262256622314,9.585784912109375,0.823974609375,0.030517578125,-2.5634765625
1.5224999000000001,0.4620809257030487,-0.22924481332302094,9.602544784545898,1.8310546875,-0.457763671875,-2.777099609375
1.5274999000000002,0.363918662071228,-0.23403321206569672,9.9185791015625,3.5400390625,-0.091552734375,1.03759765625
1.5324999000000001,0.30885201692581177,-0.26575639843940735,9.548076629638672,-6.256103515625,-0.213623046875,0.48828125
1.5374999000000003,0.535702645778656,-0.32202014327049255,9.66958236694336,3.5400390625,0.48828125,-2.655029296875
1.5424999000000001,0.35434186458587646,-0.28072014451026917,9.948506355285645,2.349853515625,-0.244140625,1.64794921875
1.5474999,0.34835633635520935,-0.29867666959762573,9.570821762084961,-6.195068359375,-0.244140625,0.213623046875
1.5524999000000002,0.3214215636253357,-0.2579752206802368,9.992799758911133,1.007080078125,-0.54931640625,1.983642578125
1.5574999,0.40940847992897034,-0.2603694200515747,9.5624418258667,-5.79833984375,-0.152587890625,-0.3662109375
1.5624999000000002,0.5638344883918762,-0.314238965511322,9.865307807922363,5.523681640625,1.129150390625,-2.01416015625
1.5674999,0.3148375153541565,-0.24839842319488525,9.911396026611328,-0.48828125,-0.152587890625,2.197265625
1.5724999000000002,0.42197805643081665,-0.2651578485965729,9.546878814697266,-4.486083984375,0.67138671875,-0.48828125
1.5774999,0.4991910457611084,-0.314238965511322,9.934141159057617,6.591796875,1.312255859375,-1.64794921875
1.5824999000000002,0.23702596127986908,-0.24181437492370605,9.913191795349121,-1.77001953125,-0.213623046875,2.044677734375
1.5874999,0.4704606235027313,-0.28131869435310364,9.613917350769043,-3.631591796875,-0.213623046875,-1.434326171875
1.5924999000000002,0.5009866952896118,-0.322618693113327,9.978434562683105,6.072998046875,-0.274658203125,-1.3427734375
1.5974999,0.3166331648826599,-0.28371289372444153,9.82759952545166,-3.387451171875,-0.640869140625,1.89208984375
1.6024999000000002,0.5596446394920349,-0.3196259140968323,9.57321548461914,-2.197265625,0.091552734375,-1.953125
1.6074999,0.47405192255973816,-0.3076549172401428,9.941324234008789,6.34765625,0.67138671875,-0.67138671875
1.6124999000000002,0.424970805644989,-0.2777273952960968,9.962273597717285,6.072998046875,1.007080078125,-0.030517578125
1.6174999,0.3256114423274994,-0.29628247022628784,9.707889556884766,-5.06591796875,0.152587890625,1.617431640625
1.6224999000000002,0.5063736438751221,-0.2849099934101105,9.623494148254395,0.030517578125,0.091552734375,-2.410888671875
1.6274999,0.3770867586135864,-0.2519897222518921,10.002974510192871,4.974365234375,0.3662109375,0.579833984375
1.6324999000000002,0.27413609623908997,-0.21847090125083923,9.640253067016602,-5.889892578125,-0.54931640625,1.3427734375
1.6374999000000001,0.45489832758903503,-0.22026655077934265,9.636063575744629,2.0751953125,0.54931640625,-2.685546875
1.6424999000000002,0.3519476354122162,-0.2190694510936737,9.95090103149414,3.875732421875,-0.091552734375,0.9765625
1.6474999000000001,0.2885012924671173,-0.262763649225235,9.571419715881348,-6.28662109375,-1.007080078125,0.79345703125
1.6524999000000002,0.5063736438751221,-0.31603461503982544,9.687539100646973,3.814697265625,0.946044921875,-2.777099609375
1.6574999000000001,0.33997663855552673,-0.27712884545326233,9.972448348999023,2.593994140625,0,1.251220703125
1.6624999000000003,0.32860419154167175,-0.2974795699119568,9.59177017211914,-5.584716796875,-0.3662109375,0.091552734375
1.6674999000000001,0.4076128304004669,-0.26815059781074524,9.567230224609375,-5.523681640625,0.274658203125,-0.335693359375
1.6724999,0.5668272376060486,-0.3250128924846649,9.840168952941895,5.035400390625,0.274658203125,-2.105712890625
1.6774999000000002,0.322618693113327,-0.28550854325294495,9.894637107849121,-0.762939453125,-0.335693359375,2.13623046875
1.6824999,0.4315548539161682,-0.31184476613998413,9.520543098449707,-4.57763671875,-0.06103515625,-0.8544921875
1.6874999000000002,0.5111620426177979,-0.31124621629714966,9.912593841552734,6.04248046875,0.335693359375,-1.922607421875
1.6924999,0.24839842319488525,-0.26575639843940735,9.924564361572266,-2.25830078125,-0.457763671875,2.166748046875
1.6974999000000002,0.4626794755458832,-0.2992752194404602,9.621698379516602,-3.5400390625,0.42724609375,-1.28173828125
1.7024999,0.4920084476470947,-0.3100491166114807,10.013150215148926,6.439208984375,0.579833984375,-1.46484375
1.7074999000000002,0.28969839215278625,-0.31364041566848755,9.88625717163086,-3.47900390625,-0.1220703125,1.983642578125
1.7124999,0.5303156971931458,-0.3555389642715454,9.64683723449707,-2.3193359375,0.18310546875,-1.678466796875
1.7174999000000002,0.46088382601737976,-0.2974795699119568,10.034697532653809,6.7138671875,1.129150390625,-0.79345703125
1.7224999,0.2645592987537384,-0.25498247146606445,9.634267807006836,-6.103515625,-0.48828125,1.28173828125
1.7274999000000002,0.4405331015586853,-0.18614917993545532,9.654618263244629,2.50244140625,1.007080078125,-2.62451171875
1.7324999,0.3363853394985199,-0.228047713637352,9.958083152770996,3.5400390625,0.54931640625,1.007080078125
1.7374999000000002,0.2711433470249176,-0.27413609623908997,9.563638687133789,-6.103515625,0.030517578125,0.640869140625
1.7424999,0.5057750940322876,-0.2944868206977844,9.64923095703125,3.204345703125,-0.762939453125,-2.99072265625
1.7474999000000002,0.33937808871269226,-0.30526071786880493,9.916184425354004,2.410888671875,-0.42724609375,1.3427734375
1.7524999,0.33937808871269226,-0.30705636739730835,9.5408935546875,-6.011962890625,-0.579833984375,0.213623046875
1.7574999000000002,0.3315969407558441,-0.27712884545326233,9.984419822692871,0.732421875,-0.3662109375,1.8310546875
1.7624999000000001,0.5081692934036255,-0.31842881441116333,9.938331604003906,6.103515625,0.579833984375,-1.708984375
1.7674999000000002,0.24241292476654053,-0.24001872539520264,9.962273597717285,-2.349853515625,-0.701904296875,2.105712890625
1.7724999000000001,0.4596867263317108,-0.28790274262428284,9.654618263244629,-3.96728515625,-0.06103515625,-1.495361328125
1.7774999000000002,0.4866214990615845,-0.3429693877696991,10.034697532653809,6.500244140625,0.91552734375,-1.068115234375
1.7824999000000001,0.2861070930957794,-0.31364041566848755,9.886856079101562,-3.021240234375,-0.457763671875,2.044677734375
1.7874999000000003,0.524330198764801,-0.3429693877696991,9.642647743225098,-2.5634765625,-1.40380859375,-2.0751953125
1.7924999000000001,0.5057750940322876,-0.2861070930957794,9.633668899536133,-0.885009765625,-0.579833984375,-2.5634765625
1.7974999,0.4016273319721222,-0.26994624733924866,9.967659950256348,5.645751953125,-0.213623046875,-0.1220703125
1.8024999000000002,0.3106476664543152,-0.2819172441959381,9.691129684448242,-5.67626953125,-0.54931640625,1.708984375
1.8074999,0.4944026470184326,-0.28072014451026917,9.565434455871582,0.701904296875,-0.885009765625,-2.716064453125
1.8124999000000002,0.3734954595565796,-0.25318682193756104,9.95090103149414,5.218505859375,0.152587890625,0.42724609375
1.8174999,0.2711433470249176,-0.22744916379451752,9.616311073303223,-6.04248046875,0.30517578125,1.3427734375
1.8224999000000002,0.4513070285320282,-0.23523031175136566,9.636661529541016,1.8310546875,-0.6103515625,-2.86865234375
1.8274999,0.3489548861980438,-0.23403321206569672,9.968857765197754,3.631591796875,-0.274658203125,0.91552734375
1.8324999000000002,0.2849099934101105,-0.2783259451389313,9.583391189575195,-6.28662109375,-0.3662109375,0.8544921875
1.8374999,0.5009866952896118,-0.32202014327049255,9.673172950744629,3.90625,1.46484375,-2.532958984375
1.8424999000000002,0.5363011956214905,-0.2693476974964142,9.830592155456543,4.39453125,-0.06103515625,-2.410888671875
1.8474999,0.32860419154167175,-0.23403321206569672,10.031704902648926,1.007080078125,-0.6103515625,1.64794921875
1.8524999000000002,0.4082113802433014,-0.26755204796791077,9.582193374633789,-5.37109375,-0.579833984375,-0.579833984375
1.8574999,0.5680243372917175,-0.32381579279899597,9.852140426635742,5.950927734375,0.579833984375,-1.922607421875
1.8624999000000002,0.3274070918560028,-0.2645592987537384,9.919178009033203,-0.79345703125,-0.762939453125,1.953125
1.8674999,0.43035775423049927,-0.284311443567276,9.543886184692383,-5.7373046875,-1.434326171875,-1.068115234375
1.8724999000000002,0.5123591423034668,-0.292691171169281,9.953893661499023,6.591796875,1.434326171875,-1.5869140625
1.8774999,0.24420857429504395,-0.25677812099456787,9.96825885772705,-1.8310546875,-0.091552734375,2.13623046875
1.8824999000000002,0.46088382601737976,-0.3166331648826599,9.659406661987305,-3.509521484375,-1.220703125,-1.77001953125
1.8874999000000001,0.48901569843292236,-0.3381809890270233,10.045472145080566,6.16455078125,-0.335693359375,-1.28173828125
1.8924999000000002,0.28311434388160706,-0.3274070918560028,9.884461402893066,-3.5400390625,-0.579833984375,2.01416015625
1.8974999000000001,0.2867056429386139,-0.25079262256622314,9.81263542175293,-4.669189453125,-0.48828125,1.953125
1.9024999000000002,0.2867056429386139,-0.25079262256622314,9.81263542175293,-4.669189453125,-0.48828125,1.953125
1.9074999000000001,0.5237316489219666,-0.2849099934101105,9.633668899536133,-0.54931640625,0.946044921875,-2.3193359375
1.9124999000000003,0.43275195360183716,-0.2256535142660141,9.976638793945312,5.67626953125,-0.3662109375,-0.18310546875
1.9174999000000001,0.322618693113327,-0.29209262132644653,9.706093788146973,-5.79833984375,-1.03759765625,1.5869140625
1.9224999,0.456095427274704,-0.21009120345115662,9.683348655700684,2.471923828125,-1.03759765625,-3.11279296875
1.9274999000000002,0.34835633635520935,-0.20769700407981873,9.996390342712402,3.96728515625,-0.18310546875,1.007080078125
1.9324999,0.2861070930957794,-0.2992752194404602,9.608530044555664,-6.16455078125,0.48828125,0.91552734375
1.9374999000000002,0.5039794445037842,-0.29568392038345337,9.702502250671387,3.72314453125,0.30517578125,-2.899169921875
1.9424999,0.42018240690231323,-0.29568392038345337,9.564237594604492,-5.126953125,0.06103515625,-0.30517578125
1.9474999000000002,0.585382342338562,-0.28969839215278625,9.822212219238281,5.462646484375,-0.640869140625,-2.349853515625
1.9524999,0.3477577865123749,-0.3016694188117981,9.864110946655273,-0.946044921875,-1.190185546875,1.861572265625
1.9574999000000002,0.4423287510871887,-0.3172317147254944,9.495404243469238,-4.364013671875,0.54931640625,-0.946044921875
1.9624999,0.5201402902603149,-0.292691171169281,9.907805442810059,6.4697265625,0.79345703125,-1.64794921875
1.9674999000000002,0.24121582508087158,-0.30526071786880493,9.936535835266113,-1.983642578125,-0.213623046875,2.13623046875
1.9724999,0.4513070285320282,-0.31842881441116333,9.640851974487305,-3.72314453125,1.64794921875,-1.373291015625
1.9774999000000002,0.4878185987472534,-0.3010708689689636,10.044873237609863,6.103515625,0.030517578125,-1.220703125
1.9824999,0.2819172441959381,-0.3250128924846649,9.892841339111328,-3.662109375,-0.79345703125,2.0751953125
1.9874999000000002,0.284311443567276,-0.2735375463962555,9.859322547912598,-4.2724609375,-0.396728515625,2.044677734375
1.9924999,0.5219359993934631,-0.26755204796791077,9.661202430725098,-0.6103515625,0.946044921875,-2.13623046875
1.9974999000000002,0.41778820753097534,-0.26156654953956604,9.992799758911133,5.615234375,0.48828125,-0.274658203125
2.0024999,0.3190273642539978,-0.25079262256622314,9.664793968200684,-5.37109375,-0.1220703125,1.922607421875
2.0074999,0.4991910457611084,-0.22385786473751068,9.545681953430176,-0.06103515625,0.244140625,-2.25830078125
2.0124999000000003,0.3597288131713867,-0.23104046285152435,9.870695114135742,5.157470703125,0.48828125,0.18310546875
2.0174999000000002,0.2495955228805542,-0.1933317929506302,9.545083999633789,-5.401611328125,0.3662109375,1.190185546875
2.0224999,0.42197805643081665,-0.23403321206569672,9.593565940856934,2.0751953125,0.274658203125,-2.655029296875
2.0274999,0.3232172429561615,-0.2603694200515747,9.922768592834473,3.96728515625,-0.152587890625,0.8544921875
2.0324999000000004,0.2711433470249176,-0.2783259451389313,9.570222854614258,-6.16455078125,-0.335693359375,0.67138671875
2.0374999000000003,0.49799394607543945,-0.3315969407558441,9.652822494506836,3.631591796875,1.434326171875,-2.50244140625
2.0424999,0.33937808871269226,-0.29388827085494995,9.584588050842285,-5.950927734375,0.213623046875,0.30517578125
2.0474999,0.5434837937355042,-0.2998737692832947,9.814431190490723,4.33349609375,0.42724609375,-2.471923828125
2.0524999,0.33518823981285095,-0.2513911724090576,10.043676376342773,1.15966796875,-0.518798828125,1.678466796875
2.0574999000000003,0.406415730714798,-0.2519897222518921,9.597756385803223,-5.4931640625,-0.396728515625,-0.274658203125
2.0624999,0.5740098357200623,-0.3100491166114807,9.858125686645508,5.55419921875,0.885009765625,-1.861572265625
2.0674999,0.3357867896556854,-0.2454056739807129,9.888651847839355,-0.457763671875,-0.640869140625,1.953125
2.0724999,0.43335050344467163,-0.25079262256622314,9.495404243469238,-5.035400390625,-0.79345703125,-1.007080078125
2.0774999000000003,0.5231330990791321,-0.31364041566848755,9.864110946655273,5.92041015625,-0.30517578125,-1.861572265625
2.0824999,0.4908113479614258,-0.3477577865123749,9.984419822692871,6.2255859375,0.48828125,-1.495361328125
2.0874999,0.28072014451026917,-0.30047231912612915,9.84495735168457,-2.99072265625,-0.06103515625,2.227783203125
2.0924999,0.44831427931785583,-0.3232172429561615,9.956287384033203,5.767822265625,-0.79345703125,-0.946044921875
2.0974999000000003,0.2777273952960968,-0.25737667083740234,9.762955665588379,-4.8828125,-1.434326171875,2.13623046875
2.1024999,0.5165489912033081,-0.2944868206977844,9.591172218322754,-0.54931640625,1.312255859375,-2.13623046875
2.1074999,0.4183867573738098,-0.2663549482822418,9.940725326538086,5.889892578125,0.6103515625,-0.1220703125
2.1124999,0.31364041566848755,-0.27712884545326233,9.710882186889648,-5.340576171875,0.274658203125,2.105712890625
2.1174999000000003,0.5063736438751221,-0.26336219906806946,9.616311073303223,0.213623046875,-0.091552734375,-2.471923828125
2.1224999,0.37888240814208984,-0.24361002445220947,9.997588157653809,4.913330078125,0.152587890625,0.213623046875
2.1274999,0.2759317457675934,-0.2214636504650116,9.68933391571045,-6.2255859375,-0.274658203125,1.251220703125
2.1324999,0.45489832758903503,-0.21966800093650818,9.680954933166504,1.953125,0.67138671875,-2.50244140625
2.1374999000000003,0.3489548861980438,-0.22685061395168304,10.011354446411133,3.72314453125,-0.54931640625,0.79345703125
2.1424999000000002,0.2819172441959381,-0.2513911724090576,9.620500564575195,-6.805419921875,-1.15966796875,0.640869140625
2.1474999,0.4991910457611084,-0.3100491166114807,9.676166534423828,3.448486328125,0.3662109375,-2.410888671875
2.1524999,0.3345896899700165,-0.2885012924671173,9.592369079589844,-5.523681640625,0.640869140625,0.091552734375
2.1574999000000004,0.5386953949928284,-0.28131869435310364,9.806051254272461,5.218505859375,-0.030517578125,-2.74658203125
2.1624999000000003,0.33518823981285095,-0.22505496442317963,10.040084838867188,1.52587890625,-0.762939453125,1.64794921875
2.1674999,0.4034229815006256,-0.24420857429504395,9.589975357055664,-5.584716796875,0.30517578125,-0.030517578125
2.1724999,0.5770025849342346,-0.29807811975479126,9.835979461669922,4.913330078125,-0.640869140625,-2.166748046875
2.1774999000000004,0.33758243918418884,-0.2472013235092163,9.910798072814941,-0.732421875,-0.91552734375,2.13623046875
2.1824999000000003,0.4387374520301819,-0.27473464608192444,9.517550468444824,-5.18798828125,-0.396728515625,-0.640869140625
2.1874999,0.5219359993934631,-0.3064578175544739,9.907206535339355,6.34765625,1.03759765625,-1.8310546875
2.1924999,0.2513911724090576,-0.23343466222286224,9.947309494018555,-1.46484375,0.518798828125,2.166748046875
2.1974999,0.4429273009300232,-0.28790274262428284,9.625288963317871,-3.143310546875,1.52587890625,-1.251220703125
2.2024999000000003,0.48303020000457764,-0.304063618183136,10.017938613891602,6.683349609375,1.617431640625,-1.15966796875
2.2074999,0.26396074891090393,-0.2932897210121155,9.875483512878418,-3.265380859375,0.18310546875,2.197265625
2.2124999,0.43754035234451294,-0.3082534670829773,9.99220085144043,6.256103515625,0.18310546875,-0.885009765625
2.2174999,0.26396074891090393,-0.27413609623908997,9.792284965515137,-4.2724609375,-0.518798828125,1.8310546875
2.2224999000000003,0.5027823448181152,-0.3034650683403015,9.605537414550781,-0.79345703125,0.396728515625,-2.532958984375
2.2274999,0.4129997789859772,-0.24480712413787842,9.950302124023438,5.9814453125,0.701904296875,-0.06103515625
2.2324999,0.30286651849746704,-0.2902969419956207,9.702502250671387,-5.37109375,0.030517578125,1.800537109375
2.2374999,0.5081692934036255,-0.2890998423099518,9.601945877075195,0.3662109375,0.091552734375,-2.716064453125
2.2424999000000003,0.45908817648887634,-0.21667525172233582,9.68933391571045,2.50244140625,1.3427734375,-2.685546875
2.2474999,0.353743314743042,-0.1885433793067932,10.004770278930664,3.875732421875,-0.3662109375,0.91552734375
2.2524999,0.2944868206977844,-0.2472013235092163,9.603142738342285,-6.378173828125,-0.48828125,0.732421875
2.2574999,0.5147533416748047,-0.27234044671058655,9.667786598205566,3.41796875,0.335693359375,-2.74658203125
2.2624999000000003,0.558447539806366,-0.26396074891090393,9.797073364257812,4.730224609375,0.9765625,-2.532958984375
2.2674999000000002,0.3519476354122162,-0.24121582508087158,10.02452278137207,1.15966796875,-0.244140625,1.922607421875
2.2724999,0.41539400815963745,-0.2753331959247589,9.592967987060547,-6.072998046875,-0.762939453125,-0.335693359375
2.2774999,0.5829881429672241,-0.2795230448246002,9.844358444213867,5.645751953125,0.762939453125,-2.38037109375
2.2824999000000004,0.345363587141037,-0.2861070930957794,9.9185791015625,-0.48828125,-0.30517578125,2.044677734375
2.2874999000000003,0.436343252658844,-0.3232172429561615,9.519944190979004,-5.06591796875,-0.640869140625,-0.762939453125
2.2924999,0.5213374495506287,-0.2902969419956207,9.898826599121094,6.40869140625,0.9765625,-2.01416015625
2.2974999,0.25438392162323,-0.28790274262428284,9.95090103149414,-1.922607421875,-0.48828125,1.922607421875
2.3024999000000004,0.4315548539161682,-0.30945056676864624,9.610923767089844,-3.570556640625,-1.708984375,-1.52587890625
2.3074999000000003,0.49380409717559814,-0.2801215946674347,10.035895347595215,6.683349609375,1.03759765625,-1.220703125
2.3124999,0.26815059781074524,-0.3315969407558441,9.896432876586914,-3.0517578125,0.42724609375,2.227783203125
2.3174999,0.48722004890441895,-0.27653029561042786,9.652822494506836,-1.03759765625,0.579833984375,-1.922607421875
2.3224999,0.3932476341724396,-0.2825157940387726,9.988609313964844,5.340576171875,0.48828125,0.213623046875
2.3274999000000003,0.292691171169281,-0.23523031175136566,9.660603523254395,-5.4931640625,-0.54931640625,1.251220703125
2.3324999,0.292691171169281,-0.23523031175136566,9.660603523254395,-5.4931640625,-0.54931640625,1.251220703125
2.3374999,0.46088382601737976,-0.21428105235099792,9.674370765686035,1.007080078125,-0.6103515625,-2.655029296875
2.3424999,0.353743314743042,-0.25318682193756104,10.013748168945312,3.72314453125,-0.06103515625,0.8544921875
2.3474999000000003,0.27473464608192444,-0.23283611238002777,9.621099472045898,-6.011962890625,-0.396728515625,0.885009765625
2.3524999,0.3687070608139038,-0.29149407148361206,9.922170639038086,3.082275390625,0.42724609375,1.3427734375
2.3574999,0.34835633635520935,-0.2861070930957794,9.548076629638672,-5.7373046875,0.42724609375,0.18310546875
2.3624999,0.557250440120697,-0.30466216802597046,9.749189376831055,4.21142578125,0.457763671875,-2.593994140625
2.3674999000000003,0.34416648745536804,-0.26096799969673157,10.01075553894043,1.46484375,-0.701904296875,1.678466796875
2.3724999,0.3968389332294464,-0.26755204796791077,9.607333183288574,-5.92041015625,-1.190185546875,-0.213623046875
2.3774999,0.5692214369773865,-0.33339259028434753,9.847949981689453,5.31005859375,1.0986328125,-2.166748046875
2.3824999,0.33937808871269226,-0.2890998423099518,9.936535835266113,0,0.091552734375,2.01416015625
2.3874999000000003,0.4381389021873474,-0.28730419278144836,9.544485092163086,-5.31005859375,-0.152587890625,-0.701904296875
2.3924999000000002,0.5333084464073181,-0.3477577865123749,9.909002304077148,5.615234375,0.06103515625,-2.0751953125
2.3974999,0.26096799969673157,-0.25258827209472656,9.94970417022705,-1.5869140625,-0.091552734375,2.13623046875
2.4024999,0.4596867263317108,-0.33339259028434753,9.973047256469727,6.53076171875,-0.091552734375,-0.8544921875
2.4074999000000004,0.2801215946674347,-0.25079262256622314,9.764751434326172,-4.058837890625,-0.79345703125,1.922607421875
2.4124999000000003,0.5201402902603149,-0.2890998423099518,9.585784912109375,-1.46484375,0.640869140625,-2.105712890625
2.4174999,0.4213795065879822,-0.27892449498176575,9.940725326538086,6.103515625,1.15966796875,-0.1220703125
2.4224999,0.31603461503982544,-0.27413609623908997,9.717466354370117,-4.730224609375,0.701904296875,1.953125
2.4274999000000004,0.5297171473503113,-0.28790274262428284,9.586981773376465,0.06103515625,0.213623046875,-2.777099609375
2.4324999000000003,0.4124012291431427,-0.27234044671058655,9.937732696533203,4.8828125,-0.6103515625,0.30517578125
2.4374999,0.3082534670829773,-0.24779987335205078,9.600749015808105,-5.9814453125,-0.946044921875,1.129150390625
2.4424999,0.48303020000457764,-0.22445641458034515,9.61331844329834,1.251220703125,-0.152587890625,-2.838134765625
2.4474999,0.3621230125427246,-0.22744916379451752,9.97364616394043,4.608154296875,0.1220703125,0.79345703125
2.4524999000000003,0.5333084464073181,-0.3166331648826599,9.6989107131958,4.8828125,1.922607421875,-2.410888671875
2.4574999,0.3298012912273407,-0.25498247146606445,9.9772367477417,1.617431640625,0.396728515625,1.678466796875
2.4624999,0.37888240814208984,-0.2513911724090576,9.55825138092041,-5.92041015625,0.06103515625,0.06103515625
2.4674999,0.5638344883918762,-0.304063618183136,9.840168952941895,5.7373046875,1.5869140625,-2.25830078125
2.4724999000000003,0.3345896899700165,-0.2537853717803955,9.932944297790527,0.06103515625,-0.244140625,1.77001953125
2.4774999,0.4225766062736511,-0.27653029561042786,9.557653427124023,-4.94384765625,-0.152587890625,-0.701904296875
2.4824999,0.49559974670410156,-0.3166331648826599,9.983820915222168,6.40869140625,1.3427734375,-0.885009765625
2.4874999,0.31842881441116333,-0.24660277366638184,9.798270225524902,-4.33349609375,0.640869140625,2.01416015625
2.4924999000000003,0.5560533404350281,-0.2849099934101105,9.604938507080078,-1.556396484375,0.396728515625,-2.25830078125
2.4974999,0.45429977774620056,-0.24181437492370605,9.959280967712402,5.523681640625,-0.518798828125,-0.42724609375
2.5024999,0.3315969407558441,-0.2561795711517334,9.740211486816406,-5.55419921875,-1.190185546875,1.89208984375
2.5074999,0.5309142470359802,-0.27473464608192444,9.600749015808105,0.54931640625,1.46484375,-2.471923828125
2.5124999000000003,0.4076128304004669,-0.23942017555236816,9.982624053955078,5.279541015625,-0.18310546875,0.030517578125
2.5174999000000002,0.30286651849746704,-0.24361002445220947,9.667187690734863,-5.523681640625,-1.708984375,1.251220703125
2.5224999,0.47405192255973816,-0.2298433631658554,9.658209800720215,1.52587890625,0.030517578125,-2.655029296875
2.5274999,0.36152446269989014,-0.2124854028224945,10.019734382629395,4.45556640625,-0.030517578125,0.79345703125
2.5324999000000004,0.3495534360408783,-0.3034650683403015,9.576208114624023,-6.256103515625,0.6103515625,0.54931640625
2.5374999000000003,0.5440823435783386,-0.29209262132644653,9.750985145568848,4.180908203125,0.030517578125,-2.62451171875
2.5424999,0.3345896899700165,-0.24241292476654053,10.00716495513916,1.220703125,-0.579833984375,1.739501953125
2.5474999,0.37409400939941406,-0.26336219906806946,9.566033363342285,-6.195068359375,-0.6103515625,0.06103515625
2.5524999000000004,0.5500678420066833,-0.2950853705406189,9.821015357971191,5.31005859375,0.6103515625,-2.01416015625
2.5574999000000003,0.3280056416988373,-0.27054479718208313,9.914987564086914,-0.06103515625,-0.091552734375,1.922607421875
2.5624999,0.4626794755458832,-0.27892449498176575,9.946112632751465,6.34765625,-0.42724609375,-0.91552734375
2.5674999,0.2777273952960968,-0.28072014451026917,9.758766174316406,-4.364013671875,-1.007080078125,2.227783203125
2.5724999,0.5321113467216492,-0.31124621629714966,9.584588050842285,-1.28173828125,0.152587890625,-2.25830078125
2.5774999000000003,0.4315548539161682,-0.2190694510936737,9.95209789276123,5.584716796875,-0.30517578125,-0.274658203125
2.5824999,0.3172317147254944,-0.31124621629714966,9.732429504394531,-5.523681640625,-0.946044921875,1.617431640625
2.5874999,0.5285200476646423,-0.2932897210121155,9.609726905822754,0.579833984375,0.579833984375,-2.38037109375
2.5924999,0.39803603291511536,-0.2256535142660141,9.997588157653809,5.645751953125,0.9765625,0.3662109375
2.5974999000000003,0.29807811975479126,-0.27712884545326233,9.673771858215332,-5.523681640625,0.335693359375,1.3427734375
2.6024999,0.4644751250743866,-0.18315643072128296,9.677961349487305,0.885009765625,-0.823974609375,-2.655029296875
2.6074999,0.3513490855693817,-0.20051439106464386,10.035296440124512,3.84521484375,0.091552734375,0.701904296875
2.6124999,0.5033808946609497,-0.2795230448246002,9.696516990661621,2.9296875,0.48828125,-2.5634765625
2.6174999000000003,0.3728969097137451,-0.3076549172401428,9.937732696533203,2.8076171875,0.335693359375,1.251220703125
2.6224999,0.34416648745536804,-0.31783026456832886,9.552865028381348,-5.706787109375,-0.1220703125,0.67138671875
2.6274999,0.5404910445213318,-0.30466216802597046,9.713275909423828,4.21142578125,0.79345703125,-2.532958984375
2.6324999,0.3280056416988373,-0.26396074891090393,9.989806175231934,1.495361328125,0.091552734375,1.617431640625
2.6374999000000003,0.36152446269989014,-0.2669534981250763,9.576208114624023,-5.31005859375,0.48828125,-0.06103515625
2.6424999000000002,0.5440823435783386,-0.31184476613998413,9.838373184204102,5.4931640625,1.129150390625,-2.13623046875
2.6474999,0.322618693113327,-0.28790274262428284,9.940725326538086,0.244140625,-0.396728515625,1.953125
2.6524999,0.42437225580215454,-0.2735375463962555,9.545083999633789,-4.7607421875,-0.06103515625,-0.762939453125
2.6574999000000004,0.5309142470359802,-0.31184476613998413,9.913191795349121,5.79833984375,0.274658203125,-1.739501953125
2.6624999000000003,0.2603694200515747,-0.22505496442317963,9.96945571899414,-1.556396484375,-0.42724609375,2.0751953125
2.6674999,0.4183867573738098,-0.25977087020874023,9.635464668273926,-4.180908203125,0.42724609375,-1.495361328125
2.6724999,0.25677812099456787,-0.28131869435310364,9.879075050354004,-2.8076171875,-0.396728515625,2.044677734375
2.6774999000000004,0.517746090888977,-0.30526071786880493,9.585186958312988,-2.5634765625,0.54931640625,-1.89208984375
2.6824999000000003,0.4776432514190674,-0.31543606519699097,9.945513725280762,6.317138671875,0.54931640625,-0.9765625
2.6874999,0.2932897210121155,-0.25438392162323,9.762357711791992,-4.302978515625,-0.823974609375,1.861572265625
2.6924999,0.5261258482933044,-0.29209262132644653,9.61451530456543,-1.52587890625,0.213623046875,-2.044677734375
2.6974999,0.41778820753097534,-0.2902969419956207,9.992799758911133,6.103515625,0.457763671875,-0.1220703125
2.7024999000000003,0.30466216802597046,-0.2885012924671173,9.797672271728516,-5.2490234375,-0.6103515625,1.861572265625
2.7074999,0.5159504413604736,-0.29807811975479126,9.646238327026367,-0.579833984375,-0.701904296875,-2.532958984375
2.7124999,0.3944447338581085,-0.28371289372444153,9.97065258026123,5.2490234375,0.30517578125,0.30517578125
2.7174999,0.2890998423099518,-0.26815059781074524,9.643245697021484,-5.79833984375,0.06103515625,1.46484375
2.7224999000000003,0.3663128614425659,-0.2687491476535797,9.93593692779541,3.0517578125,-0.335693359375,1.0986328125
2.7274999,0.32680854201316833,-0.2890998423099518,9.554061889648438,-5.950927734375,-0.091552734375,0.732421875
2.7324999,0.5303156971931458,-0.30466216802597046,9.692925453186035,4.425048828125,1.46484375,-2.532958984375
2.7374999,0.3250128924846649,-0.2579752206802368,9.960477828979492,1.52587890625,-0.091552734375,1.373291015625
2.7424999000000003,0.36092591285705566,-0.25737667083740234,9.527127265930176,-6.011962890625,-0.67138671875,-0.274658203125
2.7474999,0.5560533404350281,-0.29568392038345337,9.782109260559082,5.06591796875,0.030517578125,-2.105712890625
2.7524999,0.3315969407558441,-0.26096799969673157,9.898826599121094,-0.152587890625,-0.54931640625,1.77001953125
2.7574999,0.4357447028160095,-0.25737667083740234,9.518148422241211,-5.584716796875,-0.48828125,-0.732421875
2.7624999000000003,0.5428852438926697,-0.32022446393966675,9.889848709106445,5.889892578125,0.579833984375,-1.64794921875
2.7674999000000002,0.2693476974964142,-0.23343466222286224,9.950302124023438,-1.46484375,-0.640869140625,2.01416015625
2.7724999,0.424970805644989,-0.2753331959247589,9.621099472045898,-4.302978515625,0.274658203125,-1.28173828125
2.7774999,0.25977087020874023,-0.2819172441959381,9.920374870300293,-2.685546875,-0.518798828125,2.25830078125
2.7824999000000004,0.52552729845047,-0.32620999217033386,9.651625633239746,-3.021240234375,0.42724609375,-1.922607421875
2.7874999000000003,0.4926069974899292,-0.34416648745536804,10.037690162658691,5.889892578125,-0.67138671875,-1.129150390625
2.7924999,0.30945056676864624,-0.28730419278144836,9.84615421295166,-4.364013671875,-0.823974609375,2.105712890625
2.7974999,0.5452794432640076,-0.304063618183136,9.651625633239746,-1.3427734375,0.762939453125,-2.227783203125
2.8024999000000004,0.30885201692581177,-0.25977087020874023,9.758167266845703,-5.096435546875,0.030517578125,1.983642578125
2.8074999000000003,0.5207388401031494,-0.28072014451026917,9.595361709594727,-0.06103515625,0.67138671875,-2.25830078125
2.8124999,0.39205053448677063,-0.2663549482822418,9.914987564086914,4.730224609375,-0.518798828125,-0.06103515625
2.8174999,0.28550854325294495,-0.25438392162323,9.579200744628906,-5.9814453125,-0.946044921875,1.434326171875
2.8224999,0.45489832758903503,-0.23044191300868988,9.566631317138672,1.190185546875,-0.091552734375,-2.532958984375
2.8274999000000003,0.3321954905986786,-0.23283611238002777,9.932944297790527,4.57763671875,-0.091552734375,0.518798828125
2.8324999,0.3669114112854004,-0.28131869435310364,9.98681354522705,2.99072265625,-0.152587890625,1.0986328125
2.8374999,0.3250128924846649,-0.30047231912612915,9.594164848327637,-6.256103515625,0,0.457763671875
2.8424999,0.5392939448356628,-0.3148375153541565,9.75936508178711,4.21142578125,1.3427734375,-2.38037109375
2.8474999000000003,0.33518823981285095,-0.25917232036590576,10.031106948852539,1.5869140625,0.06103515625,1.5869140625
2.8524999,0.3758896589279175,-0.26336219906806946,9.59177017211914,-5.828857421875,-0.42724609375,-0.213623046875
2.8574999,0.5674257874488831,-0.2950853705406189,9.84615421295166,5.18798828125,0.457763671875,-2.166748046875
2.8624999,0.34416648745536804,-0.25498247146606445,9.912593841552734,0.06103515625,-0.091552734375,1.678466796875
2.8674999000000003,0.4381389021873474,-0.2555810213088989,9.50857162475586,-5.157470703125,0.701904296875,-0.79345703125
2.8724999,0.5404910445213318,-0.31783026456832886,9.84376049041748,6.40869140625,1.40380859375,-1.495361328125
2.8774999,0.262763649225235,-0.24241292476654053,9.912593841552734,-1.46484375,-0.274658203125,2.044677734375
2.8824999,0.5045779943466187,-0.30466216802597046,9.619303703308105,-3.326416015625,-1.373291015625,-1.861572265625
2.8874999000000003,0.5045779943466187,-0.30466216802597046,9.619303703308105,-3.326416015625,-1.373291015625,-1.861572265625
2.8924999000000002,0.4620809257030487,-0.33518823981285095,9.99100399017334,5.92041015625,-0.48828125,-0.946044921875
2.8974999,0.28072014451026917,-0.2783259451389313,9.79288387298584,-4.150390625,-1.0986328125,1.77001953125
2.9024999,0.52552729845047,-0.31842881441116333,9.609128952026367,-1.40380859375,0.152587890625,-2.227783203125
2.9074999000000004,0.42676645517349243,-0.30226796865463257,9.955090522766113,6.134033203125,-0.3662109375,-0.396728515625
2.9124999000000003,0.31184476613998413,-0.2849099934101105,9.744999885559082,-4.913330078125,-1.190185546875,1.89208984375
2.9174999,0.524330198764801,-0.29388827085494995,9.607333183288574,0.1220703125,0.6103515625,-2.349853515625
2.9224999,0.3968389332294464,-0.26994624733924866,9.995193481445312,5.096435546875,-0.213623046875,0.18310546875
2.9274999000000004,0.2992752194404602,-0.2537853717803955,9.689932823181152,-5.7373046875,-0.518798828125,1.5869140625
2.9324999000000003,0.2783259451389313,-0.23822307586669922,9.671976089477539,-5.9814453125,0,1.129150390625
2.9374999,0.2783259451389313,-0.23822307586669922,9.671976089477539,-5.9814453125,0,1.129150390625
2.9424999,0.49799394607543945,-0.3130418658256531,9.682151794433594,2.86865234375,-0.18310546875,-2.655029296875
2.9474999,0.3758896589279175,-0.2849099934101105,9.956886291503906,2.655029296875,-0.091552734375,1.068115234375
2.9524999000000003,0.34416648745536804,-0.3100491166114807,9.554061889648438,-6.011962890625,-0.18310546875,0.457763671875
2.9574999,0.5404910445213318,-0.3064578175544739,9.733627319335938,4.302978515625,0.244140625,-2.62451171875
2.9624999,0.3256114423274994,-0.2555810213088989,9.998785018920898,1.556396484375,-0.30517578125,1.52587890625
2.9674999,0.3705027103424072,-0.2519897222518921,9.567828178405762,-5.4931640625,0.3662109375,0.091552734375
2.9724999000000003,0.5488707423210144,-0.3172317147254944,9.82999324798584,4.69970703125,-0.579833984375,-2.227783203125
2.9774999,0.31783026456832886,-0.2663549482822418,9.936535835266113,-0.18310546875,-0.396728515625,1.922607421875
2.9824999,0.4279635548591614,-0.2801215946674347,9.561244010925293,-4.57763671875,0.457763671875,-0.579833984375
2.9874999,0.5237316489219666,-0.33099839091300964,9.954492568969727,5.79833984375,-0.06103515625,-1.77001953125
2.9924999000000003,0.2579752206802368,-0.2867056429386139,9.889249801635742,-2.838134765625,0.640869140625,2.25830078125
2.9974999,0.5069721937179565,-0.31364041566848755,9.642048835754395,-2.471923828125,0.42724609375,-1.800537109375
3.0024999,0.44173020124435425,-0.30885201692581177,10.006566047668457,6.103515625,-0.06103515625,-0.640869140625
3.0074999,0.27234044671058655,-0.2519897222518921,9.821015357971191,-4.547119140625,-0.701904296875,2.044677734375
3.0124999000000003,0.5099649429321289,-0.2902969419956207,9.63067626953125,-1.220703125,0.152587890625,-2.410888671875
3.0174999000000002,0.4183867573738098,-0.2687491476535797,9.979631423950195,6.04248046875,0.579833984375,-0.244140625
3.0224999,0.3148375153541565,-0.2753331959247589,9.739612579345703,-5.2490234375,-0.518798828125,1.800537109375
3.0274999,0.5135562419891357,-0.27413609623908997,9.62947940826416,0.152587890625,-0.1220703125,-2.62451171875
3.0324999000000004,0.3878606855869293,-0.243011474609375,9.987412452697754,5.18798828125,-0.457763671875,0.30517578125
3.0374999000000003,0.2908954918384552,-0.22385786473751068,9.651026725769043,-6.072998046875,-1.0986328125,1.373291015625
3.0424999,0.4040215313434601,-0.2513911724090576,9.548674583435059,-5.279541015625,0.091552734375,-0.457763671875
3.0474999,0.5710170865058899,-0.30885201692581177,9.834781646728516,5.889892578125,0.274658203125,-2.25830078125
3.0524999000000004,0.3298012912273407,-0.24121582508087158,9.911994934082031,-0.30517578125,-0.396728515625,1.800537109375
3.0574999000000003,0.44352585077285767,-0.28072014451026917,9.537302017211914,-4.638671875,0.762939453125,-0.8544921875
3.0624999,0.5261258482933044,-0.32202014327049255,9.955689430236816,6.622314453125,0.946044921875,-1.953125
3.0674999,0.29149407148361206,-0.2998737692832947,9.88386344909668,-3.2958984375,-0.030517578125,2.0751953125
3.0724999000000004,0.5225345492362976,-0.3292027413845062,9.64923095703125,-2.0751953125,1.89208984375,-1.800537109375
3.0774999000000003,0.43275195360183716,-0.284311443567276,10.003573417663574,6.2255859375,0.30517578125,-0.54931640625
3.0824999,0.27892449498176575,-0.27234044671058655,9.810839653015137,-4.7607421875,-0.640869140625,2.01416015625
3.0874999,0.5183446407318115,-0.2974795699119568,9.606734275817871,-0.640869140625,-1.007080078125,-2.532958984375
3.0924999,0.4189853072166443,-0.26096799969673157,9.964667320251465,5.462646484375,-0.396728515625,0.030517578125
3.0974999000000003,0.3256114423274994,-0.2819172441959381,9.691129684448242,-5.55419921875,-0.30517578125,1.708984375
3.1024999,0.5003881454467773,-0.2603694200515747,9.618705749511719,0.91552734375,1.0986328125,-2.3193359375
3.1074999,0.37409400939941406,-0.2082955539226532,10.025120735168457,4.364013671875,-0.244140625,0.579833984375
3.1124999,0.28131869435310364,-0.2148796021938324,9.667187690734863,-6.4697265625,-0.823974609375,1.251220703125
3.1174999000000003,0.34596213698387146,-0.29149407148361206,9.596558570861816,-5.889892578125,-1.007080078125,0.030517578125
3.1224999,0.29388827085494995,-0.2968810200691223,9.946710586547852,-1.495361328125,-0.9765625,2.01416015625
3.1274999,0.4231751561164856,-0.33039984107017517,9.600150108337402,-4.058837890625,0.518798828125,-1.129150390625
3.1324999,0.4908113479614258,-0.28730419278144836,10.014347076416016,6.256103515625,-0.18310546875,-1.40380859375
3.1374999000000003,0.48602294921875,-0.34356793761253357,9.655217170715332,-2.44140625,0.67138671875,-1.89208984375
3.1424999000000002,0.4704606235027313,-0.25917232036590576,10.026318550109863,6.256103515625,-0.030517578125,-1.007080078125
3.1474999,0.27473464608192444,-0.3034650683403015,9.815628051757812,-4.302978515625,-0.823974609375,2.0751953125
3.1524999,0.5207388401031494,-0.28131869435310364,9.625887870788574,-1.3427734375,1.068115234375,-2.197265625
3.1574999000000004,0.4213795065879822,-0.24660277366638184,9.959280967712402,5.9814453125,-0.213623046875,-0.48828125
3.1624999000000003,0.2950853705406189,-0.30705636739730835,9.756970405578613,-4.974365234375,-0.640869140625,1.800537109375
3.1674999,0.5195417404174805,-0.2950853705406189,9.589975357055664,0.18310546875,1.3427734375,-2.349853515625
3.1724999,0.40043023228645325,-0.26336219906806946,9.923966407775879,5.43212890625,0.3662109375,0.18310546875
3.1774999000000004,0.3058592677116394,-0.28131869435310364,9.607931137084961,-5.828857421875,-0.640869140625,1.495361328125
3.1824999000000003,0.46567222476005554,-0.1933317929506302,9.575011253356934,1.64794921875,0.79345703125,-2.532958984375
3.1874999,0.3447650372982025,-0.23104046285152435,9.948506355285645,4.57763671875,0.91552734375,0.8544921875
3.1924999,0.262763649225235,-0.20530278980731964,9.61331844329834,-5.462646484375,0.701904296875,1.28173828125
3.1974999000000004,0.5333084464073181,-0.304063618183136,9.729436874389648,4.180908203125,1.678466796875,-2.349853515625
3.2024999000000003,0.4159925580024719,-0.2801215946674347,9.530119895935059,-5.462646484375,-0.823974609375,-0.6103515625
3.2074999,0.5321113467216492,-0.32620999217033386,9.90241813659668,5.67626953125,0.457763671875,-1.8310546875
3.2124999,0.26575639843940735,-0.22864626348018646,9.954492568969727,-1.64794921875,-0.335693359375,1.983642578125
3.2174999,0.4387374520301819,-0.2585737705230713,9.632472038269043,-4.57763671875,-0.18310546875,-1.3427734375
3.2224999000000003,0.5045779943466187,-0.3292027413845062,10.026318550109863,6.011962890625,0.30517578125,-1.373291015625
3.2274999,0.5351040959358215,-0.2663549482822418,9.64923095703125,-1.434326171875,1.40380859375,-2.197265625
3.2324999,0.424970805644989,-0.27234044671058655,9.99100399017334,5.950927734375,0.579833984375,-0.396728515625
3.2374999,0.3148375153541565,-0.26575639843940735,9.765948295593262,-4.8828125,-0.213623046875,1.800537109375
3.2424999000000003,0.5153518915176392,-0.2890998423099518,9.603741645812988,0.091552734375,0.30517578125,-2.471923828125
3.2474999,0.3878606855869293,-0.2902969419956207,9.979631423950195,5.096435546875,0.152587890625,0
3.2524999,0.29388827085494995,-0.24420857429504395,9.673172950744629,-6.28662109375,-0.579833984375,1.3427734375
3.2574999,0.4572925269603729,-0.21787235140800476,9.667187690734863,1.5869140625,0.91552734375,-2.716064453125
3.2624999000000003,0.3513490855693817,-0.23582886159420013,10.019135475158691,3.631591796875,-0.42724609375,0.732421875
3.2674999000000002,0.2693476974964142,-0.21966800093650818,9.616909980773926,-6.4697265625,-0.67138671875,1.068115234375
3.2724999,0.3513490855693817,-0.29149407148361206,9.855731010437012,2.777099609375,-0.54931640625,1.03759765625
3.2774999,0.33339259028434753,-0.2849099934101105,9.469666481018066,-6.378173828125,-0.91552734375,0.213623046875
3.2824999000000004,0.5404910445213318,-0.2950853705406189,9.640851974487305,3.47900390625,-0.3662109375,-2.38037109375
3.2874999000000003,0.33339259028434753,-0.24600422382354736,9.916184425354004,0.79345703125,-0.67138671875,1.64794921875
3.2924999,0.3878606855869293,-0.24480712413787842,9.501389503479004,-5.92041015625,-0.732421875,-0.030517578125
3.2974999,0.5662286877632141,-0.3256114423274994,9.799467086791992,5.157470703125,-0.152587890625,-2.0751953125
3.3024999000000004,0.3321954905986786,-0.27712884545326233,9.895833969116211,-0.274658203125,-0.640869140625,1.861572265625
3.3074999000000003,0.43993455171585083,-0.27892449498176575,9.544485092163086,-4.913330078125,-0.640869140625,-1.007080078125
3.3124999,0.5321113467216492,-0.3274070918560028,9.930550575256348,6.256103515625,1.28173828125,-1.800537109375
3.3174999,0.2585737705230713,-0.2388216257095337,9.982624053955078,-1.64794921875,0,2.13623046875
3.3224999000000004,0.44352585077285767,-0.2717418968677521,9.654618263244629,-3.631591796875,0.30517578125,-1.190185546875
3.3274999000000003,0.48243165016174316,-0.3381809890270233,10.04188060760498,6.2255859375,0.396728515625,-1.28173828125
3.3324999,0.26396074891090393,-0.3010708689689636,9.896432876586914,-3.021240234375,-0.274658203125,2.01416015625
3.3374999,0.5129576921463013,-0.32441434264183044,9.638457298278809,-2.9296875,-0.457763671875,-1.8310546875
3.3424999,0.444722980260849,-0.3411737382411957,9.999382972717285,6.317138671875,1.03759765625,-0.48828125
3.3474999000000003,0.28371289372444153,-0.25258827209472656,9.831191062927246,-4.638671875,0.091552734375,2.166748046875
3.3524999,0.5141547918319702,-0.26096799969673157,9.620500564575195,-1.3427734375,0,-2.227783203125
3.3574999,0.4165911078453064,-0.27054479718208313,9.985616683959961,5.615234375,-0.244140625,-0.244140625
3.3624999,0.3076549172401428,-0.26396074891090393,9.720458984375,-5.4931640625,-0.640869140625,1.708984375
3.3674999000000003,0.4991910457611084,-0.27413609623908997,9.616909980773926,1.03759765625,0.640869140625,-2.5634765625
3.3724999,0.36750996112823486,-0.27653029561042786,10.00716495513916,5.523681640625,0.9765625,0.30517578125
3.3774999,0.2687491476535797,-0.22206220030784607,9.665990829467773,-5.7373046875,0.42724609375,1.190185546875
3.3824999,0.4495113790035248,-0.21368250250816345,9.693524360656738,2.349853515625,1.3427734375,-2.62451171875
3.3874999000000003,0.3471592366695404,-0.24181437492370605,9.99459457397461,3.662109375,-0.030517578125,0.946044921875
3.3924999000000002,0.5111620426177979,-0.3214215636253357,9.685144424438477,3.96728515625,1.52587890625,-2.5634765625
3.3974999,0.35494041442871094,-0.3058592677116394,9.988011360168457,2.471923828125,0,1.495361328125
3.4024999,0.34356793761253357,-0.292691171169281,9.594164848327637,-6.28662109375,-0.457763671875,0.244140625
3.4074999000000004,0.5506663918495178,-0.32202014327049255,9.833584785461426,4.150390625,0.244140625,-2.349853515625
3.4124999000000003,0.33758243918418884,-0.2687491476535797,10.025120735168457,0.640869140625,-0.579833984375,1.739501953125
3.4174999,0.41958385705947876,-0.2621650993824005,9.57979965209961,-5.7373046875,-0.54931640625,-0.396728515625
3.4224999,0.41958385705947876,-0.2621650993824005,9.57979965209961,-5.7373046875,-0.54931640625,-0.396728515625
3.4274999000000004,0.5710170865058899,-0.33339259028434753,9.843161582946777,5.889892578125,1.220703125,-2.13623046875
3.4324999000000003,0.3166331648826599,-0.25019407272338867,9.909002304077148,-0.8544921875,-0.335693359375,2.01416015625
3.4374999,0.424970805644989,-0.26156654953956604,9.545083999633789,-4.638671875,0.06103515625,-0.8544921875
3.4424999,0.5033808946609497,-0.3250128924846649,9.955689430236816,5.859375,0.54931640625,-1.617431640625
3.4474999000000004,0.23822307586669922,-0.2513911724090576,9.949105262756348,-2.197265625,-0.18310546875,2.166748046875
3.4524999000000003,0.4902127981185913,-0.3477577865123749,10.019734382629395,6.16455078125,-0.213623046875,-1.434326171875
3.4574999,0.2932897210121155,-0.2711433470249176,9.834781646728516,-3.509521484375,-0.91552734375,1.922607421875
3.4624999,0.5392939448356628,-0.2998737692832947,9.619303703308105,-1.953125,0.9765625,-1.953125
3.4674999,0.4489128291606903,-0.32381579279899597,9.980229377746582,5.889892578125,-0.335693359375,-0.79345703125
3.4724999000000003,0.30466216802597046,-0.25258827209472656,9.814431190490723,-4.82177734375,-1.129150390625,1.953125
3.4774999,0.5315127968788147,-0.28790274262428284,9.646238327026367,-1.0986328125,-0.9765625,-2.50244140625
3.4824999,0.41778820753097534,-0.30226796865463257,10.015543937683105,5.43212890625,-0.48828125,-0.274658203125
3.4874999,0.3130418658256531,-0.27892449498176575,9.733627319335938,-5.462646484375,-0.91552734375,1.373291015625
3.4924999000000003,0.4800374507904053,-0.2555810213088989,9.677363395690918,0.9765625,0.579833984375,-2.288818359375
3.4974999,0.3471592366695404,-0.25318682193756104,10.034697532653809,4.5166015625,-0.48828125,0.335693359375
3.5024999,0.2585737705230713,-0.19812019169330597,9.667187690734863,-6.28662109375,-1.8310546875,0.823974609375
3.5074999,0.46806642413139343,-0.22026655077934265,9.668983459472656,2.471923828125,0.274658203125,-2.471923828125
3.5124999000000003,0.3363853394985199,-0.2388216257095337,9.543886184692383,-6.317138671875,-0.91552734375,0.335693359375
3.5174999000000002,0.5602431893348694,-0.30286651849746704,9.688735961914062,3.96728515625,1.007080078125,-2.288818359375
3.5224999,0.3669114112854004,-0.27234044671058655,9.965864181518555,1.953125,0.06103515625,1.739501953125
3.5274999,0.3824737071990967,-0.27473464608192444,9.573814392089844,-6.256103515625,-0.6103515625,-0.213623046875
3.5324999000000004,0.5722141861915588,-0.3381809890270233,9.82879638671875,4.852294921875,0.48828125,-2.197265625
3.5374999000000003,0.3429693877696991,-0.2950853705406189,9.963470458984375,0.42724609375,-0.30517578125,1.983642578125
3.5424999,0.44173020124435425,-0.28969839215278625,9.55466079711914,-5.279541015625,-0.274658203125,-0.6103515625
3.5474999,0.558447539806366,-0.3519476354122162,9.897629737854004,5.462646484375,0.18310546875,-1.922607421875
3.5524999000000004,0.28969839215278625,-0.2513911724090576,9.959878921508789,-1.251220703125,-0.335693359375,2.227783203125
3.5574999000000003,0.43694180250167847,-0.26396074891090393,9.634865760803223,-4.33349609375,0.518798828125,-1.251220703125
3.5624999,0.49320554733276367,-0.3387795388698578,10.044873237609863,6.4697265625,0.6103515625,-1.52587890625
3.5674999,0.243011474609375,-0.2711433470249176,9.908403396606445,-2.349853515625,-0.06103515625,2.349853515625
3.5724999000000004,0.28730419278144836,-0.2603694200515747,9.770736694335938,-3.753662109375,-0.213623046875,2.25830078125
3.5774999000000003,0.5416881442070007,-0.30226796865463257,9.575011253356934,-1.708984375,0.152587890625,-2.166748046875
3.5824999,0.44412440061569214,-0.3100491166114807,9.955090522766113,6.103515625,0.3662109375,-0.213623046875
3.5874999,0.33518823981285095,-0.2783259451389313,9.741408348083496,-4.669189453125,0,1.739501953125
3.5924999,0.5452794432640076,-0.28131869435310364,9.61331844329834,-0.18310546875,0.06103515625,-2.50244140625
3.5974999000000003,0.4118026793003082,-0.28550854325294495,9.996989250183105,5.31005859375,0.3662109375,0.48828125
3.6024999,0.32022446393966675,-0.22505496442317963,9.694721221923828,-5.828857421875,0.213623046875,1.28173828125
3.6074999,0.48063600063323975,-0.20051439106464386,9.684545516967773,2.01416015625,1.129150390625,-2.86865234375
3.6124999,0.365115761756897,-0.23403321206569672,10.047865867614746,4.150390625,-0.18310546875,0.9765625
3.6174999000000003,0.28072014451026917,-0.2017114907503128,9.661202430725098,-6.256103515625,-0.67138671875,0.9765625
3.6224999,0.4902127981185913,-0.2902969419956207,9.709685325622559,3.509521484375,0.885009765625,-2.716064453125
3.6274999,0.3363853394985199,-0.26755204796791077,9.953893661499023,1.434326171875,-0.213623046875,1.89208984375
3.6324999,0.41359832882881165,-0.2621650993824005,9.530119895935059,-5.55419921875,0.823974609375,-0.244140625
3.6374999000000003,0.5770025849342346,-0.33039984107017517,9.797073364257812,5.2490234375,0.640869140625,-2.288818359375
3.6424999000000002,0.3274070918560028,-0.2537853717803955,9.852140426635742,-0.42724609375,-0.335693359375,1.953125
3.6474999,0.4315548539161682,-0.2454056739807129,9.466673851013184,-4.852294921875,0.030517578125,-1.068115234375
3.6524999,0.5123591423034668,-0.3130418658256531,9.84495735168457,5.92041015625,-0.335693359375,-1.8310546875
3.6574999000000004,0.25019407272338867,-0.21667525172233582,9.881468772888184,-1.861572265625,-0.79345703125,2.0751953125
3.6624999000000003,0.4818331003189087,-0.25019407272338867,9.594164848327637,-3.692626953125,-0.54931640625,-1.77001953125
3.6674999,0.5093663930892944,-0.3292027413845062,10.00716495513916,6.40869140625,0.457763671875,-1.220703125
3.6724999,0.3130418658256531,-0.2513911724090576,9.86650562286377,-3.60107421875,-0.244140625,2.166748046875
3.6774999000000004,0.45908817648887634,-0.3315969407558441,10.013748168945312,5.706787109375,-0.54931640625,-0.701904296875
3.6824999000000003,0.3082534670829773,-0.26336219906806946,9.831789016723633,-4.8828125,-1.068115234375,1.953125
3.6874999,0.535702645778656,-0.3100491166114807,9.633668899536133,-0.335693359375,1.251220703125,-2.3193359375
3.6924999,0.4183867573738098,-0.3214215636253357,9.999382972717285,5.859375,0.244140625,0.152587890625
3.6974999000000004,0.33039984107017517,-0.27473464608192444,9.689932823181152,-5.584716796875,-0.732421875,1.556396484375
3.7024999000000003,0.497395396232605,-0.243011474609375,9.641449928283691,0.762939453125,0.457763671875,-2.9296875
3.7074999,0.365115761756897,-0.24660277366638184,9.996989250183105,4.486083984375,0.030517578125,0.579833984375
3.7124999,0.2687491476535797,-0.1843535304069519,9.637260437011719,-5.889892578125,-0.030517578125,1.15966796875
3.7174999,0.46567222476005554,-0.25019407272338867,9.654618263244629,3.021240234375,1.739501953125,-2.716064453125
3.7224999000000003,0.3519476354122162,-0.26994624733924866,9.9401273727417,3.23486328125,-0.335693359375,1.129150390625
3.7274999,0.3148375153541565,-0.2663549482822418,9.561244010925293,-6.378173828125,-1.129150390625,0.579833984375
3.7324999,0.5285200476646423,-0.30885201692581177,9.700108528137207,4.058837890625,0.518798828125,-2.5634765625
3.7374999,0.5488707423210144,-0.3064578175544739,9.791088104248047,5.340576171875,1.28173828125,-2.227783203125
3.7424999000000003,0.32680854201316833,-0.25258827209472656,9.906607627868652,0.396728515625,-0.091552734375,2.01416015625
3.7474999,0.43035775423049927,-0.25677812099456787,9.519944190979004,-4.913330078125,-0.457763671875,-0.885009765625
3.7524999,0.5410895943641663,-0.34177228808403015,9.891644477844238,6.16455078125,0.8544921875,-1.8310546875
3.7574999,0.26994624733924866,-0.2454056739807129,9.953893661499023,-1.40380859375,-0.1220703125,2.197265625
3.7624999000000003,0.4471171796321869,-0.2645592987537384,9.633070945739746,-3.997802734375,0.9765625,-1.220703125
3.7674999000000002,0.4944026470184326,-0.3555389642715454,10.038289070129395,6.195068359375,0.640869140625,-1.220703125
3.7724999,0.2651578485965729,-0.2783259451389313,9.904213905334473,-2.9296875,-0.518798828125,2.197265625
3.7774999,0.5171475410461426,-0.3106476664543152,9.645041465759277,-2.899169921875,-0.762939453125,-1.983642578125
3.7824999000000004,0.4465186297893524,-0.34835633635520935,10.028712272644043,6.40869140625,0.244140625,-0.9765625
3.7874999000000003,0.27234044671058655,-0.2454056739807129,9.84376049041748,-4.425048828125,-0.54931640625,2.044677734375
3.7924999,0.39564183354377747,-0.29568392038345337,10.017938613891602,5.67626953125,-0.30517578125,-0.213623046875
3.7974999,0.2885012924671173,-0.2687491476535797,9.744999885559082,-5.31005859375,-1.007080078125,1.89208984375
3.8024999000000004,0.47644615173339844,-0.2777273952960968,9.64923095703125,0.335693359375,-0.8544921875,-2.74658203125
3.8074999000000003,0.34596213698387146,-0.2932897210121155,9.996989250183105,4.82177734375,-0.152587890625,0.335693359375
3.8124999,0.2603694200515747,-0.21966800093650818,9.650428771972656,-6.103515625,-0.152587890625,1.40380859375
3.8174999,0.45429977774620056,-0.23942017555236816,9.653421401977539,1.373291015625,-0.885009765625,-2.593994140625
3.8224999000000004,0.35673606395721436,-0.2645592987537384,9.962871551513672,3.41796875,-0.48828125,0.823974609375
3.8274999000000003,0.29568392038345337,-0.26156654953956604,9.586383819580078,-6.195068359375,-0.91552734375,0.640869140625
3.8324999,0.52552729845047,-0.32680854201316833,9.723451614379883,3.84521484375,0.030517578125,-2.5634765625
3.8374999,0.34835633635520935,-0.3064578175544739,10.00716495513916,2.349853515625,0,1.251220703125
3.8424999,0.37409400939941406,-0.2735375463962555,9.61451530456543,-5.828857421875,0.244140625,0.1220703125
3.8474999000000003,0.5937620401382446,-0.32620999217033386,9.847352027893066,4.974365234375,0.42724609375,-2.288818359375
3.8524999,0.47644615173339844,-0.2454056739807129,9.549273490905762,-5.126953125,-0.42724609375,-0.732421875
3.8574999,0.5901707410812378,-0.32680854201316833,9.855133056640625,5.67626953125,0.457763671875,-1.800537109375
3.8624999,0.30705636739730835,-0.23762452602386475,9.917980194091797,-0.8544921875,-0.030517578125,2.105712890625
3.8674999000000003,0.4429273009300232,-0.2561795711517334,9.582193374633789,-4.57763671875,0.30517578125,-1.007080078125
3.8724999,0.4944026470184326,-0.35015198588371277,10.002974510192871,6.16455078125,0.152587890625,-1.434326171875
3.8774999,0.24181437492370605,-0.2603694200515747,9.893440246582031,-2.716064453125,-0.457763671875,2.105712890625
3.8824999,0.5015852451324463,-0.30526071786880493,9.63187313079834,-2.74658203125,0.1220703125,-1.800537109375
3.8874999000000003,0.456095427274704,-0.3585317134857178,9.964069366455078,6.16455078125,0.18310546875,-0.79345703125
3.8924999000000002,0.2885012924671173,-0.2711433470249176,9.775525093078613,-3.753662109375,-0.396728515625,1.953125
3.8974999,0.5303156971931458,-0.2974795699119568,9.567230224609375,-1.40380859375,0.885009765625,-2.044677734375
3.9024999,0.436343252658844,-0.3106476664543152,9.946710586547852,6.04248046875,0.9765625,-0.3662109375
3.9074999000000004,0.32022446393966675,-0.2561795711517334,9.733028411865234,-5.06591796875,0.091552734375,1.77001953125
3.9124999000000003,0.3842693865299225,-0.28311434388160706,9.976638793945312,5.401611328125,0.48828125,0.244140625
3.9174999,0.2890998423099518,-0.23523031175136566,9.663596153259277,-5.79833984375,-0.06103515625,1.40380859375
3.9224999,0.45010992884635925,-0.2454056739807129,9.618106842041016,1.40380859375,-0.885009765625,-2.838134765625
3.9274999000000004,0.34596213698387146,-0.2645592987537384,9.96945571899414,3.936767578125,-0.06103515625,0.762939453125
3.9324999000000003,0.2867056429386139,-0.21787235140800476,9.595361709594727,-6.28662109375,-0.6103515625,0.701904296875
3.9374999,0.5057750940322876,-0.2974795699119568,9.63187313079834,3.326416015625,0.8544921875,-2.74658203125
3.9424999,0.35673606395721436,-0.26156654953956604,9.894637107849121,2.5634765625,0.274658203125,1.5869140625
3.9474999000000004,0.345363587141037,-0.25498247146606445,9.46727180480957,-6.134033203125,0,0.152587890625
3.9524999000000003,0.5428852438926697,-0.3190273642539978,9.677363395690918,4.638671875,0.48828125,-2.777099609375
3.9574999,0.32441434264183044,-0.2513911724090576,9.910199165344238,0.885009765625,-0.640869140625,1.861572265625
3.9624999,0.4010287821292877,-0.2472013235092163,9.505578994750977,-5.9814453125,-1.52587890625,-0.30517578125
3.9674999000000004,0.2890998423099518,-0.24420857429504395,9.892242431640625,-0.946044921875,-0.244140625,2.044677734375
3.9724999000000003,0.4100070297718048,-0.27892449498176575,9.52114200592041,-4.0283203125,0.67138671875,-0.946044921875
3.9774999,0.48961424827575684,-0.35733461380004883,9.941324234008789,6.195068359375,0.091552734375,-1.800537109375
3.9824999,0.2364274114370346,-0.26755204796791077,9.905410766601562,-2.25830078125,-0.640869140625,1.8310546875
3.9874999,0.48961424827575684,-0.28790274262428284,9.640253067016602,-3.5400390625,-0.213623046875,-1.52587890625
3.9924999000000003,0.48063600063323975,-0.3495534360408783,10.025120735168457,6.40869140625,0.79345703125,-1.03759765625
3.9974999,0.28730419278144836,-0.24899697303771973,9.820416450500488,-3.875732421875,-0.1220703125,1.89208984375
4.0024999,0.4950011968612671,-0.2801215946674347,9.622296333312988,-0.54931640625,-0.06103515625,-2.50244140625
4.0074999,0.3860650360584259,-0.272938996553421,9.993996620178223,5.218505859375,-0.3662109375,-0.030517578125
4.0124999,0.5027823448181152,-0.28311434388160706,9.664793968200684,2.655029296875,-0.244140625,-2.532958984375
4.0174999,0.365115761756897,-0.2669534981250763,9.955689430236816,2.716064453125,-0.396728515625,1.03759765625
4.022499900000001,0.3405751883983612,-0.26575639843940735,9.557653427124023,-6.195068359375,-1.495361328125,-0.1220703125
4.0274999000000005,0.5554547905921936,-0.32620999217033386,9.780912399291992,4.2724609375,0.6103515625,-2.410888671875
4.0324999,0.33937808871269226,-0.2783259451389313,10.008959770202637,1.068115234375,-0.3662109375,1.5869140625
4.0374999,0.4129997789859772,-0.284311443567276,9.576807022094727,-5.79833984375,-1.15966796875,-0.54931640625
4.0424999,0.5722141861915588,-0.3627215623855591,9.853337287902832,5.9814453125,0.885009765625,-2.105712890625
4.0474999,0.3250128924846649,-0.2669534981250763,9.911396026611328,-0.396728515625,-0.213623046875,1.89208984375
4.0524999,0.3250128924846649,-0.2669534981250763,9.911396026611328,-0.396728515625,-0.213623046875,1.89208984375
4.0574999,0.5171475410461426,-0.33937808871269226,9.927556991577148,5.828857421875,0.18310546875,-1.800537109375
4.062499900000001,0.25019407272338867,-0.243011474609375,9.920374870300293,-2.25830078125,-0.762939453125,2.0751953125
4.0674999000000005,0.48482584953308105,-0.2759317457675934,9.63067626953125,-3.875732421875,-0.579833984375,-1.46484375
4.0724999,0.4776432514190674,-0.34596213698387146,10.029311180114746,6.256103515625,0.06103515625,-1.03759765625
4.0774999,0.27892449498176575,-0.25258827209472656,9.856928825378418,-3.72314453125,-0.701904296875,2.01416015625
4.0824999,0.4141969084739685,-0.3106476664543152,9.989806175231934,5.92041015625,-0.6103515625,-0.518798828125
4.0874999,0.4141969084739685,-0.3106476664543152,9.989806175231934,5.92041015625,-0.6103515625,-0.518798828125
4.0924999,0.2849099934101105,-0.25019407272338867,9.792284965515137,-5.31005859375,-1.373291015625,1.678466796875
4.0974999,0.5057750940322876,-0.2759317457675934,9.611522674560547,-1.15966796875,-0.8544921875,-2.62451171875
4.1024999,0.3908534348011017,-0.27712884545326233,9.9371337890625,5.55419921875,0.091552734375,0.244140625
4.1074999000000005,0.30226796865463257,-0.24121582508087158,9.627084732055664,-5.584716796875,-0.396728515625,1.40380859375
4.1124999,0.47584760189056396,-0.21966800093650818,9.564835548400879,1.52587890625,0.54931640625,-2.74658203125
4.1174999,0.2693476974964142,-0.19213469326496124,9.59715747833252,-6.2255859375,-0.701904296875,0.91552734375
4.1224999,0.49320554733276367,-0.27892449498176575,9.65222454071045,2.50244140625,0.518798828125,-2.5634765625
4.1274999,0.3519476354122162,-0.26815059781074524,9.896432876586914,2.716064453125,-0.244140625,1.312255859375
4.1324999,0.33997663855552673,-0.27413609623908997,9.507973670959473,-6.439208984375,0.152587890625,0.640869140625
4.1374999,0.5590460896492004,-0.3256114423274994,9.6803560256958,4.39453125,0.274658203125,-2.777099609375
4.1424999,0.3531447649002075,-0.2669534981250763,9.946710586547852,1.251220703125,-0.885009765625,1.46484375
4.147499900000001,0.42616790533065796,-0.2753331959247589,9.547477722167969,-5.9814453125,-1.068115234375,-0.18310546875
4.1524999000000005,0.5913678407669067,-0.35733461380004883,9.847352027893066,5.37109375,0.244140625,-2.166748046875
4.1574999,0.3471592366695404,-0.27413609623908997,9.938331604003906,-0.518798828125,-0.579833984375,1.983642578125
4.1624999,0.2819172441959381,-0.25977087020874023,9.804854393005371,-3.96728515625,-0.9765625,1.953125
4.1674999,0.5237316489219666,-0.30466216802597046,9.584588050842285,-2.349853515625,-0.579833984375,-1.953125
4.1724999,0.4255693554878235,-0.3321954905986786,9.942521095275879,6.4697265625,0.885009765625,-0.67138671875
4.1774999,0.2908954918384552,-0.2651578485965729,9.774328231811523,-4.638671875,-0.42724609375,1.708984375
4.1824999,0.507570743560791,-0.30466216802597046,9.62828254699707,-0.579833984375,-0.457763671875,-2.685546875
4.187499900000001,0.3908534348011017,-0.29209262132644653,10.01075553894043,5.859375,0.8544921875,0.152587890625
4.1924999000000005,0.2944868206977844,-0.2537853717803955,9.701305389404297,-5.43212890625,0.30517578125,1.678466796875
4.1974999,0.45489832758903503,-0.24361002445220947,9.676166534423828,1.03759765625,-0.030517578125,-2.593994140625
4.2024999,0.3429693877696991,-0.23283611238002777,10.033500671386719,3.96728515625,-0.335693359375,0.79345703125
4.2074999,0.26156654953956604,-0.19871874153614044,9.665990829467773,-6.561279296875,-0.79345703125,0.885009765625
4.2124999,0.48303020000457764,-0.2861070930957794,9.692327499389648,2.471923828125,-0.396728515625,-2.74658203125
4.2174999,0.557250440120697,-0.3292027413845062,9.776124000549316,4.21142578125,-0.48828125,-2.593994140625
4.2224999,0.3495534360408783,-0.26815059781074524,10.022128105163574,1.0986328125,-0.823974609375,1.434326171875
4.2274999,0.41359832882881165,-0.2561795711517334,9.569623947143555,-5.859375,0.152587890625,-0.244140625
4.2324999000000005,0.5758054852485657,-0.34656068682670593,9.833584785461426,5.79833984375,1.251220703125,-1.983642578125
4.2374999,0.322618693113327,-0.2621650993824005,9.906607627868652,-0.274658203125,-0.1220703125,1.739501953125
4.2424999,0.43514615297317505,-0.2867056429386139,9.525930404663086,-4.547119140625,-0.1220703125,-1.068115234375
4.2474999,0.5135562419891357,-0.3621230125427246,9.936535835266113,6.500244140625,1.708984375,-1.52587890625
4.2524999,0.24660277366638184,-0.25917232036590576,9.926360130310059,-1.983642578125,0.640869140625,2.0751953125
4.2574999,0.47824180126190186,-0.2950853705406189,9.634865760803223,-3.143310546875,0.457763671875,-1.617431640625
4.2624999,0.4728548228740692,-0.3579331636428833,10.022727012634277,6.134033203125,-0.213623046875,-1.220703125
4.2674999,0.2777273952960968,-0.26575639843940735,9.822212219238281,-3.96728515625,-0.9765625,1.861572265625
4.272499900000001,0.424970805644989,-0.31543606519699097,9.95209789276123,6.317138671875,0.6103515625,-0.335693359375
4.2774999000000005,0.30286651849746704,-0.2585737705230713,9.749788284301758,-5.126953125,-0.152587890625,1.922607421875
4.2824999,0.5123591423034668,-0.28131869435310364,9.588179588317871,-0.091552734375,0,-2.44140625
4.2874999,0.39564183354377747,-0.27413609623908997,9.962871551513672,5.523681640625,0.244140625,0.244140625
4.2924999,0.2944868206977844,-0.24001872539520264,9.660603523254395,-5.889892578125,-0.54931640625,1.40380859375
4.2974999,0.4602852761745453,-0.23343466222286224,9.6618013381958,1.89208984375,1.068115234375,-2.655029296875
4.3024999,0.34596213698387146,-0.2519897222518921,10.034099578857422,4.547119140625,0.244140625,0.8544921875
4.3074999,0.2717418968677521,-0.22625206410884857,9.67077922821045,-6.072998046875,0,1.0986328125
4.312499900000001,0.4991910457611084,-0.3250128924846649,9.711481094360352,3.23486328125,1.129150390625,-2.532958984375
4.3174999000000005,0.365115761756897,-0.2908954918384552,9.988609313964844,2.899169921875,0.06103515625,1.46484375
4.3224999,0.5530605912208557,-0.3232172429561615,9.780313491821289,4.45556640625,0.885009765625,-2.50244140625
4.3274999,0.395043283700943,-0.2555810213088989,9.550470352172852,-5.523681640625,-0.42724609375,-0.396728515625
4.3324999,0.5452794432640076,-0.34656068682670593,9.839570045471191,5.06591796875,-0.579833984375,-2.288818359375
4.3374999,0.29149407148361206,-0.24779987335205078,9.907805442810059,-0.79345703125,-0.6103515625,2.166748046875
4.3424999,0.40462008118629456,-0.2753331959247589,9.54209041595459,-4.608154296875,0.335693359375,-0.640869140625
4.3474999,0.4878185987472534,-0.3447650372982025,9.97065258026123,6.195068359375,-0.030517578125,-1.64794921875
4.352499900000001,0.22924481332302094,-0.25917232036590576,9.946112632751465,-2.25830078125,-0.213623046875,2.166748046875
4.3574999000000005,0.48063600063323975,-0.3076549172401428,9.671976089477539,-2.777099609375,0.79345703125,-1.495361328125
4.3624999,0.4734533727169037,-0.3645172119140625,10.068815231323242,6.256103515625,0.18310546875,-1.007080078125
4.3674999,0.2801215946674347,-0.28730419278144836,9.865906715393066,-4.0283203125,-0.1220703125,2.105712890625
4.3724999,0.5213374495506287,-0.3250128924846649,9.662399291992188,-1.5869140625,-0.152587890625,-2.044677734375
4.3774999,0.4159925580024719,-0.3315969407558441,10.005967140197754,6.439208984375,0.457763671875,-0.335693359375
4.3824999,0.29568392038345337,-0.2777273952960968,9.791088104248047,-4.8828125,0.18310546875,1.739501953125
4.3874999,0.3908534348011017,-0.27473464608192444,9.947908401489258,5.157470703125,-0.8544921875,0.152587890625
4.3924999,0.2902969419956207,-0.22505496442317963,9.578003883361816,-6.317138671875,-0.54931640625,1.251220703125
4.397499900000001,0.47225627303123474,-0.23403321206569672,9.572616577148438,2.0751953125,0.8544921875,-2.655029296875
4.4024999000000005,0.3561375141143799,-0.22864626348018646,9.91738224029541,4.241943359375,-0.3662109375,0.885009765625
4.4074999,0.2801215946674347,-0.22266076505184174,9.583391189575195,-6.34765625,-0.30517578125,0.9765625
4.4124999,0.5117605924606323,-0.31364041566848755,9.671378135681152,3.60107421875,1.28173828125,-2.62451171875
4.4174999,0.3519476354122162,-0.2717418968677521,9.959280967712402,2.8076171875,-0.1220703125,1.312255859375
4.4224999,0.3489548861980438,-0.2902969419956207,9.552865028381348,-6.2255859375,-0.67138671875,0.152587890625
4.4274999,0.5554547905921936,-0.3274070918560028,9.784503936767578,5.06591796875,1.312255859375,-2.44140625
4.4324999,0.3298012912273407,-0.26336219906806946,9.97065258026123,0.9765625,-0.30517578125,1.64794921875
4.437499900000001,0.4118026793003082,-0.2663549482822418,9.551069259643555,-5.67626953125,0.152587890625,-0.48828125
4.4424999000000005,0.5518634915351868,-0.345363587141037,9.864709854125977,5.828857421875,1.007080078125,-2.044677734375
4.4474999,0.25258827209472656,-0.26096799969673157,9.946112632751465,-2.105712890625,-0.42724609375,1.89208984375
4.4524999,0.5153518915176392,-0.31543606519699097,9.679757118225098,-3.5400390625,-0.18310546875,-1.678466796875
4.4574999,0.48722004890441895,-0.3579331636428833,10.04188060760498,6.500244140625,0.885009765625,-0.946044921875
4.4624999,0.30945056676864624,-0.26815059781074524,9.835979461669922,-3.814697265625,-0.30517578125,1.922607421875
4.4674999,0.5428852438926697,-0.3130418658256531,9.619902610778809,-1.5869140625,0.274658203125,-2.0751953125
4.4724999,0.4291606545448303,-0.3016694188117981,9.967659950256348,6.28662109375,0.9765625,-0.518798828125
4.477499900000001,0.30466216802597046,-0.27413609623908997,9.730634689331055,-4.8828125,-0.244140625,1.708984375
4.4824999000000005,0.3621230125427246,-0.2495955228805542,10.001178741455078,5.035400390625,-0.1220703125,0.213623046875
4.4874999,0.26755204796791077,-0.18614917993545532,9.660005569458008,-5.950927734375,-0.946044921875,1.251220703125
4.4924999,0.45429977774620056,-0.2017114907503128,9.674370765686035,1.64794921875,0.06103515625,-2.50244140625
4.4974999,0.35494041442871094,-0.1951274424791336,9.983820915222168,3.84521484375,0.18310546875,0.9765625
4.5024999,0.292691171169281,-0.21308395266532898,9.59177017211914,-6.103515625,-0.213623046875,0.762939453125
4.5074999,0.5141547918319702,-0.29628247022628784,9.689932823181152,3.7841796875,1.068115234375,-2.685546875
4.5124999,0.3447650372982025,-0.25677812099456787,9.97603988647461,2.166748046875,-0.152587890625,1.556396484375
4.5174999,0.3495534360408783,-0.2669534981250763,9.575011253356934,-6.439208984375,-0.9765625,0.30517578125
4.522499900000001,0.5632359385490417,-0.32022446393966675,9.837775230407715,5.37109375,1.678466796875,-2.25830078125
4.5274999000000005,0.33758243918418884,-0.26096799969673157,9.99100399017334,0.91552734375,0.3662109375,1.800537109375
4.5324999,0.4357447028160095,-0.26096799969673157,9.575610160827637,-5.0048828125,0.732421875,-0.518798828125
4.5374999,0.5608417391777039,-0.3477577865123749,9.9185791015625,5.7373046875,0.457763671875,-1.800537109375
4.5424999,0.28969839215278625,-0.23762452602386475,9.974244117736816,-1.007080078125,-0.3662109375,2.13623046875
4.5474999,0.45250412821769714,-0.2801215946674347,9.622895240783691,-3.692626953125,1.007080078125,-1.373291015625
4.5524999,0.43933600187301636,-0.32860419154167175,9.996390342712402,6.34765625,0.457763671875,-0.91552734375
4.5574999,0.26755204796791077,-0.2388216257095337,9.800664901733398,-4.241943359375,-0.42724609375,1.77001953125
4.562499900000001,0.30466216802597046,-0.26396074891090393,9.701904296875,-5.79833984375,-1.40380859375,1.64794921875
4.5674999000000005,0.497395396232605,-0.26336219906806946,9.643844604492188,0.91552734375,1.15966796875,-2.532958984375
4.5724999,0.3693056106567383,-0.2651578485965729,10.030508041381836,5.0048828125,0.640869140625,0.335693359375
4.5774999,0.2777273952960968,-0.2346317619085312,9.694122314453125,-6.28662109375,0.030517578125,1.129150390625
4.5824999,0.47405192255973816,-0.2783259451389313,9.677961349487305,2.62451171875,1.28173828125,-2.50244140625
4.5874999,0.36332011222839355,-0.2645592987537384,9.980229377746582,3.387451171875,0.030517578125,1.15966796875
4.5924999,0.5351040959358215,-0.3106476664543152,9.679757118225098,4.241943359375,1.03759765625,-2.410888671875
4.5974999,0.3363853394985199,-0.25677812099456787,9.956287384033203,2.044677734375,-0.274658203125,1.5869140625
4.602499900000001,0.3734954595565796,-0.2645592987537384,9.50857162475586,-6.256103515625,-0.518798828125,-0.152587890625
4.6074999000000005,0.5662286877632141,-0.33099839091300964,9.780912399291992,6.011962890625,0.48828125,-2.471923828125
4.6124999,0.3321954905986786,-0.262763649225235,9.910199165344238,0.42724609375,-0.579833984375,1.8310546875
4.6174999,0.43933600187301636,-0.2645592987537384,9.542689323425293,-5.035400390625,0.885009765625,-0.54931640625
4.6224999,0.5374982953071594,-0.3381809890270233,9.938331604003906,6.011962890625,0.732421875,-1.8310546875
4.6274999,0.26156654953956604,-0.23104046285152435,9.986215591430664,-1.983642578125,-0.54931640625,2.105712890625
4.6324999,0.4638765752315521,-0.2867056429386139,9.661202430725098,-4.058837890625,0.274658203125,-1.3427734375
4.6374999,0.4920084476470947,-0.3561375141143799,10.052056312561035,6.8359375,1.220703125,-1.40380859375
4.6424999,0.2819172441959381,-0.27892449498176575,9.875483512878418,-3.11279296875,-0.42724609375,1.983642578125
4.647499900000001,0.5339069962501526,-0.31783026456832886,9.634865760803223,-2.044677734375,1.312255859375,-1.739501953125
4.6524999000000005,0.3076549172401428,-0.2495955228805542,9.79527759552002,-4.82177734375,-0.701904296875,1.922607421875
4.6574999,0.5351040959358215,-0.29568392038345337,9.616909980773926,-0.06103515625,1.28173828125,-1.8310546875
4.6624999,0.4189853072166443,-0.2849099934101105,9.96825885772705,5.523681640625,-0.18310546875,0.1220703125
4.6674999,0.4189853072166443,-0.2849099934101105,9.96825885772705,5.523681640625,-0.18310546875,0.1220703125
4.6724999,0.3124433159828186,-0.2579752206802368,9.643245697021484,-5.828857421875,-0.701904296875,1.46484375
4.6774999,0.46986207365989685,-0.2537853717803955,9.589376449584961,1.373291015625,0.3662109375,-2.655029296875
4.6824999,0.34656068682670593,-0.23343466222286224,9.93593692779541,4.39453125,-0.42724609375,0.640869140625
4.687499900000001,0.24839842319488525,-0.19871874153614044,9.582193374633789,-6.591796875,-0.518798828125,0.91552734375
4.6924999000000005,0.45908817648887634,-0.2795230448246002,9.628880500793457,3.021240234375,0.30517578125,-2.655029296875
4.6974999,0.3363853394985199,-0.25079262256622314,9.943717956542969,3.41796875,0.6103515625,1.3427734375
4.7024999,0.304063618183136,-0.2753331959247589,9.571419715881348,-5.859375,1.129150390625,0.54931640625
4.7074999,0.5231330990791321,-0.31783026456832886,9.779715538024902,4.119873046875,-0.06103515625,-2.50244140625
4.7124999,0.38546648621559143,-0.26156654953956604,9.588777542114258,-5.340576171875,0.30517578125,-0.54931640625
4.7174999,0.558447539806366,-0.3423708379268646,9.856928825378418,5.859375,1.190185546875,-2.0751953125
4.7224999,0.4776432514190674,-0.36332011222839355,10.002974510192871,6.591796875,0.54931640625,-1.03759765625
4.727499900000001,0.28311434388160706,-0.272938996553421,9.821614265441895,-3.90625,-0.6103515625,2.166748046875
4.7324999000000005,0.5171475410461426,-0.30705636739730835,9.616909980773926,-2.471923828125,-0.732421875,-1.983642578125
4.7374999,0.4183867573738098,-0.30047231912612915,9.983820915222168,5.9814453125,-0.3662109375,-0.54931640625
4.7424999,0.28790274262428284,-0.25438392162323,9.770736694335938,-5.0048828125,-0.579833984375,1.861572265625
4.7474999,0.3824737071990967,-0.2753331959247589,9.93474006652832,5.279541015625,-0.1220703125,0.18310546875
4.7524999,0.27892449498176575,-0.2406172752380371,9.571419715881348,-5.67626953125,-0.91552734375,1.220703125
4.7574999,0.45429977774620056,-0.24361002445220947,9.55705451965332,1.3427734375,-0.30517578125,-2.74658203125
4.7624999,0.333991140127182,-0.22864626348018646,9.903017044067383,4.0283203125,-0.18310546875,0.91552734375
4.7674999,0.2693476974964142,-0.21547815203666687,9.587580680847168,-6.195068359375,-0.8544921875,0.579833984375
4.772499900000001,0.4967968463897705,-0.29628247022628784,9.67077922821045,3.0517578125,0.42724609375,-2.9296875
4.7774999000000005,0.35913026332855225,-0.25498247146606445,9.985616683959961,2.655029296875,0.06103515625,1.40380859375
4.7824999,0.353743314743042,-0.26994624733924866,9.585186958312988,-6.103515625,-0.91552734375,0.152587890625
4.7874999,0.5662286877632141,-0.3034650683403015,9.823410034179688,4.791259765625,-0.30517578125,-2.8076171875
4.7924999,0.34356793761253357,-0.23343466222286224,9.993996620178223,0.79345703125,-0.946044921875,1.708984375
4.7974999,0.41958385705947876,-0.23582886159420013,9.552865028381348,-5.7373046875,-0.335693359375,-0.274658203125
4.8024999,0.5033808946609497,-0.36092591285705566,9.959280967712402,6.134033203125,-0.48828125,-1.8310546875
4.8074999,0.24600422382354736,-0.2849099934101105,9.894038200378418,-2.5634765625,-1.03759765625,2.105712890625
4.812499900000001,0.5069721937179565,-0.3256114423274994,9.640253067016602,-3.173828125,-0.1220703125,-1.52587890625
4.8174999000000005,0.46806642413139343,-0.3519476354122162,9.993996620178223,6.103515625,-0.152587890625,-1.007080078125
4.8224999,0.2908954918384552,-0.2669534981250763,9.782109260559082,-4.180908203125,-0.885009765625,2.044677734375
4.8274999,0.5303156971931458,-0.30945056676864624,9.571419715881348,-1.800537109375,0.18310546875,-1.861572265625
4.8324999,0.42856210470199585,-0.30286651849746704,9.90361499786377,6.103515625,0.518798828125,-0.396728515625
4.8374999,0.3130418658256531,-0.28371289372444153,9.695918083190918,-5.096435546875,-0.579833984375,1.64794921875
4.8424999,0.5129576921463013,-0.2849099934101105,9.57860279083252,-0.244140625,-0.244140625,-2.50244140625
4.8474999,0.39384618401527405,-0.262763649225235,9.960477828979492,5.218505859375,0.79345703125,0.457763671875
4.852499900000001,0.2944868206977844,-0.22086510062217712,9.613917350769043,-5.645751953125,0.091552734375,1.46484375
4.8574999000000005,0.36332011222839355,-0.23403321206569672,9.955689430236816,4.119873046875,0.67138671875,0.9765625
4.8624999,0.2819172441959381,-0.24420857429504395,9.595361709594727,-5.9814453125,0.579833984375,0.9765625
4.8674999,0.5123591423034668,-0.3076549172401428,9.718064308166504,4.119873046875,-0.06103515625,-2.74658203125
4.8724999,0.3315969407558441,-0.26096799969673157,10.008959770202637,2.5634765625,-0.091552734375,1.312255859375
4.8774999,0.35494041442871094,-0.2711433470249176,9.589376449584961,-5.859375,0.42724609375,0.213623046875
4.8824999,0.5728127360343933,-0.33039984107017517,9.862914085388184,5.9814453125,0.640869140625,-1.861572265625
4.8874999,0.2998737692832947,-0.23163901269435883,9.924564361572266,-1.190185546875,-0.42724609375,1.983642578125
4.8924999,0.4489128291606903,-0.28371289372444153,9.59596061706543,-4.2724609375,-0.518798828125,-1.40380859375
4.897499900000001,0.5021837949752808,-0.345363587141037,10.04307746887207,6.988525390625,1.678466796875,-1.556396484375
4.9024999000000005,0.4752490520477295,-0.3250128924846649,10.071807861328125,6.439208984375,0.335693359375,-0.79345703125
4.9074999,0.3076549172401428,-0.24600422382354736,9.86111831665039,-4.119873046875,-0.640869140625,1.861572265625
4.9124999,0.5452794432640076,-0.2890998423099518,9.6618013381958,-1.556396484375,0.335693359375,-2.197265625
4.9174999,0.43933600187301636,-0.2651578485965729,10.002376556396484,5.584716796875,0.06103515625,-0.244140625
4.9224999,0.32860419154167175,-0.2651578485965729,9.72165584564209,-5.55419921875,-0.885009765625,1.617431640625
4.9274999,0.5003881454467773,-0.2621650993824005,9.618106842041016,-0.06103515625,-0.42724609375,-2.593994140625
4.9324999,0.36092591285705566,-0.24899697303771973,9.99220085144043,4.791259765625,0.030517578125,0.3662109375
4.937499900000001,0.2585737705230713,-0.21428105235099792,9.632472038269043,-6.011962890625,-0.579833984375,1.190185546875
4.9424999000000005,0.46088382601737976,-0.2621650993824005,9.640851974487305,2.13623046875,-0.396728515625,-2.5634765625
4.9474999,0.3519476354122162,-0.24121582508087158,9.952696800231934,3.41796875,-0.396728515625,1.129150390625
4.9524999,0.3034650683403015,-0.2651578485965729,9.55825138092041,-6.561279296875,-0.701904296875,0.640869140625
4.9574999,0.5614402890205383,-0.3082534670829773,9.837775230407715,5.4931640625,2.197265625,-2.197265625
4.9624999,0.3357867896556854,-0.24779987335205078,9.95090103149414,0.30517578125,0.335693359375,2.227783203125
4.9674999,0.43993455171585083,-0.24839842319488525,9.551069259643555,-5.126953125,0.457763671875,-0.762939453125
4.9724999,0.5380968451499939,-0.32441434264183044,9.925163269042969,6.317138671875,0.762939453125,-1.983642578125
4.977499900000001,0.26396074891090393,-0.23343466222286224,9.962273597717285,-1.64794921875,-0.6103515625,2.3193359375
4.9824999000000005,0.46148237586021423,-0.2968810200691223,9.648633003234863,-4.33349609375,-0.30517578125,-1.556396484375
4.9874999,0.4920084476470947,-0.3531447649002075,10.031106948852539,5.889892578125,-0.48828125,-1.64794921875
4.9924999,0.2801215946674347,-0.2998737692832947,9.896432876586914,-3.7841796875,-1.068115234375,2.105712890625
4.9974999,0.5315127968788147,-0.32620999217033386,9.64803409576416,-2.349853515625,-0.48828125,-2.044677734375
5.0024999,0.45010992884635925,-0.3250128924846649,10.029311180114746,6.256103515625,-0.48828125,-0.701904296875
5.0074999,0.3034650683403015,-0.25498247146606445,9.84256362915039,-4.82177734375,-0.457763671875,2.197265625
5.0124999,0.5315127968788147,-0.2825157940387726,9.636063575744629,-0.3662109375,1.0986328125,-2.38037109375
5.0174999,0.42856210470199585,-0.2651578485965729,9.978434562683105,5.37109375,-0.42724609375,0
5.022499900000001,0.3196259140968323,-0.25318682193756104,9.63067626953125,-6.195068359375,-0.6103515625,1.8310546875
5.0274999000000005,0.4878185987472534,-0.24241292476654053,9.591172218322754,1.678466796875,1.03759765625,-2.44140625
5.0324999,0.3495534360408783,-0.2388216257095337,9.943120002746582,4.669189453125,-0.18310546875,0.54931640625
5.0374999,0.2603694200515747,-0.21128830313682556,9.620500564575195,-6.195068359375,-0.1220703125,1.129150390625
5.0424999,0.46627077460289,-0.29209262132644653,9.654618263244629,3.082275390625,1.220703125,-2.532958984375
5.0474999,0.3477577865123749,-0.26396074891090393,9.95748519897461,2.99072265625,-0.18310546875,0.91552734375
5.0524999,0.3130418658256531,-0.29628247022628784,9.545681953430176,-6.195068359375,-0.396728515625,0.274658203125
5.0574999,0.535702645778656,-0.3250128924846649,9.744999885559082,4.45556640625,0.732421875,-2.166748046875
5.062499900000001,0.33279404044151306,-0.2669534981250763,9.992799758911133,1.556396484375,0.335693359375,1.739501953125
5.0674999000000005,0.4537012279033661,-0.27653029561042786,9.534309387207031,-4.57763671875,-0.30517578125,-1.28173828125
5.0724999,0.5303156971931458,-0.33758243918418884,9.944316864013672,6.34765625,0.3662109375,-1.52587890625
5.0774999,0.25917232036590576,-0.26156654953956604,9.936535835266113,-2.227783203125,-0.213623046875,2.105712890625
5.0824999,0.4884171485900879,-0.30945056676864624,9.643245697021484,-3.143310546875,0.396728515625,-1.739501953125
5.0874999,0.4902127981185913,-0.34177228808403015,10.035296440124512,6.34765625,0.030517578125,-0.946044921875
5.0924999,0.2968810200691223,-0.2651578485965729,9.851541519165039,-3.997802734375,-0.640869140625,2.105712890625
5.0974999,0.5428852438926697,-0.3064578175544739,9.626486778259277,-1.617431640625,-0.518798828125,-2.44140625
5.102499900000001,0.44173020124435425,-0.29149407148361206,9.97364616394043,5.828857421875,0.18310546875,-0.30517578125
5.1074999000000005,0.31783026456832886,-0.2645592987537384,9.766547203063965,-5.43212890625,-0.1220703125,2.01416015625
5.1124999,0.517746090888977,-0.29388827085494995,9.585784912109375,-0.18310546875,0.091552734375,-2.288818359375
5.1174999,0.31124621629714966,-0.24660277366638184,9.630077362060547,-5.706787109375,0.30517578125,1.373291015625
5.1224999,0.29149407148361206,-0.243011474609375,9.588179588317871,-6.011962890625,0.91552734375,0.823974609375
5.1274999,0.507570743560791,-0.3034650683403015,9.660005569458008,3.387451171875,-0.152587890625,-2.8076171875
5.1324999,0.3531447649002075,-0.25498247146606445,9.942521095275879,2.38037109375,-1.129150390625,1.312255859375
5.1374999,0.3405751883983612,-0.2603694200515747,9.529520988464355,-6.40869140625,-1.8310546875,0.06103515625
5.1424999,0.5512649416923523,-0.2849099934101105,9.764751434326172,4.94384765625,0.9765625,-2.593994140625
5.147499900000001,0.3256114423274994,-0.22505496442317963,9.949105262756348,1.068115234375,-0.42724609375,1.89208984375
5.1524999000000005,0.414795458316803,-0.25258827209472656,9.540295600891113,-6.134033203125,-0.79345703125,-0.6103515625
5.1574999,0.5548562407493591,-0.3381809890270233,9.853935241699219,6.072998046875,1.251220703125,-2.166748046875
5.1624999,0.2968810200691223,-0.25498247146606445,9.922768592834473,-0.823974609375,-0.701904296875,2.166748046875
5.1674999,0.49799394607543945,-0.3280056416988373,9.667187690734863,-3.448486328125,-0.244140625,-1.800537109375
5.1724999,0.4602852761745453,-0.33099839091300964,10.033500671386719,6.622314453125,0.091552734375,-1.068115234375
5.1774999,0.2801215946674347,-0.25977087020874023,9.834781646728516,-3.875732421875,-0.823974609375,1.953125
5.1824999,0.5201402902603149,-0.30226796865463257,9.607333183288574,-1.190185546875,0.79345703125,-2.01416015625
5.187499900000001,0.424970805644989,-0.2645592987537384,9.961075782775879,5.706787109375,-0.579833984375,-0.42724609375
5.1924999000000005,0.3034650683403015,-0.272938996553421,9.70310115814209,-5.706787109375,-0.91552734375,1.5869140625
5.1974999,0.4944026470184326,-0.272938996553421,9.597756385803223,0.885009765625,1.312255859375,-2.44140625
5.2024999,0.3621230125427246,-0.2388216257095337,9.956886291503906,5.279541015625,0.457763671875,0.30517578125
5.2074999,0.25977087020874023,-0.2214636504650116,9.621099472045898,-6.16455078125,-0.213623046875,1.40380859375
5.2124999,0.4495113790035248,-0.2513911724090576,9.610923767089844,1.8310546875,-0.946044921875,-2.99072265625
5.2174999,0.3519476354122162,-0.27892449498176575,9.557653427124023,-5.706787109375,0.30517578125,-0.030517578125
5.2224999,0.5560533404350281,-0.30945056676864624,9.813833236694336,5.31005859375,1.5869140625,-2.01416015625
5.227499900000001,0.33997663855552673,-0.26575639843940735,9.955689430236816,0.274658203125,0.213623046875,2.0751953125
5.2324999000000005,0.44532153010368347,-0.28371289372444153,9.533711433410645,-5.523681640625,-0.091552734375,-0.640869140625
5.2374999,0.5602431893348694,-0.3315969407558441,9.864709854125977,5.859375,0.06103515625,-2.166748046875
5.2424999,0.5602431893348694,-0.3315969407558441,9.864709854125977,5.859375,0.06103515625,-2.166748046875
5.2474999,0.28730419278144836,-0.24660277366638184,9.90361499786377,-1.678466796875,-0.1220703125,2.13623046875
