# Time (seconds),Accel_X,Accel_Y,Accel_Z,Gyro_X,Gyro_Y,Gyro_Z
0.0024999,0.20290859043598175,-0.04369417950510979,9.746794700622559,0,-0.18310546875,0.091552734375
0.0074999,0.2017114907503128,-0.04369417950510979,9.750386238098145,-0.06103515625,-0.18310546875,0.1220703125
0.012499900000000001,0.19812019169330597,-0.03950432687997818,9.758766174316406,0.030517578125,-0.030517578125,0.030517578125
0.0174999,0.1975216418504715,-0.038307227194309235,9.757569313049316,-0.1220703125,-0.030517578125,0
0.0224999,0.19213469326496124,-0.03531447425484657,9.757569313049316,-0.18310546875,-0.152587890625,0.030517578125
0.0274999,0.19213469326496124,-0.03770867735147476,9.75278091430664,-0.1220703125,-0.244140625,-0.030517578125
0.0324999,0.19033902883529663,-0.038307227194309235,9.748590469360352,-0.152587890625,-0.213623046875,-0.091552734375
0.0374999,0.19692309200763702,-0.04369417950510979,9.745597839355469,0.1220703125,-0.152587890625,-0.091552734375
0.0424999,0.2017114907503128,-0.04668693244457245,9.745597839355469,0.030517578125,-0.213623046875,-0.152587890625
0.0474999,0.21009120345115662,-0.05027823522686958,9.745597839355469,-0.091552734375,-0.091552734375,-0.18310546875
0.0524999,0.21428105235099792,-0.053270988166332245,9.746196746826172,0,-0.18310546875,-0.06103515625
0.0574999,0.21667525172233582,-0.0520738884806633,9.748590469360352,0.091552734375,-0.152587890625,-0.213623046875
0.0624999,0.21667525172233582,-0.0520738884806633,9.746794700622559,0.030517578125,0.030517578125,-0.213623046875
0.0674999,0.21368250250816345,-0.04908113554120064,9.747992515563965,-0.030517578125,0.091552734375,-0.457763671875
0.0724999,0.21188685297966003,-0.04728548228740692,9.747992515563965,0.030517578125,0.213623046875,-0.274658203125
0.0774999,0.21128830313682556,-0.046088382601737976,9.746196746826172,0,0.152587890625,-0.274658203125
0.0824999,0.2082955539226532,-0.04429273307323456,9.746196746826172,-0.06103515625,0.18310546875,-0.3662109375
0.0874999,0.20889410376548767,-0.0454898327589035,9.746196746826172,0.18310546875,0.091552734375,-0.244140625
0.0924999,0.2059013396501541,-0.04249707981944084,9.745597839355469,0.06103515625,0.06103515625,-0.274658203125
0.0974999,0.2041056901216507,-0.04249707981944084,9.750386238098145,0.152587890625,-0.06103515625,-0.152587890625
0.1024999,0.20111294090747833,-0.04369417950510979,9.753378868103027,0.030517578125,0.1220703125,-0.274658203125
0.1074999,0.1951274424791336,-0.04668693244457245,9.75517463684082,-0.06103515625,0.06103515625,-0.030517578125
0.1124999,0.19213469326496124,-0.04967968538403511,9.75278091430664,-0.091552734375,0.06103515625,-0.152587890625
0.1174999,0.19273324310779572,-0.0520738884806633,9.750386238098145,-0.091552734375,-0.030517578125,-0.152587890625
0.1224999,0.19393034279346466,-0.050876785069704056,9.743204116821289,-0.06103515625,0.030517578125,-0.18310546875
0.1274999,0.20051439106464386,-0.04908113554120064,9.742006301879883,0.091552734375,0,-0.18310546875
0.1324999,0.20470423996448517,-0.046088382601737976,9.739013671875,0.030517578125,0.030517578125,-0.152587890625
0.1374999,0.20470423996448517,-0.04429273307323456,9.73781681060791,-0.091552734375,-0.1220703125,-0.1220703125
0.1424999,0.20290859043598175,-0.041299980133771896,9.737217903137207,0,-0.152587890625,-0.152587890625
0.1474999,0.20111294090747833,-0.040701430290937424,9.738415718078613,-0.030517578125,0.06103515625,-0.274658203125
0.1524999,0.1975216418504715,-0.03890577703714371,9.73781681060791,0.030517578125,0.091552734375,-0.1220703125
0.1574999,0.19931729137897491,-0.041299980133771896,9.740211486816406,0.1220703125,0,-0.244140625
0.1624999,0.20051439106464386,-0.043095629662275314,9.742006301879883,0,-0.213623046875,-0.213623046875
0.1674999,0.2041056901216507,-0.04728548228740692,9.744400978088379,0.06103515625,0.06103515625,-0.213623046875
0.1724999,0.2082955539226532,-0.050876785069704056,9.744400978088379,-0.152587890625,0.18310546875,-0.213623046875
0.17749990000000002,0.2106897532939911,-0.05446808785200119,9.742006301879883,-0.06103515625,0.091552734375,-0.1220703125
0.1824999,0.20889410376548767,-0.05626374110579491,9.738415718078613,0,0.06103515625,-0.244140625
0.1874999,0.2082955539226532,-0.05925649031996727,9.733627319335938,0,0,-0.30517578125
0.1924999,0.20231004059314728,-0.058059390634298325,9.731232643127441,-0.244140625,0.030517578125,-0.18310546875
0.1974999,0.19812019169330597,-0.05746084079146385,9.730634689331055,-0.091552734375,0.152587890625,-0.06103515625
0.2024999,0.19692309200763702,-0.05626374110579491,9.730634689331055,0.152587890625,0.06103515625,-0.091552734375
0.20749990000000001,0.19692309200763702,-0.05746084079146385,9.732429504394531,0.06103515625,0,-0.18310546875
0.2124999,0.19871874153614044,-0.05746084079146385,9.73542308807373,-0.091552734375,0,-0.244140625
0.2174999,0.20470423996448517,-0.060453593730926514,9.739612579345703,-0.030517578125,-0.06103515625,-0.274658203125
0.2224999,0.2059013396501541,-0.060453593730926514,9.745597839355469,0.030517578125,-0.030517578125,-0.30517578125
0.2274999,0.20769700407981873,-0.05746084079146385,9.751583099365234,0.091552734375,0.06103515625,-0.244140625
0.2324999,0.20949265360832214,-0.0520738884806633,9.757569313049316,0.030517578125,0.06103515625,-0.213623046875
0.2374999,0.20889410376548767,-0.046088382601737976,9.7605619430542,0.030517578125,0.030517578125,-0.1220703125
0.2424999,0.21188685297966003,-0.04249707981944084,9.758766174316406,0.06103515625,0,-0.06103515625
0.2474999,0.21188685297966003,-0.04249707981944084,9.758766174316406,0.06103515625,0,-0.06103515625
0.2524999,0.21128830313682556,-0.03890577703714371,9.759963035583496,-0.152587890625,0.030517578125,-0.18310546875
0.2574999,0.20769700407981873,-0.03890577703714371,9.75936508178711,-0.18310546875,0.091552734375,-0.244140625
0.2624999,0.20231004059314728,-0.035913024097681046,9.75936508178711,0.030517578125,0.06103515625,-0.18310546875
0.2674999,0.19812019169330597,-0.033518824726343155,9.757569313049316,-0.030517578125,-0.030517578125,-0.213623046875
0.2724999,0.1951274424791336,-0.030526071786880493,9.754576683044434,-0.091552734375,-0.091552734375,-0.244140625
0.2774999,0.19632454216480255,-0.03172317147254944,9.750985145568848,0.06103515625,0.030517578125,0
0.2824999,0.19632454216480255,-0.033518824726343155,9.750386238098145,0,0,-0.091552734375
0.28749990000000003,0.1951274424791336,-0.03770867735147476,9.750386238098145,-0.244140625,0.091552734375,-0.244140625
0.2924999,0.19572599232196808,-0.040701430290937424,9.748590469360352,-0.091552734375,0,-0.1220703125
0.2974999,0.19632454216480255,-0.04369417950510979,9.747393608093262,0.06103515625,0.030517578125,-0.030517578125
0.3024999,0.1999158412218094,-0.046088382601737976,9.747393608093262,0,0,0.091552734375
0.3074999,0.20231004059314728,-0.05027823522686958,9.745597839355469,-0.1220703125,-0.030517578125,-0.06103515625
0.3124999,0.20051439106464386,-0.0520738884806633,9.747393608093262,-0.091552734375,0.06103515625,-0.06103515625
0.3174999,0.1999158412218094,-0.05686229094862938,9.749788284301758,-0.1220703125,0.091552734375,-0.18310546875
0.3224999,0.1975216418504715,-0.05746084079146385,9.750386238098145,-0.091552734375,-0.152587890625,-0.274658203125
0.3274999,0.19931729137897491,-0.05746084079146385,9.751583099365234,0.06103515625,-0.091552734375,-0.274658203125
0.3324999,0.20231004059314728,-0.05506663769483566,9.749788284301758,0,0.213623046875,-0.152587890625
0.3374999,0.20530278980731964,-0.04967968538403511,9.745597839355469,-0.091552734375,0.1220703125,-0.1220703125
0.3424999,0.20769700407981873,-0.04668693244457245,9.740809440612793,-0.1220703125,-0.091552734375,-0.152587890625
0.34749990000000003,0.20949265360832214,-0.04249707981944084,9.739612579345703,0,-0.06103515625,-0.1220703125
0.35249990000000003,0.20889410376548767,-0.046088382601737976,9.739013671875,-0.030517578125,0,-0.152587890625
0.3574999,0.2082955539226532,-0.047884032130241394,9.743802070617676,-0.18310546875,0.091552734375,-0.30517578125
0.3624999,0.20470423996448517,-0.05506663769483566,9.746196746826172,-0.152587890625,0.18310546875,-0.335693359375
0.3674999,0.1999158412218094,-0.060453593730926514,9.749788284301758,0.152587890625,0.091552734375,-0.1220703125
0.3724999,0.1999158412218094,-0.060453593730926514,9.750386238098145,0,0.091552734375,-0.1220703125
0.3774999,0.1975216418504715,-0.06224924325942993,9.751583099365234,-0.091552734375,0.06103515625,-0.244140625
0.3824999,0.19871874153614044,-0.055665191262960434,9.752182006835938,-0.06103515625,0.152587890625,-0.30517578125
0.3874999,0.1999158412218094,-0.05147533491253853,9.747393608093262,-0.030517578125,0.091552734375,-0.213623046875
0.3924999,0.19632454216480255,-0.04489128291606903,9.743802070617676,0,0.06103515625,-0.244140625
0.3974999,0.19393034279346466,-0.04189852997660637,9.73661994934082,-0.06103515625,-0.030517578125,-0.18310546875
0.4024999,0.19213469326496124,-0.040701430290937424,9.731831550598145,0,0,-0.152587890625
0.4074999,0.19273324310779572,-0.03950432687997818,9.728838920593262,0.030517578125,0.030517578125,-0.213623046875
0.41249990000000003,0.19572599232196808,-0.03950432687997818,9.730634689331055,0.06103515625,-0.1220703125,-0.244140625
0.41749990000000003,0.20111294090747833,-0.040701430290937424,9.731831550598145,-0.030517578125,-0.152587890625,-0.152587890625
0.4224999,0.20530278980731964,-0.03770867735147476,9.739013671875,0.030517578125,-0.06103515625,-0.18310546875
0.4274999,0.20949265360832214,-0.038307227194309235,9.746196746826172,-0.06103515625,-0.152587890625,-0.091552734375
0.4324999,0.2106897532939911,-0.038307227194309235,9.75517463684082,0,-0.091552734375,-0.091552734375
0.4374999,0.21368250250816345,-0.04010287672281265,9.759963035583496,0,-0.1220703125,-0.152587890625
0.4424999,0.2124854028224945,-0.04369417950510979,9.761758804321289,-0.244140625,-0.18310546875,-0.091552734375
0.4474999,0.20769700407981873,-0.046088382601737976,9.75517463684082,-0.030517578125,-0.06103515625,-0.18310546875
0.4524999,0.2082955539226532,-0.04728548228740692,9.753378868103027,-0.091552734375,0.06103515625,-0.213623046875
0.4574999,0.20530278980731964,-0.04728548228740692,9.747393608093262,-0.030517578125,0.06103515625,-0.091552734375
0.4624999,0.20769700407981873,-0.04489128291606903,9.746196746826172,-0.091552734375,0.030517578125,-0.1220703125
0.4674999,0.20949265360832214,-0.046088382601737976,9.746196746826172,-0.091552734375,0.152587890625,-0.213623046875
0.47249990000000003,0.21009120345115662,-0.046088382601737976,9.743802070617676,0.030517578125,0.1220703125,-0.335693359375
0.47749990000000003,0.20949265360832214,-0.048482585698366165,9.745597839355469,0.06103515625,0.091552734375,-0.244140625
0.4824999,0.20889410376548767,-0.050876785069704056,9.746794700622559,0.06103515625,0.06103515625,-0.244140625
0.4874999,0.2064998894929886,-0.053270988166332245,9.750985145568848,0.030517578125,0.091552734375,-0.274658203125
0.4924999,0.2017114907503128,-0.053270988166332245,9.75517463684082,0.06103515625,-0.06103515625,-0.274658203125
0.4974999,0.19931729137897491,-0.053270988166332245,9.7605619430542,0.030517578125,0.1220703125,-0.244140625
0.5024999,0.19452889263629913,-0.05267243832349777,9.765350341796875,-0.091552734375,0.1220703125,-0.274658203125
0.5074999,0.19812019169330597,-0.04908113554120064,9.767744064331055,0.06103515625,0.091552734375,-0.18310546875
0.5124999,0.1975216418504715,-0.047884032130241394,9.77013874053955,0.091552734375,-0.1220703125,0
0.5174999,0.20051439106464386,-0.04429273307323456,9.763554573059082,-0.091552734375,-0.06103515625,-0.213623046875
0.5224999,0.19871874153614044,-0.04369417950510979,9.758167266845703,-0.030517578125,0,-0.18310546875
0.5274999,0.1933317929506302,-0.040701430290937424,9.750386238098145,-0.06103515625,-0.152587890625,-0.06103515625
0.5324999,0.18914192914962769,-0.04010287672281265,9.747393608093262,0.06103515625,-0.152587890625,0
0.5374999,0.18555063009262085,-0.03950432687997818,9.750985145568848,-0.06103515625,-0.091552734375,-0.06103515625
0.5424999,0.18734627962112427,-0.03890577703714371,9.75397777557373,-0.06103515625,-0.030517578125,-0.18310546875
0.5474999,0.19452889263629913,-0.043095629662275314,9.75936508178711,-0.030517578125,-0.030517578125,-0.213623046875
0.5524999,0.19871874153614044,-0.046088382601737976,9.764153480529785,0.091552734375,0,-0.213623046875
0.5574999,0.2059013396501541,-0.048482585698366165,9.761159896850586,-0.1220703125,0.091552734375,-0.1220703125
0.5624999,0.20889410376548767,-0.05027823522686958,9.762357711791992,-0.06103515625,0.1220703125,-0.152587890625
0.5674999000000001,0.20889410376548767,-0.05267243832349777,9.755773544311523,0.030517578125,0.091552734375,-0.091552734375
0.5724999000000001,0.2059013396501541,-0.053270988166332245,9.751583099365234,-0.091552734375,0.06103515625,-0.152587890625
0.5774999000000001,0.2017114907503128,-0.05446808785200119,9.744400978088379,0.030517578125,0.06103515625,-0.213623046875
0.5824999,0.19812019169330597,-0.05446808785200119,9.739013671875,0,0.213623046875,-0.213623046875
0.5874999,0.19632454216480255,-0.04728548228740692,9.73661994934082,-0.152587890625,0.1220703125,-0.244140625
0.5924999,0.1975216418504715,-0.04249707981944084,9.736021041870117,-0.091552734375,0.06103515625,-0.18310546875
0.5974999,0.1999158412218094,-0.03770867735147476,9.739612579345703,-0.030517578125,0,-0.213623046875
0.6024999,0.19871874153614044,-0.03411737456917763,9.742006301879883,0.06103515625,-0.030517578125,-0.152587890625
0.6074999,0.1975216418504715,-0.033518824726343155,9.746196746826172,-0.06103515625,-0.091552734375,-0.030517578125
0.6124999,0.1975216418504715,-0.033518824726343155,9.746196746826172,-0.06103515625,-0.091552734375,-0.030517578125
0.6174999,0.19931729137897491,-0.03172317147254944,9.752182006835938,-0.091552734375,-0.030517578125,-0.091552734375
0.6224999,0.20111294090747833,-0.033518824726343155,9.757569313049316,-0.06103515625,-0.030517578125,-0.1220703125
0.6274999,0.20530278980731964,-0.03711012750864029,9.762955665588379,-0.1220703125,-0.06103515625,-0.1220703125
0.6324999,0.2064998894929886,-0.03950432687997818,9.765948295593262,0,-0.091552734375,-0.1220703125
0.6374999,0.20530278980731964,-0.04369417950510979,9.765948295593262,-0.091552734375,-0.030517578125,-0.213623046875
0.6424999,0.20111294090747833,-0.04429273307323456,9.763554573059082,-0.091552734375,0.18310546875,-0.1220703125
0.6474999,0.19692309200763702,-0.04249707981944084,9.761159896850586,-0.152587890625,0,0.030517578125
0.6524999,0.19692309200763702,-0.04189852997660637,9.756970405578613,-0.030517578125,-0.091552734375,-0.1220703125
0.6574999,0.1951274424791336,-0.04189852997660637,9.753378868103027,0,-0.030517578125,-0.274658203125
0.6624999,0.1999158412218094,-0.03950432687997818,9.750386238098145,-0.030517578125,-0.030517578125,-0.1220703125
0.6674999,0.20231004059314728,-0.041299980133771896,9.746794700622559,-0.091552734375,-0.030517578125,-0.152587890625
0.6724999,0.2064998894929886,-0.040701430290937424,9.746196746826172,-0.06103515625,-0.030517578125,-0.244140625
0.6774999,0.2059013396501541,-0.04249707981944084,9.744999885559082,0.030517578125,0.1220703125,-0.1220703125
0.6824999,0.20470423996448517,-0.041299980133771896,9.747393608093262,-0.030517578125,0.1220703125,-0.18310546875
0.6874999,0.19931729137897491,-0.04369417950510979,9.752182006835938,-0.030517578125,-0.030517578125,-0.152587890625
0.6924999000000001,0.1951274424791336,-0.04189852997660637,9.75637149810791,-0.06103515625,-0.030517578125,-0.1220703125
0.6974999000000001,0.19213469326496124,-0.04489128291606903,9.7605619430542,-0.1220703125,0,0
0.7024999000000001,0.19213469326496124,-0.04489128291606903,9.761159896850586,-0.1220703125,-0.030517578125,-0.213623046875
0.7074999,0.19273324310779572,-0.04728548228740692,9.764153480529785,-0.030517578125,0.030517578125,-0.244140625
0.7124999,0.19273324310779572,-0.0454898327589035,9.759963035583496,-0.06103515625,0.091552734375,-0.18310546875
0.7174999,0.1909375786781311,-0.04668693244457245,9.759963035583496,-0.1220703125,0.06103515625,-0.213623046875
0.7224999,0.18794482946395874,-0.046088382601737976,9.75397777557373,-0.18310546875,-0.091552734375,-0.274658203125
0.7274999,0.1867477297782898,-0.04728548228740692,9.750386238098145,-0.06103515625,-0.18310546875,-0.213623046875
0.7324999,0.18914192914962769,-0.04908113554120064,9.746196746826172,-0.091552734375,-0.244140625,-0.1220703125
0.7374999,0.1909375786781311,-0.04908113554120064,9.744999885559082,-0.030517578125,-0.18310546875,-0.06103515625
0.7424999,0.19931729137897491,-0.05027823522686958,9.746196746826172,-0.1220703125,-0.1220703125,-0.091552734375
0.7474999,0.2041056901216507,-0.053270988166332245,9.749189376831055,-0.1220703125,-0.1220703125,-0.18310546875
0.7524999,0.20889410376548767,-0.055665191262960434,9.749788284301758,0.06103515625,0.06103515625,-0.30517578125
0.7574999,0.20949265360832214,-0.058059390634298325,9.752182006835938,-0.091552734375,0,-0.213623046875
0.7624999,0.2082955539226532,-0.05686229094862938,9.750985145568848,0.06103515625,-0.1220703125,-0.030517578125
0.7674999,0.2064998894929886,-0.050876785069704056,9.750985145568848,0.1220703125,0,-0.274658203125
0.7724999,0.2082955539226532,-0.046088382601737976,9.750985145568848,-0.030517578125,0.06103515625,-0.3662109375
0.7774999,0.2124854028224945,-0.04249707981944084,9.749189376831055,-0.06103515625,0.030517578125,-0.30517578125
0.7824999,0.2172738015651703,-0.04189852997660637,9.747992515563965,0.06103515625,0.030517578125,-0.30517578125
0.7874999,0.22026655077934265,-0.04429273307323456,9.746794700622559,0.030517578125,0.06103515625,-0.3662109375
0.7924999,0.22266076505184174,-0.04429273307323456,9.746794700622559,0.06103515625,0.030517578125,-0.213623046875
0.7974999,0.21847090125083923,-0.046088382601737976,9.746794700622559,0.1220703125,0.152587890625,-0.18310546875
0.8024999,0.21188685297966003,-0.04489128291606903,9.747992515563965,0,0.244140625,-0.091552734375
0.8074999,0.20350714027881622,-0.04489128291606903,9.747992515563965,-0.06103515625,0.18310546875,-0.18310546875
0.8124999,0.19572599232196808,-0.04668693244457245,9.747393608093262,0.06103515625,0.152587890625,-0.091552734375
0.8174999000000001,0.19153612852096558,-0.047884032130241394,9.747393608093262,-0.030517578125,0.091552734375,-0.1220703125
0.8224999000000001,0.18734627962112427,-0.05027823522686958,9.744400978088379,-0.06103515625,0.06103515625,-0.244140625
0.8274999000000001,0.18794482946395874,-0.05267243832349777,9.746794700622559,0.030517578125,-0.1220703125,-0.152587890625
0.8324999000000001,0.1843535304069519,-0.05267243832349777,9.744999885559082,-0.030517578125,-0.030517578125,-0.152587890625
0.8374999,0.18794482946395874,-0.05386953800916672,9.749189376831055,-0.030517578125,-0.152587890625,-0.18310546875
0.8424999,0.1909375786781311,-0.05446808785200119,9.748590469360352,-0.091552734375,-0.244140625,-0.091552734375
0.8474999,0.1975216418504715,-0.05506663769483566,9.745597839355469,0,-0.152587890625,-0.152587890625
0.8524999,0.20470423996448517,-0.058059390634298325,9.744400978088379,-0.06103515625,-0.213623046875,-0.213623046875
0.8574999,0.2106897532939911,-0.05686229094862938,9.742605209350586,-0.18310546875,-0.030517578125,-0.213623046875
0.8624999,0.21428105235099792,-0.05506663769483566,9.743802070617676,-0.030517578125,-0.030517578125,-0.18310546875
0.8674999,0.21547815203666687,-0.05027823522686958,9.747393608093262,-0.06103515625,-0.091552734375,-0.1220703125
0.8724999,0.21547815203666687,-0.048482585698366165,9.749788284301758,-0.091552734375,0,-0.1220703125
0.8774999,0.21667525172233582,-0.04668693244457245,9.752182006835938,-0.06103515625,-0.06103515625,-0.152587890625
0.8824999,0.21847090125083923,-0.043095629662275314,9.75397777557373,-0.06103515625,-0.06103515625,-0.244140625
0.8874999,0.22026655077934265,-0.040701430290937424,9.753378868103027,0.06103515625,-0.1220703125,-0.18310546875
0.8924999,0.2190694510936737,-0.03711012750864029,9.750985145568848,-0.06103515625,-0.152587890625,-0.152587890625
0.8974999,0.2172738015651703,-0.03770867735147476,9.744400978088379,-0.06103515625,-0.091552734375,-0.1220703125
0.9024999,0.21308395266532898,-0.03711012750864029,9.742006301879883,-0.06103515625,0.06103515625,-0.18310546875
0.9074999,0.21128830313682556,-0.040701430290937424,9.73542308807373,-0.030517578125,-0.030517578125,-0.1220703125
0.9124999,0.20949265360832214,-0.04369417950510979,9.732429504394531,0,-0.06103515625,-0.091552734375
0.9174999,0.2082955539226532,-0.04967968538403511,9.734225273132324,-0.030517578125,0,-0.152587890625
0.9224999,0.20889410376548767,-0.05386953800916672,9.73542308807373,-0.1220703125,-0.213623046875,-0.213623046875
0.9274999,0.20470423996448517,-0.05686229094862938,9.743204116821289,-0.152587890625,-0.030517578125,-0.030517578125
0.9324999,0.20470423996448517,-0.05626374110579491,9.749788284301758,-0.1220703125,-0.091552734375,-0.06103515625
0.9374999,0.20290859043598175,-0.0520738884806633,9.75278091430664,-0.1220703125,-0.152587890625,-0.091552734375
0.9424999000000001,0.20470423996448517,-0.05027823522686958,9.75637149810791,0.06103515625,-0.335693359375,-0.06103515625
0.9474999000000001,0.20709845423698425,-0.050876785069704056,9.757569313049316,-0.030517578125,-0.091552734375,-0.030517578125
0.9524999000000001,0.21188685297966003,-0.04908113554120064,9.757569313049316,-0.091552734375,0.06103515625,-0.18310546875
0.9574999000000001,0.21368250250816345,-0.0520738884806633,9.757569313049316,-0.091552734375,0.030517578125,-0.18310546875
0.9624999,0.2172738015651703,-0.050876785069704056,9.753378868103027,-0.1220703125,0.091552734375,-0.213623046875
0.9674999,0.2148796021938324,-0.047884032130241394,9.752182006835938,0.06103515625,0,-0.1220703125
0.9724999,0.21428105235099792,-0.04668693244457245,9.751583099365234,0.091552734375,0.030517578125,-0.091552734375
0.9774999,0.20949265360832214,-0.04369417950510979,9.749788284301758,-0.030517578125,0.152587890625,-0.18310546875
0.9824999,0.20949265360832214,-0.04369417950510979,9.749788284301758,-0.030517578125,0.152587890625,-0.18310546875
0.9874999,0.20889410376548767,-0.04189852997660637,9.749788284301758,-0.030517578125,0.06103515625,-0.152587890625
0.9924999,0.2059013396501541,-0.04189852997660637,9.746794700622559,-0.030517578125,0.030517578125,-0.1220703125
0.9974999,0.20350714027881622,-0.04010287672281265,9.742605209350586,-0.06103515625,0.06103515625,-0.18310546875
1.0024999,0.20111294090747833,-0.040701430290937424,9.742605209350586,-0.091552734375,0.091552734375,-0.244140625
1.0074999000000002,0.1933317929506302,-0.041299980133771896,9.743802070617676,0.030517578125,-0.091552734375,-0.030517578125
1.0124999000000001,0.18974047899246216,-0.04249707981944084,9.746196746826172,-0.091552734375,-0.030517578125,-0.18310546875
1.0174999000000002,0.1843535304069519,-0.0454898327589035,9.751583099365234,0,-0.1220703125,-0.06103515625
1.0224999000000001,0.18315643072128296,-0.047884032130241394,9.750386238098145,-0.152587890625,-0.091552734375,-0.06103515625
1.0274999,0.1825578808784485,-0.04967968538403511,9.753378868103027,0.1220703125,-0.18310546875,-0.06103515625
1.0324999000000001,0.1867477297782898,-0.053270988166332245,9.75278091430664,0,-0.091552734375,-0.18310546875
1.0374999,0.1909375786781311,-0.053270988166332245,9.75517463684082,-0.030517578125,-0.244140625,-0.213623046875
1.0424999000000001,0.19812019169330597,-0.05386953800916672,9.756970405578613,-0.030517578125,0.06103515625,-0.213623046875
1.0474999,0.2059013396501541,-0.05267243832349777,9.759963035583496,0,-0.030517578125,-0.30517578125
1.0524999000000002,0.21128830313682556,-0.050876785069704056,9.75278091430664,-0.06103515625,0.06103515625,-0.244140625
1.0574999,0.2148796021938324,-0.04668693244457245,9.754576683044434,-0.06103515625,0.030517578125,-0.091552734375
1.0624999000000002,0.2172738015651703,-0.04489128291606903,9.750985145568848,0.030517578125,0,0.1220703125
1.0674999,0.21368250250816345,-0.040701430290937424,9.75517463684082,0,0.18310546875,0
1.0724999000000002,0.21188685297966003,-0.04249707981944084,9.756970405578613,-0.091552734375,0.06103515625,-0.18310546875
1.0774999,0.20470423996448517,-0.043095629662275314,9.75936508178711,-0.1220703125,0,-0.152587890625
1.0824999000000002,0.19871874153614044,-0.048482585698366165,9.75637149810791,-0.030517578125,0.091552734375,-0.152587890625
1.0874999,0.19452889263629913,-0.05267243832349777,9.75517463684082,-0.030517578125,0.06103515625,-0.274658203125
1.0924999000000002,0.19213469326496124,-0.05686229094862938,9.750985145568848,0.091552734375,-0.030517578125,-0.213623046875
1.0974999,0.1933317929506302,-0.05985504388809204,9.747992515563965,0.06103515625,0.06103515625,-0.335693359375
1.1024999000000002,0.19632454216480255,-0.058059390634298325,9.745597839355469,-0.091552734375,0.06103515625,-0.274658203125
1.1074999,0.19812019169330597,-0.05506663769483566,9.747992515563965,0.030517578125,0.1220703125,-0.244140625
1.1124999000000002,0.19812019169330597,-0.0520738884806633,9.753378868103027,0.091552734375,0.030517578125,-0.30517578125
1.1174999,0.20051439106464386,-0.05267243832349777,9.758167266845703,0.1220703125,-0.06103515625,-0.18310546875
1.1224999000000002,0.20470423996448517,-0.053270988166332245,9.761159896850586,0.091552734375,0.1220703125,-0.213623046875
1.1274999,0.20530278980731964,-0.055665191262960434,9.762357711791992,-0.06103515625,0.1220703125,-0.244140625
1.1324999000000002,0.20949265360832214,-0.05626374110579491,9.7605619430542,-0.06103515625,0.1220703125,-0.18310546875
1.1374999000000001,0.2082955539226532,-0.05267243832349777,9.762357711791992,0,0.1220703125,-0.30517578125
1.1424999000000002,0.20769700407981873,-0.04967968538403511,9.763554573059082,0.030517578125,0.091552734375,-0.274658203125
1.1474999000000001,0.20709845423698425,-0.0454898327589035,9.759963035583496,0.06103515625,0.06103515625,-0.091552734375
1.1524999000000002,0.20530278980731964,-0.04249707981944084,9.758167266845703,-0.030517578125,0.091552734375,-0.213623046875
1.1574999000000001,0.20290859043598175,-0.04189852997660637,9.749788284301758,0,0.091552734375,-0.1220703125
1.1624999,0.20051439106464386,-0.04249707981944084,9.744400978088379,-0.030517578125,0,-0.030517578125
1.1674999000000001,0.19931729137897491,-0.04489128291606903,9.738415718078613,0,-0.152587890625,0.18310546875
1.1724999,0.19871874153614044,-0.04728548228740692,9.73661994934082,-0.091552734375,-0.152587890625,-0.091552734375
1.1774999000000002,0.2017114907503128,-0.04967968538403511,9.734824180603027,-0.06103515625,-0.091552734375,-0.152587890625
1.1824999,0.20111294090747833,-0.050876785069704056,9.737217903137207,-0.152587890625,-0.06103515625,-0.06103515625
1.1874999000000002,0.20290859043598175,-0.05446808785200119,9.73781681060791,-0.091552734375,-0.18310546875,-0.18310546875
1.1924999,0.20350714027881622,-0.05626374110579491,9.743204116821289,-0.06103515625,-0.18310546875,-0.152587890625
1.1974999000000002,0.20350714027881622,-0.05985504388809204,9.747393608093262,-0.06103515625,-0.152587890625,-0.091552734375
1.2024999,0.2082955539226532,-0.05985504388809204,9.75278091430664,0,-0.06103515625,-0.152587890625
1.2074999000000002,0.2124854028224945,-0.05985504388809204,9.753378868103027,0.030517578125,-0.18310546875,-0.244140625
1.2124999,0.2148796021938324,-0.058059390634298325,9.751583099365234,0.030517578125,-0.152587890625,-0.18310546875
1.2174999000000002,0.2172738015651703,-0.05686229094862938,9.744999885559082,-0.06103515625,-0.091552734375,-0.274658203125
1.2224999,0.21428105235099792,-0.05446808785200119,9.739013671875,0.091552734375,-0.091552734375,-0.213623046875
1.2274999000000002,0.2106897532939911,-0.053270988166332245,9.737217903137207,0.1220703125,0,-0.3662109375
1.2324999,0.20709845423698425,-0.05147533491253853,9.73542308807373,0,0.091552734375,-0.244140625
1.2374999000000002,0.20530278980731964,-0.048482585698366165,9.73542308807373,0.1220703125,0.030517578125,-0.1220703125
1.2424999,0.2064998894929886,-0.0454898327589035,9.742006301879883,0.030517578125,0.152587890625,-0.152587890625
1.2474999000000002,0.20470423996448517,-0.04010287672281265,9.746196746826172,-0.030517578125,0.030517578125,-0.18310546875
1.2524999,0.2041056901216507,-0.03890577703714371,9.751583099365234,0,-0.06103515625,-0.152587890625
1.2574999000000002,0.1975216418504715,-0.03651157766580582,9.75517463684082,-0.06103515625,0,0.06103515625
1.2624999000000001,0.1909375786781311,-0.04010287672281265,9.754576683044434,-0.152587890625,-0.091552734375,0
1.2674999000000002,0.181959331035614,-0.04189852997660637,9.749788284301758,-0.152587890625,-0.06103515625,-0.152587890625
1.2724999000000001,0.17896658182144165,-0.04728548228740692,9.750985145568848,-0.06103515625,-0.06103515625,-0.244140625
1.2774999000000002,0.18076223134994507,-0.04967968538403511,9.749788284301758,-0.1220703125,-0.152587890625,-0.244140625
1.2824999000000001,0.1867477297782898,-0.053270988166332245,9.749788284301758,-0.06103515625,-0.244140625,-0.152587890625
1.2874999,0.1975216418504715,-0.05267243832349777,9.75278091430664,0.030517578125,-0.091552734375,-0.06103515625
1.2924999000000001,0.20769700407981873,-0.05746084079146385,9.750985145568848,0.030517578125,-0.030517578125,-0.244140625
1.2974999,0.21787235140800476,-0.05626374110579491,9.751583099365234,-0.06103515625,-0.091552734375,-0.244140625
1.3024999000000002,0.22266076505184174,-0.058059390634298325,9.750985145568848,-0.06103515625,0,-0.152587890625
1.3074999,0.22864626348018646,-0.053270988166332245,9.747393608093262,0.091552734375,-0.06103515625,-0.06103515625
1.3124999000000002,0.22625206410884857,-0.04668693244457245,9.748590469360352,0.091552734375,-0.1220703125,-0.1220703125
1.3174999,0.22086510062217712,-0.03770867735147476,9.747992515563965,0,-0.06103515625,-0.213623046875
1.3224999000000002,0.21428105235099792,-0.030526071786880493,9.748590469360352,-0.06103515625,-0.091552734375,-0.1220703125
1.3274999,0.2064998894929886,-0.02753331884741783,9.749189376831055,-0.091552734375,0.1220703125,-0.18310546875
1.3324999000000002,0.1999158412218094,-0.02454056777060032,9.750386238098145,-0.091552734375,0.06103515625,-0.213623046875
1.3374999,0.19931729137897491,-0.02513911761343479,9.747393608093262,-0.18310546875,-0.030517578125,-0.1220703125
1.3424999000000002,0.1975216418504715,-0.026336219161748886,9.746794700622559,-0.18310546875,0.152587890625,0.030517578125
1.3474999,0.1975216418504715,-0.026336219161748886,9.746794700622559,-0.18310546875,0.152587890625,0.030517578125
1.3524999000000002,0.1975216418504715,-0.0293289702385664,9.744999885559082,-0.030517578125,0.1220703125,-0.030517578125
1.3574999,0.19931729137897491,-0.035913024097681046,9.740809440612793,-0.06103515625,-0.030517578125,0.06103515625
1.3624999000000002,0.19931729137897491,-0.04429273307323456,9.743204116821289,0.152587890625,-0.1220703125,0
1.3674999,0.20290859043598175,-0.0520738884806633,9.746794700622559,0.06103515625,0,-0.244140625
1.3724999000000002,0.20470423996448517,-0.058059390634298325,9.751583099365234,-0.030517578125,-0.152587890625,-0.152587890625
1.3774999,0.20889410376548767,-0.05985504388809204,9.759963035583496,-0.091552734375,-0.091552734375,-0.091552734375
1.3824999000000002,0.20889410376548767,-0.05925649031996727,9.764153480529785,0.1220703125,0.06103515625,-0.244140625
1.3874999000000001,0.20709845423698425,-0.05506663769483566,9.767146110534668,0,0,-0.30517578125
1.3924999000000002,0.20470423996448517,-0.05027823522686958,9.766547203063965,-0.06103515625,-0.06103515625,-0.152587890625
1.3974999000000001,0.20111294090747833,-0.048482585698366165,9.759963035583496,0,0.030517578125,-0.06103515625
1.4024999000000002,0.20051439106464386,-0.04249707981944084,9.754576683044434,0.030517578125,0.18310546875,-0.152587890625
1.4074999000000001,0.20290859043598175,-0.04429273307323456,9.747393608093262,-0.030517578125,0.091552734375,-0.274658203125
1.4124999,0.20051439106464386,-0.04429273307323456,9.741408348083496,-0.1220703125,-0.030517578125,-0.30517578125
1.4174999000000001,0.20290859043598175,-0.0454898327589035,9.739612579345703,-0.152587890625,-0.244140625,-0.152587890625
1.4224999,0.20231004059314728,-0.048482585698366165,9.73661994934082,-0.06103515625,-0.1220703125,-0.244140625
1.4274999000000002,0.2017114907503128,-0.04668693244457245,9.742605209350586,0.030517578125,0.06103515625,-0.152587890625
1.4324999,0.20290859043598175,-0.04489128291606903,9.745597839355469,-0.030517578125,0.1220703125,-0.091552734375
1.4374999000000002,0.2041056901216507,-0.0454898327589035,9.753378868103027,-0.091552734375,0,-0.1220703125
1.4424999,0.20111294090747833,-0.04429273307323456,9.756970405578613,-0.152587890625,-0.152587890625,-0.152587890625
1.4474999000000002,0.19931729137897491,-0.04369417950510979,9.758167266845703,-0.091552734375,-0.030517578125,-0.244140625
1.4524999,0.19632454216480255,-0.04489128291606903,9.761159896850586,-0.1220703125,0.1220703125,-0.152587890625
1.4574999000000002,0.1933317929506302,-0.04249707981944084,9.75936508178711,-0.030517578125,0,-0.1220703125
1.4624999,0.19452889263629913,-0.04429273307323456,9.761159896850586,-0.030517578125,-0.1220703125,-0.1220703125
1.4674999000000002,0.1975216418504715,-0.04249707981944084,9.758167266845703,-0.091552734375,0.06103515625,-0.152587890625
1.4724999,0.2017114907503128,-0.04369417950510979,9.755773544311523,-0.18310546875,-0.06103515625,-0.1220703125
1.4774999000000002,0.20709845423698425,-0.043095629662275314,9.754576683044434,0.06103515625,-0.091552734375,-0.152587890625
1.4824999,0.21128830313682556,-0.04429273307323456,9.75397777557373,0.06103515625,0.06103515625,-0.091552734375
1.4874999000000002,0.2148796021938324,-0.04369417950510979,9.754576683044434,0,0.18310546875,-0.274658203125
1.4924999,0.21368250250816345,-0.04429273307323456,9.755773544311523,0.030517578125,0.1220703125,-0.213623046875
1.4974999000000002,0.21368250250816345,-0.040701430290937424,9.754576683044434,0.030517578125,0.06103515625,-0.18310546875
1.5024999,0.21308395266532898,-0.03770867735147476,9.75517463684082,0.18310546875,0.1220703125,-0.152587890625
1.5074999000000002,0.21009120345115662,-0.033518824726343155,9.754576683044434,0.030517578125,-0.06103515625,-0.152587890625
1.5124999000000001,0.20709845423698425,-0.033518824726343155,9.755773544311523,-0.030517578125,-0.030517578125,-0.091552734375
1.5174999000000002,0.2041056901216507,-0.0347159244120121,9.758766174316406,0.030517578125,0.091552734375,0
1.5224999000000001,0.19871874153614044,-0.038307227194309235,9.761159896850586,0,0.1220703125,-0.213623046875
1.5274999000000002,0.19572599232196808,-0.04249707981944084,9.762357711791992,0.030517578125,0.152587890625,-0.152587890625
1.5324999000000001,0.19452889263629913,-0.046088382601737976,9.763554573059082,0,0,-0.1220703125
1.5374999000000003,0.19393034279346466,-0.046088382601737976,9.762955665588379,-0.091552734375,-0.091552734375,-0.1220703125
1.5424999000000001,0.19692309200763702,-0.04967968538403511,9.764153480529785,-0.1220703125,0.06103515625,0
1.5474999,0.19812019169330597,-0.050876785069704056,9.764153480529785,0.030517578125,-0.06103515625,0
1.5524999000000002,0.2017114907503128,-0.055665191262960434,9.763554573059082,-0.030517578125,-0.091552734375,-0.1220703125
1.5574999,0.2017114907503128,-0.05446808785200119,9.758167266845703,0.030517578125,-0.030517578125,-0.06103515625
1.5624999000000002,0.2017114907503128,-0.0520738884806633,9.754576683044434,0,0.06103515625,-0.152587890625
1.5674999,0.20290859043598175,-0.047884032130241394,9.749189376831055,0.030517578125,-0.091552734375,-0.274658203125
1.5724999000000002,0.20470423996448517,-0.04249707981944084,9.749788284301758,0.06103515625,0.06103515625,-0.213623046875
1.5774999,0.2059013396501541,-0.04010287672281265,9.750985145568848,0.06103515625,0.06103515625,-0.1220703125
1.5824999000000002,0.21009120345115662,-0.03770867735147476,9.756970405578613,-0.06103515625,0,-0.244140625
1.5874999,0.21128830313682556,-0.03232172131538391,9.761758804321289,0,0.06103515625,-0.30517578125
1.5924999000000002,0.21308395266532898,-0.028730420395731926,9.764153480529785,0.030517578125,0.06103515625,-0.18310546875
1.5974999,0.21428105235099792,-0.02753331884741783,9.764153480529785,0.030517578125,0.091552734375,-0.1220703125
1.6024999000000002,0.2148796021938324,-0.028730420395731926,9.758167266845703,0,0.213623046875,-0.06103515625
1.6074999,0.2124854028224945,-0.03411737456917763,9.753378868103027,0.1220703125,-0.091552734375,-0.091552734375
1.6124999000000002,0.21009120345115662,-0.04249707981944084,9.747393608093262,0.06103515625,-0.06103515625,-0.091552734375
1.6174999,0.20530278980731964,-0.046088382601737976,9.743802070617676,-0.152587890625,0.030517578125,-0.213623046875
1.6224999000000002,0.19931729137897491,-0.048482585698366165,9.742605209350586,-0.152587890625,0,-0.091552734375
1.6274999,0.19452889263629913,-0.04668693244457245,9.745597839355469,-0.030517578125,-0.1220703125,0
1.6324999000000002,0.19452889263629913,-0.04967968538403511,9.748590469360352,-0.030517578125,-0.213623046875,-0.091552734375
1.6374999000000001,0.1975216418504715,-0.048482585698366165,9.75517463684082,0,-0.1220703125,0.030517578125
1.6424999000000002,0.19871874153614044,-0.05386953800916672,9.756970405578613,-0.1220703125,-0.1220703125,-0.091552734375
1.6474999000000001,0.20231004059314728,-0.05506663769483566,9.758766174316406,-0.213623046875,-0.091552734375,-0.06103515625
1.6524999000000002,0.20111294090747833,-0.05446808785200119,9.757569313049316,-0.1220703125,-0.091552734375,-0.091552734375
1.6574999000000001,0.20290859043598175,-0.050876785069704056,9.75936508178711,0.030517578125,-0.030517578125,-0.244140625
1.6624999000000003,0.2059013396501541,-0.04668693244457245,9.759963035583496,0.091552734375,-0.030517578125,-0.213623046875
1.6674999000000001,0.20949265360832214,-0.04369417950510979,9.758167266845703,0.152587890625,-0.06103515625,-0.244140625
1.6724999,0.21308395266532898,-0.04189852997660637,9.75278091430664,0.213623046875,-0.030517578125,-0.152587890625
1.6774999000000002,0.21787235140800476,-0.040701430290937424,9.748590469360352,0.030517578125,-0.06103515625,-0.06103515625
1.6824999,0.21607670187950134,-0.04189852997660637,9.747393608093262,-0.030517578125,-0.06103515625,-0.1220703125
1.6874999000000002,0.21607670187950134,-0.038307227194309235,9.747393608093262,-0.18310546875,0.1220703125,-0.18310546875
1.6924999,0.2082955539226532,-0.03651157766580582,9.754576683044434,-0.06103515625,0.091552734375,-0.213623046875
1.6974999000000002,0.20231004059314728,-0.03711012750864029,9.756970405578613,-0.06103515625,0.091552734375,-0.152587890625
1.7024999,0.1951274424791336,-0.03950432687997818,9.761159896850586,0,0.091552734375,-0.18310546875
1.7074999000000002,0.19273324310779572,-0.04369417950510979,9.764751434326172,-0.030517578125,0.06103515625,-0.1220703125
1.7124999,0.19273324310779572,-0.048482585698366165,9.765350341796875,-0.091552734375,0.06103515625,-0.091552734375
1.7174999000000002,0.19273324310779572,-0.048482585698366165,9.765350341796875,-0.091552734375,0.06103515625,-0.091552734375
1.7224999,0.19393034279346466,-0.048482585698366165,9.764751434326172,0.06103515625,-0.06103515625,-0.213623046875
1.7274999000000002,0.19393034279346466,-0.050876785069704056,9.7605619430542,-0.1220703125,-0.091552734375,0.030517578125
1.7324999,0.19572599232196808,-0.05027823522686958,9.757569313049316,0.030517578125,0,0.06103515625
1.7374999000000002,0.1951274424791336,-0.05506663769483566,9.752182006835938,0,0,-0.152587890625
1.7424999,0.1951274424791336,-0.05626374110579491,9.749788284301758,-0.18310546875,-0.1220703125,-0.18310546875
1.7474999000000002,0.1951274424791336,-0.0586579404771328,9.747992515563965,0.06103515625,-0.152587890625,-0.1220703125
1.7524999,0.19692309200763702,-0.05686229094862938,9.747992515563965,0.030517578125,-0.1220703125,-0.091552734375
1.7574999000000002,0.1975216418504715,-0.05267243832349777,9.749189376831055,0,0.030517578125,-0.213623046875
1.7624999000000001,0.20231004059314728,-0.04908113554120064,9.747393608093262,-0.091552734375,-0.091552734375,-0.091552734375
1.7674999000000002,0.20470423996448517,-0.0454898327589035,9.749189376831055,0,0,-0.18310546875
1.7724999000000001,0.20530278980731964,-0.04489128291606903,9.747992515563965,0.030517578125,0.06103515625,-0.18310546875
1.7774999000000002,0.2064998894929886,-0.04429273307323456,9.749788284301758,0.091552734375,-0.1220703125,-0.030517578125
1.7824999000000001,0.20470423996448517,-0.046088382601737976,9.749788284301758,-0.06103515625,-0.030517578125,-0.030517578125
1.7874999000000003,0.20470423996448517,-0.04668693244457245,9.747393608093262,-0.152587890625,0.091552734375,-0.18310546875
1.7924999000000001,0.20769700407981873,-0.04967968538403511,9.744999885559082,0,0.091552734375,-0.213623046875
1.7974999,0.20709845423698425,-0.050876785069704056,9.744400978088379,-0.06103515625,0.091552734375,-0.18310546875
1.8024999000000002,0.20949265360832214,-0.04967968538403511,9.743802070617676,-0.1220703125,-0.030517578125,-0.06103515625
1.8074999,0.21009120345115662,-0.04967968538403511,9.744999885559082,0.091552734375,-0.030517578125,-0.06103515625
1.8124999000000002,0.20949265360832214,-0.04908113554120064,9.743802070617676,0.030517578125,0,-0.18310546875
1.8174999,0.2106897532939911,-0.04967968538403511,9.745597839355469,0,-0.06103515625,-0.1220703125
1.8224999000000002,0.20949265360832214,-0.04967968538403511,9.747992515563965,0.030517578125,-0.152587890625,-0.1220703125
1.8274999,0.21009120345115662,-0.050876785069704056,9.753378868103027,-0.091552734375,-0.06103515625,-0.091552734375
1.8324999000000002,0.2082955539226532,-0.05027823522686958,9.75936508178711,0.030517578125,0.06103515625,-0.091552734375
1.8374999,0.2064998894929886,-0.04908113554120064,9.761758804321289,-0.030517578125,0.091552734375,-0.274658203125
1.8424999000000002,0.2064998894929886,-0.04967968538403511,9.764751434326172,-0.1220703125,0.152587890625,-0.244140625
1.8474999,0.2059013396501541,-0.048482585698366165,9.761758804321289,0.030517578125,0.030517578125,-0.18310546875
1.8524999000000002,0.20709845423698425,-0.048482585698366165,9.757569313049316,-0.030517578125,-0.030517578125,-0.152587890625
1.8574999,0.2082955539226532,-0.04967968538403511,9.751583099365234,-0.091552734375,0.1220703125,0
1.8624999000000002,0.20949265360832214,-0.05027823522686958,9.749788284301758,-0.1220703125,0.18310546875,-0.1220703125
1.8674999,0.21009120345115662,-0.053270988166332245,9.746794700622559,-0.091552734375,0.213623046875,-0.213623046875
1.8724999000000002,0.21009120345115662,-0.05446808785200119,9.746196746826172,0,0.1220703125,-0.274658203125
1.8774999,0.20889410376548767,-0.05386953800916672,9.746196746826172,0.152587890625,0.18310546875,-0.18310546875
1.8824999000000002,0.2041056901216507,-0.05147533491253853,9.744999885559082,0,0.18310546875,-0.30517578125
1.8874999000000001,0.20350714027881622,-0.046088382601737976,9.745597839355469,-0.030517578125,0.18310546875,-0.244140625
1.8924999000000002,0.20051439106464386,-0.04189852997660637,9.747393608093262,0,0.091552734375,-0.06103515625
1.8974999000000001,0.2017114907503128,-0.03950432687997818,9.750386238098145,-0.06103515625,0.030517578125,-0.091552734375
1.9024999000000002,0.2017114907503128,-0.03950432687997818,9.753378868103027,0,0.1220703125,-0.213623046875
1.9074999000000001,0.20111294090747833,-0.041299980133771896,9.757569313049316,-0.06103515625,0.030517578125,0.030517578125
1.9124999000000003,0.1975216418504715,-0.040701430290937424,9.758167266845703,-0.152587890625,-0.030517578125,0.030517578125
1.9174999000000001,0.19692309200763702,-0.040701430290937424,9.756970405578613,-0.18310546875,-0.1220703125,0
1.9224999,0.19692309200763702,-0.038307227194309235,9.75397777557373,-0.152587890625,-0.06103515625,0.1220703125
1.9274999000000002,0.19812019169330597,-0.03950432687997818,9.749189376831055,-0.091552734375,0,0.06103515625
1.9324999,0.20111294090747833,-0.03770867735147476,9.746794700622559,-0.030517578125,-0.091552734375,-0.091552734375
1.9374999000000002,0.20051439106464386,-0.041299980133771896,9.746196746826172,0,-0.030517578125,-0.152587890625
1.9424999,0.19931729137897491,-0.04489128291606903,9.745597839355469,-0.244140625,-0.030517578125,0.06103515625
1.9474999000000002,0.19692309200763702,-0.04908113554120064,9.749788284301758,-0.1220703125,-0.06103515625,0.06103515625
1.9524999,0.19812019169330597,-0.05386953800916672,9.75397777557373,-0.213623046875,-0.030517578125,0.06103515625
1.9574999000000002,0.20290859043598175,-0.05686229094862938,9.761159896850586,-0.030517578125,0.030517578125,-0.18310546875
1.9624999,0.20949265360832214,-0.055665191262960434,9.764751434326172,-0.091552734375,0.091552734375,-0.274658203125
1.9674999000000002,0.21368250250816345,-0.0520738884806633,9.767146110534668,-0.030517578125,0.1220703125,-0.091552734375
1.9724999,0.21428105235099792,-0.0454898327589035,9.763554573059082,-0.18310546875,0.1220703125,-0.213623046875
1.9774999000000002,0.2106897532939911,-0.03950432687997818,9.757569313049316,-0.091552734375,0.18310546875,-0.152587890625
1.9824999,0.2041056901216507,-0.035913024097681046,9.75397777557373,-0.152587890625,0.274658203125,-0.06103515625
1.9874999000000002,0.20290859043598175,-0.033518824726343155,9.749788284301758,-0.152587890625,0.30517578125,-0.030517578125
1.9924999,0.19692309200763702,-0.03651157766580582,9.751583099365234,-0.244140625,0.18310546875,0.152587890625
1.9974999000000002,0.1933317929506302,-0.03711012750864029,9.752182006835938,-0.335693359375,0.244140625,-0.06103515625
2.0024999,0.1909375786781311,-0.041299980133771896,9.753378868103027,-0.274658203125,0.274658203125,0.152587890625
2.0074999,0.1867477297782898,-0.04249707981944084,9.750985145568848,-0.152587890625,0.152587890625,0.030517578125
2.0124999000000003,0.18974047899246216,-0.04668693244457245,9.744400978088379,-0.213623046875,0.335693359375,-0.030517578125
2.0174999000000002,0.18794482946395874,-0.05027823522686958,9.745597839355469,-0.213623046875,0.30517578125,0.06103515625
2.0224999,0.18794482946395874,-0.05027823522686958,9.739612579345703,-0.091552734375,0.579833984375,0.48828125
2.0274999,0.20231004059314728,-0.05925649031996727,9.747992515563965,-0.091552734375,0.152587890625,0.274658203125
2.0324999000000004,0.19692309200763702,-0.0520738884806633,9.745597839355469,-0.18310546875,0.48828125,0.1220703125
2.0374999000000003,0.22744916379451752,-0.07721300423145294,9.752182006835938,-0.152587890625,0.3662109375,-0.030517578125
2.0424999,0.23044191300868988,-0.07182604819536209,9.75397777557373,0,0.701904296875,-0.518798828125
2.0474999,0.23283611238002777,-0.09217676520347595,9.753378868103027,0.06103515625,0.9765625,-0.396728515625
2.0524999,0.2298433631658554,-0.08499415963888168,9.754576683044434,0,0.579833984375,-0.579833984375
2.0574999000000003,0.1975216418504715,-0.06763619929552078,9.747393608093262,-0.06103515625,0.91552734375,-0.42724609375
2.0624999,0.18076223134994507,-0.048482585698366165,9.744400978088379,-0.06103515625,0.457763671875,-0.18310546875
2.0674999,0.1646013706922531,-0.03232172131538391,9.744400978088379,-0.244140625,0.152587890625,0.06103515625
2.0724999,0.16400282084941864,-0.023343466222286224,9.749189376831055,-0.18310546875,0.42724609375,-0.152587890625
2.0774999000000003,0.1646013706922531,-0.028730420395731926,9.75278091430664,-0.06103515625,0.579833984375,-0.152587890625
2.0824999,0.1646013706922531,-0.028730420395731926,9.75278091430664,-0.06103515625,0.579833984375,-0.152587890625
2.0874999,0.16819266974925995,-0.03531447425484657,9.75637149810791,-0.18310546875,0.18310546875,0.152587890625
2.0924999,0.17298106849193573,-0.04249707981944084,9.75517463684082,-0.18310546875,0.18310546875,0
2.0974999000000003,0.16579847037792206,-0.03890577703714371,9.749788284301758,-0.152587890625,0.30517578125,-0.030517578125
2.1024999,0.1693897694349289,-0.04908113554120064,9.754576683044434,-0.1220703125,0.30517578125,0.213623046875
2.1074999,0.24001872539520264,-0.11971008777618408,9.771934509277344,-0.091552734375,0.030517578125,0
2.1124999,0.4034229815006256,-0.6751648783683777,9.926959037780762,1.40380859375,0.48828125,-2.86865234375
2.1174999000000003,0.6482301354408264,-0.5949591398239136,9.978434562683105,2.105712890625,10.7421875,-19.10400390625
2.1224999,0.333991140127182,-0.2825157940387726,9.543288230895996,-2.38037109375,24.566650390625,5.859375
2.1274999,-0.1412578970193863,0.3770867586135864,9.390059471130371,-2.50244140625,-6.40869140625,14.495849609375
2.1324999,-0.2753331959247589,0.8427590131759644,9.00279712677002,-0.457763671875,-23.834228515625,-17.2119140625
2.1374999000000003,-0.3621230125427246,1.1402385234832764,9.072827339172363,-0.3662109375,-0.213623046875,2.13623046875
2.1424999000000002,-0.060453593730926514,0.5069721937179565,9.412803649902344,0.274658203125,4.974365234375,-0.3662109375
2.1474999,0.5410895943641663,0.16579847037792206,9.758167266845703,-0.213623046875,-1.068115234375,-0.701904296875
2.1524999,0.4321534037590027,-0.1346738487482071,9.910199165344238,-0.18310546875,-0.6103515625,1.0986328125
2.1574999000000004,0.4010287821292877,-0.2388216257095337,9.987412452697754,-0.18310546875,-0.335693359375,0
2.1624999000000003,0.35075053572654724,-0.2777273952960968,9.983222961425781,-0.30517578125,-1.15966796875,0.213623046875
2.1674999,0.25019407272338867,-0.1975216418504715,9.936535835266113,-0.06103515625,0,-0.06103515625
2.1724999,0.24660277366638184,-0.15562310814857483,9.88386344909668,0.091552734375,0.30517578125,-0.274658203125
2.1774999000000004,0.21667525172233582,-0.09816227108240128,9.814431190490723,0.091552734375,-0.030517578125,-0.54931640625
2.1824999000000003,0.18315643072128296,-0.0628477931022644,9.75637149810791,0.274658203125,0.244140625,-0.54931640625
2.1874999,0.17537526786327362,-0.04967968538403511,9.720458984375,0.213623046875,0.030517578125,-0.48828125
2.1924999,0.17238251864910126,-0.03770867735147476,9.709685325622559,0.06103515625,-0.1220703125,-0.244140625
2.1974999,0.17298106849193573,-0.03232172131538391,9.714473724365234,0.1220703125,0.1220703125,-0.244140625
2.2024999000000003,0.20231004059314728,-0.04728548228740692,9.725846290588379,0.213623046875,0,-0.30517578125
2.2074999,0.23403321206569672,-0.05147533491253853,9.743802070617676,0.244140625,-0.091552734375,-0.732421875
2.2124999,0.25258827209472656,-0.046088382601737976,9.752182006835938,0.396728515625,0.457763671875,-1.220703125
2.2174999,0.28550854325294495,-0.05027823522686958,9.786897659301758,0.579833984375,0.457763671875,-1.46484375
2.2224999000000003,0.3172317147254944,-0.014365210197865963,9.81143856048584,0.701904296875,0.823974609375,-1.434326171875
2.2274999,0.3124433159828186,0.0011971008498221636,9.834781646728516,0.946044921875,1.739501953125,-0.885009765625
2.2324999,0.32441434264183044,0.02753331884741783,9.869498252868652,1.0986328125,2.716064453125,-1.953125
2.2374999,0.3579331636428833,0.033518824726343155,9.911396026611328,0.885009765625,4.547119140625,-1.03759765625
2.2424999000000003,0.3998316824436188,0.03172317147254944,9.962273597717285,0.732421875,8.148193359375,-0.30517578125
2.2474999,0.4728548228740692,0.01496376097202301,10.014347076416016,0.762939453125,12.39013671875,-0.30517578125
2.2524999,0.595557689666748,0.06823474913835526,9.952696800231934,0.946044921875,14.6484375,0.213623046875
2.2574999,0.5333084464073181,0.06404489278793335,9.924564361572266,1.3427734375,8.819580078125,9.490966796875
2.2624999000000003,0.3513490855693817,0.1364694982767105,9.746794700622559,0.79345703125,6.65283203125,12.8173828125
2.2674999000000002,-0.0077811554074287415,0.05506663769483566,9.625288963317871,1.15966796875,6.77490234375,-0.6103515625
2.2724999,-0.5273229479789734,-0.025737667456269264,9.355342864990234,-0.30517578125,0.67138671875,2.3193359375
2.2774999,-0.9780313968658447,-0.1412578970193863,9.161413192749023,-0.244140625,-12.969970703125,1.52587890625
2.2824999000000004,-1.3096283674240112,-0.1825578808784485,8.904036521911621,-0.06103515625,-23.3154296875,-0.91552734375
2.2874999000000003,-1.3682862520217896,-0.18734627962112427,9.205106735229492,-1.15966796875,-34.515380859375,1.434326171875
2.2924999,-0.5943605899810791,0.03411737456917763,9.314043045043945,-4.974365234375,-26.885986328125,4.730224609375
2.2974999,0.11851298063993454,-0.05027823522686958,9.8599214553833,-1.129150390625,-0.518798828125,5.218505859375
2.3024999000000004,0.9445125460624695,-0.03411737456917763,10.041281700134277,0.06103515625,2.288818359375,0.885009765625
2.3074999000000003,1.3467384576797485,-0.11252748221158981,10.140042304992676,-0.030517578125,-2.25830078125,2.01416015625
2.3124999,1.157596468925476,-0.2861070930957794,10.073004722595215,-0.823974609375,-4.364013671875,-1.434326171875
2.3174999,0.8343793153762817,-0.4189853072166443,9.925163269042969,-0.18310546875,-2.288818359375,-0.701904296875
2.3224999,0.6673837304115295,-0.33279404044151306,9.847352027893066,2.410888671875,3.448486328125,-6.927490234375
2.3274999000000003,0.4106055796146393,-0.30705636739730835,9.725846290588379,1.373291015625,3.662109375,-4.730224609375
2.3324999,0.24181437492370605,-0.07960720360279083,9.716269493103027,0.274658203125,1.953125,0
2.3374999,0.09935937076807022,0.09636662155389786,9.713874816894531,-0.91552734375,-3.11279296875,0.152587890625
2.3424999,0.014365210197865963,0.1951274424791336,9.718064308166504,-0.823974609375,-2.62451171875,-0.518798828125
2.3474999000000003,0.028730420395731926,0.13287819921970367,9.740211486816406,0.823974609375,1.89208984375,-0.3662109375
2.3524999,0.12030863761901855,0.08259996026754379,9.75278091430664,0.152587890625,1.28173828125,-0.579833984375
2.3574999,0.20290859043598175,0.02214636653661728,9.767744064331055,-0.54931640625,-1.190185546875,-0.1220703125
2.3624999,0.2082955539226532,-0.03890577703714371,9.756970405578613,-0.213623046875,-0.9765625,-0.030517578125
2.3674999000000003,0.2687491476535797,-0.04967968538403511,9.757569313049316,0.030517578125,0.1220703125,-0.06103515625
2.3724999,0.2759317457675934,-0.09217676520347595,9.731232643127441,0.213623046875,0.579833984375,0
2.3774999,0.25498247146606445,-0.0736217051744461,9.739612579345703,0,0.67138671875,-0.18310546875
2.3824999,0.2322375625371933,-0.07242459803819656,9.73661994934082,0.030517578125,-0.06103515625,-0.213623046875
2.3874999000000003,0.20231004059314728,-0.03531447425484657,9.756970405578613,-0.152587890625,-0.9765625,-0.274658203125
2.3924999000000002,0.1999158412218094,-0.03651157766580582,9.776124000549316,-0.18310546875,-0.579833984375,-0.30517578125
2.3974999,0.2148796021938324,-0.01496376097202301,9.786897659301758,-0.091552734375,0.213623046875,0
2.4024999,0.23283611238002777,-0.043095629662275314,9.782109260559082,0,0.091552734375,0.030517578125
2.4074999000000004,0.23822307586669922,-0.033518824726343155,9.767744064331055,0.1220703125,0.274658203125,-0.152587890625
2.4124999000000003,0.23104046285152435,-0.04249707981944084,9.741408348083496,-0.152587890625,0.1220703125,-0.42724609375
2.4174999,0.2124854028224945,-0.05147533491253853,9.738415718078613,-0.18310546875,0.213623046875,-0.3662109375
2.4224999,0.19153612852096558,-0.004189853090792894,9.731831550598145,0.030517578125,-0.06103515625,-0.244140625
2.4274999000000004,0.1777694821357727,-0.03292027488350868,9.747992515563965,-0.274658203125,-0.67138671875,-0.091552734375
2.4324999000000003,0.19871874153614044,-0.019153613597154617,9.757569313049316,-0.213623046875,-0.67138671875,0.244140625
2.4374999,0.2256535142660141,-0.02454056777060032,9.77133560180664,0.152587890625,0.213623046875,0.091552734375
2.4424999,0.2322375625371933,-0.06703764945268631,9.75637149810791,0.335693359375,1.220703125,-0.152587890625
2.4474999,0.22026655077934265,-0.020350715145468712,9.759963035583496,0.152587890625,0.274658203125,-0.48828125
2.4524999000000003,0.22026655077934265,-0.020350715145468712,9.759963035583496,0.152587890625,0.274658203125,-0.48828125
2.4574999,0.19871874153614044,-0.03232172131538391,9.742605209350586,-0.091552734375,-1.03759765625,-0.42724609375
2.4624999,0.16879121959209442,-0.016759412363171577,9.748590469360352,-0.335693359375,-0.762939453125,-0.091552734375
2.4674999,0.20350714027881622,-0.009576806798577309,9.748590469360352,-0.213623046875,-0.335693359375,0.18310546875
2.4724999000000003,0.25438392162323,-0.05686229094862938,9.775525093078613,0.1220703125,0.335693359375,-0.1220703125
2.4774999,0.24660277366638184,-0.04908113554120064,9.75637149810791,0.42724609375,1.129150390625,-0.335693359375
2.4824999,0.2406172752380371,-0.047884032130241394,9.778518676757812,0,0.1220703125,-0.42724609375
2.4874999,0.2064998894929886,-0.031124621629714966,9.75936508178711,-0.152587890625,-1.15966796875,-0.30517578125
2.4924999000000003,0.166995570063591,-0.04189852997660637,9.751583099365234,-0.274658203125,-0.6103515625,-0.030517578125
2.4974999,0.2106897532939911,-0.04908113554120064,9.75278091430664,-0.244140625,-0.213623046875,0.18310546875
2.5024999,0.23044191300868988,-0.05027823522686958,9.71926212310791,0.18310546875,0.885009765625,0
2.5074999,0.22744916379451752,-0.06883329898118973,9.743802070617676,0.213623046875,1.46484375,-0.67138671875
2.5124999000000003,0.2148796021938324,-0.01735796220600605,9.727043151855469,-0.091552734375,-0.457763671875,-0.3662109375
2.5174999000000002,0.18974047899246216,-0.028730420395731926,9.770736694335938,-0.335693359375,-1.708984375,-0.152587890625
2.5224999,0.2041056901216507,-0.035913024097681046,9.759963035583496,-0.244140625,-0.518798828125,0.274658203125
2.5274999,0.26755204796791077,-0.033518824726343155,9.793481826782227,0.30517578125,0.67138671875,0.091552734375
2.5324999000000004,0.2472013235092163,-0.053270988166332245,9.745597839355469,0.3662109375,1.8310546875,-0.54931640625
2.5374999000000003,0.2346317619085312,-0.01735796220600605,9.771934509277344,-0.06103515625,0.091552734375,-0.6103515625
2.5424999,0.18495208024978638,-0.015562310814857483,9.750386238098145,-0.3662109375,-2.0751953125,-0.30517578125
2.5474999,0.1825578808784485,-0.04728548228740692,9.750386238098145,-0.42724609375,-0.885009765625,0.42724609375
2.5524999000000004,0.2519897222518921,-0.06763619929552078,9.779715538024902,0.48828125,0.885009765625,0.244140625
2.5574999000000003,0.2388216257095337,-0.06464344263076782,9.719860076904297,0.67138671875,2.044677734375,-0.67138671875
2.5624999,0.2298433631658554,-0.061052143573760986,9.759963035583496,-0.18310546875,-0.091552734375,-0.42724609375
2.5674999,0.18136078119277954,0.004788403399288654,9.713275909423828,-0.823974609375,-2.5634765625,-0.030517578125
2.5724999,0.18555063009262085,-0.06224924325942993,9.736021041870117,-0.701904296875,-0.91552734375,0.335693359375
2.5774999000000003,0.243011474609375,0.005386953707784414,9.718064308166504,0.701904296875,1.64794921875,0.091552734375
2.5824999,0.22026655077934265,-0.06763619929552078,9.758167266845703,0.732421875,2.50244140625,-1.0986328125
2.5874999,0.22385786473751068,-0.02513911761343479,9.745597839355469,-0.6103515625,-1.190185546875,-0.335693359375
2.5924999,0.1909375786781311,-0.03411737456917763,9.783307075500488,-0.8544921875,-3.082275390625,0.30517578125
2.5974999000000003,0.243011474609375,-0.08439560979604721,9.778518676757812,-0.1220703125,0.152587890625,0.1220703125
2.6024999,0.2472013235092163,-0.0694318488240242,9.765948295593262,1.0986328125,3.204345703125,-0.518798828125
2.6074999,0.2256535142660141,-0.05686229094862938,9.75397777557373,0.1220703125,0.885009765625,-0.823974609375
2.6124999,0.19632454216480255,-0.03172317147254944,9.743204116821289,-0.946044921875,-3.021240234375,0.18310546875
2.6174999000000003,0.1711854189634323,-0.05746084079146385,9.762955665588379,-0.54931640625,-1.556396484375,0.54931640625
2.6224999,0.24001872539520264,-0.07003039866685867,9.7605619430542,0.91552734375,2.410888671875,-0.335693359375
2.6274999,0.20111294090747833,-0.08858546614646912,9.75637149810791,0.79345703125,2.838134765625,-1.220703125
2.6324999,0.23822307586669922,-0.06344634294509888,9.766547203063965,-0.946044921875,-2.349853515625,-0.18310546875
2.6374999000000003,0.20231004059314728,-0.06404489278793335,9.717466354370117,-0.91552734375,-3.143310546875,0.79345703125
2.6424999000000002,0.27892449498176575,-0.028131870552897453,9.714473724365234,0.579833984375,1.434326171875,0.030517578125
2.6474999,0.22625206410884857,-0.03950432687997818,9.70549488067627,1.15966796875,3.90625,-1.28173828125
2.6524999,0.2495955228805542,-0.011971008032560349,9.733028411865234,-0.640869140625,-1.434326171875,-0.18310546875
2.6574999000000004,0.21009120345115662,-0.04369417950510979,9.721057891845703,-1.15966796875,-3.814697265625,0.91552734375
2.6624999000000003,0.24480712413787842,-0.03411737456917763,9.754576683044434,0.48828125,1.007080078125,0.1220703125
2.6674999,0.1975216418504715,-0.055665191262960434,9.736021041870117,1.3427734375,4.08935546875,-1.190185546875
2.6724999,0.23104046285152435,-0.0454898327589035,9.765350341796875,-0.6103515625,-1.373291015625,-0.335693359375
2.6774999000000004,0.19153612852096558,-0.07242459803819656,9.757569313049316,-1.52587890625,-4.119873046875,0.885009765625
2.6824999000000003,0.2298433631658554,-0.06524199992418289,9.780912399291992,0.457763671875,1.373291015625,-0.1220703125
2.6874999,0.17298106849193573,-0.07182604819536209,9.75278091430664,1.556396484375,4.608154296875,-1.40380859375
2.6924999,0.22625206410884857,-0.055665191262960434,9.764153480529785,-0.79345703125,-2.166748046875,-0.18310546875
2.6974999,0.24181437492370605,-0.07422025501728058,9.744999885559082,-1.556396484375,-4.45556640625,1.312255859375
2.7024999000000003,0.22685061395168304,-0.033518824726343155,9.755773544311523,1.068115234375,2.99072265625,-0.274658203125
2.7074999,0.21428105235099792,-0.0293289702385664,9.755773544311523,1.46484375,4.33349609375,-1.8310546875
2.7124999,0.20889410376548767,-0.030526071786880493,9.764751434326172,-1.52587890625,-4.0283203125,-0.48828125
2.7174999,0.2346317619085312,-0.03172317147254944,9.73781681060791,-1.46484375,-3.662109375,1.739501953125
2.7224999000000003,0.1801636815071106,0.0011971008498221636,9.764751434326172,1.708984375,4.730224609375,-0.54931640625
2.7274999,0.19812019169330597,-0.047884032130241394,9.748590469360352,1.03759765625,3.0517578125,-2.44140625
2.7324999,0.19812019169330597,-0.04429273307323456,9.742006301879883,-1.861572265625,-5.18798828125,1.129150390625
2.7374999,0.2555810213088989,-0.06643909960985184,9.740809440612793,-0.732421875,-2.685546875,1.708984375
2.7424999000000003,0.1472434103488922,-0.050876785069704056,9.750386238098145,1.953125,6.317138671875,-1.708984375
2.7474999,0.2472013235092163,-0.08858546614646912,9.77791976928711,0.06103515625,0.640869140625,-2.410888671875
2.7524999,0.27054479718208313,-0.11013327538967133,9.774927139282227,-2.044677734375,-6.439208984375,1.8310546875
2.7574999,0.25677812099456787,-0.06643909960985184,9.797073364257812,0.396728515625,0.946044921875,0.30517578125
2.7624999000000003,0.17537526786327362,-0.04010287672281265,9.755773544311523,1.861572265625,6.317138671875,-2.62451171875
2.7674999000000002,0.24480712413787842,-0.04249707981944084,9.742605209350586,-1.434326171875,-3.509521484375,-0.54931640625
2.7724999,0.2645592987537384,-0.020949264988303185,9.697713851928711,-1.495361328125,-4.94384765625,2.74658203125
2.7774999,0.11671733111143112,0.02992752194404602,9.740809440612793,1.678466796875,5.37109375,-1.40380859375
2.7824999000000004,0.1801636815071106,-0.0293289702385664,9.769539833068848,0.457763671875,2.349853515625,-2.655029296875
2.7874999000000003,0.2364274114370346,-0.03292027488350868,9.773131370544434,-1.953125,-6.28662109375,2.25830078125
2.7924999,0.2172738015651703,-0.0065840547904372215,9.807249069213867,0.3662109375,0.579833984375,0.640869140625
2.7974999,0.13048399984836578,0.008379706181585789,9.758766174316406,1.708984375,6.195068359375,-2.86865234375
2.8024999000000004,0.2735375463962555,-0.03651157766580582,9.736021041870117,-1.312255859375,-4.058837890625,-0.152587890625
2.8074999000000003,0.3100491166114807,-0.033518824726343155,9.71926212310791,-0.823974609375,-4.0283203125,2.8076171875
2.8124999,0.1604115068912506,0.023942016065120697,9.739612579345703,1.77001953125,5.859375,-1.922607421875
2.8174999,0.1604115068912506,0.023942016065120697,9.739612579345703,1.77001953125,5.859375,-1.922607421875
2.8224999,0.23403321206569672,-0.076015904545784,9.774927139282227,-0.1220703125,0.1220703125,-2.0751953125
2.8274999000000003,0.31543606519699097,-0.05506663769483566,9.744999885559082,-1.556396484375,-5.950927734375,3.23486328125
2.8324999,0.1628057211637497,-0.021547814831137657,9.801861763000488,1.3427734375,3.387451171875,-0.48828125
2.8374999,0.152031809091568,-0.07242459803819656,9.774328231811523,0.701904296875,3.875732421875,-3.11279296875
2.8424999,0.27892449498176575,-0.08918401598930359,9.752182006835938,-1.89208984375,-5.67626953125,1.983642578125
2.8474999000000003,0.24121582508087158,-0.04249707981944084,9.776124000549316,0.518798828125,0,1.068115234375
2.8524999,0.11013327538967133,-0.0347159244120121,9.73781681060791,1.556396484375,5.828857421875,-3.204345703125
2.8574999,0.2693476974964142,-0.11611878126859665,9.706093788146973,-1.64794921875,-4.150390625,0.396728515625
2.8624999,0.284311443567276,-0.0347159244120121,9.730035781860352,-0.18310546875,-2.685546875,2.44140625
2.8674999000000003,0.10773907601833344,-0.016759412363171577,9.691129684448242,1.800537109375,6.011962890625,-2.685546875
2.8724999,0.25019407272338867,-0.09277531504631042,9.72285270690918,-1.0986328125,-1.953125,-0.762939453125
2.8774999,0.3321954905986786,-0.02214636653661728,9.727043151855469,-1.03759765625,-4.547119140625,3.082275390625
2.8824999,0.11611878126859665,-0.0071826050989329815,9.741408348083496,1.861572265625,5.035400390625,-2.01416015625
2.8874999000000003,0.19692309200763702,-0.09397241473197937,9.767744064331055,-0.579833984375,0.091552734375,-1.5869140625
2.8924999000000002,0.3196259140968323,-0.06763619929552078,9.73542308807373,-1.434326171875,-5.157470703125,3.265380859375
2.8974999,0.11552023142576218,-0.0035913025494664907,9.762955665588379,1.800537109375,4.21142578125,-1.800537109375
2.9024999,0.17298106849193573,-0.08978256583213806,9.746794700622559,-0.06103515625,1.28173828125,-2.227783203125
2.9074999000000004,0.35075053572654724,-0.0736217051744461,9.718064308166504,-1.556396484375,-5.4931640625,3.173828125
2.9124999000000003,0.16639702022075653,0.013766659423708916,9.773730278015137,1.556396484375,3.692626953125,-1.40380859375
2.9174999,0.1777694821357727,-0.08798690885305405,9.727043151855469,-0.091552734375,2.197265625,-2.532958984375
2.9224999,0.3627215623855591,-0.08080431073904037,9.719860076904297,-1.708984375,-5.706787109375,3.265380859375
2.9274999000000004,0.17238251864910126,0.02513911761343479,9.768342971801758,1.5869140625,3.082275390625,-1.068115234375
2.9324999000000003,0.15083470940589905,-0.08918401598930359,9.719860076904297,0.091552734375,2.74658203125,-2.62451171875
2.9374999,0.3471592366695404,-0.07062894850969315,9.723451614379883,-1.678466796875,-5.401611328125,3.23486328125
2.9424999,0.15801730751991272,0.038307227194309235,9.777320861816406,1.739501953125,2.838134765625,-1.129150390625
2.9474999,0.12988543510437012,-0.09157821536064148,9.730634689331055,0.213623046875,2.593994140625,-2.38037109375
2.9524999000000003,0.34416648745536804,-0.06703764945268631,9.73781681060791,-1.739501953125,-5.706787109375,3.23486328125
2.9574999,0.13826514780521393,0.023343466222286224,9.778518676757812,1.77001953125,3.0517578125,-1.40380859375
2.9624999,0.13527239859104156,-0.10833762586116791,9.732429504394531,-0.030517578125,2.288818359375,-2.13623046875
2.9674999,0.345363587141037,-0.07182604819536209,9.737217903137207,-1.556396484375,-5.43212890625,3.23486328125
2.9724999000000003,0.10833762586116791,0.02992752194404602,9.770736694335938,1.922607421875,3.47900390625,-2.105712890625
2.9774999,0.1562216579914093,-0.10175357013940811,9.739013671875,-0.42724609375,1.495361328125,-1.46484375
2.9824999,0.35434186458587646,-0.040701430290937424,9.751583099365234,-1.556396484375,-5.126953125,3.23486328125
2.9874999,0.10354922711849213,0.048482585698366165,9.768941879272461,1.89208984375,4.21142578125,-2.655029296875
2.9924999000000003,0.21009120345115662,-0.12030863761901855,9.747393608093262,-0.823974609375,0.48828125,-0.579833984375
2.9974999,0.3627215623855591,-0.015562310814857483,9.764751434326172,-1.03759765625,-4.57763671875,2.777099609375
3.0024999,0.07661445438861847,0.013766659423708916,9.776124000549316,1.89208984375,5.096435546875,-3.326416015625
3.0074999,0.2495955228805542,-0.15143325924873352,9.756970405578613,-1.434326171875,-1.068115234375,0.518798828125
3.0124999000000003,0.3250128924846649,0.01975216343998909,9.791686058044434,-0.518798828125,-3.509521484375,1.708984375
3.0174999000000002,0.06404489278793335,-0.02214636653661728,9.793481826782227,1.800537109375,5.2490234375,-3.570556640625
3.0224999,0.30286651849746704,-0.1280897855758667,9.744999885559082,-1.77001953125,-2.777099609375,1.983642578125
3.0274999,0.2585737705230713,0.020350715145468712,9.794678688049316,0.244140625,-1.89208984375,0.244140625
3.0324999000000004,0.058059390634298325,-0.05027823522686958,9.727043151855469,1.129150390625,4.94384765625,-3.11279296875
3.0374999000000003,0.3196259140968323,-0.16160862147808075,9.692327499389648,-2.166748046875,-4.33349609375,3.265380859375
3.0424999,0.20111294090747833,0.06344634294509888,9.718064308166504,1.007080078125,0.48828125,-1.64794921875
3.0474999,0.11133038252592087,-0.09217676520347595,9.684545516967773,0.579833984375,3.692626953125,-1.708984375
3.0524999000000004,0.395043283700943,-0.0933738648891449,9.692327499389648,-1.739501953125,-5.2490234375,3.448486328125
3.0574999000000003,0.12389993667602539,0.08080431073904037,9.77672290802002,1.708984375,2.9296875,-3.2958984375
3.0624999,0.2064998894929886,-0.1346738487482071,9.758766174316406,-0.518798828125,1.373291015625,0.457763671875
3.0674999,0.3519476354122162,-0.04668693244457245,9.802460670471191,-1.40380859375,-5.096435546875,3.0517578125
3.0724999000000004,0.06165069341659546,0.021547814831137657,9.827000617980957,2.0751953125,5.096435546875,-4.2724609375
3.0774999000000003,0.2885012924671173,-0.17178396880626678,9.750386238098145,-1.434326171875,-2.13623046875,2.9296875
3.0824999,0.25258827209472656,0.008379706181585789,9.838972091674805,-0.244140625,-2.105712890625,0.579833984375
3.0874999,0.05686229094862938,-0.015562310814857483,9.743802070617676,1.434326171875,4.913330078125,-2.960205078125
3.0924999,0.34656068682670593,-0.13766659796237946,9.733028411865234,-1.983642578125,-4.791259765625,4.150390625
3.0974999000000003,0.15023615956306458,0.07003039866685867,9.713874816894531,0.9765625,1.46484375,-2.655029296875
3.1024999,0.16639702022075653,-0.11252748221158981,9.657012939453125,0.3662109375,2.685546875,-0.152587890625
3.1074999,0.3842693865299225,-0.0933738648891449,9.686341285705566,-1.52587890625,-5.157470703125,3.11279296875
3.1124999,0.08798690885305405,0.03651157766580582,9.769539833068848,1.953125,4.547119140625,-4.21142578125
3.1174999000000003,0.29209262132644653,-0.15562310814857483,9.733627319335938,-1.007080078125,-1.28173828125,3.0517578125
3.1224999,0.2753331959247589,0.009576806798577309,9.856928825378418,-0.457763671875,-2.471923828125,-0.244140625
3.1274999,0.06165069341659546,0.01975216343998909,9.756970405578613,1.556396484375,4.8828125,-2.8076171875
3.1324999,0.3728969097137451,-0.12749123573303223,9.767146110534668,-1.983642578125,-4.730224609375,4.33349609375
3.1374999000000003,0.10833762586116791,0.10235211998224258,9.763554573059082,1.068115234375,1.983642578125,-3.936767578125
3.1424999000000002,0.18555063009262085,-0.09516951441764832,9.71926212310791,0.274658203125,1.922607421875,1.28173828125
3.1474999,0.3058592677116394,-0.07841010391712189,9.769539833068848,-1.40380859375,-4.7607421875,1.922607421875
3.1524999,0.03172317147254944,0.041299980133771896,9.762955665588379,1.922607421875,4.913330078125,-4.241943359375
3.1574999000000004,0.31364041566848755,-0.1975216418504715,9.723451614379883,-1.434326171875,-2.86865234375,4.33349609375
3.1624999000000003,0.15981295704841614,0.03651157766580582,9.759963035583496,0.152587890625,-0.48828125,-2.685546875
3.1674999,0.14784196019172668,-0.05626374110579491,9.700706481933594,1.03759765625,3.387451171875,-0.3662109375
3.1724999,0.37229835987091064,-0.10175357013940811,9.742605209350586,-1.617431640625,-4.8828125,3.082275390625
3.1774999000000004,0.08259996026754379,0.08379705995321274,9.766547203063965,1.708984375,3.875732421875,-4.57763671875
3.1824999000000003,0.08259996026754379,0.08379705995321274,9.766547203063965,1.708984375,3.875732421875,-4.57763671875
3.1874999,0.3232172429561615,-0.14844051003456116,9.724050521850586,-0.823974609375,-1.40380859375,3.936767578125
3.1924999,0.2298433631658554,0.01735796220600605,9.807847023010254,-0.396728515625,-1.739501953125,-1.64794921875
3.1974999000000004,0.11911153793334961,-0.0071826050989329815,9.725247383117676,1.220703125,4.0283203125,-1.40380859375
3.2024999000000003,0.375291109085083,-0.12270283699035645,9.762357711791992,-1.739501953125,-4.45556640625,3.509521484375
3.2074999,0.08080431073904037,0.08619125932455063,9.778518676757812,1.312255859375,3.204345703125,-4.8828125
3.2124999,0.2902969419956207,-0.13347674906253815,9.72285270690918,-0.48828125,-0.762939453125,3.662109375
3.2174999,0.23822307586669922,-0.005985504016280174,9.817423820495605,-0.54931640625,-1.953125,-1.312255859375
3.2224999000000003,0.11432313174009323,-0.002394201699644327,9.721057891845703,1.312255859375,3.96728515625,-1.678466796875
3.2274999,0.37469255924224854,-0.13108254969120026,9.756970405578613,-1.678466796875,-4.39453125,4.0283203125
3.2324999,0.08439560979604721,0.07960720360279083,9.756970405578613,1.312255859375,3.265380859375,-4.974365234375
3.2374999,0.2998737692832947,-0.13287819921970367,9.700706481933594,-0.3662109375,-0.732421875,3.662109375
3.2424999000000003,0.22445641458034515,0.002992752008140087,9.78989028930664,-0.518798828125,-1.5869140625,-1.678466796875
3.2474999,0.12449848651885986,-0.010175357572734356,9.707889556884766,1.068115234375,3.5400390625,-1.77001953125
3.2524999,0.36571431159973145,-0.12330138683319092,9.758167266845703,-1.312255859375,-4.150390625,3.814697265625
3.2574999,0.06524199992418289,0.06344634294509888,9.765350341796875,1.220703125,3.509521484375,-4.7607421875
3.2624999000000003,0.314238965511322,-0.15263035893440247,9.713874816894531,-0.823974609375,-1.556396484375,3.875732421875
3.2674999000000002,0.166995570063591,0.0017956512747332454,9.785101890563965,0.152587890625,-0.54931640625,-1.983642578125
3.2724999,0.1496376097202301,-0.08140286058187485,9.700706481933594,0.48828125,2.44140625,-0.79345703125
3.2774999,0.3064578175544739,-0.12389993667602539,9.774328231811523,-1.312255859375,-3.35693359375,3.0517578125
3.2824999000000004,0.06883329898118973,0.011971008032560349,9.739013671875,1.251220703125,3.23486328125,-4.608154296875
3.2874999000000003,0.3280056416988373,-0.17717093229293823,9.725247383117676,-1.007080078125,-2.685546875,4.57763671875
3.2924999,0.13108254969120026,0.03411737456917763,9.774927139282227,0.762939453125,1.007080078125,-3.0517578125
3.2974999,0.22206220030784607,-0.10594342648983002,9.701904296875,0.091552734375,1.007080078125,0.42724609375
3.3024999000000004,0.27413609623908997,-0.04429273307323456,9.825204849243164,-0.518798828125,-2.288818359375,2.01416015625
3.3074999000000003,0.10115502029657364,0.008379706181585789,9.7605619430542,1.007080078125,3.265380859375,-4.730224609375
3.3124999,0.3513490855693817,-0.1364694982767105,9.807249069213867,-1.220703125,-3.2958984375,5.096435546875
3.3174999,0.10833762586116791,0.06165069341659546,9.78989028930664,1.007080078125,2.410888671875,-4.730224609375
3.3224999000000004,0.31364041566848755,-0.12988543510437012,9.68694019317627,-0.6103515625,-1.129150390625,2.44140625
3.3274999000000003,0.2148796021938324,0.019153613597154617,9.766547203063965,0.152587890625,-0.579833984375,0.42724609375
3.3324999,0.21847090125083923,-0.0586579404771328,9.659406661987305,0.42724609375,2.0751953125,-3.60107421875
3.3374999,0.3190273642539978,-0.08080431073904037,9.755773544311523,-1.007080078125,-3.143310546875,5.523681640625
3.3424999,0.11851298063993454,0.0011971008498221636,9.728838920593262,1.129150390625,3.326416015625,-5.828857421875
3.3474999000000003,0.3298012912273407,-0.17836803197860718,9.718064308166504,-1.190185546875,-2.838134765625,4.730224609375
3.3524999,0.10953472554683685,0.010175357572734356,9.794678688049316,1.15966796875,1.983642578125,-2.13623046875
3.3574999,0.2663549482822418,-0.17836803197860718,9.678560256958008,-0.3662109375,-0.48828125,-1.129150390625
3.3624999,0.2064998894929886,-0.009576806798577309,9.802460670471191,0.030517578125,-0.3662109375,3.387451171875
3.3674999000000003,0.20949265360832214,-0.07481880486011505,9.712079048156738,0.42724609375,1.861572265625,-5.67626953125
3.3724999,0.29628247022628784,-0.05147533491253853,9.80904483795166,-0.91552734375,-2.44140625,5.889892578125
3.3774999,0.1496376097202301,0.04967968538403511,9.75637149810791,1.129150390625,2.74658203125,-5.584716796875
3.3824999,0.31603461503982544,-0.12928688526153564,9.733028411865234,-1.251220703125,-2.685546875,3.082275390625
3.3874999000000003,0.13347674906253815,0.06703764945268631,9.786299705505371,1.068115234375,2.105712890625,-0.640869140625
3.3924999000000002,0.2867056429386139,-0.14844051003456116,9.64803409576416,-0.6103515625,-0.762939453125,-2.716064453125
3.3974999,0.18315643072128296,0.020350715145468712,9.773730278015137,0.06103515625,-0.274658203125,4.69970703125
3.4024999,0.2256535142660141,-0.08738835901021957,9.686341285705566,0.244140625,1.373291015625,-6.500244140625
3.4074999000000004,0.24779987335205078,-0.05506663769483566,9.798270225524902,-0.91552734375,-2.38037109375,6.34765625
3.4124999000000003,0.14425064623355865,0.010175357572734356,9.750985145568848,1.03759765625,2.716064453125,-5.706787109375
3.4174999,0.2801215946674347,-0.14365209639072418,9.766547203063965,-1.3427734375,-2.685546875,3.23486328125
3.4224999,0.11372458189725876,0.05626374110579491,9.815030097961426,1.0986328125,2.3193359375,-1.03759765625
3.4274999000000004,0.29867666959762573,-0.15682020783424377,9.680954933166504,-0.762939453125,-1.373291015625,-2.0751953125
3.4324999000000003,0.1364694982767105,0.03651157766580582,9.78989028930664,0.6103515625,0.54931640625,4.302978515625
3.4374999,0.27892449498176575,-0.12868833541870117,9.671378135681152,0.152587890625,0.48828125,-6.28662109375
3.4424999,0.22924481332302094,-0.048482585698366165,9.807847023010254,-0.457763671875,-1.46484375,6.53076171875
3.4474999000000004,0.1951274424791336,-0.05446808785200119,9.710283279418945,0.885009765625,1.861572265625,-6.805419921875
3.4524999000000003,0.29209262132644653,-0.12928688526153564,9.837176322937012,-1.007080078125,-2.532958984375,5.096435546875
3.4574999,0.12210428714752197,0.05686229094862938,9.785700798034668,1.312255859375,2.5634765625,-3.2958984375
3.4624999,0.28371289372444153,-0.12030863761901855,9.729436874389648,-1.15966796875,-2.349853515625,0.48828125
3.4674999,0.11192893236875534,0.10953472554683685,9.831789016723633,0.885009765625,1.800537109375,1.64794921875
3.4724999000000003,0.3034650683403015,-0.09397241473197937,9.667786598205566,-0.732421875,-0.946044921875,-4.33349609375
3.4774999,0.1430535465478897,0.09816227108240128,9.814431190490723,0.152587890625,0.18310546875,5.706787109375
3.4824999,0.2717418968677521,-0.043095629662275314,9.70549488067627,0.152587890625,0.54931640625,-6.9580078125
3.4874999,0.2059013396501541,0.023343466222286224,9.858125686645508,-0.701904296875,-1.434326171875,6.744384765625
3.4924999000000003,0.17896658182144165,0.040701430290937424,9.752182006835938,0.823974609375,1.861572265625,-6.256103515625
3.4974999,0.25737667083740234,-0.07900865375995636,9.86650562286377,-1.007080078125,-2.410888671875,4.425048828125
3.5024999,0.12868833541870117,0.090979665517807,9.800664901733398,1.190185546875,2.38037109375,-2.838134765625
3.5074999,0.2902969419956207,-0.12210428714752197,9.72285270690918,-1.129150390625,-2.288818359375,0.091552734375
3.5124999000000003,0.13108254969120026,0.08858546614646912,9.819818496704102,1.0986328125,1.983642578125,1.64794921875
3.5174999000000002,0.3315969407558441,-0.14065934717655182,9.619902610778809,-0.6103515625,-1.373291015625,-4.119873046875
3.5224999,0.11911153793334961,0.05746084079146385,9.764153480529785,0.54931640625,0.823974609375,5.340576171875
3.5274999,0.29628247022628784,-0.1280897855758667,9.618106842041016,-0.213623046875,0.030517578125,-6.77490234375
3.5324999000000004,0.17717093229293823,0.002394201699644327,9.780912399291992,-0.30517578125,-0.579833984375,6.805419921875
3.5374999000000003,0.21428105235099792,-0.05925649031996727,9.666589736938477,0.67138671875,1.190185546875,-6.683349609375
3.5424999,0.23582886159420013,-0.08140286058187485,9.856928825378418,-0.946044921875,-1.922607421875,5.67626953125
3.5474999,0.1454477459192276,0.020949264988303185,9.745597839355469,1.0986328125,2.288818359375,-4.45556640625
3.5524999000000004,0.1454477459192276,0.020949264988303185,9.745597839355469,1.0986328125,2.288818359375,-4.45556640625
3.5574999000000003,0.2454056739807129,-0.15682020783424377,9.806051254272461,-1.251220703125,-2.349853515625,2.288818359375
3.5624999,0.10714052617549896,0.05147533491253853,9.803657531738281,1.190185546875,2.288818359375,-0.762939453125
3.5674999,0.3100491166114807,-0.18734627962112427,9.683947563171387,-0.9765625,-2.288818359375,-1.46484375
3.5724999000000004,0.13347674906253815,0.047884032130241394,9.807249069213867,0.91552734375,1.8310546875,3.143310546875
3.5774999000000003,0.36332011222839355,-0.166995570063591,9.616909980773926,-0.640869140625,-1.3427734375,-5.0048828125
3.5824999,0.13527239859104156,0.05746084079146385,9.768941879272461,0.48828125,0.885009765625,5.859375
3.5874999,0.3232172429561615,-0.11192893236875534,9.626486778259277,-0.152587890625,-0.244140625,-6.805419921875
3.5924999,0.17298106849193573,0.04489128291606903,9.790489196777344,-0.3662109375,-0.48828125,6.77490234375
3.5974999000000003,0.24660277366638184,-0.0454898327589035,9.662399291992188,0.3662109375,0.9765625,-6.9580078125
3.6024999,0.21368250250816345,-0.040701430290937424,9.877279281616211,-0.732421875,-1.434326171875,5.7373046875
3.6074999,0.16819266974925995,0.013168109580874443,9.736021041870117,0.946044921875,1.8310546875,-5.096435546875
3.6124999,0.22266076505184174,-0.1364694982767105,9.874884605407715,-1.068115234375,-2.044677734375,3.173828125
3.6174999000000003,0.1322796493768692,0.04429273307323456,9.807249069213867,1.0986328125,2.197265625,-2.044677734375
3.6224999,0.29568392038345337,-0.18734627962112427,9.75397777557373,-1.129150390625,-2.410888671875,0.244140625
3.6274999,0.14006079733371735,0.04728548228740692,9.815628051757812,1.15966796875,2.197265625,1.15966796875
3.6324999,0.3585317134857178,-0.19033902883529663,9.636063575744629,-1.0986328125,-2.0751953125,-3.11279296875
3.6374999000000003,0.14185644686222076,0.058059390634298325,9.791686058044434,0.8544921875,1.678466796875,4.058837890625
3.6424999000000002,0.38546648621559143,-0.1646013706922531,9.59715747833252,-0.6103515625,-1.556396484375,-5.401611328125
3.6474999,0.1256955862045288,0.06344634294509888,9.764153480529785,0.48828125,0.946044921875,5.9814453125
3.6524999,0.34596213698387146,-0.12689268589019775,9.600749015808105,-0.30517578125,-0.396728515625,-6.744384765625
3.6574999000000004,0.15023615956306458,0.05267243832349777,9.780912399291992,0.030517578125,0.030517578125,6.683349609375
3.6624999000000003,0.28311434388160706,-0.07182604819536209,9.639654159545898,0.42724609375,0.6103515625,-6.866455078125
3.6674999,0.21428105235099792,-0.019153613597154617,9.877279281616211,-0.457763671875,-1.03759765625,6.195068359375
3.6724999,0.2124854028224945,-0.033518824726343155,9.706093788146973,0.701904296875,1.251220703125,-5.706787109375
3.6774999000000004,0.1975216418504715,-0.11192893236875534,9.914389610290527,-0.885009765625,-1.708984375,4.486083984375
3.6824999000000003,0.1388636976480484,0.004788403399288654,9.761159896850586,1.0986328125,1.8310546875,-3.96728515625
3.6874999,0.2172738015651703,-0.15682020783424377,9.84495735168457,-1.007080078125,-2.3193359375,2.38037109375
3.6924999,0.1346738487482071,0.04489128291606903,9.79647445678711,1.251220703125,2.3193359375,-1.52587890625
3.6974999000000004,0.2998737692832947,-0.1711854189634323,9.752182006835938,-1.0986328125,-2.38037109375,-0.213623046875
3.7024999000000003,0.13706804811954498,0.05446808785200119,9.805453300476074,1.007080078125,2.38037109375,0.8544921875
3.7074999,0.3561375141143799,-0.1693897694349289,9.659406661987305,-0.9765625,-2.197265625,-2.62451171875
3.7124999,0.13108254969120026,0.05925649031996727,9.79647445678711,0.946044921875,2.01416015625,3.265380859375
3.7174999,0.3776853084564209,-0.17417816817760468,9.602544784545898,-0.823974609375,-1.922607421875,-4.486083984375
3.7224999000000003,0.12030863761901855,0.060453593730926514,9.81143856048584,0.701904296875,1.617431640625,4.791259765625
3.7274999,0.3669114112854004,-0.16639702022075653,9.61451530456543,-0.67138671875,-1.251220703125,-5.859375
3.7324999,0.0802057534456253,0.0586579404771328,9.82759952545166,0.48828125,1.007080078125,5.950927734375
3.7374999,0.3256114423274994,-0.1322796493768692,9.643245697021484,-0.1220703125,-0.6103515625,-6.439208984375
3.7424999000000003,0.08798690885305405,0.06883329898118973,9.837775230407715,0.091552734375,0.335693359375,6.4697265625
3.7474999,0.28969839215278625,-0.08559270948171616,9.660005569458008,0.06103515625,0.18310546875,-7.049560546875
3.7524999,0.17717093229293823,0.046088382601737976,9.864110946655273,-0.213623046875,-0.30517578125,6.16455078125
3.7574999,0.2819172441959381,-0.06224924325942993,9.665990829467773,0.54931640625,0.67138671875,-6.195068359375
3.7624999000000003,0.22445641458034515,-0.0293289702385664,9.904213905334473,-0.54931640625,-0.91552734375,5.4931640625
3.7674999000000002,0.228047713637352,-0.03890577703714371,9.68574333190918,0.640869140625,1.28173828125,-5.37109375
3.7724999,0.18734627962112427,-0.10175357013940811,9.923367500305176,-0.762939453125,-1.46484375,4.39453125
3.7774999,0.15801730751991272,-0.004189853090792894,9.713275909423828,0.9765625,1.800537109375,-4.0283203125
3.7824999000000004,0.181959331035614,-0.13706804811954498,9.877279281616211,-1.129150390625,-1.64794921875,2.838134765625
3.7874999000000003,0.15442600846290588,0.02214636653661728,9.729436874389648,0.9765625,2.227783203125,-2.838134765625
3.7924999,0.2495955228805542,-0.15741875767707825,9.803657531738281,-1.129150390625,-2.38037109375,1.52587890625
3.7974999,0.17717093229293823,0.04489128291606903,9.748590469360352,1.15966796875,2.25830078125,-1.068115234375
3.8024999000000004,0.322618693113327,-0.1825578808784485,9.728838920593262,-1.03759765625,-2.410888671875,0.06103515625
3.8074999000000003,0.17477671802043915,0.05147533491253853,9.750386238098145,1.190185546875,2.227783203125,0.48828125
3.8124999,0.35434186458587646,-0.181959331035614,9.67077922821045,-1.251220703125,-2.50244140625,-1.434326171875
3.8174999,0.13706804811954498,0.06643909960985184,9.770736694335938,1.190185546875,2.25830078125,1.800537109375
3.8224999000000004,0.3603273630142212,-0.16819266974925995,9.635464668273926,-1.007080078125,-2.25830078125,-2.655029296875
3.8274999000000003,0.1041477769613266,0.08619125932455063,9.79408073425293,1.03759765625,2.3193359375,2.899169921875
3.8324999,0.3669114112854004,-0.1538274586200714,9.636661529541016,-1.03759765625,-2.410888671875,-3.84521484375
3.8374999,0.09696517139673233,0.09516951441764832,9.816825866699219,1.007080078125,2.0751953125,3.96728515625
3.8424999,0.363918662071228,-0.15442600846290588,9.633668899536133,-0.8544921875,-1.89208984375,-4.669189453125
3.8474999000000003,0.0867898091673851,0.08319851011037827,9.847352027893066,0.8544921875,1.953125,4.608154296875
3.8524999,0.36332011222839355,-0.1693897694349289,9.615114212036133,-0.732421875,-1.708984375,-5.43212890625
3.8574999,0.07781155407428741,0.05925649031996727,9.865906715393066,0.67138671875,1.617431640625,5.31005859375
3.8624999,0.3687070608139038,-0.16639702022075653,9.63067626953125,-0.579833984375,-1.434326171875,-5.859375
3.8674999000000003,0.06464344263076782,0.04728548228740692,9.867103576660156,0.54931640625,1.251220703125,5.706787109375
3.8724999,0.3561375141143799,-0.1646013706922531,9.639056205749512,-0.54931640625,-1.007080078125,-6.28662109375
3.8774999,0.0520738884806633,0.05027823522686958,9.856928825378418,0.3662109375,1.03759765625,5.9814453125
3.8824999,0.33937808871269226,-0.14484919607639313,9.625288963317871,-0.18310546875,-0.732421875,-6.317138671875
3.8874999000000003,0.06344634294509888,0.061052143573760986,9.856329917907715,0.213623046875,0.67138671875,6.011962890625
3.8924999000000002,0.333991140127182,-0.11671733111143112,9.623494148254395,-0.091552734375,-0.518798828125,-6.4697265625
3.8974999,0.10055647045373917,0.0520738884806633,9.870096206665039,0.091552734375,0.48828125,6.16455078125
3.9024999,0.333991140127182,-0.10953472554683685,9.631275177001953,0.06103515625,-0.213623046875,-6.134033203125
3.9074999000000004,0.15143325924873352,0.041299980133771896,9.876680374145508,0.030517578125,0.06103515625,5.828857421875
3.9124999000000003,0.33698388934135437,-0.09935937076807022,9.638457298278809,0.091552734375,0.030517578125,-6.378173828125
3.9174999,0.33698388934135437,-0.09935937076807022,9.638457298278809,0.091552734375,0.030517578125,-6.378173828125
3.9224999,0.19812019169330597,0.046088382601737976,9.879075050354004,-0.091552734375,0.152587890625,5.767822265625
3.9274999000000004,0.3357867896556854,-0.0802057534456253,9.65222454071045,0.152587890625,0.30517578125,-6.04248046875
3.9324999000000003,0.20949265360832214,0.03950432687997818,9.88386344909668,-0.335693359375,-0.42724609375,5.4931640625
3.9374999,0.30526071786880493,-0.0694318488240242,9.650428771972656,0.152587890625,0.3662109375,-5.92041015625
3.9424999,0.17836803197860718,0.010175357572734356,9.876680374145508,-0.30517578125,-0.396728515625,5.31005859375
3.9474999000000004,0.2651578485965729,-0.07721300423145294,9.628880500793457,0.3662109375,0.579833984375,-5.584716796875
3.9524999000000003,0.15083470940589905,-0.02454056777060032,9.873088836669922,-0.30517578125,-0.640869140625,5.279541015625
3.9574999,0.2454056739807129,-0.08319851011037827,9.616311073303223,0.335693359375,0.701904296875,-5.523681640625
3.9624999,0.15263035893440247,-0.04189852997660637,9.881468772888184,-0.396728515625,-0.762939453125,4.974365234375
3.9674999000000004,0.2519897222518921,-0.07182604819536209,9.619902610778809,0.518798828125,0.701904296875,-5.18798828125
3.9724999000000003,0.17477671802043915,-0.040701430290937424,9.906009674072266,-0.518798828125,-0.79345703125,4.8828125
3.9774999,0.26096799969673157,-0.050876785069704056,9.633668899536133,0.640869140625,0.8544921875,-5.157470703125
3.9824999,0.19393034279346466,-0.030526071786880493,9.931148529052734,-0.48828125,-1.15966796875,4.486083984375
3.9874999,0.25977087020874023,-0.035913024097681046,9.641449928283691,0.48828125,1.03759765625,-4.791259765625
3.9924999000000003,0.1999158412218094,-0.02513911761343479,9.93474006652832,-0.579833984375,-1.007080078125,4.425048828125
3.9974999,0.25258827209472656,-0.028131870552897453,9.635464668273926,0.518798828125,1.007080078125,-4.69970703125
4.0024999,0.1909375786781311,-0.028131870552897453,9.927556991577148,-0.6103515625,-1.15966796875,4.5166015625
4.0074999,0.23702596127986908,-0.02454056777060032,9.624691009521484,0.518798828125,1.068115234375,-4.82177734375
4.0124999,0.18076223134994507,-0.033518824726343155,9.917980194091797,-0.701904296875,-1.068115234375,4.180908203125
4.0174999,0.23343466222286224,-0.02693476900458336,9.61331844329834,0.54931640625,1.03759765625,-4.608154296875
4.022499900000001,0.18555063009262085,-0.03890577703714371,9.905410766601562,-0.67138671875,-1.0986328125,4.33349609375
4.0274999000000005,0.24181437492370605,-0.0293289702385664,9.601346969604492,0.457763671875,1.0986328125,-4.791259765625
4.0324999,0.18734627962112427,-0.031124621629714966,9.895236015319824,-0.518798828125,-1.190185546875,4.45556640625
4.0374999,0.24420857429504395,-0.02454056777060032,9.593565940856934,0.457763671875,1.007080078125,-4.486083984375
4.0424999,0.18315643072128296,-0.013766659423708916,9.888651847839355,-0.48828125,-1.03759765625,4.364013671875
4.0474999,0.25498247146606445,-0.017956512048840523,9.589975357055664,0.54931640625,0.91552734375,-4.7607421875
4.0524999,0.1885433793067932,-0.0077811554074287415,9.88625717163086,-0.518798828125,-0.9765625,4.425048828125
4.0574999,0.2759317457675934,-0.021547814831137657,9.592967987060547,0.518798828125,1.068115234375,-5.0048828125
4.062499900000001,0.18734627962112427,-0.011372458189725876,9.889848709106445,-0.54931640625,-0.885009765625,4.45556640625
4.0674999000000005,0.2849099934101105,-0.02693476900458336,9.600749015808105,0.3662109375,0.79345703125,-4.852294921875
4.0724999,0.18076223134994507,-0.011971008032560349,9.88625717163086,-0.335693359375,-0.823974609375,4.57763671875
4.0774999,0.29388827085494995,-0.04668693244457245,9.600749015808105,0.3662109375,0.762939453125,-5.0048828125
4.0824999,0.18136078119277954,-0.016759412363171577,9.868300437927246,-0.274658203125,-0.518798828125,4.791259765625
4.0874999,0.3064578175544739,-0.07900865375995636,9.595361709594727,0.42724609375,0.54931640625,-5.18798828125
4.0924999,0.1843535304069519,-0.03292027488350868,9.856928825378418,-0.30517578125,-0.579833984375,5.0048828125
4.0974999,0.3106476664543152,-0.11013327538967133,9.59057331085205,0.18310546875,0.335693359375,-5.2490234375
4.1024999,0.1777694821357727,-0.0293289702385664,9.86231517791748,-0.213623046875,-0.244140625,5.218505859375
4.1074999000000005,0.3058592677116394,-0.11791443079710007,9.59596061706543,0.18310546875,0.3662109375,-5.462646484375
4.1124999,0.14365209639072418,0.0011971008498221636,9.876082420349121,0.030517578125,-0.06103515625,5.126953125
4.1174999,0.2902969419956207,-0.10654197633266449,9.608530044555664,0.152587890625,-0.06103515625,-5.523681640625
4.1224999,0.09157821536064148,0.015562310814857483,9.88745403289795,-0.030517578125,0.152587890625,5.401611328125
4.1274999,0.2777273952960968,-0.10893617570400238,9.610923767089844,-0.030517578125,-0.244140625,-5.645751953125
4.1324999,0.05446808785200119,0.010773907415568829,9.891045570373535,0.1220703125,0.335693359375,5.462646484375
4.1374999,0.28730419278144836,-0.13048399984836578,9.608530044555664,-0.18310546875,-0.518798828125,-5.7373046875
4.1424999,0.04429273307323456,0.010175357572734356,9.892841339111328,0.1220703125,0.701904296875,5.279541015625
4.147499900000001,0.32381579279899597,-0.1538274586200714,9.610923767089844,-0.396728515625,-0.732421875,-5.767822265625
4.1524999000000005,0.053270988166332245,0.018555063754320145,9.899425506591797,0.18310546875,0.885009765625,5.340576171875
4.1574999,0.3669114112854004,-0.1562216579914093,9.620500564575195,-0.396728515625,-0.9765625,-5.55419921875
4.1624999,0.07003039866685867,0.02753331884741783,9.899425506591797,0.42724609375,1.220703125,5.31005859375
4.1674999,0.39564183354377747,-0.15741875767707825,9.634267807006836,-0.518798828125,-1.3427734375,-5.462646484375
4.1724999,0.08499415963888168,0.0347159244120121,9.901819229125977,0.54931640625,1.46484375,5.06591796875
4.1774999,0.3974374830722809,-0.16101007163524628,9.627084732055664,-0.579833984375,-1.495361328125,-5.157470703125
4.1824999,0.08918401598930359,0.05386953800916672,9.894637107849121,0.6103515625,1.556396484375,4.7607421875
4.187499900000001,0.38905778527259827,-0.15023615956306458,9.61451530456543,-0.79345703125,-1.708984375,-5.035400390625
4.1924999000000005,0.08200141042470932,0.07661445438861847,9.880870819091797,0.79345703125,2.0751953125,4.39453125
4.1974999,0.3776853084564209,-0.13108254969120026,9.635464668273926,-0.946044921875,-2.01416015625,-4.45556640625
4.2024999,0.06823474913835526,0.08499415963888168,9.862914085388184,1.03759765625,2.166748046875,3.814697265625
4.2074999,0.3597288131713867,-0.13287819921970367,9.655815124511719,-0.946044921875,-2.197265625,-3.875732421875
4.2124999,0.05626374110579491,0.07422025501728058,9.838373184204102,0.885009765625,2.349853515625,3.143310546875
4.2174999,0.34356793761253357,-0.1454477459192276,9.672574996948242,-1.129150390625,-2.3193359375,-3.204345703125
4.2224999,0.06224924325942993,0.053270988166332245,9.840767860412598,1.007080078125,2.50244140625,2.471923828125
4.2274999,0.3256114423274994,-0.14604631066322327,9.725247383117676,-1.068115234375,-2.44140625,-2.25830078125
4.2324999000000005,0.08858546614646912,0.041299980133771896,9.855133056640625,1.129150390625,2.50244140625,1.64794921875
4.2374999,0.30885201692581177,-0.15143325924873352,9.779715538024902,-1.15966796875,-2.593994140625,-1.434326171875
4.2424999,0.11851298063993454,0.0347159244120121,9.828198432922363,1.068115234375,2.44140625,0.640869140625
4.2474999,0.27234044671058655,-0.14185644686222076,9.815628051757812,-1.190185546875,-2.50244140625,-0.54931640625
4.2524999,0.14664486050605774,0.03292027488350868,9.78869342803955,0.946044921875,2.288818359375,-0.3662109375
4.2574999,0.2298433631658554,-0.12030863761901855,9.84376049041748,-1.068115234375,-2.25830078125,0.42724609375
4.2624999,0.17178396880626678,0.02454056777060032,9.731831550598145,0.885009765625,2.0751953125,-1.46484375
4.2674999,0.21128830313682556,-0.09636662155389786,9.85034465789795,-0.8544921875,-1.983642578125,1.3427734375
4.272499900000001,0.19572599232196808,-0.002992752008140087,9.632472038269043,0.8544921875,1.77001953125,-2.471923828125
4.2774999000000005,0.22385786473751068,-0.058059390634298325,9.852140426635742,-0.762939453125,-1.64794921875,2.410888671875
4.2824999,0.23582886159420013,-0.03531447425484657,9.565434455871582,0.579833984375,1.46484375,-3.173828125
4.2874999,0.23582886159420013,-0.03531447425484657,9.565434455871582,0.579833984375,1.46484375,-3.173828125
4.2924999,0.23762452602386475,-0.005386953707784414,9.856329917907715,-0.54931640625,-1.312255859375,3.35693359375
4.2974999,0.292691171169281,-0.06823474913835526,9.528324127197266,0.3662109375,1.220703125,-4.119873046875
4.3024999,0.22206220030784607,0.04010287672281265,9.835380554199219,-0.18310546875,-0.823974609375,4.150390625
4.3074999,0.3321954905986786,-0.12330138683319092,9.50498104095459,0.091552734375,0.48828125,-4.7607421875
4.312499900000001,0.18555063009262085,0.055665191262960434,9.82999324798584,-0.030517578125,-0.274658203125,4.638671875
4.3174999000000005,0.3298012912273407,-0.181959331035614,9.521739959716797,-0.1220703125,-0.091552734375,-5.218505859375
4.3224999,0.11312603205442429,0.06643909960985184,9.867103576660156,0.335693359375,0.274658203125,4.974365234375
4.3274999,0.3214215636253357,-0.2298433631658554,9.561842918395996,-0.67138671875,-0.518798828125,-5.37109375
4.3324999,0.0454898327589035,0.06344634294509888,9.905410766601562,0.54931640625,0.762939453125,5.06591796875
4.3374999,0.34356793761253357,-0.2519897222518921,9.606135368347168,-0.54931640625,-1.15966796875,-5.18798828125
4.3424999,0.050876785069704056,0.08200141042470932,9.927556991577148,0.8544921875,1.312255859375,4.852294921875
4.3474999,0.3800795078277588,-0.24480712413787842,9.619902610778809,-0.9765625,-1.52587890625,-4.974365234375
4.352499900000001,0.08738835901021957,0.11851298063993454,9.921571731567383,1.15966796875,1.739501953125,4.241943359375
4.3574999000000005,0.39205053448677063,-0.22206220030784607,9.64683723449707,-1.312255859375,-1.8310546875,-4.21142578125
4.3624999,0.08918401598930359,0.12330138683319092,9.898826599121094,1.28173828125,1.983642578125,3.631591796875
4.3674999,0.37169981002807617,-0.1801636815071106,9.70429801940918,-1.220703125,-2.288818359375,-3.143310546875
4.3724999,0.07003039866685867,0.09876082092523575,9.871891975402832,1.312255859375,2.227783203125,2.471923828125
4.3774999,0.3250128924846649,-0.16340427100658417,9.757569313049316,-1.3427734375,-2.410888671875,-2.197265625
4.3824999,0.07841010391712189,0.04908113554120064,9.84256362915039,1.220703125,2.38037109375,1.15966796875
4.3874999,0.27892449498176575,-0.13407529890537262,9.828198432922363,-1.40380859375,-2.349853515625,-0.762939453125
4.3924999,0.12928688526153564,0.02454056777060032,9.802460670471191,1.434326171875,2.3193359375,-0.335693359375
4.397499900000001,0.24660277366638184,-0.07541735470294952,9.865906715393066,-1.190185546875,-2.0751953125,0.30517578125
4.4024999000000005,0.181959331035614,-0.011372458189725876,9.688735961914062,0.9765625,2.01416015625,-1.434326171875
4.4074999,0.2346317619085312,-0.03292027488350868,9.857526779174805,-0.9765625,-1.64794921875,1.953125
4.4124999,0.22744916379451752,-0.08259996026754379,9.563039779663086,0.823974609375,1.556396484375,-2.716064453125
4.4174999,0.23762452602386475,0.026336219161748886,9.845556259155273,-0.54931640625,-1.40380859375,3.173828125
4.4224999,0.3034650683403015,-0.1280897855758667,9.493608474731445,0.396728515625,0.9765625,-3.997802734375
4.4274999,0.23762452602386475,0.09876082092523575,9.819818496704102,-0.1220703125,-0.640869140625,4.0283203125
4.4324999,0.3585317134857178,-0.1759738177061081,9.442132949829102,0.030517578125,0.274658203125,-4.730224609375
4.437499900000001,0.16879121959209442,0.10893617570400238,9.815030097961426,0.213623046875,0.091552734375,4.486083984375
4.4424999000000005,0.34835633635520935,-0.25498247146606445,9.463082313537598,-0.457763671875,-0.48828125,-4.913330078125
4.4474999,0.06524199992418289,0.08439560979604721,9.872490882873535,0.48828125,0.823974609375,4.913330078125
4.4524999,0.34177228808403015,-0.28790274262428284,9.559449195861816,-1.03759765625,-1.0986328125,-4.913330078125
4.4574999,0.05925649031996727,0.10654197633266449,9.94970417022705,0.9765625,1.434326171875,4.364013671875
4.4624999,0.3758896589279175,-0.24480712413787842,9.654618263244629,-1.068115234375,-1.861572265625,-4.486083984375
4.4674999,0.08918401598930359,0.1472434103488922,9.953893661499023,1.3427734375,1.89208984375,3.72314453125
4.4724999,0.3884592354297638,-0.19871874153614044,9.700706481933594,-1.52587890625,-2.13623046875,-3.570556640625
4.477499900000001,0.08080431073904037,0.12509703636169434,9.890447616577148,1.373291015625,2.288818359375,2.655029296875
4.4824999000000005,0.3363853394985199,-0.17657238245010376,9.753378868103027,-1.52587890625,-2.44140625,-2.38037109375
4.4874999,0.07841010391712189,0.0694318488240242,9.847352027893066,1.312255859375,2.410888671875,1.0986328125
4.4924999,0.25917232036590576,-0.1364694982767105,9.848548889160156,-1.52587890625,-2.471923828125,-0.6103515625
4.4974999,0.11671733111143112,0.041299980133771896,9.801262855529785,1.190185546875,2.288818359375,-0.396728515625
4.5024999,0.21787235140800476,-0.058059390634298325,9.90241813659668,-1.220703125,-2.01416015625,0.885009765625
4.5074999,0.18495208024978638,0.0017956512747332454,9.6803560256958,0.885009765625,1.861572265625,-1.983642578125
4.5124999,0.23702596127986908,0.01975216343998909,9.880870819091797,-0.91552734375,-1.52587890625,2.227783203125
4.5174999,0.2795230448246002,-0.08319851011037827,9.510966300964355,0.518798828125,1.220703125,-3.265380859375
4.522499900000001,0.25079262256622314,0.06224924325942993,9.800065994262695,-0.457763671875,-0.762939453125,3.5400390625
4.5274999000000005,0.3471592366695404,-0.17956513166427612,9.388263702392578,0.091552734375,0.48828125,-4.39453125
4.5324999,0.1711854189634323,0.0694318488240242,9.774927139282227,0.244140625,0,4.45556640625
4.5374999,0.34356793761253357,-0.26096799969673157,9.405621528625488,-0.518798828125,-0.42724609375,-4.791259765625
4.5424999,0.06643909960985184,0.06344634294509888,9.853935241699219,0.48828125,0.91552734375,4.57763671875
4.5474999,0.3405751883983612,-0.284311443567276,9.528923034667969,-0.885009765625,-1.220703125,-4.852294921875
4.5524999,0.05506663769483566,0.08858546614646912,9.938331604003906,0.946044921875,1.617431640625,4.180908203125
4.5574999,0.36332011222839355,-0.22685061395168304,9.661202430725098,-1.190185546875,-1.861572265625,-4.33349609375
4.562499900000001,0.07302315533161163,0.13527239859104156,9.956886291503906,1.373291015625,2.0751953125,3.41796875
4.5674999000000005,0.3585317134857178,-0.152031809091568,9.763554573059082,-1.40380859375,-2.3193359375,-3.082275390625
4.5724999,0.08319851011037827,0.1322796493768692,9.921571731567383,1.40380859375,2.44140625,1.8310546875
4.5774999,0.3106476664543152,-0.13108254969120026,9.835979461669922,-1.251220703125,-2.50244140625,-1.46484375
4.5824999,0.12928688526153564,0.0628477931022644,9.854534149169922,1.434326171875,2.44140625,0.274658203125
4.5874999,0.25019407272338867,-0.13347674906253815,9.889249801635742,-1.251220703125,-2.197265625,0.213623046875
4.5924999,0.18136078119277954,-0.016160860657691956,9.713275909423828,1.068115234375,2.01416015625,-1.495361328125
4.5974999,0.22445641458034515,-0.08259996026754379,9.891644477844238,-0.91552734375,-1.708984375,2.044677734375
4.602499900000001,0.2495955228805542,-0.08259996026754379,9.536105155944824,0.701904296875,1.28173828125,-3.082275390625
4.6074999000000005,0.21368250250816345,0.013168109580874443,9.82759952545166,-0.48828125,-0.823974609375,3.387451171875
4.6124999,0.3148375153541565,-0.1346738487482071,9.409811019897461,0.091552734375,0.54931640625,-4.180908203125
4.6174999,0.13706804811954498,0.07182604819536209,9.794678688049316,0.152587890625,0.1220703125,4.425048828125
4.6224999,0.3292027413845062,-0.20350714027881622,9.407417297363281,-0.335693359375,-0.42724609375,-4.8828125
4.6274999,0.048482585698366165,0.07122749835252762,9.84376049041748,0.732421875,0.8544921875,4.547119140625
4.6324999,0.3315969407558441,-0.26096799969673157,9.507973670959473,-0.885009765625,-1.3427734375,-4.913330078125
4.6374999,0.04489128291606903,0.08379705995321274,9.913790702819824,1.251220703125,1.678466796875,4.119873046875
4.6424999,0.3495534360408783,-0.22625206410884857,9.653421401977539,-1.0986328125,-1.983642578125,-3.753662109375
4.647499900000001,0.05626374110579491,0.11851298063993454,9.946112632751465,1.312255859375,2.38037109375,2.899169921875
4.6524999000000005,0.05626374110579491,0.11851298063993454,9.946112632751465,1.312255859375,2.38037109375,2.899169921875
4.6574999,0.3208230137825012,-0.14784196019172668,9.797672271728516,-1.46484375,-2.25830078125,-2.5634765625
4.6624999,0.06584054976701736,0.11851298063993454,9.907206535339355,1.434326171875,2.5634765625,1.28173828125
4.6674999,0.2495955228805542,-0.09696517139673233,9.899425506591797,-1.373291015625,-2.38037109375,-0.67138671875
4.6724999,0.12629413604736328,0.0736217051744461,9.814431190490723,1.190185546875,2.3193359375,-0.640869140625
4.6774999,0.21787235140800476,-0.0454898327589035,9.955090522766113,-1.15966796875,-1.739501953125,1.220703125
4.6824999,0.20769700407981873,0.004189853090792894,9.660603523254395,1.007080078125,1.708984375,-2.410888671875
4.687499900000001,0.20709845423698425,0.04489128291606903,9.909601211547852,-0.579833984375,-1.220703125,2.899169921875
4.6924999000000005,0.304063618183136,-0.06643909960985184,9.478644371032715,0.213623046875,1.03759765625,-3.814697265625
4.6974999,0.17298106849193573,0.10893617570400238,9.825803756713867,-0.091552734375,-0.091552734375,4.180908203125
4.7024999,0.36152446269989014,-0.1538274586200714,9.40023422241211,-0.244140625,-0.213623046875,-4.791259765625
4.7074999,0.10115502029657364,0.09876082092523575,9.82640266418457,0.579833984375,0.640869140625,4.2724609375
4.7124999,0.36152446269989014,-0.23283611238002777,9.477447509765625,-0.91552734375,-1.220703125,-4.69970703125
4.7174999,0.06404489278793335,0.10175357013940811,9.900622367858887,0.9765625,1.708984375,4.058837890625
4.7224999,0.3603273630142212,-0.2148796021938324,9.633070945739746,-1.312255859375,-1.922607421875,-4.08935546875
4.727499900000001,0.058059390634298325,0.1280897855758667,9.941922187805176,1.3427734375,2.25830078125,2.838134765625
4.7324999000000005,0.322618693113327,-0.15023615956306458,9.793481826782227,-1.52587890625,-2.44140625,-2.38037109375
4.7374999,0.06464344263076782,0.10474632680416107,9.910199165344238,1.3427734375,2.471923828125,1.28173828125
4.7424999,0.24361002445220947,-0.11911153793334961,9.910199165344238,-1.40380859375,-2.471923828125,-0.457763671875
4.7474999,0.1280897855758667,0.02992752194404602,9.803657531738281,1.28173828125,2.105712890625,-0.823974609375
4.7524999,0.21188685297966003,-0.06883329898118973,9.952696800231934,-1.129150390625,-1.861572265625,1.556396484375
4.7574999,0.22625206410884857,-0.04728548228740692,9.61571216583252,0.762939453125,1.52587890625,-2.655029296875
4.7624999,0.21787235140800476,0.030526071786880493,9.874884605407715,-0.54931640625,-1.007080078125,3.143310546875
4.7674999,0.3232172429561615,-0.11013327538967133,9.412803649902344,0.091552734375,0.42724609375,-3.814697265625
4.772499900000001,0.152031809091568,0.08559270948171616,9.783905029296875,0.244140625,-0.06103515625,4.364013671875
4.7774999000000005,0.3585317134857178,-0.2064998894929886,9.362525939941406,-0.54931640625,-0.457763671875,-4.791259765625
4.7824999,0.07302315533161163,0.06823474913835526,9.818621635437012,0.6103515625,1.190185546875,4.364013671875
4.7874999,0.35673606395721436,-0.27892449498176575,9.495404243469238,-1.03759765625,-1.495361328125,-4.33349609375
4.7924999,0.055665191262960434,0.06464344263076782,9.87967300415039,1.220703125,1.8310546875,3.7841796875
4.7974999,0.3513490855693817,-0.24779987335205078,9.661202430725098,-1.28173828125,-2.13623046875,-3.173828125
4.8024999,0.06703764945268631,0.06344634294509888,9.895236015319824,1.495361328125,2.50244140625,2.105712890625
4.8074999,0.30466216802597046,-0.1801636815071106,9.82640266418457,-1.373291015625,-2.410888671875,-1.52587890625
4.812499900000001,0.11971008777618408,0.028131870552897453,9.86231517791748,1.28173828125,2.410888671875,0.274658203125
4.8174999000000005,0.24779987335205078,-0.11013327538967133,9.947309494018555,-1.190185546875,-2.0751953125,0.48828125
4.8224999,0.20111294090747833,-0.014365210197865963,9.724050521850586,1.0986328125,1.983642578125,-1.89208984375
4.8274999,0.22685061395168304,0.011372458189725876,9.938331604003906,-0.640869140625,-1.373291015625,2.5634765625
4.8324999,0.3124433159828186,-0.06224924325942993,9.50498104095459,0.396728515625,0.823974609375,-3.448486328125
4.8374999,0.19692309200763702,0.10594342648983002,9.837775230407715,-0.06103515625,-0.396728515625,3.814697265625
4.8424999,0.3794809579849243,-0.1496376097202301,9.37509536743164,-0.335693359375,-0.06103515625,-4.669189453125
4.8474999,0.11192893236875534,0.1041477769613266,9.800065994262695,0.762939453125,0.762939453125,4.39453125
4.852499900000001,0.36750996112823486,-0.23523031175136566,9.446921348571777,-0.8544921875,-1.3427734375,-4.669189453125
4.8574999000000005,0.05746084079146385,0.09696517139673233,9.869498252868652,1.220703125,1.5869140625,3.662109375
4.8624999,0.35434186458587646,-0.22505496442317963,9.634865760803223,-1.15966796875,-2.13623046875,-3.41796875
4.8674999,0.05446808785200119,0.0999579206109047,9.925761222839355,1.434326171875,2.3193359375,2.44140625
4.8724999,0.304063618183136,-0.17417816817760468,9.834183692932129,-1.312255859375,-2.50244140625,-1.861572265625
4.8774999,0.0933738648891449,0.050876785069704056,9.909002304077148,1.3427734375,2.349853515625,0.640869140625
4.8824999,0.2346317619085312,-0.12629413604736328,9.964667320251465,-1.40380859375,-2.197265625,0.18310546875
4.8874999,0.18076223134994507,-0.023343466222286224,9.757569313049316,0.9765625,2.01416015625,-1.77001953125
4.8924999,0.21667525172233582,-0.018555063754320145,9.94970417022705,-0.732421875,-1.495361328125,2.25830078125
4.897499900000001,0.3010708689689636,-0.08379705995321274,9.507973670959473,0.48828125,0.9765625,-3.47900390625
4.9024999000000005,0.1999158412218094,0.08439560979604721,9.841365814208984,-0.152587890625,-0.3662109375,3.662109375
4.9074999,0.38307225704193115,-0.16340427100658417,9.365518569946289,-0.3662109375,-0.152587890625,-4.39453125
4.9124999,0.12330138683319092,0.10055647045373917,9.797073364257812,0.732421875,0.762939453125,4.33349609375
4.9174999,0.375291109085083,-0.23762452602386475,9.427767753601074,-0.946044921875,-1.220703125,-4.425048828125
4.9224999,0.06344634294509888,0.10235211998224258,9.853337287902832,1.251220703125,1.708984375,3.7841796875
4.9274999,0.353743314743042,-0.22086510062217712,9.619902610778809,-1.3427734375,-2.166748046875,-3.47900390625
4.9324999,0.05746084079146385,0.10175357013940811,9.904812812805176,1.434326171875,2.38037109375,2.3193359375
4.937499900000001,0.2992752194404602,-0.15801730751991272,9.834781646728516,-1.495361328125,-2.410888671875,-1.495361328125
4.9424999000000005,0.10354922711849213,0.050876785069704056,9.886856079101562,1.3427734375,2.349853515625,0.244140625
4.9474999,0.23163901269435883,-0.09576806426048279,9.9772367477417,-1.3427734375,-2.38037109375,0.640869140625
4.9524999,0.19692309200763702,-0.023942016065120697,9.73781681060791,0.8544921875,1.861572265625,-1.89208984375
4.9574999,0.21428105235099792,0.020949264988303185,9.947908401489258,-0.946044921875,-1.0986328125,2.5634765625
4.9624999,0.3130418658256531,-0.09217676520347595,9.479841232299805,0.06103515625,0.8544921875,-3.875732421875
4.9674999,0.16579847037792206,0.11013327538967133,9.831789016723633,0.06103515625,-0.244140625,3.84521484375
4.9724999,0.3734954595565796,-0.1951274424791336,9.35773754119873,-0.518798828125,-0.457763671875,-4.5166015625
4.977499900000001,0.09516951441764832,0.09696517139673233,9.821015357971191,0.732421875,1.03759765625,4.119873046875
4.9824999000000005,0.37229835987091064,-0.27712884545326233,9.479243278503418,-1.190185546875,-1.5869140625,-4.180908203125
4.9874999,0.06703764945268631,0.07661445438861847,9.873687744140625,1.220703125,1.953125,3.35693359375
4.9924999,0.353743314743042,-0.228047713637352,9.690531730651855,-1.46484375,-2.288818359375,-2.8076171875
4.9974999,0.07481880486011505,0.0736217051744461,9.8970308303833,1.40380859375,2.50244140625,1.678466796875
5.0024999,0.28072014451026917,-0.13766659796237946,9.901819229125977,-1.46484375,-2.44140625,-0.946044921875
5.0074999,0.13347674906253815,0.03411737456917763,9.852140426635742,1.40380859375,2.3193359375,-0.48828125
5.0124999,0.22206220030784607,-0.03950432687997818,10.011953353881836,-1.129150390625,-1.953125,1.28173828125
5.0174999,0.23343466222286224,-0.038307227194309235,9.657610893249512,0.701904296875,1.64794921875,-2.8076171875
5.022499900000001,0.23343466222286224,-0.038307227194309235,9.657610893249512,0.701904296875,1.64794921875,-2.8076171875
5.0274999000000005,0.19931729137897491,0.07960720360279083,9.914987564086914,-0.48828125,-0.91552734375,3.143310546875
5.0324999,0.3214215636253357,-0.13048399984836578,9.39365005493164,-0.152587890625,0.244140625,-4.150390625
5.0374999,0.12749123573303223,0.11671733111143112,9.789292335510254,0.42724609375,0.30517578125,4.0283203125
5.0424999,0.365115761756897,-0.2454056739807129,9.337985038757324,-0.823974609375,-1.0986328125,-4.486083984375
5.0474999,0.07960720360279083,0.10115502029657364,9.822811126708984,1.068115234375,1.52587890625,3.84521484375
5.0524999,0.3800795078277588,-0.26575639843940735,9.54209041595459,-1.556396484375,-2.044677734375,-3.814697265625
5.0574999,0.07422025501728058,0.1149216815829277,9.901819229125977,1.495361328125,2.410888671875,2.410888671875
5.062499900000001,0.3256114423274994,-0.19033902883529663,9.799467086791992,-1.40380859375,-2.532958984375,-1.953125
5.0674999000000005,0.090979665517807,0.0802057534456253,9.901819229125977,1.46484375,2.5634765625,0.48828125
5.0724999,0.2364274114370346,-0.11312603205442429,9.96825885772705,-1.434326171875,-2.288818359375,0.1220703125
5.0774999,0.1801636815071106,-0.004189853090792894,9.753378868103027,1.068115234375,1.922607421875,-1.922607421875
5.0824999,0.21368250250816345,0.013766659423708916,9.947908401489258,-0.823974609375,-1.40380859375,2.288818359375
5.0874999,0.3106476664543152,-0.07841010391712189,9.47265911102295,0.244140625,0.9765625,-3.692626953125
5.0924999,0.1759738177061081,0.10953472554683685,9.831191062927246,0.18310546875,-0.244140625,3.72314453125
5.0974999,0.38307225704193115,-0.19153612852096558,9.331999778747559,-0.30517578125,-0.48828125,-4.33349609375
5.102499900000001,0.10474632680416107,0.10235211998224258,9.806051254272461,0.885009765625,1.068115234375,3.936767578125
5.1074999000000005,0.3770867586135864,-0.27054479718208313,9.464279174804688,-1.190185546875,-1.800537109375,-4.180908203125
5.1124999,0.06823474913835526,0.09397241473197937,9.862914085388184,1.373291015625,2.0751953125,3.11279296875
5.1174999,0.3405751883983612,-0.2322375625371933,9.712677955627441,-1.5869140625,-2.593994140625,-2.655029296875
5.1224999,0.07781155407428741,0.10115502029657364,9.906607627868652,1.5869140625,2.5634765625,1.373291015625
5.1274999,0.25977087020874023,-0.16998831927776337,9.938929557800293,-1.556396484375,-2.44140625,-0.457763671875
5.1324999,0.15083470940589905,0.05746084079146385,9.834781646728516,1.220703125,2.349853515625,-1.007080078125
5.1374999,0.20769700407981873,-0.08798690885305405,10.00955867767334,-1.0986328125,-1.800537109375,1.922607421875
5.1424999,0.27653029561042786,-0.014365210197865963,9.589975357055664,0.6103515625,1.3427734375,-2.960205078125
5.147499900000001,0.1759738177061081,0.01735796220600605,9.891045570373535,-0.3662109375,-0.579833984375,3.5400390625
5.1524999000000005,0.3705027103424072,-0.1215057373046875,9.3643217086792,-0.30517578125,-0.091552734375,-4.302978515625
5.1574999,0.11312603205442429,0.06464344263076782,9.793481826782227,0.579833984375,0.79345703125,4.08935546875
5.1624999,0.3734954595565796,-0.22385786473751068,9.385271072387695,-1.03759765625,-1.52587890625,-4.241943359375
5.1674999,0.05925649031996727,0.08319851011037827,9.815030097961426,1.15966796875,1.861572265625,3.41796875
5.1724999,0.34177228808403015,-0.20111294090747833,9.607931137084961,-1.46484375,-2.471923828125,-2.99072265625
5.1774999,0.05925649031996727,0.09157821536064148,9.86770248413086,1.251220703125,2.62451171875,1.8310546875
5.1824999,0.27054479718208313,-0.14604631066322327,9.877279281616211,-1.52587890625,-2.50244140625,-1.007080078125
5.187499900000001,0.1256955862045288,0.04249707981944084,9.85034465789795,1.28173828125,2.288818359375,-0.67138671875
5.1924999000000005,0.22026655077934265,-0.08499415963888168,10.032901763916016,-0.946044921875,-2.044677734375,1.46484375
5.1974999,0.25677812099456787,-0.0347159244120121,9.664793968200684,0.640869140625,1.52587890625,-2.62451171875
5.2024999,0.20470423996448517,0.021547814831137657,9.949105262756348,-0.335693359375,-0.823974609375,3.23486328125
5.2074999,0.363918662071228,-0.1215057373046875,9.419387817382812,-0.244140625,0.1220703125,-4.21142578125
5.2124999,0.13108254969120026,0.06763619929552078,9.804854393005371,0.396728515625,0.6103515625,4.119873046875
5.2174999,0.37828385829925537,-0.21009120345115662,9.381080627441406,-0.91552734375,-1.190185546875,-4.150390625
5.2224999,0.060453593730926514,0.08259996026754379,9.802460670471191,1.03759765625,1.953125,3.662109375
5.227499900000001,0.3519476354122162,-0.20051439106464386,9.57441234588623,-1.3427734375,-2.227783203125,-3.326416015625
5.2324999000000005,0.05686229094862938,0.08858546614646912,9.855731010437012,1.3427734375,2.532958984375,1.922607421875
5.2374999,0.2801215946674347,-0.14425064623355865,9.838373184204102,-1.40380859375,-2.5634765625,-1.190185546875
5.2424999,0.11971008777618408,0.033518824726343155,9.847949981689453,1.373291015625,2.288818359375,-0.396728515625
5.2474999,0.2256535142660141,-0.0802057534456253,10.019135475158691,-1.007080078125,-2.227783203125,1.251220703125
5.2524999,0.2513911724090576,-0.04010287672281265,9.683947563171387,0.823974609375,1.678466796875,-2.471923828125
