# Time (seconds),Accel_X,Accel_Y,Accel_Z,Gyro_X,Gyro_Y,Gyro_Z
0.0024999,0.2968810200691223,0.2669534981250763,9.57321548461914,0.244140625,-0.48828125,-2.44140625
0.0074999,0.2968810200691223,0.2669534981250763,9.57321548461914,0.244140625,-0.48828125,-2.44140625
0.012499900000000001,0.39145198464393616,0.30047231912612915,9.238027572631836,1.190185546875,1.617431640625,1.800537109375
0.0174999,0.30466216802597046,0.2885012924671173,9.346963882446289,2.38037109375,0.640869140625,-0.762939453125
0.0224999,0.517746090888977,0.2603694200515747,9.610325813293457,-0.9765625,0.213623046875,1.678466796875
0.0274999,0.30047231912612915,0.2555810213088989,9.577404975891113,-1.129150390625,-0.91552734375,-2.197265625
0.0324999,0.38905778527259827,0.2555810213088989,9.051877975463867,2.044677734375,1.373291015625,1.15966796875
0.0374999,0.40043023228645325,0.2890998423099518,9.2841157913208,-1.739501953125,-1.15966796875,-0.274658203125
0.0424999,0.2537853717803955,0.24361002445220947,9.05247688293457,1.190185546875,-0.030517578125,-1.40380859375
0.0474999,0.4596867263317108,0.2537853717803955,9.061454772949219,0.06103515625,1.007080078125,2.0751953125
0.0524999,0.3058592677116394,0.1711854189634323,9.49001693725586,-1.739501953125,-1.312255859375,-1.922607421875
0.0574999,0.35673606395721436,0.1496376097202301,9.043498039245605,2.410888671875,1.15966796875,0.152587890625
0.0624999,0.42616790533065796,0.1933317929506302,9.323619842529297,-1.312255859375,-0.579833984375,0.579833984375
0.0674999,0.2777273952960968,0.23104046285152435,9.197325706481934,0.54931640625,-0.396728515625,-2.166748046875
0.0724999,0.37648820877075195,0.27473464608192444,8.927978515625,1.068115234375,1.556396484375,1.739501953125
0.0774999,0.517746090888977,0.22505496442317963,9.385869026184082,-0.3662109375,-0.030517578125,1.495361328125
0.0824999,0.2849099934101105,0.17956513166427612,9.302072525024414,-1.068115234375,-0.91552734375,-2.50244140625
0.0874999,0.3998316824436188,0.28730419278144836,8.865729331970215,1.708984375,1.8310546875,0.823974609375
0.0924999,0.4100070297718048,0.31842881441116333,9.123703956604004,-2.044677734375,-0.8544921875,0
0.0974999,0.2687491476535797,0.272938996553421,9.077615737915039,1.0986328125,0.1220703125,-1.556396484375
0.1024999,0.45908817648887634,0.30047231912612915,9.039907455444336,0.946044921875,1.15966796875,1.983642578125
0.1074999,0.3776853084564209,0.1628057211637497,9.639654159545898,-1.861572265625,-1.434326171875,-1.52587890625
0.1124999,0.3561375141143799,0.22864626348018646,9.29309368133545,1.953125,1.40380859375,-0.213623046875
0.1174999,0.5117605924606323,0.17896658182144165,9.622296333312988,-0.91552734375,-0.335693359375,1.03759765625
0.1224999,0.2908954918384552,0.2537853717803955,9.552266120910645,-0.335693359375,-1.03759765625,-2.25830078125
0.1274999,0.38067805767059326,0.29568392038345337,9.045892715454102,2.13623046875,1.64794921875,1.434326171875
0.1324999,0.37169981002807617,0.32441434264183044,9.352949142456055,-2.01416015625,-1.251220703125,-0.54931640625
0.1374999,0.24779987335205078,0.32620999217033386,8.991424560546875,0.8544921875,0.1220703125,-1.28173828125
0.1424999,0.4495113790035248,0.2890998423099518,9.057265281677246,0.54931640625,0.67138671875,1.8310546875
0.1474999,0.33039984107017517,0.19213469326496124,9.351153373718262,-1.28173828125,-1.739501953125,-2.3193359375
0.1524999,0.3423708379268646,0.18974047899246216,8.965686798095703,2.5634765625,0.9765625,-0.1220703125
0.1574999,0.4495113790035248,0.16819266974925995,9.199121475219727,-1.40380859375,-0.3662109375,0.640869140625
0.1624999,0.3842693865299225,0.243011474609375,8.923190116882324,1.52587890625,1.0986328125,1.800537109375
0.1674999,0.40701428055763245,0.33937808871269226,9.497200012207031,-1.8310546875,-1.15966796875,-0.640869140625
0.1724999,0.28072014451026917,0.21787235140800476,9.2841157913208,1.40380859375,0.732421875,-1.3427734375
0.17749990000000002,0.4926069974899292,0.28790274262428284,9.425373077392578,0.06103515625,0.9765625,1.77001953125
0.1824999,0.345363587141037,0.21308395266532898,9.692925453186035,-1.617431640625,-0.732421875,-1.89208984375
0.1874999,0.44592007994651794,0.25318682193756104,9.266159057617188,-1.007080078125,-0.396728515625,0.885009765625
0.1924999,0.27413609623908997,0.262763649225235,9.079411506652832,0,-0.579833984375,-2.38037109375
0.1974999,0.36750996112823486,0.2711433470249176,8.6897554397583,1.3427734375,1.312255859375,1.40380859375
0.2024999,0.3794809579849243,0.32022446393966675,9.19972038269043,-2.25830078125,-0.946044921875,-0.518798828125
0.20749990000000001,0.26156654953956604,0.17178396880626678,8.97765827178955,1.220703125,0.1220703125,-1.556396484375
0.2124999,0.4704606235027313,0.262763649225235,9.1446533203125,0.701904296875,0.91552734375,1.861572265625
0.2174999,0.3711012601852417,0.13587094843387604,9.500192642211914,-1.678466796875,-0.946044921875,-1.739501953125
0.2224999,0.363918662071228,0.2519897222518921,9.152434349060059,1.5869140625,1.52587890625,-0.152587890625
0.2274999,0.48482584953308105,0.22924481332302094,9.403825759887695,-1.190185546875,0.091552734375,1.373291015625
0.2324999,0.26755204796791077,0.29149407148361206,9.388861656188965,-0.396728515625,-1.068115234375,-2.01416015625
0.2374999,0.3531447649002075,0.3034650683403015,8.999804496765137,2.3193359375,1.617431640625,1.129150390625
0.2424999,0.36332011222839355,0.34835633635520935,9.270947456359863,-1.89208984375,-1.068115234375,-0.335693359375
0.2474999,0.424970805644989,0.28730419278144836,9.027337074279785,0.640869140625,1.129150390625,1.739501953125
0.2524999,0.37828385829925537,0.262763649225235,9.617507934570312,-1.64794921875,-1.434326171875,-1.46484375
0.2574999,0.3208230137825012,0.1711854189634323,9.17936897277832,2.227783203125,0.823974609375,-0.640869140625
0.2624999,0.5285200476646423,0.18555063009262085,9.37389850616455,-0.91552734375,0.457763671875,1.434326171875
0.2674999,0.28550854325294495,0.21428105235099792,9.303269386291504,-1.0986328125,-0.54931640625,-1.983642578125
0.2724999,0.3968389332294464,0.2454056739807129,8.879495620727539,1.708984375,1.28173828125,0.823974609375
0.2774999,0.3687070608139038,0.29867666959762573,9.099164009094238,-1.28173828125,-0.67138671875,0.54931640625
0.2824999,0.2753331959247589,0.31543606519699097,8.994417190551758,0.67138671875,-0.335693359375,-2.105712890625
0.28749990000000003,0.365115761756897,0.26336219906806946,8.819042205810547,0.946044921875,1.220703125,1.373291015625
0.2924999,0.3998316824436188,0.27653029561042786,9.290101051330566,-2.01416015625,-0.91552734375,-1.068115234375
0.2974999,0.27473464608192444,0.20290859043598175,9.098565101623535,1.678466796875,0.18310546875,-1.190185546875
0.3024999,0.5045779943466187,0.1951274424791336,9.247604370117188,-0.1220703125,0.67138671875,1.953125
0.3074999,0.38965633511543274,0.2364274114370346,9.090185165405273,2.44140625,0.823974609375,-0.48828125
0.3124999,0.46746787428855896,0.2064998894929886,9.237428665161133,-0.946044921875,-0.335693359375,1.068115234375
0.3174999,0.2795230448246002,0.3016694188117981,9.093177795410156,-1.007080078125,-0.30517578125,-1.861572265625
0.3224999,0.38726213574409485,0.2651578485965729,8.92917537689209,1.5869140625,1.15966796875,1.15966796875
0.3274999,0.38067805767059326,0.23702596127986908,9.577404975891113,-1.52587890625,-1.77001953125,-1.373291015625
0.3324999,0.3034650683403015,0.25079262256622314,9.336189270019531,1.007080078125,1.312255859375,-0.640869140625
0.3374999,0.5380968451499939,0.2645592987537384,9.415796279907227,-0.18310546875,0.701904296875,1.617431640625
0.3424999,0.3693056106567383,0.2298433631658554,9.603142738342285,-1.15966796875,-1.617431640625,-2.25830078125
0.34749990000000003,0.40940847992897034,0.2783259451389313,9.2033109664917,2.288818359375,1.40380859375,0.091552734375
0.35249990000000003,0.26994624733924866,0.28969839215278625,9.358335494995117,-0.54931640625,-1.220703125,-2.166748046875
0.3574999,0.363918662071228,0.304063618183136,8.996811866760254,2.13623046875,1.15966796875,1.312255859375
0.3624999,0.3687070608139038,0.32620999217033386,9.247005462646484,-1.77001953125,-0.946044921875,0.1220703125
0.3674999,0.2519897222518921,0.2861070930957794,9.14585018157959,0.1220703125,-0.213623046875,-1.922607421875
0.3724999,0.4082113802433014,0.30047231912612915,8.9680814743042,1.617431640625,0.946044921875,1.28173828125
0.3774999,0.39145198464393616,0.23942017555236816,9.478046417236328,-1.46484375,-1.251220703125,-1.15966796875
0.3824999,0.2819172441959381,0.16101007163524628,9.193136215209961,0.8544921875,0.48828125,-0.640869140625
0.3874999,0.5165489912033081,0.24420857429504395,9.235034942626953,0.3662109375,0.732421875,1.739501953125
0.3924999,0.3627215623855591,0.1711854189634323,9.46727180480957,-0.9765625,-1.800537109375,-2.01416015625
0.3974999,0.39205053448677063,0.23283611238002777,9.149441719055176,1.46484375,0.946044921875,0.335693359375
0.4024999,0.4866214990615845,0.2992752194404602,9.374496459960938,-0.8544921875,0.579833984375,0.9765625
0.4074999,0.2663549482822418,0.30526071786880493,9.304466247558594,0.1220703125,-1.312255859375,-2.716064453125
0.41249990000000003,0.272938996553421,0.3585317134857178,9.25299072265625,0.823974609375,-1.03759765625,-2.38037109375
0.41749990000000003,0.36152446269989014,0.24420857429504395,9.068038940429688,0.946044921875,1.220703125,1.678466796875
0.4224999,0.3926490843296051,0.322618693113327,9.55825138092041,-2.166748046875,-0.152587890625,-0.396728515625
0.4274999,0.2579752206802368,0.1867477297782898,9.269750595092773,1.556396484375,-0.457763671875,-1.77001953125
0.4324999,0.45848962664604187,0.24779987335205078,9.217676162719727,0.518798828125,0.579833984375,1.77001953125
0.4374999,0.406415730714798,0.23163901269435883,9.661202430725098,-2.0751953125,-0.457763671875,-1.312255859375
0.4424999,0.3280056416988373,0.27234044671058655,9.155426979064941,2.25830078125,-0.48828125,-1.03759765625
0.4474999,0.5237316489219666,0.25258827209472656,9.343372344970703,-0.152587890625,0.091552734375,1.46484375
0.4524999,0.3148375153541565,0.27234044671058655,9.478046417236328,-1.77001953125,-0.06103515625,-1.5869140625
0.4574999,0.3944447338581085,0.3357867896556854,9.030928611755371,2.685546875,0.732421875,0.152587890625
0.4624999,0.40701428055763245,0.28311434388160706,9.300276756286621,-1.007080078125,-0.732421875,0.9765625
0.4674999,0.31842881441116333,0.2992752194404602,8.858546257019043,2.166748046875,0.762939453125,0.54931640625
0.47249990000000003,0.3214215636253357,0.31842881441116333,9.115922927856445,-1.251220703125,-1.373291015625,-0.1220703125
0.47749990000000003,0.21787235140800476,0.24899697303771973,9.017760276794434,-0.18310546875,0.396728515625,-1.52587890625
0.4824999,0.4602852761745453,0.23283611238002777,9.01895809173584,0.701904296875,1.190185546875,1.556396484375
0.4874999,0.4034229815006256,0.14065934717655182,9.297284126281738,-1.0986328125,-1.556396484375,-1.52587890625
0.4924999,0.3250128924846649,0.11971008777618408,8.814851760864258,0.823974609375,0.79345703125,-0.274658203125
0.4974999,0.5237316489219666,0.24121582508087158,8.910619735717773,0.152587890625,0.732421875,1.434326171875
0.5024999,0.32620999217033386,0.17298106849193573,9.013570785522461,-0.579833984375,-1.89208984375,-2.105712890625
0.5074999,0.38067805767059326,0.2579752206802368,8.767566680908203,1.0986328125,1.64794921875,0.30517578125
0.5124999,0.25438392162323,0.3250128924846649,9.188945770263672,0.1220703125,-1.89208984375,-2.38037109375
0.5174999,0.3776853084564209,0.2944868206977844,9.05606746673584,1.28173828125,1.434326171875,1.007080078125
0.5224999,0.3471592366695404,0.3381809890270233,9.376891136169434,-1.8310546875,0.18310546875,0.3662109375
0.5274999,0.27413609623908997,0.3100491166114807,9.255385398864746,0.885009765625,-1.220703125,-2.410888671875
0.5324999,0.37469255924224854,0.1933317929506302,9.006388664245605,1.129150390625,0.9765625,1.556396484375
0.5374999,0.43095630407333374,0.3298012912273407,9.32302188873291,-1.922607421875,0.091552734375,0.030517578125
0.5424999,0.2968810200691223,0.19572599232196808,9.060257911682129,1.40380859375,-0.762939453125,-2.13623046875
0.5474999,0.4471171796321869,0.2232593148946762,8.957306861877441,0.640869140625,1.007080078125,1.708984375
0.5524999,0.4213795065879822,0.243011474609375,9.312247276306152,-2.166748046875,0.091552734375,-1.007080078125
0.5574999,0.26096799969673157,0.16400282084941864,8.910619735717773,2.01416015625,-0.518798828125,-1.40380859375
0.5624999,0.47584760189056396,0.20111294090747833,8.892065048217773,0.396728515625,0.1220703125,2.044677734375
0.5674999000000001,0.3902548849582672,0.16579847037792206,9.182960510253906,-2.288818359375,-0.30517578125,-1.373291015625
0.5724999000000001,0.518943190574646,0.21547815203666687,9.026739120483398,-0.335693359375,-0.152587890625,1.64794921875
0.5774999000000001,0.3387795388698578,0.25917232036590576,9.305065155029297,-1.983642578125,0.030517578125,-1.8310546875
0.5824999,0.39384618401527405,0.34596213698387146,8.979453086853027,2.50244140625,0.42724609375,-0.48828125
0.5874999,0.42018240690231323,0.2825157940387726,9.339780807495117,-0.762939453125,-0.457763671875,1.190185546875
0.5924999,0.272938996553421,0.31543606519699097,9.206304550170898,-1.434326171875,0.06103515625,-1.739501953125
0.5974999,0.34177228808403015,0.3387795388698578,8.871115684509277,2.410888671875,0.6103515625,0.3662109375
0.6024999,0.33758243918418884,0.19871874153614044,9.018359184265137,-0.9765625,-0.91552734375,0.579833984375
0.6074999,0.26396074891090393,0.24779987335205078,8.87410831451416,-0.91552734375,0.244140625,-1.77001953125
0.6124999,0.35913026332855225,0.1735796183347702,8.629899978637695,1.89208984375,1.373291015625,0.946044921875
0.6174999,0.3824737071990967,0.24899697303771973,8.998008728027344,-1.190185546875,-1.617431640625,-0.244140625
0.6224999,0.26994624733924866,0.2172738015651703,9.084199905395508,-0.54931640625,0.3662109375,-1.556396484375
0.6274999,0.29628247022628784,0.1646013706922531,9.265560150146484,0.30517578125,0.6103515625,-1.15966796875
0.6324999,0.29628247022628784,0.1646013706922531,9.265560150146484,0.30517578125,0.6103515625,-1.15966796875
0.6374999,0.4387374520301819,0.25438392162323,9.012971878051758,1.068115234375,1.190185546875,1.46484375
0.6424999,0.2783259451389313,0.14065934717655182,8.918401718139648,0.274658203125,0.79345703125,-0.518798828125
0.6474999,0.49619829654693604,0.29807811975479126,9.019556045532227,0.213623046875,1.0986328125,1.556396484375
0.6524999,0.35733461380004883,0.23403321206569672,9.282918930053711,-0.91552734375,-1.617431640625,-1.953125
0.6574999,0.35733461380004883,0.2346317619085312,8.935759544372559,1.312255859375,1.03759765625,-0.244140625
0.6624999,0.4967968463897705,0.3232172429561615,9.045892715454102,-0.335693359375,1.312255859375,1.40380859375
0.6674999,0.333991140127182,0.22685061395168304,9.15961742401123,-0.640869140625,-1.556396484375,-2.105712890625
0.6724999,0.38726213574409485,0.2663549482822418,8.89685344696045,1.15966796875,0.8544921875,0.18310546875
0.6774999,0.46806642413139343,0.3256114423274994,9.114726066589355,-0.91552734375,0.732421875,1.251220703125
0.6824999,0.3663128614425659,0.30226796865463257,9.082404136657715,-1.312255859375,0.732421875,0.762939453125
0.6874999,0.24480712413787842,0.26156654953956604,8.98124885559082,0.732421875,-1.617431640625,-2.655029296875
0.6924999000000001,0.3345896899700165,0.2322375625371933,8.834604263305664,1.068115234375,0.8544921875,1.129150390625
0.6974999000000001,0.333991140127182,0.2908954918384552,9.033921241760254,-1.739501953125,0.3662109375,0.42724609375
0.7024999000000001,0.24241292476654053,0.28969839215278625,8.892065048217773,0.823974609375,-1.129150390625,-2.227783203125
0.7074999,0.3477577865123749,0.15741875767707825,8.644265174865723,0.8544921875,1.068115234375,1.678466796875
0.7124999,0.3974374830722809,0.32202014327049255,9.077615737915039,-2.01416015625,0.152587890625,0.18310546875
0.7174999,0.27653029561042786,0.2106897532939911,9.019556045532227,1.28173828125,-0.91552734375,-2.166748046875
0.7224999,0.41718965768814087,0.23044191300868988,8.947132110595703,0.640869140625,0.79345703125,1.708984375
0.7274999,0.43694180250167847,0.2932897210121155,9.4014310836792,-2.25830078125,0.06103515625,-0.3662109375
0.7324999,0.4058171808719635,0.22206220030784607,9.23682975769043,-2.44140625,0.244140625,-0.91552734375
0.7374999,0.4058171808719635,0.22206220030784607,9.23682975769043,-2.44140625,0.244140625,-0.91552734375
0.7424999,0.26815059781074524,0.18555063009262085,8.886677742004395,2.25830078125,-0.274658203125,-1.64794921875
0.7474999,0.46806642413139343,0.22924481332302094,8.926780700683594,0.213623046875,0.457763671875,1.739501953125
0.7524999,0.406415730714798,0.22445641458034515,9.282918930053711,-2.410888671875,-0.30517578125,-1.068115234375
0.7574999,0.33279404044151306,0.26575639843940735,8.868721961975098,2.50244140625,-0.18310546875,-1.28173828125
0.7624999,0.5303156971931458,0.2885012924671173,8.984840393066406,-0.030517578125,0,1.800537109375
0.7674999,0.38965633511543274,0.2555810213088989,9.083600997924805,-2.227783203125,-0.30517578125,-1.3427734375
0.7724999,0.3531447649002075,0.33758243918418884,8.787917137145996,2.593994140625,0.274658203125,-0.79345703125
0.7774999,0.4818331003189087,0.23822307586669922,8.978256225585938,-0.244140625,0.06103515625,1.64794921875
0.7824999,0.3298012912273407,0.2621650993824005,9.275735855102539,-2.01416015625,-0.335693359375,-1.5869140625
0.7874999,0.3818751573562622,0.3232172429561615,9.032125473022461,2.532958984375,0.48828125,-0.396728515625
0.7924999,0.30705636739730835,0.27234044671058655,9.153631210327148,-1.495361328125,-0.213623046875,-1.64794921875
0.7974999,0.375291109085083,0.33758243918418884,8.74721622467041,2.471923828125,0.946044921875,0.335693359375
0.8024999,0.3531447649002075,0.20949265360832214,8.908226013183594,-0.8544921875,-0.579833984375,1.068115234375
0.8074999,0.2364274114370346,0.24779987335205078,8.875306129455566,-1.495361328125,0.1220703125,-1.8310546875
0.8124999,0.32022446393966675,0.26575639843940735,8.739435195922852,2.25830078125,1.068115234375,0.274658203125
0.8174999000000001,0.3292027413845062,0.17298106849193573,9.133879661560059,-0.885009765625,-0.946044921875,0.701904296875
0.8224999000000001,0.25737667083740234,0.22625206410884857,9.050681114196777,-1.28173828125,-0.030517578125,-1.5869140625
0.8274999000000001,0.3663128614425659,0.1933317929506302,8.847772598266602,2.01416015625,1.15966796875,0.54931640625
0.8324999000000001,0.3968389332294464,0.21847090125083923,9.032724380493164,-1.068115234375,-0.91552734375,0.213623046875
0.8374999,0.3064578175544739,0.2214636504650116,8.78432559967041,-0.9765625,0.3662109375,-1.5869140625
0.8424999,0.4100070297718048,0.24420857429504395,8.489240646362305,2.044677734375,1.28173828125,0.885009765625
0.8474999,0.4345476031303406,0.29209262132644653,8.859145164489746,-0.885009765625,-1.40380859375,-0.030517578125
0.8524999,0.41359832882881165,0.2974795699119568,8.921394348144531,1.708984375,1.3427734375,1.03759765625
0.8574999,0.4082113802433014,0.2932897210121155,9.480440139770508,-1.312255859375,-1.251220703125,-0.640869140625
0.8624999,0.30047231912612915,0.20051439106464386,9.374496459960938,-0.518798828125,0.54931640625,-1.251220703125
0.8674999,0.4207809567451477,0.27234044671058655,9.095572471618652,1.5869140625,0.8544921875,1.15966796875
0.8724999,0.39564183354377747,0.23283611238002777,9.28531265258789,-1.190185546875,-1.678466796875,-0.946044921875
0.8774999,0.28790274262428284,0.15322890877723694,8.87410831451416,-0.18310546875,0.518798828125,-0.946044921875
0.8824999,0.40521863102912903,0.27473464608192444,8.570643424987793,1.0986328125,1.0986328125,1.220703125
0.8874999,0.3663128614425659,0.2106897532939911,8.848969459533691,-1.0986328125,-1.3427734375,-1.15966796875
0.8924999,0.26755204796791077,0.15023615956306458,8.684967041015625,0.030517578125,0.9765625,-0.67138671875
0.8974999,0.4207809567451477,0.28969839215278625,8.765172004699707,0.946044921875,1.03759765625,1.52587890625
0.9024999,0.37828385829925537,0.19393034279346466,9.202713012695312,-0.9765625,-1.77001953125,-1.434326171875
0.9074999,0.2849099934101105,0.17657238245010376,9.096769332885742,0.152587890625,0.701904296875,-0.701904296875
0.9124999,-3.445854902267456,-4.787206172943115,6.224325656890869,-32.3486328125,-108.0322265625,461.97509765625
0.9174999,-4.194042682647705,-5.457582950592041,4.750694751739502,38.9404296875,-138.763427734375,778.411865234375
0.9224999,-5.2564697265625,-5.913079738616943,4.160523891448975,234.7412109375,-9.918212890625,576.2939453125
0.9274999,-4.180874824523926,-5.794566631317139,4.013879299163818,717.95654296875,213.592529296875,52.30712890625
0.9324999,-2.1703438758850098,-5.823297023773193,4.769848346710205,845.3369140625,216.6748046875,-114.532470703125
0.9374999,-0.1735796183347702,-5.055955410003662,5.2229509353637695,858.001708984375,52.1240234375,-22.5830078125
0.9424999000000001,1.9243396520614624,-3.376422882080078,5.292382717132568,293.304443359375,-177.978515625,33.3251953125
0.9474999000000001,3.224989652633667,1.213860273361206,2.4899697303771973,104.43115234375,-347.900390625,-12.237548828125
0.9524999000000001,3.229179620742798,2.275688648223877,0.6763619780540466,66.436767578125,-352.84423828125,-38.26904296875
0.9574999000000001,3.624821424484253,3.1040825843811035,-0.6919242739677429,75.86669921875,-327.69775390625,-41.534423828125
0.9624999,6.477512836456299,6.16566801071167,0.0694318488240242,-62.5,61.798095703125,-82.122802734375
0.9674999,6.603208065032959,7.524377346038818,0.9157821536064148,-68.84765625,-3.692626953125,-102.60009765625
0.9724999,6.7265095710754395,7.799710750579834,0.6859387755393982,-149.169921875,6.53076171875,-126.190185546875
0.9774999,7.136516571044922,8.867524147033691,2.144606113433838,-180.5419921875,0.030517578125,-142.76123046875
0.9824999,7.220313549041748,8.790311813354492,3.642777919769287,-235.16845703125,23.468017578125,-159.912109375
0.9874999,6.626551628112793,8.51797103881836,3.8971617221832275,-267.08984375,21.148681640625,-154.876708984375
0.9924999,5.767632007598877,8.09778881072998,4.10246467590332,-305.755615234375,23.62060546875,-136.505126953125
0.9974999,4.753687381744385,7.441777229309082,4.037222385406494,-337.921142578125,30.975341796875,-114.532470703125
1.0024999,3.5278561115264893,6.886322498321533,4.0294413566589355,-364.990234375,39.36767578125,-88.775634765625
1.0074999000000002,2.389413356781006,6.378751754760742,4.365228176116943,-393.951416015625,51.422119140625,-66.0400390625
1.0124999000000001,1.2030863761901855,5.886145114898682,4.61781644821167,-415.374755859375,66.650390625,-51.69677734375
1.0174999000000002,0.23702596127986908,5.588066577911377,5.564723491668701,-418.39599609375,84.136962890625,-46.9970703125
1.0224999000000001,0.8948329091072083,5.04218864440918,7.907449722290039,-350.40283203125,176.727294921875,-41.229248046875
1.0274999,1.5209165811538696,4.217984676361084,10.16877269744873,3.23486328125,430.084228515625,-73.516845703125
1.0324999000000001,2.9724013805389404,2.7126305103302,12.494141578674316,167.205810546875,337.432861328125,-134.8876953125
1.0374999,3.3417069911956787,1.0995371341705322,13.69962215423584,68.84765625,108.82568359375,-104.766845703125
1.0424999000000001,-0.9014169573783875,-2.5576059818267822,12.406753540039062,-95.03173828125,24.078369140625,18.49365234375
1.0474999,-2.1751322746276855,-2.9083564281463623,12.123639106750488,-93.597412109375,55.35888671875,37.811279296875
1.0524999000000002,-2.9083564281463623,-2.9502551555633545,11.866262435913086,-90.8203125,17.9443359375,34.881591796875
1.0574999,-2.911349296569824,-2.8095955848693848,11.425130844116211,-92.132568359375,-7.110595703125,22.0947265625
1.0624999000000002,-2.3481132984161377,-2.4845829010009766,10.520720481872559,-81.60400390625,2.50244140625,18.096923828125
1.0674999,-1.6370353698730469,-2.1332337856292725,9.313444137573242,-71.380615234375,9.613037109375,13.641357421875
1.0724999000000002,-0.6889315247535706,-1.8351556062698364,8.141483306884766,-50.018310546875,-13.18359375,8.819580078125
1.0774999,-0.06224924325942993,-1.7561469078063965,7.107187747955322,-24.35302734375,-8.30078125,8.209228515625
1.0824999000000002,0.4991910457611084,-1.843535304069519,6.5714850425720215,-7.8125,9.368896484375,9.735107421875
1.0874999,0.6003460884094238,-2.126051187515259,6.722319602966309,6.8359375,7.293701171875,2.44140625
1.0924999000000002,0.7236474752426147,-2.3750481605529785,7.119757175445557,21.148681640625,4.39453125,-1.52587890625
1.0974999,0.5410895943641663,-2.561197280883789,8.183381080627441,48.248291015625,5.55419921875,-0.48828125
1.1024999000000002,0.31783026456832886,-2.3720552921295166,8.495824813842773,55.145263671875,-3.84521484375,4.82177734375
1.1074999,0.14006079733371735,-1.9704279899597168,8.567051887512207,73.05908203125,-7.38525390625,7.415771484375
1.1124999000000002,-0.11372458189725876,-1.468244194984436,8.7268648147583,80.047607421875,-13.12255859375,9.46044921875
1.1174999,-0.32441434264183044,-0.9804255962371826,8.787917137145996,83.831787109375,-19.805908203125,8.270263671875
1.1224999000000002,-0.43694180250167847,-0.5315127968788147,9.05606746673584,89.7216796875,-21.697998046875,5.096435546875
1.1274999,-0.5680243372917175,-0.10235211998224258,9.360730171203613,94.3603515625,-26.214599609375,3.90625
1.1324999000000002,-0.5147533416748047,0.02992752194404602,9.725247383117676,86.761474609375,-27.2216796875,2.349853515625
1.1374999000000001,-0.29568392038345337,0.9540894031524658,9.610325813293457,33.233642578125,-0.30517578125,-1.861572265625
1.1424999000000002,0.08259996026754379,1.5089455842971802,9.73661994934082,-7.01904296875,-7.080078125,-10.650634765625
1.1474999000000001,0.43275195360183716,2.6408045291900635,9.454702377319336,2.777099609375,-25.482177734375,-12.75634765625
1.1524999000000002,0.8786720037460327,3.291428804397583,9.193734169006348,5.79833984375,-22.705078125,-4.0283203125
1.1574999000000001,1.1528080701828003,-0.04010287672281265,9.825204849243164,-0.91552734375,-0.885009765625,15.93017578125
1.1624999,1.1079168319702148,-0.6613982319831848,9.942521095275879,-4.638671875,2.899169921875,12.51220703125
1.1674999000000001,0.7523778676986694,-0.9481038451194763,9.884461402893066,-0.91552734375,4.852294921875,7.26318359375
1.1724999,0.569819986820221,-0.9864110946655273,9.748590469360352,1.800537109375,6.2255859375,4.119873046875
1.1774999000000002,0.22385786473751068,-0.7170634269714355,9.774328231811523,8.087158203125,6.439208984375,-2.5634765625
1.1824999,0.03890577703714371,-0.3076549172401428,9.685144424438477,2.227783203125,8.575439453125,-2.50244140625
1.1874999000000002,-0.0293289702385664,0.1735796183347702,9.849146842956543,-0.8544921875,5.2490234375,-5.279541015625
1.1924999,0.08738835901021957,0.8289923667907715,9.86770248413086,0.152587890625,1.556396484375,-1.373291015625
1.1974999000000002,0.14365209639072418,0.889445960521698,9.940725326538086,-1.373291015625,0.396728515625,-0.701904296875
1.2024999,0.2513911724090576,0.811634361743927,9.804255485534668,-0.18310546875,0.6103515625,2.13623046875
1.2074999000000002,0.3908534348011017,0.646434485912323,9.876680374145508,-1.40380859375,-1.953125,0.213623046875
1.2124999,0.3585317134857178,0.47644615173339844,9.802460670471191,0.3662109375,-0.9765625,-0.579833984375
1.2174999000000002,0.4884171485900879,0.32860419154167175,9.755773544311523,0.1220703125,-1.312255859375,2.899169921875
1.2224999,0.45010992884635925,0.2579752206802368,9.874884605407715,0.152587890625,-2.716064453125,0.91552734375
1.2274999000000002,0.44412440061569214,0.23762452602386475,9.762357711791992,1.8310546875,-1.8310546875,1.556396484375
1.2324999,0.5351040959358215,0.27473464608192444,9.873088836669922,-0.823974609375,-2.960205078125,1.007080078125
1.2374999000000002,0.47405192255973816,0.33279404044151306,9.831789016723633,0.18310546875,-0.030517578125,-1.64794921875
1.2424999,0.6051344871520996,0.39863458275794983,9.702502250671387,0.244140625,2.25830078125,-0.06103515625
1.2474999000000002,0.639850378036499,0.44592007994651794,9.724648475646973,-0.18310546875,5.126953125,0.42724609375
1.2524999,0.47644615173339844,0.44831427931785583,9.825204849243164,0.030517578125,3.11279296875,-0.762939453125
1.2574999000000002,0.39803603291511536,0.3800795078277588,9.814431190490723,1.739501953125,2.105712890625,1.5869140625
1.2624999000000001,0.3274070918560028,0.3627215623855591,9.9185791015625,-0.48828125,-1.15966796875,1.861572265625
1.2674999000000002,0.18495208024978638,0.3214215636253357,9.913191795349121,0.640869140625,-0.1220703125,-1.40380859375
1.2724999000000001,0.243011474609375,0.32022446393966675,9.79288387298584,0.30517578125,-0.06103515625,-0.701904296875
1.2774999000000002,0.2645592987537384,0.3232172429561615,9.84256362915039,-1.77001953125,0,-1.77001953125
1.2824999000000001,0.4381389021873474,0.40462008118629456,9.75278091430664,-0.244140625,-0.274658203125,2.38037109375
1.2874999,0.4381389021873474,0.40462008118629456,9.75278091430664,-0.244140625,-0.274658203125,2.38037109375
1.2924999000000001,0.44412440061569214,0.4357447028160095,9.877279281616211,0.18310546875,-1.983642578125,1.312255859375
1.2974999,0.4297592043876648,0.4315548539161682,9.837176322937012,1.52587890625,-2.13623046875,1.983642578125
1.3024999000000002,0.40043023228645325,0.3423708379268646,9.853935241699219,-0.274658203125,-0.1220703125,-3.753662109375
1.3074999,0.45489832758903503,0.3357867896556854,9.70429801940918,0.1220703125,2.410888671875,-2.44140625
1.3124999000000002,0.5416881442070007,0.333991140127182,9.764751434326172,-1.190185546875,2.9296875,-1.068115234375
1.3174999,0.5207388401031494,0.365115761756897,9.731232643127441,0.67138671875,2.838134765625,-0.274658203125
1.3224999000000002,0.5728127360343933,0.395043283700943,9.703699111938477,1.220703125,1.8310546875,2.960205078125
1.3274999,0.4944026470184326,0.4537012279033661,9.853337287902832,-0.6103515625,-2.105712890625,1.64794921875
1.3324999000000002,0.3561375141143799,0.4387374520301819,9.792284965515137,1.5869140625,-0.91552734375,-1.708984375
1.3374999,0.32381579279899597,0.42018240690231323,9.788095474243164,-0.3662109375,-0.152587890625,-2.227783203125
1.3424999000000002,0.2513911724090576,0.4058171808719635,9.950302124023438,-2.166748046875,1.77001953125,-2.86865234375
1.3474999,0.2950853705406189,0.36990416049957275,9.803058624267578,0.67138671875,3.448486328125,-1.8310546875
1.3524999000000002,0.4141969084739685,0.4100070297718048,9.847949981689453,0.18310546875,0.213623046875,1.983642578125
1.3574999,0.38726213574409485,0.38965633511543274,9.929352760314941,0.152587890625,-2.716064453125,2.685546875
1.3624999000000002,0.36990416049957275,0.35733461380004883,9.73542308807373,-1.617431640625,0.18310546875,-4.364013671875
1.3674999,0.36990416049957275,0.35733461380004883,9.73542308807373,-1.617431640625,0.18310546875,-4.364013671875
1.3724999000000002,0.49619829654693604,0.35673606395721436,9.685144424438477,0.335693359375,4.669189453125,-3.173828125
1.3774999,0.5327098965644836,0.36092591285705566,9.737217903137207,-0.579833984375,1.922607421875,1.312255859375
1.3824999000000002,0.5045779943466187,0.3974374830722809,9.82759952545166,1.190185546875,-0.8544921875,2.777099609375
1.3874999000000001,0.5566518902778625,0.414795458316803,9.773730278015137,2.227783203125,-1.220703125,1.46484375
1.3924999000000002,0.4279635548591614,0.43335050344467163,9.906009674072266,-0.457763671875,-1.129150390625,-1.739501953125
1.3974999000000001,0.3513490855693817,0.41539400815963745,9.798869132995605,-1.678466796875,1.28173828125,-3.41796875
1.4024999000000002,0.4183867573738098,0.3711012601852417,9.728240013122559,-0.79345703125,5.218505859375,-3.692626953125
1.4074999000000001,0.395043283700943,0.3579331636428833,9.870695114135742,0.18310546875,2.38037109375,0.54931640625
1.4124999,0.4082113802433014,0.3100491166114807,9.782708168029785,1.5869140625,-1.678466796875,4.852294921875
1.4174999000000001,0.4531026780605316,0.3603273630142212,9.840168952941895,1.251220703125,-3.7841796875,1.556396484375
1.4224999,0.3010708689689636,0.35913026332855225,9.733627319335938,-1.983642578125,1.007080078125,-2.105712890625
1.4274999000000002,0.35015198588371277,0.3477577865123749,9.750386238098145,-2.38037109375,3.35693359375,-2.105712890625
1.4324999,0.37828385829925537,0.3447650372982025,9.832387924194336,1.64794921875,2.105712890625,-0.030517578125
1.4374999000000002,0.5015852451324463,0.34356793761253357,9.813833236694336,2.0751953125,-2.685546875,5.401611328125
1.4424999,0.49619829654693604,0.4405331015586853,9.88625717163086,-0.06103515625,-5.279541015625,2.9296875
1.4474999000000002,0.436343252658844,0.44412440061569214,9.751583099365234,0.48828125,-0.42724609375,-6.072998046875
1.4524999,0.4734533727169037,0.4770447015762329,9.636063575744629,-1.861572265625,5.584716796875,-5.126953125
1.4574999000000002,0.456095427274704,0.49619829654693604,9.762357711791992,-2.471923828125,3.997802734375,1.739501953125
1.4624999,0.46567222476005554,0.4225766062736511,9.775525093078613,2.288818359375,-0.67138671875,3.47900390625
1.4674999000000002,0.5183446407318115,0.3770867586135864,9.82759952545166,3.2958984375,-3.0517578125,0.06103515625
1.4724999,0.3926490843296051,0.3687070608139038,9.932345390319824,0.732421875,-1.861572265625,-1.312255859375
1.4774999000000002,0.3477577865123749,0.33937808871269226,9.752182006835938,-2.899169921875,1.46484375,-1.739501953125
1.4824999,0.3064578175544739,0.35254621505737305,9.701904296875,-0.640869140625,2.0751953125,-7.26318359375
1.4874999000000002,0.3932476341724396,0.3513490855693817,9.72165584564209,-2.01416015625,7.75146484375,-4.486083984375
1.4924999,0.37888240814208984,0.383670836687088,9.804255485534668,-0.640869140625,1.15966796875,3.936767578125
1.4974999000000002,0.40701428055763245,0.3058592677116394,9.815628051757812,3.47900390625,-6.622314453125,5.06591796875
1.5024999,0.47225627303123474,0.36092591285705566,9.85034465789795,1.220703125,-5.828857421875,-1.312255859375
1.5074999000000002,0.4255693554878235,0.33279404044151306,9.852738380432129,-1.983642578125,3.387451171875,-6.195068359375
1.5124999000000001,0.41718965768814087,0.4387374520301819,9.68813705444336,-2.716064453125,7.293701171875,-0.18310546875
1.5174999000000002,0.5596446394920349,0.41718965768814087,9.79408073425293,0.213623046875,0.457763671875,3.60107421875
1.5224999000000001,0.45848962664604187,0.4710591733455658,9.806051254272461,4.150390625,-5.645751953125,0.274658203125
1.5274999000000002,0.4489128291606903,0.35494041442871094,9.750985145568848,-4.058837890625,5.279541015625,-2.685546875
1.5324999000000001,0.34177228808403015,0.3902548849582672,9.702502250671387,-1.89208984375,5.4931640625,1.15966796875
1.5374999000000003,0.4387374520301819,0.3621230125427246,9.773131370544434,2.960205078125,-1.190185546875,2.01416015625
1.5424999000000001,0.3998316824436188,0.43035775423049927,9.882665634155273,3.173828125,-5.615234375,-1.52587890625
1.5474999,0.36750996112823486,0.3621230125427246,9.831789016723633,-0.823974609375,-0.274658203125,-2.9296875
1.5524999000000002,0.40282443165779114,0.39863458275794983,9.764751434326172,-4.7607421875,5.859375,0.640869140625
1.5574999,0.38307225704193115,0.4106055796146393,9.880870819091797,-0.396728515625,2.0751953125,2.288818359375
1.5624999000000002,0.35015198588371277,0.3734954595565796,9.831789016723633,4.8828125,-4.5166015625,0.823974609375
1.5674999,0.43694180250167847,0.3818751573562622,9.824606895446777,1.46484375,-5.645751953125,-1.922607421875
1.5724999000000002,0.3429693877696991,0.27413609623908997,9.85034465789795,-3.60107421875,2.86865234375,-2.5634765625
1.5774999,0.3878606855869293,0.3405751883983612,9.691728591918945,-2.9296875,6.40869140625,2.8076171875
1.5824999000000002,0.4668693244457245,0.3776853084564209,9.843161582946777,2.38037109375,-1.251220703125,1.922607421875
1.5874999,0.46507367491722107,0.38127660751342773,9.728838920593262,-1.007080078125,-0.579833984375,-3.265380859375
1.5924999000000002,0.4836287498474121,0.3974374830722809,9.752182006835938,-5.218505859375,8.209228515625,0.30517578125
1.5974999,0.4124012291431427,0.3711012601852417,9.746196746826172,-0.030517578125,3.90625,4.486083984375
1.6024999000000002,0.3495534360408783,0.37409400939941406,9.851541519165039,3.753662109375,-2.8076171875,2.9296875
1.6074999,0.36152446269989014,0.3878606855869293,9.75637149810791,2.532958984375,-8.4228515625,-4.45556640625
1.6124999000000002,0.3705027103424072,0.42856210470199585,9.821015357971191,-3.60107421875,1.617431640625,-5.0048828125
1.6174999,0.3321954905986786,0.38486793637275696,9.824606895446777,-2.349853515625,8.23974609375,3.753662109375
1.6224999000000002,0.444722980260849,0.4010287821292877,9.7791166305542,3.60107421875,-0.335693359375,5.126953125
1.6274999,0.4225766062736511,0.3770867586135864,9.775525093078613,-3.143310546875,0.79345703125,-4.45556640625
1.6324999000000002,0.4926069974899292,0.33698388934135437,9.839570045471191,-2.99072265625,10.284423828125,2.9296875
1.6374999000000001,0.41718965768814087,0.3387795388698578,9.858723640441895,2.288818359375,0.457763671875,3.35693359375
1.6424999000000002,0.4165911078453064,0.3561375141143799,9.806051254272461,3.662109375,-8.087158203125,-5.2490234375
1.6474999000000001,0.45908817648887634,0.3489548861980438,9.813234329223633,-3.082275390625,-0.6103515625,-5.096435546875
1.6524999000000002,0.39863458275794983,0.41539400815963745,9.851541519165039,-2.960205078125,10.162353515625,4.8828125
1.6574999000000001,0.37169981002807617,0.38127660751342773,9.725247383117676,2.960205078125,2.410888671875,6.16455078125
1.6624999000000003,0.4106055796146393,0.4495113790035248,9.824606895446777,2.50244140625,-10.25390625,-3.997802734375
1.6674999000000001,0.322618693113327,0.37648820877075195,9.791088104248047,-3.448486328125,-1.03759765625,-7.01904296875
1.6724999,0.3621230125427246,0.3944447338581085,9.75397777557373,-1.5869140625,9.94873046875,4.150390625
1.6774999000000002,0.4255693554878235,0.37888240814208984,9.818621635437012,3.0517578125,-0.67138671875,4.486083984375
1.6824999,0.3531447649002075,1.890222191810608,9.638457298278809,0.640869140625,3.204345703125,-13.3056640625
1.6874999000000002,0.16759411990642548,2.852092742919922,9.537302017211914,-2.349853515625,18.06640625,-15.350341796875
1.6924999,0.09217676520347595,3.5745432376861572,9.348160743713379,-6.28662109375,11.29150390625,-12.63427734375
1.6974999000000002,0.12868833541870117,3.445854902267456,9.385271072387695,-10.7421875,-1.708984375,-20.263671875
1.7024999,0.05985504388809204,2.299032211303711,9.788095474243164,-14.95361328125,-3.082275390625,-24.169921875
1.7074999000000002,0.030526071786880493,1.025316834449768,9.693524360656738,-17.63916015625,4.302978515625,-12.26806640625
1.7124999,0.12389993667602539,-0.6224924325942993,10.143633842468262,5.523681640625,-2.13623046875,-9.368896484375
1.7174999000000002,0.053270988166332245,-1.6496049165725708,10.096946716308594,9.857177734375,-7.232666015625,-14.312744140625
1.7224999,0.27413609623908997,-2.1733365058898926,9.924564361572266,-8.36181640625,-7.2021484375,-9.857177734375
1.7274999000000002,0.3992331326007843,-2.0231003761291504,10.120888710021973,9.429931640625,-9.063720703125,-0.9765625
1.7324999,0.4836287498474121,-1.4778209924697876,9.740211486816406,8.087158203125,-7.568359375,-5.67626953125
1.7374999000000002,0.6320692300796509,-0.8134300112724304,9.62947940826416,-4.425048828125,-4.974365234375,-15.045166015625
1.7424999,0.9127894043922424,-0.26994624733924866,9.621099472045898,4.33349609375,0.3662109375,5.889892578125
1.7474999000000002,1.1797429323196411,-0.3016694188117981,9.78989028930664,3.662109375,-2.777099609375,1.312255859375
1.7524999,1.3868412971496582,-0.21009120345115662,9.850942611694336,-2.227783203125,3.692626953125,4.94384765625
1.7574999000000002,1.5682021379470825,-0.09935937076807022,9.781511306762695,3.72314453125,11.3525390625,25.20751953125
1.7624999000000001,1.6412252187728882,0.10654197633266449,9.831789016723633,6.77490234375,-0.152587890625,28.106689453125
1.7674999000000002,1.4101848602294922,0.28790274262428284,9.742605209350586,0.67138671875,-1.373291015625,19.775390625
1.7724999000000001,1.2952631711959839,0.5548562407493591,9.78989028930664,1.15966796875,15.777587890625,28.228759765625
1.7774999000000002,0.983418345451355,0.8349778652191162,9.747393608093262,6.89697265625,17.39501953125,34.97314453125
1.7824999000000001,0.8062474131584167,1.013944387435913,9.679159164428711,3.570556640625,5.645751953125,27.4658203125
1.7874999000000003,0.7697358727455139,1.139639973640442,9.743802070617676,-2.105712890625,8.636474609375,33.14208984375
1.7924999000000001,0.6177040338516235,1.0558429956436157,9.764153480529785,3.204345703125,15.9912109375,50.048828125
1.7974999,0.5536591410636902,0.839766263961792,9.649829864501953,4.69970703125,3.814697265625,47.4853515625
1.8024999000000002,-0.22505496442317963,0.19273324310779572,9.832387924194336,4.39453125,-6.2255859375,25.115966796875
1.8074999,-0.20470423996448517,0.15083470940589905,9.79647445678711,-3.173828125,-9.002685546875,19.195556640625
1.8124999000000002,-0.10474632680416107,0.1909375786781311,9.95090103149414,1.52587890625,4.8828125,28.6865234375
1.8174999,-0.12868833541870117,0.22625206410884857,9.847352027893066,7.8125,0.732421875,17.15087890625
1.8224999000000002,-0.015562310814857483,0.5416881442070007,9.824007987976074,-2.86865234375,-10.009765625,3.23486328125
1.8274999,0.0999579206109047,0.6769605278968811,9.90122127532959,-3.509521484375,0.06103515625,12.237548828125
1.8324999000000002,0.0999579206109047,0.6769605278968811,9.90122127532959,-3.509521484375,0.06103515625,12.237548828125
1.8374999,0.8810662031173706,1.8908207416534424,9.829395294189453,10.3759765625,6.195068359375,12.969970703125
1.8424999000000002,1.5418659448623657,4.459799289703369,9.898228645324707,19.04296875,-9.857177734375,15.594482421875
1.8474999,1.3934253454208374,4.976348400115967,9.948506355285645,10.3759765625,-26.85546875,17.27294921875
1.8524999000000002,1.3186066150665283,5.392340660095215,10.180145263671875,12.115478515625,-36.80419921875,22.216796875
1.8574999,1.1408370733261108,5.817311763763428,10.694300651550293,-2.044677734375,-31.25,7.99560546875
1.8624999000000002,1.1480196714401245,6.375759124755859,11.349114418029785,-47.91259765625,-39.97802734375,7.9345703125
1.8674999,1.4915876388549805,6.630143165588379,12.030863761901855,-70.49560546875,-54.718017578125,19.683837890625
1.8724999000000002,3.0334534645080566,4.638765811920166,10.795455932617188,-128.0517578125,-78.91845703125,45.013427734375
1.8774999,3.0334534645080566,4.638765811920166,10.795455932617188,-128.0517578125,-78.91845703125,45.013427734375
1.8824999000000002,3.3033998012542725,3.134010076522827,10.484209060668945,-118.682861328125,-56.640625,62.896728515625
1.8874999000000001,3.1292216777801514,2.2206220626831055,11.133037567138672,-261.138916015625,-1.678466796875,62.713623046875
1.8924999000000002,2.5959131717681885,1.5879542827606201,12.72877311706543,-505.4931640625,78.61328125,48.736572265625
1.8974999000000001,1.8154034614562988,1.9081788063049316,14.696208953857422,-553.619384765625,143.98193359375,30.853271484375
1.9024999000000002,1.0582371950149536,1.5987281799316406,15.541960716247559,-585.296630859375,185.394287109375,9.33837890625
1.9074999000000001,0.8912416100502014,0.7936778664588928,15.014636993408203,-584.503173828125,253.509521484375,-5.79833984375
1.9124999000000003,1.1139023303985596,-0.7649474143981934,12.81735897064209,-534.088134765625,332.977294921875,-35.736083984375
1.9174999000000001,1.6484078168869019,-2.7030537128448486,9.713275909423828,-499.603271484375,381.011962890625,-50.689697265625
1.9224999,2.4654293060302734,-6.048352241516113,3.7888240814208984,-287.04833984375,347.930908203125,-121.76513671875
1.9274999000000002,-1.9949685335159302,-5.459378242492676,2.3499090671539307,-128.570556640625,146.1181640625,-170.257568359375
1.9324999,-1.9949685335159302,-5.459378242492676,2.3499090671539307,-128.570556640625,146.1181640625,-170.257568359375
1.9374999000000002,-2.58813214302063,-4.545990467071533,2.450465440750122,-117.401123046875,102.081298828125,-174.896240234375
1.9424999,-2.9035680294036865,-3.6517560482025146,2.6174609661102295,-107.666015625,71.563720703125,-165.771484375
1.9474999000000002,-2.9299042224884033,-2.849100112915039,2.715623378753662,-74.981689453125,48.980712890625,-162.933349609375
1.9524999,-2.7323827743530273,-2.2146365642547607,2.7281928062438965,-68.878173828125,31.1279296875,-153.86962890625
1.9574999000000002,-2.4187421798706055,-1.7866730690002441,2.871246337890625,-53.40576171875,16.11328125,-132.75146484375
1.9624999,-1.9626468420028687,-1.6208745241165161,2.80361008644104,-34.332275390625,-3.84521484375,-121.58203125
1.9674999000000002,-1.5981296300888062,-1.7794904708862305,2.722805976867676,-37.65869140625,-19.683837890625,-103.08837890625
1.9724999,-1.169567584991455,-2.252943754196167,2.629431962966919,-22.27783203125,-37.078857421875,-81.11572265625
1.9774999000000002,-1.581370234489441,-5.641936302185059,3.90554141998291,-50.59814453125,-93.32275390625,-46.69189453125
1.9824999,-2.7060465812683105,-8.78432559967041,5.953182697296143,-39.48974609375,-110.137939453125,-28.99169921875
1.9874999000000002,-3.734954595565796,-12.185888290405273,8.054094314575195,-25.848388671875,-123.35205078125,-0.335693359375
1.9924999,-4.128202438354492,-14.546570777893066,9.222464561462402,39.947509765625,-131.40869140625,43.39599609375
1.9974999000000002,-3.732560396194458,-15.638925552368164,8.720281600952148,87.2802734375,-141.326904296875,42.48046875
2.0024999,-0.4734533727169037,-8.154650688171387,2.322375535964966,331.787109375,-139.46533203125,11.29150390625
2.0074999,-1.204882025718689,-6.759429931640625,4.665102005004883,345.184326171875,-151.06201171875,19.10400390625
2.0124999000000003,-1.534683346748352,-5.71436071395874,6.090250492095947,353.1494140625,-150.848388671875,-7.75146484375
2.0174999000000002,-1.6531962156295776,-4.323329925537109,7.612364292144775,370.30029296875,-128.631591796875,-14.46533203125
2.0224999,-1.2994530200958252,-2.7940332889556885,8.944737434387207,408.02001953125,-117.00439453125,-26.824951171875
2.0274999,-0.7080851793289185,-1.382651448249817,9.973047256469727,401.123046875,-121.337890625,-35.58349609375
2.0324999000000004,0.20470423996448517,0.014365210197865963,10.76732349395752,404.23583984375,-132.232666015625,-22.705078125
2.0374999000000003,0.8098387122154236,0.9756371974945068,11.137825965881348,384.521484375,-150.390625,-30.426025390625
2.0424999,1.0935516357421875,1.9405004978179932,11.536460876464844,347.320556640625,-153.9306640625,1.434326171875
2.0474999,1.0492589473724365,2.873640537261963,11.330559730529785,272.918701171875,-128.2958984375,-1.495361328125
2.0524999,1.294066071510315,3.7852327823638916,11.024101257324219,161.1328125,-98.907470703125,-46.875
2.0574999000000003,1.7142484188079834,4.824914932250977,10.290877342224121,210.601806640625,-115.6005859375,-17.822265625
2.0624999,2.542642116546631,5.459977149963379,9.277531623840332,194.091796875,-129.0283203125,10.92529296875
2.0674999,4.2311530113220215,5.6227827072143555,8.55268669128418,174.652099609375,-114.8681640625,34.210205078125
2.0724999,4.665102005004883,5.351040840148926,8.763975143432617,106.292724609375,-46.173095703125,52.093505859375
2.0774999000000003,4.930259704589844,4.993107795715332,8.90762710571289,-4.2724609375,41.9921875,39.154052734375
2.0824999,5.081693172454834,4.811148166656494,9.081207275390625,-5.43212890625,-1.52587890625,36.407470703125
2.0874999,4.90452241897583,4.641758441925049,8.58919906616211,21.697998046875,-11.3525390625,48.52294921875
2.0924999,4.878784656524658,4.151545524597168,8.18996524810791,-23.92578125,38.75732421875,19.04296875
2.0974999000000003,4.491522312164307,3.487154722213745,7.988852500915527,-20.050048828125,48.370361328125,4.730224609375
2.1024999,4.082113742828369,2.6144683361053467,7.946953773498535,-15.045166015625,50.750732421875,-6.378173828125
2.1074999,3.8821980953216553,1.5269020795822144,8.575431823730469,-39.337158203125,71.136474609375,2.593994140625
2.1124999,3.552396774291992,0.5213374495506287,9.355941772460938,-34.85107421875,80.596923828125,3.7841796875
2.1174999000000003,3.26688814163208,-0.4165911078453064,10.421361923217773,-60.028076171875,86.151123046875,13.36669921875
2.1224999,2.9957449436187744,-1.0899603366851807,11.034276962280273,-45.440673828125,86.578369140625,15.5029296875
2.1274999,2.470217704772949,-1.4598644971847534,11.32158088684082,-68.145751953125,76.2939453125,17.4560546875
2.1324999,1.8818424940109253,-1.247977614402771,10.90678596496582,-43.365478515625,81.298828125,27.28271484375
2.1374999000000003,1.1073182821273804,-0.9594763517379761,10.220847129821777,-53.192138671875,73.486328125,15.045166015625
2.1424999000000002,0.4752490520477295,-0.5380968451499939,9.472060203552246,-40.1611328125,68.66455078125,25.45166015625
2.1474999,-0.1759738177061081,-0.35733461380004883,8.989628791809082,-29.1748046875,56.640625,18.00537109375
2.1524999,-0.375291109085083,-0.3208230137825012,8.822632789611816,-32.16552734375,55.2978515625,30.426025390625
2.1574999000000004,-0.5931634902954102,-0.5129576921463013,8.988431930541992,-14.190673828125,43.243408203125,22.27783203125
2.1624999000000003,-0.5542576909065247,-0.9630676507949829,9.556455612182617,-3.021240234375,28.900146484375,20.416259765625
2.1674999,-0.4818331003189087,-1.1540051698684692,9.824007987976074,-24.96337890625,17.578125,16.11328125
2.1724999,-0.5093663930892944,-1.1468225717544556,9.73661994934082,3.509521484375,18.24951171875,17.242431640625
2.1774999000000004,-0.4752490520477295,-1.194706678390503,9.758167266845703,-12.8173828125,8.270263671875,6.16455078125
2.1824999000000003,-0.42018240690231323,-1.0301052331924438,9.53849983215332,7.75146484375,10.589599609375,11.41357421875
2.1874999,0.010175357572734356,-0.8134300112724304,9.537900924682617,10.55908203125,-10.1318359375,5.950927734375
2.1924999,0.09397241473197937,-0.7703344225883484,9.500192642211914,21.54541015625,-17.76123046875,-4.5166015625
2.1974999,0.22924481332302094,-0.6799532771110535,9.588179588317871,14.09912109375,-18.218994140625,5.859375
2.2024999000000003,0.28790274262428284,-0.5542576909065247,9.513360023498535,30.82275390625,-23.681640625,-2.25830078125
2.2074999,0.44592007994651794,-0.5063736438751221,9.528923034667969,17.425537109375,-24.7802734375,5.37109375
2.2124999,0.5380968451499939,-0.444722980260849,9.537302017211914,38.970947265625,-25.93994140625,2.62451171875
2.2174999,0.7703344225883484,-0.497395396232605,9.576208114624023,20.08056640625,-28.1982421875,4.0283203125
2.2224999000000003,0.8409633636474609,-0.4129997789859772,9.55466079711914,43.5791015625,-25.0244140625,3.387451171875
2.2274999,1.061229944229126,-0.46327802538871765,9.672574996948242,23.284912109375,-27.923583984375,1.8310546875
2.2324999,1.2689268589019775,-0.20111294090747833,9.794678688049316,20.56884765625,-25.93994140625,2.685546875
2.2374999,1.2856862545013428,0.08140286058187485,9.813234329223633,41.44287109375,-14.923095703125,10.6201171875
2.2424999000000003,1.4119805097579956,0.24361002445220947,9.900622367858887,19.500732421875,-17.51708984375,1.953125
2.2474999,1.4981716871261597,0.5452794432640076,9.81263542175293,31.951904296875,-9.552001953125,7.720947265625
2.2524999,1.502361536026001,0.6404489278793335,10.026318550109863,12.451171875,-8.72802734375,1.8310546875
2.2574999,1.6340426206588745,0.8601169586181641,9.995792388916016,19.71435546875,0.823974609375,9.918212890625
2.2624999000000003,1.5532383918762207,0.8637082576751709,10.231022834777832,1.800537109375,-1.77001953125,1.52587890625
2.2674999000000002,1.6184803247451782,1.0444705486297607,10.168174743652344,7.659912109375,7.14111328125,12.14599609375
2.2724999,1.4766238927841187,0.9894038438796997,10.270526885986328,-5.157470703125,5.18798828125,3.448486328125
2.2774999,1.4407109022140503,1.0887632369995117,10.178350448608398,-2.593994140625,11.65771484375,13.61083984375
2.2824999000000004,1.3024457693099976,0.9032126069068909,10.271723747253418,-12.725830078125,8.056640625,4.82177734375
2.2874999000000003,1.2527660131454468,0.8774749040603638,10.171167373657227,-11.260986328125,13.97705078125,15.777587890625
2.2924999,1.116895079612732,0.4668693244457245,10.077195167541504,-15.68603515625,13.00048828125,16.7236328125
2.2974999,0.982221245765686,0.18375498056411743,10.102932929992676,-20.8740234375,7.293701171875,7.415771484375
2.3024999000000004,1.0223240852355957,0.03711012750864029,9.849745750427246,-16.998291015625,12.02392578125,16.9677734375
2.3074999000000003,0.8918401598930359,-0.2059013396501541,9.877279281616211,-19.134521484375,5.706787109375,7.049560546875
2.3124999,0.9750386476516724,-0.25677812099456787,9.616909980773926,-13.61083984375,12.176513671875,17.120361328125
2.3174999,0.8403648138046265,-0.3866635859012604,9.649829864501953,-14.16015625,6.9580078125,6.8359375
2.3224999,0.657806932926178,0.6242880821228027,10.088567733764648,-24.078369140625,19.287109375,-0.640869140625
2.3274999000000003,0.41958385705947876,0.8092401623725891,10.229227066040039,-42.266845703125,15.228271484375,-6.9580078125
2.3324999,0.383670836687088,1.0438719987869263,10.347740173339844,-37.9638671875,18.6767578125,-1.129150390625
2.3374999,0.4141969084739685,0.7745242714881897,10.650007247924805,-58.746337890625,11.90185546875,-6.34765625
2.3424999,0.5596446394920349,0.6051344871520996,10.620678901672363,-49.37744140625,14.70947265625,2.227783203125
2.3474999000000003,0.7212532758712769,0.18136078119277954,10.539276123046875,-63.04931640625,9.3994140625,1.007080078125
2.3524999,0.702099621295929,0.13287819921970367,10.083779335021973,-41.656494140625,13.702392578125,4.0283203125
2.3574999,0.6799532771110535,0.0736217051744461,9.684545516967773,-54.779052734375,14.251708984375,-7.781982421875
2.3624999,0.4291606545448303,0.34416648745536804,9.297284126281738,-39.12353515625,21.78955078125,-16.6015625
2.3674999000000003,0.1346738487482071,0.1801636815071106,9.293692588806152,-40.95458984375,21.17919921875,-34.36279296875
2.3724999,0.2885012924671173,-0.38965633511543274,9.553462982177734,-57.952880859375,23.345947265625,-32.318115234375
2.3774999,0.12090718746185303,-1.0235211849212646,9.816825866699219,-46.08154296875,21.270751953125,-33.843994140625
2.3824999,0.3561375141143799,-1.7387889623641968,9.989208221435547,-51.055908203125,16.78466796875,-29.1748046875
2.3874999000000003,0.21966800093650818,-2.1134815216064453,9.784503936767578,-33.5693359375,11.23046875,-31.494140625
2.3924999000000002,0.40940847992897034,-2.2176294326782227,9.490615844726562,-34.088134765625,10.6201171875,-23.468017578125
2.3974999,0.31543606519699097,-2.141613483428955,9.1260986328125,-19.012451171875,10.040283203125,-28.564453125
2.4024999,0.5207388401031494,-1.5245078802108765,8.87291145324707,-10.162353515625,12.5732421875,-31.829833984375
2.4074999000000004,0.6991068720817566,-1.083974838256836,8.949525833129883,-6.744384765625,12.969970703125,-25.87890625
2.4124999000000003,0.6991068720817566,-1.083974838256836,8.949525833129883,-6.744384765625,12.969970703125,-25.87890625
2.4174999,0.7242460250854492,-1.0456676483154297,9.240421295166016,-10.223388671875,11.505126953125,-31.219482421875
2.4224999,0.8744821548461914,-1.0019733905792236,9.6803560256958,-12.8173828125,7.6904296875,-18.85986328125
2.4274999000000004,0.9289502501487732,-0.8942343592643738,9.7605619430542,-2.197265625,3.753662109375,-8.392333984375
2.4324999000000003,1.080383539199829,-1.0552444458007812,9.740211486816406,-13.031005859375,2.593994140625,-3.23486328125
2.4374999,1.0235211849212646,-0.9672574996948242,9.662399291992188,7.9345703125,-1.64794921875,1.007080078125
2.4424999,1.1540051698684692,-0.9570821523666382,9.475651741027832,-2.3193359375,1.220703125,3.662109375
2.4474999,0.9564836025238037,-0.8439561128616333,9.43135929107666,10.55908203125,1.739501953125,3.326416015625
2.4524999000000003,1.1354501247406006,-0.7320271730422974,9.510966300964355,0.701904296875,3.814697265625,9.521484375
2.4574999,1.0181342363357544,-0.6135141849517822,9.633668899536133,8.6669921875,2.593994140625,7.659912109375
2.4624999,1.316810965538025,-0.21128830313682556,9.694122314453125,3.2958984375,-1.556396484375,21.91162109375
2.4674999,1.1516109704971313,0.1604115068912506,9.748590469360352,13.00048828125,-7.87353515625,25.08544921875
2.4724999000000003,1.061229944229126,0.7469909191131592,9.643844604492188,14.862060546875,-8.209228515625,28.9306640625
2.4774999,0.4638765752315521,0.9624691009521484,9.953893661499023,1.495361328125,-9.27734375,10.284423828125
2.4824999,-1.4299370050430298,-1.1348515748977661,12.537836074829102,-89.53857421875,-7.080078125,-32.53173828125
2.4874999,-1.2653355598449707,-1.3545196056365967,13.079524040222168,-123.96240234375,-6.2255859375,-35.552978515625
2.4924999000000003,-1.3694833517074585,-1.4646528959274292,12.97657299041748,-140.7470703125,-13.763427734375,-46.630859375
2.4974999,-0.9660604000091553,-1.7405846118927002,12.838906288146973,-159.454345703125,-17.852783203125,-43.27392578125
2.5024999,-0.8415619134902954,-2.1577742099761963,12.495338439941406,-174.1943359375,-22.369384765625,-47.36328125
2.5074999,-0.43275195360183716,-2.6402058601379395,11.942277908325195,-181.121826171875,-27.16064453125,-39.4287109375
2.5124999000000003,-0.30286651849746704,-3.2812533378601074,11.642404556274414,-189.544677734375,-34.576416015625,-41.290283203125
2.5174999000000002,-0.17657238245010376,-3.62302565574646,11.094132423400879,-173.52294921875,-45.013427734375,-33.447265625
2.5224999,-0.1430535465478897,-4.064157485961914,10.992378234863281,-165.191650390625,-61.82861328125,-23.3154296875
2.5274999,-0.5710170865058899,-4.050989151000977,12.655750274658203,-17.4560546875,-86.029052734375,37.29248046875
2.5324999000000004,-0.5710170865058899,-4.050989151000977,12.655750274658203,-17.4560546875,-86.029052734375,37.29248046875
2.5374999000000003,-0.5500678420066833,-4.062361717224121,13.761871337890625,27.740478515625,-87.21923828125,42.327880859375
2.5424999,-0.19632454216480255,-3.8726212978363037,14.623185157775879,76.72119140625,-86.9140625,50.445556640625
2.5474999,0.26994624733924866,-3.8079779148101807,15.601815223693848,111.02294921875,-82.183837890625,50.079345703125
2.5524999000000004,0.7960720658302307,-3.576937437057495,15.953763008117676,152.77099609375,-73.638916015625,51.26953125
2.5574999000000003,1.6095020771026611,-3.119046211242676,16.363170623779297,176.1474609375,-68.78662109375,51.971435546875
2.5624999,2.1422119140625,-2.7120320796966553,16.045940399169922,211.517333984375,-66.162109375,49.31640625
2.5674999,3.0819361209869385,-1.799242615699768,15.838841438293457,231.75048828125,-66.925048828125,53.955078125
2.5724999,3.667917013168335,-1.3186066150665283,15.199589729309082,253.84521484375,-54.8095703125,47.882080078125
2.5774999000000003,4.496310710906982,-0.44173020124435425,14.369400024414062,273.040771484375,-32.318115234375,52.3681640625
2.5824999,5.889736175537109,0.6332663297653198,10.682329177856445,301.7578125,28.961181640625,28.289794921875
2.5874999,5.832275390625,0.8176198601722717,8.935759544372559,309.234619140625,38.787841796875,16.082763671875
2.5924999,5.813720226287842,0.9576807022094727,7.436390399932861,301.361083984375,48.004150390625,10.772705078125
2.5974999000000003,5.4025163650512695,1.0295066833496094,5.725733280181885,299.31640625,57.037353515625,-3.5400390625
2.6024999,5.161300182342529,1.1318588256835938,4.21080207824707,290.679931640625,63.78173828125,-7.965087890625
2.6074999,4.654926776885986,1.2084733247756958,2.8826189041137695,275.146484375,69.76318359375,-21.392822265625
2.6124999,4.3173441886901855,1.3449428081512451,1.5861586332321167,263.580322265625,77.2705078125,-25.909423828125
2.6174999000000003,3.9468414783477783,1.5400702953338623,0.8020575642585754,238.128662109375,84.65576171875,-34.271240234375
2.6224999,3.600879430770874,1.6603789329528809,-0.08918401598930359,225.40283203125,94.90966796875,-39.215087890625
2.6274999,3.4380736351013184,1.8405425548553467,-0.5710170865058899,200.103759765625,103.118896484375,-38.238525390625
2.6324999,3.0322563648223877,1.6849194765090942,-1.114500880241394,178.619384765625,109.466552734375,-44.830322265625
2.6374999000000003,2.319981336593628,1.193509578704834,-1.6412252187728882,114.8681640625,107.84912109375,-55.84716796875
2.6424999000000002,-0.3082534670829773,0.823006808757782,-2.1254525184631348,-70.98388671875,63.1103515625,-97.625732421875
2.6474999,-0.0867898091673851,0.4183867573738098,-2.1320366859436035,-89.78271484375,58.28857421875,-88.2568359375
2.6524999,0.12509703636169434,0.20709845423698425,-1.941697597503662,-94.90966796875,57.586669921875,-69.549560546875
2.6574999000000004,0.18375498056411743,-0.11312603205442429,-1.8166005611419678,-107.7880859375,76.446533203125,-56.549072265625
2.6624999000000003,0.07900865375995636,-0.21128830313682556,-1.4257471561431885,-112.396240234375,99.9755859375,-52.947998046875
2.6674999,-0.6823474764823914,-0.32022446393966675,-0.07062894850969315,-151.9775390625,108.245849609375,-32.928466796875
2.6724999,-0.8086416125297546,-0.06404489278793335,0.861314058303833,-193.05419921875,87.0361328125,-14.923095703125
2.6774999000000004,-0.9612720012664795,0.010175357572734356,1.8489222526550293,-249.1455078125,45.440673828125,3.631591796875
2.6824999000000003,-0.5907692909240723,0.13347674906253815,2.914940595626831,-306.854248046875,-31.005859375,38.848876953125
2.6874999,-0.30945056676864624,0.2902969419956207,3.5673606395721436,-365.631103515625,-92.4072265625,80.26123046875
2.6924999,0.23044191300868988,0.12449848651885986,4.0294413566589355,-394.500732421875,-132.62939453125,123.9013671875
2.6974999,0.5063736438751221,0.15682020783424377,3.9695863723754883,-419.952392578125,-159.3017578125,165.58837890625
2.7024999000000003,-0.37229835987091064,-1.2066776752471924,4.963180065155029,-419.37255859375,-182.9833984375,187.8662109375
2.7074999,-1.8010382652282715,-3.62302565574646,7.01979923248291,87.70751953125,-354.30908203125,231.689453125
2.7124999,-2.914341926574707,-5.7790045738220215,8.676587104797363,98.114013671875,-97.7783203125,210.02197265625
2.7174999,-3.6577415466308594,-7.538742542266846,8.383895874023438,-277.313232421875,-58.563232421875,45.654296875
2.7224999000000003,-2.607285737991333,-7.2568254470825195,6.311115741729736,-107.330322265625,-250.885009765625,30.975341796875
2.7274999,1.61069917678833,-2.979583978652954,-3.9618053436279297,-29.327392578125,-304.901123046875,96.527099609375
2.7324999,1.4311341047286987,-1.8351556062698364,-4.220977783203125,59.02099609375,-183.65478515625,40.22216796875
2.7374999,0.829590916633606,-1.1222820281982422,-3.490746021270752,138.427734375,-53.863525390625,-4.486083984375
2.7424999000000003,0.09576806426048279,-0.8595184087753296,-2.338536500930786,178.009033203125,27.40478515625,-31.646728515625
2.7474999,-0.21787235140800476,-0.43993455171585083,-0.6560112833976746,175.23193359375,54.168701171875,-45.47119140625
2.7524999,-0.07841010391712189,-0.284311443567276,1.6531962156295776,136.90185546875,60.150146484375,-60.9130859375
2.7574999,1.2066776752471924,0.43694180250167847,5.298966884613037,47.576904296875,64.422607421875,-52.734375
2.7624999000000003,3.3650505542755127,1.6741455793380737,9.57321548461914,-112.24365234375,104.06494140625,-26.947021484375
2.7674999000000002,5.909488201141357,2.5097219944000244,13.835493087768555,-78.826904296875,157.440185546875,-31.43310546875
2.7724999,7.781155586242676,3.3656489849090576,16.35718536376953,23.162841796875,122.528076171875,-28.717041015625
2.7774999,7.8547773361206055,3.044826030731201,16.240468978881836,-6.072998046875,53.497314453125,-6.77490234375
2.7824999000000004,3.488950490951538,1.8154034614562988,10.781688690185547,-45.2880859375,66.619873046875,-21.54541015625
2.7874999000000003,0.8325836658477783,1.0301052331924438,7.905653953552246,-23.712158203125,93.8720703125,-28.1982421875
2.7924999,-0.9307458996772766,0,6.350619792938232,-9.82666015625,109.100341796875,-11.199951171875
2.7974999,-1.677138328552246,-1.3844470977783203,6.317101001739502,0.823974609375,104.67529296875,4.39453125
2.8024999000000004,-1.3718775510787964,-2.2170307636260986,7.711723804473877,7.293701171875,86.85302734375,15.5029296875
2.8074999000000003,-0.9816226959228516,-2.7275943756103516,9.378087997436523,5.06591796875,67.9931640625,10.345458984375
2.8124999,-0.6314706802368164,-2.758718967437744,10.74457836151123,11.688232421875,51.26953125,1.03759765625
2.8174999,-0.6883329749107361,-2.249951124191284,11.304821968078613,10.25390625,38.6962890625,1.068115234375
2.8224999,-1.22642982006073,-1.6651673316955566,11.028291702270508,15.2587890625,26.9775390625,-1.251220703125
2.8274999000000003,-1.5430630445480347,-0.8008604645729065,10.682928085327148,16.845703125,11.8408203125,-1.8310546875
2.8324999,-1.8782511949539185,-0.020949264988303185,10.311826705932617,4.94384765625,-1.40380859375,-6.134033203125
2.8374999,-1.7118542194366455,0.4423287510871887,10.209474563598633,3.204345703125,-12.6953125,-5.7373046875
2.8424999,-0.7116764783859253,0.6787561774253845,10.20648193359375,-4.974365234375,-24.322509765625,-2.50244140625
2.8474999000000003,-0.01735796220600605,0.3387795388698578,10.181343078613281,-3.5400390625,-25.0244140625,1.220703125
2.8524999,0.38726213574409485,0.06464344263076782,9.879075050354004,-8.758544921875,-25.93994140625,0.244140625
2.8574999,0.7523778676986694,-0.4471171796321869,9.694721221923828,1.190185546875,-25.421142578125,-0.06103515625
2.8624999,1.0396820306777954,-0.6943184733390808,9.607931137084961,-1.312255859375,-23.4375,0.9765625
2.8674999000000003,1.0360907316207886,-1.0636241436004639,9.52114200592041,-0.152587890625,-22.76611328125,-1.64794921875
2.8724999,1.1869255304336548,-1.0324994325637817,9.648633003234863,6.500244140625,-20.08056640625,1.0986328125
2.8774999,1.0420763492584229,-0.961870551109314,9.633070945739746,-0.335693359375,-19.34814453125,0.3662109375
2.8824999,1.048660397529602,-0.13407529890537262,9.8599214553833,3.082275390625,-8.9111328125,0.54931640625
2.8874999000000003,1.1677719354629517,-0.28790274262428284,9.667187690734863,2.166748046875,-1.373291015625,-0.335693359375
2.8924999000000002,1.3664906024932861,-0.31783026456832886,9.64683723449707,-0.79345703125,3.2958984375,2.13623046875
2.8974999,1.3150153160095215,-0.424970805644989,9.519944190979004,-2.471923828125,6.89697265625,-1.190185546875
2.9024999,1.4472949504852295,-0.4991910457611084,9.500192642211914,3.326416015625,12.26806640625,-0.6103515625
2.9074999000000004,1.390432596206665,-0.5386953949928284,9.636661529541016,-3.997802734375,16.17431640625,-0.6103515625
2.9124999000000003,1.3066356182098389,-0.5476736426353455,9.59715747833252,2.777099609375,18.890380859375,-2.349853515625
2.9174999,1.2731167078018188,-0.4620809257030487,9.733627319335938,1.3427734375,21.42333984375,0.823974609375
2.9224999,1.0558429956436157,-0.3148375153541565,9.739013671875,-3.35693359375,20.99609375,-0.823974609375
2.9274999000000004,0.8481459617614746,-0.33758243918418884,9.802460670471191,3.631591796875,20.751953125,0.274658203125
2.9324999000000003,0.6338648796081543,-0.26156654953956604,9.954492568969727,-2.8076171875,17.39501953125,1.28173828125
2.9374999,0.2717418968677521,-0.43275195360183716,9.93474006652832,0.6103515625,13.0615234375,-1.52587890625
2.9424999,0.11851298063993454,-0.44173020124435425,10.06043529510498,2.197265625,9.6435546875,0.885009765625
2.9474999,-0.166995570063591,-0.4836287498474121,9.925761222839355,3.2958984375,-0.8544921875,-0.518798828125
2.9524999000000003,-0.09516951441764832,-0.33518823981285095,9.90361499786377,-0.79345703125,-4.57763671875,1.0986328125
2.9574999,-0.08439560979604721,-0.4866214990615845,9.879075050354004,-0.732421875,-8.392333984375,-1.922607421875
2.9624999,0.19812019169330597,-0.4255693554878235,9.8970308303833,2.9296875,-8.331298828125,0.244140625
2.9674999,0.3585317134857178,-0.48961424827575684,9.953893661499023,-4.241943359375,-9.46044921875,0.213623046875
2.9724999000000003,0.5620388388633728,-0.5339069962501526,9.788095474243164,1.861572265625,-9.46044921875,-1.007080078125
2.9774999,0.8343793153762817,-0.44592007994651794,9.803657531738281,0.946044921875,-7.781982421875,1.251220703125
2.9824999,0.899621307849884,-0.43514615297317505,9.675567626953125,-2.288818359375,-7.598876953125,-1.28173828125
2.9874999,0.9840168952941895,-0.45250412821769714,9.633070945739746,4.180908203125,-4.82177734375,-0.030517578125
2.9924999000000003,1.0564415454864502,-0.39624038338661194,9.727641105651855,-2.5634765625,-3.662109375,1.129150390625
2.9974999,0.9331400990486145,-0.5351040959358215,9.673172950744629,-0.152587890625,-2.410888671875,-1.251220703125
3.0024999,1.0001777410507202,-0.4644751250743866,9.790489196777344,3.204345703125,-0.152587890625,0.732421875
3.0074999,0.8391677141189575,-0.39145198464393616,9.716269493103027,2.13623046875,1.922607421875,-1.0986328125
3.0124999000000003,0.8972271084785461,-0.2801215946674347,9.762955665588379,-0.42724609375,3.448486328125,1.0986328125
3.0174999000000002,0.7362170219421387,-0.3734954595565796,9.712677955627441,-2.197265625,3.509521484375,-1.190185546875
3.0224999,0.7948749661445618,-0.4082113802433014,9.707290649414062,3.7841796875,5.340576171875,-0.335693359375
3.0274999,0.7547720670700073,-0.46507367491722107,9.852738380432129,-3.11279296875,5.92041015625,0.152587890625
3.0324999000000004,0.6943184733390808,-0.5602431893348694,9.777320861816406,0.42724609375,5.889892578125,-1.434326171875
3.0374999000000003,0.7553706169128418,-0.4728548228740692,9.84256362915039,2.655029296875,6.378173828125,0.9765625
3.0424999,0.6075286865234375,-0.38127660751342773,9.694122314453125,2.99072265625,4.150390625,-1.03759765625
3.0474999,0.6159083843231201,-0.29867666959762573,9.737217903137207,-1.068115234375,3.875732421875,1.190185546875
3.0524999000000004,0.4159925580024719,-0.4106055796146393,9.765948295593262,-2.38037109375,1.5869140625,-0.946044921875
3.0574999000000003,0.35075053572654724,-0.5416881442070007,9.894637107849121,0.3662109375,-3.082275390625,-1.129150390625
3.0624999,0.46986207365989685,-0.44173020124435425,9.928754806518555,2.8076171875,-3.173828125,1.03759765625
3.0674999,0.48722004890441895,-0.4225766062736511,9.846753120422363,-3.41796875,-5.18798828125,-0.701904296875
3.0724999000000004,0.5506663918495178,-0.35494041442871094,9.734225273132324,2.777099609375,-4.608154296875,-1.03759765625
3.0774999000000003,0.7122750282287598,-0.2908954918384552,9.748590469360352,-0.885009765625,-2.86865234375,1.251220703125
3.0824999,0.6757634282112122,-0.40701428055763245,9.717466354370117,-2.62451171875,-3.082275390625,-0.946044921875
3.0874999,0.8092401623725891,-0.41958385705947876,9.736021041870117,4.364013671875,-1.190185546875,-0.1220703125
3.0924999,0.849941611289978,-0.5171475410461426,9.8599214553833,-2.532958984375,-0.18310546875,0
3.0974999000000003,0.8134300112724304,-0.5446808934211731,9.799467086791992,-0.1220703125,0.79345703125,-1.495361328125
3.1024999,0.9145850539207458,-0.4854243993759155,9.864110946655273,2.593994140625,2.62451171875,1.03759765625
3.1074999,0.8457517623901367,-0.43335050344467163,9.849745750427246,-3.692626953125,2.25830078125,-0.274658203125
3.1124999,0.7841010689735413,-0.3274070918560028,9.77133560180664,0,3.72314453125,1.03759765625
3.1174999000000003,0.6542156338691711,-0.2902969419956207,9.676166534423828,-3.11279296875,2.593994140625,-0.946044921875
3.1224999,0.6368576288223267,-0.38726213574409485,9.808445930480957,-2.197265625,1.983642578125,0.8544921875
3.1274999,0.46507367491722107,-0.5668272376060486,9.775525093078613,0.335693359375,0.701904296875,-1.617431640625
3.1324999,0.5656301379203796,-0.5620388388633728,9.815628051757812,2.9296875,1.03759765625,0.335693359375
3.1374999000000003,0.5279214978218079,-0.5518634915351868,9.877279281616211,-3.631591796875,-0.091552734375,0.152587890625
3.1424999000000002,0.5345055460929871,-0.5614402890205383,9.765350341796875,1.434326171875,-0.701904296875,-1.007080078125
3.1474999,0.6500257849693298,-0.456095427274704,9.830592155456543,1.708984375,-0.48828125,1.190185546875
3.1524999,0.5997475385665894,-0.3992331326007843,9.712677955627441,-2.685546875,-1.251220703125,-0.9765625
3.1574999000000004,0.6177040338516235,-0.3902548849582672,9.682151794433594,2.532958984375,-0.396728515625,-0.762939453125
3.1624999000000003,0.6973112225532532,-0.3016694188117981,9.691129684448242,-0.732421875,-0.42724609375,1.220703125
3.1674999,0.596754789352417,-0.497395396232605,9.882665634155273,-0.640869140625,-0.91552734375,-1.434326171875
3.1724999,0.7194576263427734,-0.46507367491722107,9.91738224029541,2.9296875,0.274658203125,0.518798828125
3.1774999000000004,0.6715735793113708,-0.4207809567451477,9.905410766601562,-3.60107421875,-0.579833984375,0.091552734375
3.1824999000000003,0.657806932926178,-0.38905778527259827,9.746196746826172,2.685546875,0.213623046875,-1.3427734375
3.1874999,0.7445967197418213,-0.38486793637275696,9.791088104248047,0.823974609375,1.068115234375,0.67138671875
3.1924999,0.6697779297828674,-0.34416648745536804,9.64803409576416,-4.0283203125,0.79345703125,-0.54931640625
3.1974999000000004,0.6841431260108948,-0.3627215623855591,9.653421401977539,4.119873046875,1.129150390625,-0.8544921875
3.2024999000000003,0.6560112833976746,-0.3842693865299225,9.730634689331055,-2.62451171875,1.03759765625,-1.15966796875
3.2074999,0.6865373253822327,-0.47824180126190186,9.941324234008789,-2.38037109375,1.03759765625,0.6103515625
3.2124999,0.5321113467216492,-0.4967968463897705,9.895833969116211,-0.06103515625,0.030517578125,-1.861572265625
3.2174999,0.6171054840087891,-0.5207388401031494,9.893440246582031,2.716064453125,0.579833984375,0.42724609375
3.2224999000000003,0.5668272376060486,-0.4291606545448303,9.900622367858887,-3.47900390625,-0.79345703125,0.579833984375
3.2274999,0.5398924946784973,-0.4531026780605316,9.770736694335938,2.3193359375,-0.946044921875,-1.220703125
3.2324999,0.641047477722168,-0.40940847992897034,9.816825866699219,1.64794921875,-0.885009765625,0.579833984375
3.2374999,0.6141127347946167,-0.3513490855693817,9.844358444213867,-3.631591796875,-1.0986328125,-0.701904296875
3.2424999000000003,0.6224924325942993,-0.41359832882881165,9.707889556884766,2.166748046875,-0.946044921875,-0.640869140625
3.2474999,0.7110779285430908,-0.33279404044151306,9.817423820495605,0.335693359375,-0.030517578125,1.15966796875
3.2524999,0.6596025824546814,-0.39803603291511536,9.619902610778809,-2.01416015625,-0.6103515625,-1.28173828125
3.2574999,0.70090252161026,-0.424970805644989,9.687539100646973,2.99072265625,0.54931640625,-0.579833984375
3.2624999000000003,0.7553706169128418,-0.3902548849582672,9.696516990661621,-1.312255859375,0.54931640625,0.946044921875
3.2674999000000002,0.6811503767967224,-0.5135562419891357,9.819818496704102,4.058837890625,0.396728515625,0.06103515625
3.2724999,0.6631938815116882,-0.5943605899810791,9.923367500305176,-2.50244140625,0.54931640625,0.06103515625
3.2774999,0.569819986820221,-0.4578910768032074,9.862914085388184,-0.48828125,0.579833984375,-1.495361328125
3.2824999000000004,0.6105214357376099,-0.3728969097137451,9.75517463684082,2.44140625,-0.274658203125,-1.434326171875
3.2874999000000003,0.6853402256965637,-0.38307225704193115,9.80904483795166,1.89208984375,-0.091552734375,0.335693359375
3.2924999,0.6392518281936646,-0.31783026456832886,9.843161582946777,-3.47900390625,0.152587890625,-0.42724609375
3.2974999,0.6189011335372925,-0.4034229815006256,9.72285270690918,2.044677734375,0.244140625,-0.48828125
3.3024999000000004,0.6799532771110535,-0.3196259140968323,9.835380554199219,0.8544921875,-0.06103515625,1.068115234375
3.3074999000000003,0.5997475385665894,-0.39384618401527405,9.63187313079834,-2.227783203125,0.091552734375,-1.220703125
3.3124999,0.6242880821228027,-0.4207809567451477,9.676166534423828,2.99072265625,0.701904296875,-0.701904296875
3.3174999,0.6404489278793335,-0.5249287486076355,9.773131370544434,-2.197265625,-0.457763671875,-0.885009765625
3.3224999000000004,0.67815762758255,-0.5159504413604736,9.786897659301758,4.058837890625,0.030517578125,-0.213623046875
3.3274999000000003,0.7104793787002563,-0.5363011956214905,9.93354320526123,-1.556396484375,-0.3662109375,0.335693359375
3.3324999,0.5734112858772278,-0.4836287498474121,9.845556259155273,-0.823974609375,-0.30517578125,-1.52587890625
3.3374999,0.6685808300971985,-0.49799394607543945,9.86111831665039,2.99072265625,-0.091552734375,0.67138671875
3.3424999,0.6524199843406677,-0.4231751561164856,9.849146842956543,-3.0517578125,0.18310546875,0.9765625
3.3474999000000003,0.5991489887237549,-0.49380409717559814,9.750985145568848,1.068115234375,0,-1.861572265625
3.3524999,0.7182605266571045,-0.45848962664604187,9.723451614379883,2.227783203125,-0.030517578125,0.152587890625
3.3574999,0.6931213736534119,-0.4339490532875061,9.766547203063965,-3.60107421875,0.18310546875,0.213623046875
3.3624999,0.6709750294685364,-0.49799394607543945,9.671976089477539,1.251220703125,0.06103515625,-0.762939453125
3.3674999000000003,0.7589619159698486,-0.4183867573738098,9.758167266845703,2.166748046875,0.274658203125,0.79345703125
3.3724999,0.7026981711387634,-0.4159925580024719,9.79527759552002,-2.349853515625,0.152587890625,-0.79345703125
3.3774999,0.5901707410812378,-0.37169981002807617,9.704896926879883,-2.0751953125,0.152587890625,-0.885009765625
3.3824999,0.5919663906097412,-0.41120412945747375,9.689932823181152,1.617431640625,1.007080078125,-0.67138671875
3.3874999000000003,0.6500257849693298,-0.3860650360584259,9.752182006835938,-0.152587890625,0.30517578125,0.9765625
3.3924999000000002,0.606930136680603,-0.3794809579849243,9.752182006835938,-1.556396484375,-0.18310546875,-1.0986328125
3.3974999,0.6584054827690125,-0.4776432514190674,9.817423820495605,2.197265625,-0.091552734375,-0.396728515625
3.4024999,0.7218518257141113,-0.3800795078277588,9.853935241699219,-0.885009765625,0.152587890625,0.6103515625
3.4074999000000004,0.6416460275650024,-0.4950011968612671,9.851541519165039,-0.3662109375,-0.244140625,-1.434326171875
3.4124999000000003,0.6649895310401917,-0.5015852451324463,9.794678688049316,2.25830078125,0.518798828125,0.18310546875
3.4174999,0.6817489266395569,-0.47584760189056396,9.88625717163086,-1.953125,-0.152587890625,0.6103515625
3.4224999,0.5392939448356628,-0.5111620426177979,9.81263542175293,0.030517578125,-0.457763671875,-1.46484375
3.4274999000000004,0.6344634294509888,-0.4884171485900879,9.831789016723633,1.922607421875,0.42724609375,0.30517578125
3.4324999000000003,0.5746083855628967,-0.444722980260849,9.776124000549316,0.9765625,0.18310546875,-1.5869140625
3.4374999,0.6961141228675842,-0.45190557837486267,9.742006301879883,2.13623046875,0.579833984375,0.396728515625
3.4424999,0.6572083830833435,-0.395043283700943,9.7791166305542,-3.23486328125,0.152587890625,0.18310546875
3.4474999000000004,0.6087257862091064,-0.43095630407333374,9.721057891845703,2.01416015625,0.152587890625,-1.40380859375
3.4524999000000003,0.6991068720817566,-0.41539400815963745,9.784503936767578,1.800537109375,0.396728515625,0.732421875
3.4574999,0.6673837304115295,-0.4058171808719635,9.85034465789795,-3.875732421875,0.335693359375,0
3.4624999,0.6308721303939819,-0.4076128304004669,9.783905029296875,2.532958984375,0.152587890625,-1.434326171875
3.4674999,0.7104793787002563,-0.42856210470199585,9.84615421295166,0.67138671875,0.885009765625,1.007080078125
3.4724999000000003,0.6554127335548401,-0.42856210470199585,9.835380554199219,-3.631591796875,-0.030517578125,-0.457763671875
3.4774999,0.6123170852661133,-0.4321534037590027,9.738415718078613,3.60107421875,0.3662109375,-1.220703125
3.4824999,0.6799532771110535,-0.4465186297893524,9.82759952545166,0.244140625,1.007080078125,0.9765625
3.4874999,0.6051344871520996,-0.414795458316803,9.783307075500488,-3.448486328125,-0.18310546875,-0.579833984375
3.4924999000000003,0.6811503767967224,-0.4016273319721222,9.816226959228516,-0.457763671875,0.762939453125,1.068115234375
3.4974999,0.6153098344802856,-0.4297592043876648,9.64683723449707,-3.570556640625,0.274658203125,-0.701904296875
3.5024999,0.6392518281936646,-0.41718965768814087,9.700108528137207,4.058837890625,0.030517578125,-0.732421875
3.5074999,0.6763619780540466,-0.436343252658844,9.726444244384766,-0.3662109375,-0.3662109375,0.885009765625
3.5124999000000003,0.6009446382522583,-0.4495113790035248,9.733627319335938,-2.99072265625,-0.579833984375,-0.946044921875
3.5174999000000002,0.6314706802368164,-0.44173020124435425,9.829395294189453,4.180908203125,-0.213623046875,-0.6103515625
3.5224999,0.6715735793113708,-0.45908817648887634,9.803657531738281,4.39453125,0.152587890625,-0.396728515625
3.5274999,0.7146692276000977,-0.4387374520301819,9.84615421295166,-1.373291015625,0.030517578125,0.518798828125
3.5324999000000004,0.6039373874664307,-0.547075092792511,9.761758804321289,-2.38037109375,0,-1.03759765625
3.5374999000000003,0.6458359360694885,-0.45250412821769714,9.746794700622559,4.119873046875,0.396728515625,0
3.5424999,0.5297171473503113,-0.5398924946784973,9.77013874053955,-1.89208984375,0.1220703125,-1.068115234375
3.5474999,0.6290764808654785,-0.40043023228645325,9.829395294189453,4.08935546875,0.762939453125,-0.091552734375
3.5524999000000004,0.6368576288223267,-0.4423287510871887,9.86351203918457,-2.01416015625,0.091552734375,0.396728515625
3.5574999000000003,0.558447539806366,-0.4638765752315521,9.806650161743164,-1.556396484375,0.030517578125,-0.885009765625
3.5624999,0.689530074596405,-0.36810851097106934,9.813234329223633,3.47900390625,0.701904296875,0.152587890625
3.5674999,0.6853402256965637,-0.3902548849582672,9.827000617980957,-2.349853515625,-0.54931640625,-0.06103515625
3.5724999000000004,0.6260837316513062,-0.4321534037590027,9.738415718078613,-0.79345703125,-0.213623046875,-1.068115234375
3.5774999000000003,0.7200561761856079,-0.37648820877075195,9.727043151855469,3.5400390625,0,0.42724609375
3.5824999,0.6805518269538879,-0.39803603291511536,9.767146110534668,-2.593994140625,0.274658203125,0.06103515625
3.5874999,0.6015431880950928,-0.43993455171585083,9.691129684448242,-0.67138671875,0.274658203125,-1.03759765625
3.5924999,0.6709750294685364,-0.375291109085083,9.73781681060791,3.11279296875,0.335693359375,0.335693359375
3.5974999000000003,0.6338648796081543,-0.3998316824436188,9.815030097961426,-2.655029296875,0.3662109375,-0.091552734375
3.6024999,0.6596025824546814,-0.4129997789859772,9.888052940368652,-2.593994140625,0,-0.213623046875
3.6074999,0.6302735805511475,-0.46088382601737976,9.812037467956543,-0.06103515625,0.18310546875,-0.823974609375
3.6124999,0.7152677774429321,-0.3860650360584259,9.861717224121094,2.62451171875,-0.18310546875,0.6103515625
3.6174999000000003,0.6883329749107361,-0.436343252658844,9.84256362915039,-1.953125,-0.396728515625,-0.6103515625
3.6224999,0.646434485912323,-0.456095427274704,9.749788284301758,0.457763671875,0.091552734375,-0.946044921875
3.6274999,0.7212532758712769,-0.39803603291511536,9.789292335510254,1.77001953125,0.457763671875,0.8544921875
3.6324999,0.67815762758255,-0.42676645517349243,9.774328231811523,-2.166748046875,-0.518798828125,-0.244140625
3.6374999000000003,0.6242880821228027,-0.4554968774318695,9.6989107131958,0.67138671875,-0.274658203125,-0.885009765625
3.6424999000000002,0.6913257241249084,-0.4106055796146393,9.778518676757812,1.708984375,0.79345703125,0.701904296875
3.6474999,0.6272808313369751,-0.4231751561164856,9.794678688049316,-2.044677734375,-0.335693359375,-0.48828125
3.6524999,0.5764040350914001,-0.46148237586021423,9.727043151855469,0.9765625,-0.1220703125,-0.8544921875
3.6574999000000004,0.5692214369773865,-0.45250412821769714,9.77133560180664,1.007080078125,0.579833984375,-0.579833984375
3.6624999000000003,0.6494272351264954,-0.37648820877075195,9.889848709106445,1.03759765625,0.244140625,0.6103515625
3.6674999,0.5991489887237549,-0.39564183354377747,9.875483512878418,-1.861572265625,-0.48828125,-0.91552734375
3.6724999,0.606930136680603,-0.4602852761745453,9.771934509277344,1.220703125,-0.48828125,-0.54931640625
3.6774999000000004,0.6865373253822327,-0.38905778527259827,9.87967300415039,0.946044921875,-0.213623046875,0.91552734375
3.6824999000000003,0.6392518281936646,-0.41539400815963745,9.832387924194336,-1.922607421875,-0.48828125,-1.007080078125
3.6874999,0.6392518281936646,-0.41539400815963745,9.832387924194336,-1.922607421875,-0.48828125,-1.007080078125
3.6924999,0.6500257849693298,-0.47584760189056396,9.743802070617676,1.373291015625,-0.244140625,-0.701904296875
3.6974999000000004,0.7248445749282837,-0.3860650360584259,9.82759952545166,0.885009765625,0.06103515625,0.823974609375
3.7024999000000003,0.6649895310401917,-0.4189853072166443,9.721057891845703,-1.434326171875,-0.3662109375,-0.885009765625
3.7074999,0.7050924301147461,-0.44771572947502136,9.75278091430664,0.244140625,-0.06103515625,0.8544921875
3.7124999,0.7050924301147461,-0.44771572947502136,9.75278091430664,0.244140625,-0.06103515625,0.8544921875
3.7174999,0.6404489278793335,-0.46627077460289,9.687539100646973,-1.40380859375,-0.30517578125,-0.9765625
3.7224999000000003,0.6446388363838196,-0.5063736438751221,9.72285270690918,1.708984375,-0.030517578125,-0.6103515625
3.7274999,0.6811503767967224,-0.4225766062736511,9.768941879272461,-0.06103515625,0.518798828125,0.762939453125
3.7324999,0.6147112846374512,-0.44532153010368347,9.686341285705566,-1.190185546875,-0.54931640625,-1.007080078125
3.7374999,0.6236895322799683,-0.4381389021873474,9.730035781860352,2.01416015625,-0.213623046875,-0.457763671875
3.7424999000000003,0.6643909811973572,-0.3842693865299225,9.771934509277344,-0.823974609375,0.6103515625,1.0986328125
3.7474999,0.5997475385665894,-0.4507084786891937,9.691129684448242,-2.716064453125,-0.1220703125,-0.701904296875
3.7524999,0.6105214357376099,-0.3974374830722809,9.768342971801758,3.662109375,-0.152587890625,-0.885009765625
3.7574999,0.6021417379379272,-0.45010992884635925,9.820416450500488,2.838134765625,0.1220703125,-0.396728515625
3.7624999000000003,0.6536170840263367,-0.37469255924224854,9.847949981689453,-0.3662109375,0.18310546875,0.823974609375
3.7674999000000002,0.6536170840263367,-0.37469255924224854,9.847949981689453,-0.3662109375,0.18310546875,0.823974609375
3.7724999,0.5764040350914001,-0.4118026793003082,9.744999885559082,-1.251220703125,-0.518798828125,-1.28173828125
3.7774999,0.6039373874664307,-0.4489128291606903,9.78989028930664,2.410888671875,0.1220703125,-0.396728515625
3.7824999000000004,0.6494272351264954,-0.38127660751342773,9.807249069213867,-1.0986328125,0.30517578125,1.28173828125
3.7874999000000003,0.585382342338562,-0.4578910768032074,9.727641105651855,-2.777099609375,-0.1220703125,-0.823974609375
3.7924999,0.6075286865234375,-0.395043283700943,9.806650161743164,3.72314453125,0.396728515625,-0.9765625
3.7974999,0.656609833240509,-0.45489832758903503,9.824007987976074,-0.091552734375,0.732421875,0.54931640625
3.8024999000000004,0.5931634902954102,-0.3411737382411957,9.798869132995605,-2.685546875,0.67138671875,-0.640869140625
3.8074999000000003,0.6057330369949341,-0.4429273009300232,9.850942611694336,2.655029296875,0.274658203125,-0.1220703125
3.8124999,0.6476315855979919,-0.36092591285705566,9.891644477844238,-0.640869140625,0.30517578125,0.946044921875
3.8174999,0.6278793811798096,-0.3866635859012604,9.822212219238281,-0.79345703125,-0.48828125,1.03759765625
3.8224999000000004,0.6278793811798096,-0.3866635859012604,9.822212219238281,-0.79345703125,-0.48828125,1.03759765625
3.8274999000000003,0.5668272376060486,-0.4644751250743866,9.725247383117676,-2.44140625,-0.42724609375,-0.823974609375
3.8324999,0.5835866928100586,-0.39564183354377747,9.775525093078613,3.814697265625,0.213623046875,-0.946044921875
3.8374999,0.6356605291366577,-0.444722980260849,9.79288387298584,-0.091552734375,0.457763671875,0.579833984375
3.8424999,0.5793967843055725,-0.3477577865123749,9.743802070617676,-2.899169921875,0.091552734375,-0.518798828125
3.8474999000000003,0.5991489887237549,-0.4411316514015198,9.785101890563965,2.410888671875,-0.42724609375,-0.244140625
3.8524999,0.6560112833976746,-0.3776853084564209,9.815030097961426,-0.274658203125,0.396728515625,0.640869140625
3.8574999,0.5871779918670654,-0.4291606545448303,9.693524360656738,-1.373291015625,0.18310546875,-1.3427734375
3.8624999,0.618302583694458,-0.4686649739742279,9.737217903137207,2.288818359375,0.67138671875,-0.48828125
3.8674999000000003,0.6602011322975159,-0.4058171808719635,9.745597839355469,-0.518798828125,-0.274658203125,1.28173828125
3.8724999,0.5997475385665894,-0.4794389009475708,9.673172950744629,-2.777099609375,-0.3662109375,-0.579833984375
3.8774999,0.6147112846374512,-0.383670836687088,9.731831550598145,-2.8076171875,-0.18310546875,-0.42724609375
3.8824999,0.6147112846374512,-0.383670836687088,9.731831550598145,-2.8076171875,-0.18310546875,-0.42724609375
3.8874999000000003,0.6272808313369751,-0.47165772318840027,9.773131370544434,2.471923828125,-0.3662109375,-0.396728515625
3.8924999000000002,0.6859387755393982,-0.38726213574409485,9.797073364257812,-0.274658203125,0.396728515625,0.6103515625
3.8974999,0.6356605291366577,-0.4429273009300232,9.72165584564209,-1.5869140625,0.18310546875,-1.190185546875
3.9024999,0.6554127335548401,-0.45010992884635925,9.707889556884766,2.471923828125,0.335693359375,-0.54931640625
3.9074999000000004,0.7212532758712769,-0.43514615297317505,9.758167266845703,0,-0.274658203125,1.068115234375
3.9124999000000003,0.6703764796257019,-0.5009866952896118,9.730035781860352,-2.74658203125,-0.48828125,-0.701904296875
3.9174999,0.679354727268219,-0.45250412821769714,9.723451614379883,3.387451171875,0.06103515625,-1.129150390625
3.9224999,0.7224503755569458,-0.47405192255973816,9.794678688049316,0.579833984375,-0.579833984375,0.579833984375
3.9274999000000004,0.6697779297828674,-0.3645172119140625,9.820416450500488,-3.143310546875,-0.42724609375,-0.3662109375
3.9324999000000003,0.6625953316688538,-0.4710591733455658,9.778518676757812,2.044677734375,-0.6103515625,-0.579833984375
3.9374999,0.6033388376235962,-0.50876784324646,9.712079048156738,-1.434326171875,-0.732421875,-0.54931640625
3.9424999,0.31364041566848755,-0.727837324142456,9.557653427124023,2.532958984375,-2.410888671875,3.570556640625
3.9474999000000004,0.010175357572734356,-1.1953052282333374,9.121908187866211,15.07568359375,-10.3759765625,13.763427734375
3.9524999000000003,-0.6416460275650024,-2.1978771686553955,9.039907455444336,37.872314453125,-24.59716796875,18.280029296875
3.9574999,-1.3617022037506104,-2.5749640464782715,8.85794734954834,78.277587890625,-26.031494140625,36.376953125
3.9624999,-1.8339585065841675,-3.5260605812072754,9.914987564086914,36.712646484375,-26.611328125,72.32666015625
3.9674999000000004,-2.889202833175659,-2.9969420433044434,9.966463088989258,64.14794921875,-32.958984375,79.4677734375
3.9724999000000003,-3.221997022628784,-2.831143617630005,11.521496772766113,38.87939453125,-51.849365234375,122.1923828125
3.9774999,-4.200028419494629,-1.8076223134994507,10.816404342651367,87.5244140625,-59.9365234375,123.077392578125
3.9824999,-3.9181110858917236,-0.5925649404525757,11.936891555786133,79.16259765625,-80.108642578125,180.450439453125
3.9874999,-4.55616569519043,0.09217676520347595,11.051634788513184,123.687744140625,-83.251953125,189.849853515625
3.9924999000000003,-3.825934410095215,0.8206126093864441,11.999738693237305,131.4697265625,-108.428955078125,241.546630859375
3.9974999,-1.292868971824646,-0.6925228238105774,12.136208534240723,260.31494140625,-184.63134765625,223.08349609375
4.0024999,2.6599581241607666,-2.321178436279297,9.527127265930176,247.00927734375,-196.380615234375,178.009033203125
4.0074999,3.4751837253570557,-1.4508862495422363,7.763797760009766,268.585205078125,-181.915283203125,114.227294921875
4.0124999,3.9624037742614746,-0.32202014327049255,6.056133270263672,203.582763671875,-165.95458984375,88.07373046875
4.0174999,4.7153801918029785,0.6494272351264954,5.16429328918457,144.744873046875,-156.158447265625,103.759765625
4.022499900000001,5.322908878326416,1.9117701053619385,4.246116638183594,150.57373046875,-130.706787109375,97.381591796875
4.0274999000000005,5.892728805541992,2.5127146244049072,3.9444472789764404,134.82666015625,-126.5869140625,52.06298828125
4.0324999,6.209960460662842,3.044826030731201,3.910329818725586,94.696044921875,-104.827880859375,42.449951171875
4.0374999,6.721122741699219,3.421314239501953,4.698620796203613,85.601806640625,-81.11572265625,37.445068359375
4.0424999,7.35319185256958,4.435258865356445,6.537367820739746,8.544921875,-11.566162109375,-3.7841796875
4.0474999,7.13771390914917,4.411316394805908,6.520009994506836,1.800537109375,9.979248046875,-29.937744140625
4.0524999,6.830059051513672,4.235342979431152,6.1991868019104,-37.811279296875,22.735595703125,-41.107177734375
4.0574999,6.499659061431885,3.9845502376556396,5.853224754333496,-71.746826171875,35.491943359375,-39.55078125
4.062499900000001,6.204573631286621,3.8067808151245117,5.659294128417969,-82.763671875,50.750732421875,-44.097900390625
4.0674999000000005,5.814318656921387,3.7187938690185547,5.4228668212890625,-106.87255859375,69.4580078125,-51.177978515625
4.0724999,5.398326396942139,3.6828808784484863,5.380369663238525,-151.214599609375,84.3505859375,-44.769287109375
4.0774999,5.000290393829346,3.757699489593506,5.404311656951904,-165.313720703125,98.14453125,-42.816162109375
4.0824999,4.574122428894043,3.706224203109741,5.498284339904785,-186.03515625,117.706298828125,-55.023193359375
4.0874999,4.235342979431152,3.6786909103393555,5.604825973510742,-224.639892578125,132.2021484375,-41.748046875
4.0924999,3.886986494064331,3.6116533279418945,5.6006364822387695,-243.438720703125,144.500732421875,-31.8603515625
4.0974999,3.4099416732788086,3.4973301887512207,5.613804340362549,-281.097412109375,174.957275390625,-36.43798828125
4.1024999,3.311779499053955,3.513490915298462,5.747281074523926,-305.938720703125,181.427001953125,-18.61572265625
4.1074999000000005,3.2160115242004395,3.450044631958008,5.924452304840088,-314.422607421875,200.408935546875,-26.611328125
4.1124999,3.1705214977264404,3.159149169921875,6.930016994476318,-337.82958984375,231.170654296875,-22.552490234375
4.1174999,4.158129692077637,2.3696610927581787,8.995016098022461,-260.7421875,326.11083984375,-2.01416015625
4.1224999,5.029619216918945,0.21547815203666687,11.796830177307129,1.28173828125,489.501953125,-39.337158203125
4.1274999,5.51624059677124,-2.5965118408203125,15.023016929626465,-18.6767578125,371.002197265625,-49.62158203125
4.1324999,4.546588897705078,-5.547365188598633,17.040132522583008,-84.808349609375,193.084716796875,-26.458740234375
4.1374999,1.9794062376022339,-7.651269912719727,16.94855308532715,-27.130126953125,110.595703125,-12.26806640625
4.1424999,-1.4024035930633545,-7.918822288513184,14.714763641357422,-15.80810546875,71.624755859375,-12.786865234375
4.147499900000001,-4.3209357261657715,-6.828263282775879,11.079767227172852,-31.92138671875,30.670166015625,-12.481689453125
4.1524999000000005,-6.112995624542236,-4.834491729736328,7.047332763671875,-13.24462890625,-6.622314453125,-28.4423828125
4.1574999,-6.905476093292236,-3.071162223815918,4.034229755401611,-0.732421875,-19.47021484375,-50.29296875
4.1624999,-6.889315605163574,-1.6657658815383911,2.623446464538574,32.867431640625,-7.965087890625,-39.4287109375
4.1674999,-6.715735912322998,-1.0767922401428223,3.0119056701660156,67.0166015625,20.3857421875,-41.168212890625
4.1724999,-6.280589580535889,-1.1749545335769653,4.911705017089844,58.65478515625,18.85986328125,-46.5087890625
4.1774999,-5.960963726043701,-1.5263035297393799,7.438186168670654,66.5283203125,-22.88818359375,-38.330078125
4.1824999,-5.263053894042969,-1.8728642463684082,9.820416450500488,53.070068359375,-60.546875,-33.02001953125
4.187499900000001,-4.501099109649658,-1.8064252138137817,11.287464141845703,18.98193359375,-82.855224609375,-15.899658203125
4.1924999000000005,-3.228580951690674,-1.2012907266616821,11.996147155761719,21.331787109375,-104.034423828125,11.53564453125
4.1974999,-2.0416555404663086,-0.21607670187950134,12.033257484436035,18.035888671875,-110.16845703125,5.9814453125
4.2024999,-0.585382342338562,0.7625532150268555,11.971607208251953,-10.986328125,-100.830078125,5.401611328125
4.2074999,0.6607996821403503,1.5286977291107178,11.990760803222656,3.23486328125,-92.498779296875,5.279541015625
4.2124999,1.8213889598846436,1.7968484163284302,11.871050834655762,-6.04248046875,-94.390869140625,-4.364013671875
4.2174999,2.515108823776245,1.6603789329528809,11.567585945129395,-12.20703125,-92.4072265625,-2.471923828125
4.2224999,2.8874073028564453,1.1079168319702148,11.049241065979004,5.2490234375,-86.700439453125,0.8544921875
4.2274999,2.8856115341186523,0.38486793637275696,10.18912410736084,-17.76123046875,-75.897216796875,-5.9814453125
4.2324999000000005,2.7467479705810547,-0.1951274424791336,9.391256332397461,-3.082275390625,-51.116943359375,10.25390625
4.2374999,2.647388458251953,-0.7745242714881897,8.921992301940918,18.9208984375,-35.0341796875,8.209228515625
4.2424999,2.625840663909912,-0.8313865661621094,8.413225173950195,-12.39013671875,-25.970458984375,-5.462646484375
4.2474999,2.761113166809082,-0.9714473485946655,8.682572364807129,4.45556640625,-11.5966796875,-6.77490234375
4.2524999,2.7557260990142822,-0.7751228213310242,8.776544570922852,8.85009765625,-0.152587890625,-9.70458984375
4.2574999,2.911349296569824,-0.6039373874664307,9.059061050415039,-16.754150390625,17.425537109375,-9.979248046875
4.2624999,2.786850690841675,-0.3734954595565796,9.314043045043945,14.007568359375,30.853271484375,-9.307861328125
4.2674999,2.7018566131591797,-0.0933738648891449,9.311649322509766,-6.591796875,36.468505859375,-12.14599609375
4.272499900000001,2.431311845779419,0.0005985504249110818,9.363722801208496,-11.53564453125,53.89404296875,-6.103515625
4.2774999000000005,2.251746654510498,0.07541735470294952,9.423578262329102,13.336181640625,53.22265625,-0.42724609375
4.2824999,1.2270283699035645,-0.19153612852096558,9.843161582946777,5.37109375,58.59375,0.42724609375
4.2874999,0.7960720658302307,-0.2579752206802368,9.923966407775879,-17.425537109375,63.17138671875,-0.946044921875
4.2924999,0.44831427931785583,-0.4626794755458832,10.1753568649292,9.796142578125,55.0537109375,4.119873046875
4.2974999,-0.07661445438861847,-0.38127660751342773,10.17416000366211,-2.74658203125,41.900634765625,-6.195068359375
4.3024999,-0.4638765752315521,-0.4967968463897705,10.155006408691406,-12.14599609375,39.093017578125,-1.983642578125
4.3074999,-0.8577227592468262,-0.43095630407333374,10.264541625976562,11.77978515625,21.820068359375,-0.79345703125
4.312499900000001,-1.2384008169174194,-0.4159925580024719,10.030508041381836,-10.19287109375,11.260986328125,-7.32421875
4.3174999000000005,-1.3150153160095215,-0.4668693244457245,10.13166332244873,3.11279296875,2.349853515625,1.953125
4.3224999,-1.1127052307128906,-0.42856210470199585,9.838373184204102,-11.77978515625,-11.5966796875,-3.84521484375
4.3274999,-0.7523778676986694,-0.3800795078277588,9.91738224029541,12.054443359375,-21.270751953125,2.685546875
4.3324999,0.2783259451389313,-0.39624038338661194,9.822212219238281,-1.953125,-15.5029296875,1.40380859375
4.3374999,0.5494692921638489,-0.3585317134857178,9.869498252868652,13.092041015625,-24.688720703125,0.885009765625
4.3424999,0.9313444495201111,-0.4141969084739685,9.679757118225098,-12.02392578125,-15.9912109375,-0.274658203125
4.3474999,1.028908133506775,-0.4513070285320282,9.90122127532959,11.90185546875,-17.27294921875,6.16455078125
4.352499900000001,1.080383539199829,-0.30226796865463257,9.660603523254395,-1.068115234375,-16.78466796875,-1.861572265625
4.3574999000000005,1.1803414821624756,-0.3489548861980438,9.79527759552002,-6.591796875,-4.7607421875,0.91552734375
4.3624999,1.0540473461151123,-0.23762452602386475,9.847352027893066,14.923095703125,-11.932373046875,1.800537109375
4.3674999,1.0540473461151123,-0.23762452602386475,9.847352027893066,14.923095703125,-11.932373046875,1.800537109375
4.3724999,1.1013327836990356,-0.2064998894929886,9.630077362060547,-13.7939453125,-1.64794921875,-2.0751953125
4.3774999,1.082777738571167,-0.23104046285152435,9.839570045471191,7.87353515625,1.0986328125,1.77001953125
4.3824999,1.0211269855499268,-0.11372458189725876,9.55585765838623,-1.220703125,0.91552734375,-4.7607421875
4.3874999,1.1294646263122559,-0.2388216257095337,9.642647743225098,-10.223388671875,14.495849609375,-1.190185546875
4.3924999,1.0336965322494507,-0.3208230137825012,9.615114212036133,-14.190673828125,16.021728515625,-3.875732421875
4.397499900000001,0.9858125448226929,-0.4082113802433014,9.901819229125977,7.568359375,16.021728515625,1.739501953125
4.4024999000000005,0.6991068720817566,-0.42676645517349243,9.817423820495605,-9.246826171875,19.1650390625,1.28173828125
4.4074999,0.6991068720817566,-0.42676645517349243,9.817423820495605,-9.246826171875,19.1650390625,1.28173828125
4.4124999,0.39803603291511536,-0.32441434264183044,9.856329917907715,12.8173828125,6.40869140625,0.732421875
4.4174999,0.1975216418504715,-0.3645172119140625,9.749788284301758,-12.451171875,9.185791015625,-3.875732421875
4.4224999,0.04369417950510979,-0.41958385705947876,10.02691650390625,10.6201171875,1.64794921875,3.997802734375
4.4274999,-0.13407529890537262,-0.3669114112854004,9.908403396606445,-3.631591796875,-4.7607421875,-4.425048828125
4.4324999,-0.12749123573303223,-0.4710591733455658,10.002376556396484,-4.69970703125,-0.67138671875,1.8310546875
4.437499900000001,-0.05746084079146385,-0.37409400939941406,9.988609313964844,11.260986328125,-13.580322265625,1.129150390625
4.4424999000000005,0.041299980133771896,-0.33997663855552673,9.764153480529785,-12.969970703125,-4.241943359375,-3.448486328125
4.4474999,0.29867666959762573,-0.3058592677116394,9.888651847839355,14.09912109375,-11.505126953125,2.99072265625
4.4524999,0.645237386226654,-0.33039984107017517,9.802460670471191,-0.30517578125,-2.197265625,2.44140625
4.4574999,0.8074445128440857,-0.26156654953956604,9.707290649414062,8.1787109375,-10.43701171875,-0.1220703125
4.4624999,0.8637082576751709,-0.3669114112854004,9.726444244384766,-11.41357421875,3.0517578125,-1.495361328125
4.4674999,0.8918401598930359,-0.39205053448677063,9.856329917907715,15.44189453125,-4.94384765625,2.288818359375
4.4724999,0.961870551109314,-0.30286651849746704,9.683348655700684,-14.0380859375,1.953125,-3.41796875
4.477499900000001,0.8140285611152649,-0.3471592366695404,9.850942611694336,7.080078125,4.94384765625,3.143310546875
4.4824999000000005,0.6374561786651611,-0.16998831927776337,9.769539833068848,12.6953125,-1.46484375,-0.42724609375
4.4874999,0.6643909811973572,-0.3232172429561615,9.749189376831055,-16.9677734375,8.880615234375,-2.197265625
4.4924999,0.517746090888977,-0.33279404044151306,9.964069366455078,12.603759765625,1.89208984375,2.50244140625
4.4974999,0.46806642413139343,-0.3579331636428833,9.725247383117676,-7.2021484375,2.105712890625,-3.84521484375
4.5024999,0.36092591285705566,-0.363918662071228,9.850942611694336,3.90625,-4.69970703125,-3.47900390625
4.5074999,0.46627077460289,-0.40940847992897034,9.775525093078613,-9.979248046875,6.2255859375,0.823974609375
4.5124999,0.38067805767059326,-0.363918662071228,9.841365814208984,12.87841796875,-5.7373046875,0.579833984375
4.5174999,0.40880993008613586,-0.2998737692832947,9.601945877075195,-11.810302734375,2.532958984375,-2.655029296875
4.522499900000001,0.4465186297893524,-0.3663128614425659,9.861717224121094,12.359619140625,-3.41796875,3.72314453125
4.5274999000000005,0.43933600187301636,-0.2346317619085312,9.679757118225098,-10.528564453125,-3.96728515625,-3.936767578125
4.5324999,0.45848962664604187,-0.41539400815963745,9.917980194091797,3.72314453125,1.312255859375,3.35693359375
4.5374999,0.5404910445213318,-0.3076549172401428,9.786299705505371,3.662109375,-8.48388671875,-2.471923828125
4.5424999,0.536899745464325,-0.39863458275794983,9.864709854125977,-7.32421875,2.74658203125,0.518798828125
4.5474999,0.5716156363487244,-0.3776853084564209,9.86889934539795,11.444091796875,-7.965087890625,0.18310546875
4.5524999,0.6661866307258606,-0.35913026332855225,9.742605209350586,-15.838623046875,3.662109375,-2.01416015625
4.5574999,0.6015431880950928,-0.3770867586135864,9.925761222839355,16.021728515625,-1.953125,1.983642578125
4.562499900000001,0.6841431260108948,-0.2082955539226532,9.663596153259277,-2.3193359375,-1.739501953125,-4.39453125
4.5674999000000005,0.751779317855835,-0.3513490855693817,9.840168952941895,-2.716064453125,8.209228515625,2.716064453125
4.5724999,0.5991489887237549,-0.2621650993824005,9.783905029296875,9.368896484375,-3.814697265625,-1.922607421875
4.5774999,0.6242880821228027,-0.30466216802597046,9.728838920593262,-11.077880859375,7.26318359375,0.91552734375
4.5824999,0.5033808946609497,-0.3495534360408783,9.898228645324707,10.6201171875,-1.312255859375,0.518798828125
4.5874999,0.43993455171585083,-0.29149407148361206,9.6803560256958,-12.5732421875,5.18798828125,-3.143310546875
4.5924999,0.40282443165779114,-0.32441434264183044,9.893440246582031,14.58740234375,-0.885009765625,2.899169921875
4.5974999,0.38307225704193115,-0.30885201692581177,9.709086418151855,-12.451171875,-1.708984375,-3.5400390625
4.602499900000001,0.35913026332855225,-0.32202014327049255,9.893440246582031,6.89697265625,2.13623046875,3.082275390625
4.6074999000000005,0.4118026793003082,-0.33039984107017517,9.756970405578613,-1.251220703125,-5.67626953125,-3.11279296875
4.6124999,0.4920084476470947,-0.3974374830722809,10.002974510192871,-1.52587890625,2.838134765625,2.532958984375
4.6174999,0.6997054219245911,-0.41539400815963745,9.92097282409668,-10.19287109375,4.302978515625,0.518798828125
4.6224999,0.569819986820221,-0.3196259140968323,9.942521095275879,14.556884765625,-5.767822265625,-1.251220703125
4.6274999,0.7003039717674255,-0.3345896899700165,9.678560256958008,-12.847900390625,1.77001953125,0.274658203125
4.6324999,0.6368576288223267,-0.345363587141037,9.844358444213867,10.55908203125,-1.77001953125,1.983642578125
4.6374999,0.6015431880950928,-0.22685061395168304,9.582792282104492,-11.5966796875,1.922607421875,-3.11279296875
4.6424999,0.5901707410812378,-0.2902969419956207,9.849745750427246,6.317138671875,4.730224609375,2.960205078125
4.647499900000001,0.5548562407493591,-0.3148375153541565,9.699509620666504,-2.044677734375,-3.0517578125,-3.021240234375
4.6524999000000005,0.5668272376060486,-0.38965633511543274,9.963470458984375,-1.312255859375,5.157470703125,2.899169921875
4.6574999,0.5153518915176392,-0.314238965511322,9.840168952941895,2.899169921875,-3.47900390625,-3.0517578125
4.6624999,0.6278793811798096,-0.39145198464393616,9.925163269042969,-7.2021484375,6.683349609375,0.701904296875
4.6674999,0.5213374495506287,-0.2621650993824005,9.64803409576416,-10.833740234375,2.197265625,-0.946044921875
4.6724999,0.5488707423210144,-0.3561375141143799,9.812037467956543,11.77978515625,-2.471923828125,2.38037109375
4.6774999,0.5063736438751221,-0.28969839215278625,9.70310115814209,-13.641357421875,-0.152587890625,-3.082275390625
4.6824999,0.5069721937179565,-0.4231751561164856,9.888651847839355,13.458251953125,-0.213623046875,1.495361328125
4.687499900000001,0.558447539806366,-0.3495534360408783,9.70549488067627,-9.94873046875,-2.655029296875,-2.25830078125
4.6924999000000005,0.49978959560394287,-0.4010287821292877,9.950302124023438,7.110595703125,1.434326171875,3.021240234375
4.6974999,0.5776011347770691,-0.3519476354122162,9.691129684448242,-5.859375,-2.655029296875,-3.326416015625
4.7024999,0.608127236366272,-0.3776853084564209,9.949105262756348,4.974365234375,2.044677734375,3.143310546875
4.7074999,0.5339069962501526,-0.27473464608192444,9.713874816894531,-3.0517578125,-3.7841796875,-3.326416015625
4.7124999,0.6715735793113708,-0.36750996112823486,9.855731010437012,0.030517578125,5.31005859375,2.50244140625
4.7174999,0.5991489887237549,-0.3687070608139038,9.812037467956543,-4.302978515625,4.69970703125,3.2958984375
4.7224999,0.578798234462738,-0.3447650372982025,9.754576683044434,3.936767578125,-2.8076171875,-2.166748046875
4.727499900000001,0.5524620413780212,-0.3866635859012604,9.837176322937012,-4.21142578125,4.150390625,1.373291015625
4.7324999000000005,0.4866214990615845,-0.37409400939941406,9.800065994262695,6.40869140625,-3.41796875,-1.46484375
4.7374999,0.6093243360519409,-0.33758243918418884,9.801262855529785,-10.55908203125,4.7607421875,0.42724609375
4.7424999,0.4279635548591614,-0.34416648745536804,9.81143856048584,12.786865234375,-2.716064453125,-1.953125
4.7474999,0.6177040338516235,-0.3208230137825012,9.748590469360352,-11.23046875,1.89208984375,1.678466796875
4.7524999,0.4926069974899292,-0.29628247022628784,9.836577415466309,9.6435546875,-1.8310546875,-0.946044921875
4.7574999,0.5285200476646423,-0.3495534360408783,9.808445930480957,-8.85009765625,1.007080078125,0.030517578125
4.7624999,0.5285200476646423,-0.31783026456832886,9.913790702819824,9.27734375,-2.410888671875,1.03759765625
4.7674999,0.4908113479614258,-0.3884592354297638,9.84376049041748,-12.176513671875,2.105712890625,-2.5634765625
4.772499900000001,0.5404910445213318,-0.3992331326007843,9.738415718078613,-13.824462890625,-0.274658203125,-0.54931640625
4.7774999000000005,0.4800374507904053,-0.3298012912273407,9.847352027893066,12.298583984375,0.6103515625,0.823974609375
4.7824999,0.5841852426528931,-0.34656068682670593,9.643245697021484,-10.19287109375,-0.91552734375,-0.946044921875
4.7874999,0.586579442024231,-0.26396074891090393,9.816825866699219,8.9111328125,0.3662109375,1.708984375
4.7924999,0.5734112858772278,-0.23343466222286224,9.66539192199707,-9.58251953125,0.42724609375,-2.838134765625
4.7974999,0.6368576288223267,-0.272938996553421,9.879075050354004,10.772705078125,0.274658203125,1.495361328125
4.8024999,0.545877993106842,-0.2298433631658554,9.751583099365234,-12.176513671875,-0.1220703125,-2.62451171875
4.8074999,0.5638344883918762,-0.29388827085494995,9.944915771484375,11.993408203125,1.46484375,1.8310546875
4.812499900000001,0.5602431893348694,-0.30526071786880493,9.793481826782227,-9.246826171875,-1.495361328125,-1.617431640625
4.8174999000000005,0.5117605924606323,-0.3010708689689636,9.907206535339355,7.720947265625,1.983642578125,2.50244140625
4.8224999,0.5578489899635315,-0.3166331648826599,9.703699111938477,-6.8359375,-1.28173828125,-2.5634765625
4.8274999,0.5758054852485657,-0.33518823981285095,9.837176322937012,7.537841796875,1.068115234375,2.044677734375
4.8324999,0.5608417391777039,-0.32860419154167175,9.662399291992188,-6.927490234375,-0.579833984375,-2.62451171875
4.8374999,0.5734112858772278,-0.314238965511322,9.847352027893066,7.32421875,0.152587890625,1.434326171875
4.8424999,0.52552729845047,-0.23822307586669922,9.622895240783691,-9.613037109375,-0.396728515625,-3.173828125
4.8474999,0.6302735805511475,-0.31603461503982544,9.832387924194336,10.68115234375,1.007080078125,1.983642578125
4.852499900000001,0.5363011956214905,-0.27653029561042786,9.706692695617676,-9.979248046875,-1.5869140625,-1.556396484375
4.8574999000000005,0.5716156363487244,-0.32441434264183044,9.88506031036377,10.1318359375,1.739501953125,1.983642578125
4.8624999,0.5889736413955688,-0.38486793637275696,9.770736694335938,-8.4228515625,-0.9765625,-2.01416015625
4.8674999,0.5871779918670654,-0.37169981002807617,9.720458984375,-7.781982421875,-0.54931640625,-1.922607421875
4.8724999,0.5518634915351868,-0.3597288131713867,9.888651847839355,8.1787109375,-0.518798828125,0.9765625
4.8774999,0.5171475410461426,-0.31842881441116333,9.713275909423828,-10.07080078125,0.732421875,-1.89208984375
4.8824999,0.5333084464073181,-0.3627215623855591,9.789292335510254,-11.932373046875,0.1220703125,-0.762939453125
4.8874999,0.49380409717559814,-0.3860650360584259,9.88625717163086,12.0849609375,-0.274658203125,0.67138671875
4.8924999,0.6111199855804443,-0.35075053572654724,9.873687744140625,-9.70458984375,-0.213623046875,0.18310546875
4.897499900000001,0.47405192255973816,-0.30705636739730835,9.95209789276123,8.85009765625,0.213623046875,-0.732421875
4.9024999000000005,0.6099228858947754,-0.26994624733924866,9.809642791748047,-8.36181640625,0.18310546875,-0.30517578125
4.9074999,0.5153518915176392,-0.20231004059314728,9.834183692932129,7.659912109375,-1.40380859375,-0.30517578125
4.9124999,0.5710170865058899,-0.23283611238002777,9.718064308166504,-6.591796875,0.8544921875,1.068115234375
4.9174999,0.5315127968788147,-0.24181437492370605,9.713275909423828,7.26318359375,-2.62451171875,-1.220703125
4.9224999,0.5123591423034668,-0.3585317134857178,9.821614265441895,9.09423828125,-2.5634765625,-1.46484375
4.9274999,0.6434416770935059,-0.4531026780605316,9.871891975402832,-8.209228515625,1.52587890625,2.74658203125
4.9324999,0.48961424827575684,-0.4010287821292877,9.893440246582031,7.2021484375,-1.40380859375,-3.387451171875
4.937499900000001,0.5680243372917175,-0.37888240814208984,9.841964721679688,-3.47900390625,1.617431640625,2.8076171875
4.9424999000000005,0.4854243993759155,-0.3411737382411957,9.783905029296875,0.579833984375,-0.91552734375,-2.899169921875
4.9474999,0.5045779943466187,-0.24899697303771973,9.852140426635742,0.701904296875,1.64794921875,2.288818359375
4.9524999,0.5099649429321289,-0.3166331648826599,9.697115898132324,-2.532958984375,-0.762939453125,-1.953125
4.9574999,0.568622887134552,-0.23403321206569672,9.897629737854004,3.326416015625,1.678466796875,2.01416015625
4.9624999,0.6368576288223267,-0.314238965511322,9.904213905334473,4.974365234375,2.166748046875,2.044677734375
4.9674999,0.5141547918319702,-0.3471592366695404,9.70429801940918,-5.37109375,-1.708984375,-2.13623046875
4.9724999,0.608127236366272,-0.2735375463962555,9.768342971801758,6.744384765625,2.01416015625,2.777099609375
4.977499900000001,0.5129576921463013,-0.2148796021938324,9.736021041870117,8.4228515625,0.946044921875,0.640869140625
4.9824999000000005,0.5781996846199036,-0.3579331636428833,9.728838920593262,-9.490966796875,-0.67138671875,-0.701904296875
4.9874999,0.5159504413604736,-0.30226796865463257,9.86351203918457,7.9345703125,-0.244140625,-0.457763671875
4.9924999,0.6230909824371338,-0.45429977774620056,9.806051254272461,-6.77490234375,0.67138671875,0.732421875
4.9974999,0.5764040350914001,-0.3711012601852417,9.896432876586914,5.92041015625,-1.0986328125,-1.007080078125
5.0024999,0.5764040350914001,-0.3711012601852417,9.896432876586914,5.92041015625,-1.0986328125,-1.007080078125
5.0074999,0.5746083855628967,-0.3932476341724396,9.841964721679688,-5.37109375,1.5869140625,0.152587890625
5.0124999,0.5374982953071594,-0.3076549172401428,9.774328231811523,5.218505859375,-2.3193359375,-1.556396484375
5.0174999,0.5590460896492004,-0.2783259451389313,9.82640266418457,-4.57763671875,2.5634765625,1.861572265625
5.022499900000001,0.44592007994651794,-0.26096799969673157,9.72165584564209,4.21142578125,-2.44140625,-2.3193359375
5.0274999000000005,0.5548562407493591,-0.3513490855693817,9.886856079101562,-2.410888671875,2.349853515625,2.655029296875
5.0324999,0.46627077460289,-0.34656068682670593,9.812037467956543,0,-1.739501953125,-3.753662109375
5.0374999,0.5728127360343933,-0.4040215313434601,9.75397777557373,-6.2255859375,-1.007080078125,-1.983642578125
5.0424999,0.5710170865058899,-0.25737667083740234,9.7791166305542,7.6904296875,-0.701904296875,-0.54931640625
5.0474999,0.5901707410812378,-0.363918662071228,9.778518676757812,-6.4697265625,0.274658203125,0.30517578125
5.0524999,0.5829881429672241,-0.2950853705406189,9.858125686645508,5.92041015625,-1.5869140625,-0.823974609375
5.0574999,0.5482721924781799,-0.3998316824436188,9.845556259155273,-5.615234375,1.800537109375,0.30517578125
5.062499900000001,0.536899745464325,-0.2711433470249176,9.75278091430664,4.974365234375,-1.953125,-1.861572265625
5.0674999000000005,0.5973533391952515,-0.3100491166114807,9.855133056640625,-3.90625,2.288818359375,2.044677734375
5.0724999,0.49320554733276367,-0.24839842319488525,9.695320129394531,1.708984375,-2.50244140625,-2.25830078125
5.0774999,0.6619967818260193,-0.32022446393966675,9.81143856048584,0.396728515625,2.01416015625,2.716064453125
5.0824999,0.5033808946609497,-0.32381579279899597,9.702502250671387,-2.8076171875,-1.495361328125,-3.35693359375
5.0874999,0.6063315868377686,-0.3908534348011017,9.70310115814209,-7.415771484375,-0.823974609375,-1.40380859375
5.0924999,0.5291185975074768,-0.2669534981250763,9.68574333190918,8.758544921875,0.335693359375,0.335693359375
5.0974999,0.6685808300971985,-0.38905778527259827,9.758167266845703,-8.331298828125,0.701904296875,0.91552734375
5.102499900000001,0.5297171473503113,-0.2454056739807129,9.797073364257812,6.8359375,-0.6103515625,-2.197265625
5.1074999000000005,0.6033388376235962,-0.3232172429561615,9.819219589233398,-3.997802734375,1.190185546875,2.0751953125
5.1124999,0.5291185975074768,-0.2950853705406189,9.783307075500488,1.0986328125,-1.068115234375,-2.532958984375
5.1174999,0.5285200476646423,-0.24361002445220947,9.855133056640625,1.983642578125,0.9765625,1.922607421875
5.1224999,0.5027823448181152,-0.3214215636253357,9.847949981689453,5.7373046875,-0.1220703125,0.030517578125
5.1274999,0.5758054852485657,-0.3800795078277588,9.778518676757812,-6.34765625,0.8544921875,0.3662109375
5.1324999,0.5590460896492004,-0.35015198588371277,9.833584785461426,-2.13623046875,1.251220703125,1.251220703125
5.1374999,0.5530605912208557,-0.3495534360408783,9.761159896850586,-0.213623046875,-1.617431640625,-1.922607421875
5.1424999,0.5339069962501526,-0.3016694188117981,9.873687744140625,2.838134765625,0.91552734375,1.251220703125
5.147499900000001,0.5440823435783386,-0.3280056416988373,9.728240013122559,-3.90625,-1.068115234375,-1.495361328125
5.1524999000000005,0.5506663918495178,-0.30226796865463257,9.898228645324707,4.913330078125,0.885009765625,0.640869140625
5.1574999,0.579995334148407,-0.3866635859012604,9.792284965515137,-6.103515625,0.335693359375,-0.244140625
5.1624999,0.5626373887062073,-0.27234044671058655,9.818621635437012,5.401611328125,-0.42724609375,-0.9765625
5.1674999,0.5644330382347107,-0.38127660751342773,9.834781646728516,-3.0517578125,1.220703125,0.885009765625
5.1724999,0.5273229479789734,-0.3190273642539978,9.765948295593262,0.885009765625,-1.28173828125,-1.617431640625
5.1774999,0.5081692934036255,-0.3471592366695404,9.890447616577148,1.617431640625,1.64794921875,1.52587890625
5.1824999,0.5165489912033081,-0.34835633635520935,9.744999885559082,-3.96728515625,-0.79345703125,-1.52587890625
5.187499900000001,0.5303156971931458,-0.32680854201316833,9.891045570373535,4.8828125,1.129150390625,0.6103515625
5.1924999000000005,0.5776011347770691,-0.395043283700943,9.792284965515137,-2.5634765625,0.79345703125,0.9765625
5.1974999,0.5351040959358215,-0.33039984107017517,9.731831550598145,0.79345703125,-1.434326171875,-1.739501953125
5.2024999,-2.2649147510528564,0.3693056106567383,8.62271785736084,-132.26318359375,-13.671875,77.056884765625
5.2074999,-5.394136428833008,0.5141547918319702,9.010578155517578,-190.185546875,-12.298583984375,304.962158203125
5.2124999,-5.886743545532227,0.5291185975074768,8.399457931518555,-40.008544921875,-210.601806640625,460.540771484375
5.2174999,-5.333683013916016,-1.71245276927948,8.792107582092285,-27.496337890625,-165.191650390625,214.66064453125
5.2224999,-1.6879122257232666,-3.0550012588500977,7.544129371643066,134.490966796875,-66.89453125,-99.2431640625
5.227499900000001,2.4803929328918457,-4.399944305419922,6.2835822105407715,90.484619140625,-18.157958984375,-76.751708984375
5.2324999000000005,4.7369279861450195,-3.160346269607544,5.750273704528809,15.594482421875,33.87451171875,-56.57958984375
5.2374999,5.853224754333496,-0.8667010068893433,6.25545072555542,29.4189453125,78.369140625,-62.530517578125
5.2424999,4.651933670043945,2.562992811203003,9.232041358947754,54.962158203125,17.15087890625,-34.454345703125
