# Time (seconds),Accel_X,Accel_Y,Accel_Z,Gyro_X,Gyro_Y,Gyro_Z
0.0024999,0.6530185341835022,-0.43933600187301636,9.870096206665039,4.913330078125,-1.068115234375,1.129150390625
0.0074999,0.5907692909240723,-0.5566518902778625,9.638457298278809,0.030517578125,1.251220703125,-2.349853515625
0.012499900000000001,0.6470330357551575,-0.49320554733276367,9.847352027893066,5.157470703125,-1.129150390625,1.068115234375
0.0174999,0.5560533404350281,-0.5494692921638489,9.869498252868652,-4.39453125,-0.030517578125,0.579833984375
0.0224999,0.5907692909240723,-0.5841852426528931,9.622296333312988,-0.3662109375,1.15966796875,-2.349853515625
0.0274999,0.628477931022644,-0.5081692934036255,9.809642791748047,5.126953125,-1.129150390625,1.129150390625
0.0324999,0.5506663918495178,-0.5213374495506287,9.88506031036377,-4.150390625,-0.274658203125,0.48828125
0.0374999,0.578798234462738,-0.5560533404350281,9.61571216583252,-0.8544921875,1.251220703125,-2.44140625
0.0424999,0.6075286865234375,-0.4626794755458832,9.809642791748047,5.43212890625,-1.129150390625,0.8544921875
0.0474999,0.5416881442070007,-0.47824180126190186,9.895833969116211,-4.150390625,-0.244140625,0.67138671875
0.0524999,0.5776011347770691,-0.5201402902603149,9.61451530456543,-1.129150390625,1.190185546875,-2.38037109375
0.0574999,0.5949591398239136,-0.4315548539161682,9.79647445678711,5.4931640625,-1.220703125,0.823974609375
0.0624999,0.5327098965644836,-0.4405331015586853,9.919178009033203,-3.90625,-0.457763671875,0.67138671875
0.0674999,0.5710170865058899,-0.3992331326007843,9.819219589233398,5.462646484375,-1.15966796875,0.640869140625
0.0724999,0.5267243981361389,-0.4076128304004669,9.943120002746582,-3.47900390625,-0.579833984375,0.9765625
0.0774999,0.558447539806366,-0.48063600063323975,9.639056205749512,-1.922607421875,1.28173828125,-2.349853515625
0.0824999,0.5692214369773865,-0.47824180126190186,9.624691009521484,-2.197265625,1.0986328125,-2.01416015625
0.0874999,0.5895721912384033,-0.3824737071990967,9.784503936767578,5.615234375,-1.220703125,0.06103515625
0.0924999,0.5626373887062073,-0.3932476341724396,9.913790702819824,-3.23486328125,-0.79345703125,0.946044921875
0.0974999,0.5841852426528931,-0.4812345504760742,9.621698379516602,-2.532958984375,1.0986328125,-1.983642578125
0.1024999,0.6189011335372925,-0.4034229815006256,9.768941879272461,5.462646484375,-0.8544921875,0.213623046875
0.1074999,0.5781996846199036,-0.406415730714798,9.911994934082031,-3.143310546875,-0.579833984375,1.129150390625
0.1124999,0.5889736413955688,-0.5147533416748047,9.634267807006836,-2.74658203125,1.52587890625,-2.105712890625
0.1174999,0.5644330382347107,-0.46327802538871765,9.923966407775879,-2.960205078125,-0.823974609375,1.28173828125
0.1224999,0.5692214369773865,-0.5650315880775452,9.643844604492188,-3.11279296875,1.52587890625,-2.288818359375
0.1274999,0.6063315868377686,-0.5057750940322876,9.769539833068848,5.401611328125,-0.42724609375,0.213623046875
0.1324999,0.5614402890205383,-0.48482584953308105,9.929352760314941,-2.410888671875,-0.54931640625,1.52587890625
0.1374999,0.5692214369773865,-0.5710170865058899,9.66419506072998,-3.448486328125,1.5869140625,-2.227783203125
0.1424999,0.6051344871520996,-0.5009866952896118,9.775525093078613,5.43212890625,-0.335693359375,0.091552734375
0.1474999,0.5554547905921936,-0.46088382601737976,9.935338973999023,-2.01416015625,-0.67138671875,1.800537109375
0.1524999,0.545877993106842,-0.5315127968788147,9.673172950744629,-3.753662109375,1.495361328125,-2.0751953125
0.1574999,0.5937620401382446,-0.4686649739742279,9.766547203063965,5.462646484375,-0.3662109375,-0.3662109375
0.1624999,0.5404910445213318,-0.3603273630142212,9.9000244140625,-0.9765625,-1.068115234375,1.495361328125
0.1674999,0.5213374495506287,-0.4728548228740692,9.660603523254395,-4.058837890625,1.220703125,-1.800537109375
0.1724999,0.5925649404525757,-0.43335050344467163,9.706093788146973,5.279541015625,-0.48828125,-0.48828125
0.17749990000000002,0.5524620413780212,-0.37888240814208984,9.896432876586914,-0.54931640625,-1.3427734375,1.495361328125
0.1824999,0.5339069962501526,-0.497395396232605,9.663596153259277,-4.486083984375,0.79345703125,-1.800537109375
0.1874999,0.6200982332229614,-0.444722980260849,9.695320129394531,5.157470703125,-0.579833984375,-0.54931640625
0.1924999,0.5883750915527344,-0.3884592354297638,9.907206535339355,-0.1220703125,-1.434326171875,1.89208984375
0.1974999,0.5608417391777039,-0.5141547918319702,9.683947563171387,-4.486083984375,1.190185546875,-1.739501953125
0.2024999,0.646434485912323,-0.47165772318840027,9.693524360656738,4.852294921875,-0.030517578125,-1.0986328125
0.20749990000000001,0.5931634902954102,-0.42377370595932007,9.909601211547852,0.152587890625,-1.220703125,1.922607421875
0.2124999,0.618302583694458,-0.5279214978218079,9.66958236694336,4.57763671875,-0.152587890625,-1.068115234375
0.2174999,0.5722141861915588,-0.47405192255973816,9.895236015319824,0.152587890625,-1.434326171875,1.8310546875
0.2224999,0.5273229479789734,-0.5883750915527344,9.694122314453125,-5.06591796875,1.190185546875,-1.556396484375
0.2274999,0.629675030708313,-0.5566518902778625,9.668983459472656,4.302978515625,0.244140625,-0.79345703125
0.2324999,0.5889736413955688,-0.4734533727169037,9.910798072814941,0.274658203125,-1.312255859375,2.044677734375
0.2374999,0.535702645778656,-0.5758054852485657,9.725846290588379,-5.218505859375,1.03759765625,-1.495361328125
0.2424999,0.5913678407669067,-0.456095427274704,9.914389610290527,0.91552734375,-1.007080078125,1.922607421875
0.2474999,0.5309142470359802,-0.5363011956214905,9.743802070617676,-5.218505859375,1.28173828125,-1.190185546875
0.2524999,0.6224924325942993,-0.5135562419891357,9.668384552001953,3.7841796875,0.579833984375,-1.46484375
0.2574999,0.5823895931243896,-0.40880993008613586,9.925163269042969,1.190185546875,-0.8544921875,1.678466796875
0.2624999,0.5099649429321289,-0.4902127981185913,9.765948295593262,-5.37109375,1.190185546875,-1.03759765625
0.2674999,0.5668272376060486,-0.3800795078277588,9.941922187805176,1.617431640625,-1.312255859375,1.8310546875
0.2724999,0.4944026470184326,-0.46627077460289,9.791088104248047,-5.523681640625,1.007080078125,-0.885009765625
0.2774999,0.5913678407669067,-0.45669397711753845,9.697713851928711,3.72314453125,0.457763671875,-1.46484375
0.2824999,0.5770025849342346,-0.3669114112854004,9.964667320251465,1.983642578125,-1.28173828125,1.617431640625
0.28749990000000003,0.517746090888977,-0.45669397711753845,9.816825866699219,-5.31005859375,1.007080078125,-1.068115234375
0.2924999,0.6003460884094238,-0.4596867263317108,9.692925453186035,3.570556640625,0.6103515625,-1.495361328125
0.2974999,0.6003460884094238,-0.3908534348011017,9.946112632751465,2.5634765625,-1.46484375,1.89208984375
0.3024999,0.524330198764801,-0.46627077460289,9.790489196777344,-5.37109375,0.79345703125,-0.9765625
0.3074999,0.5991489887237549,-0.4692635238170624,9.658807754516602,3.204345703125,0.42724609375,-1.861572265625
0.3124999,0.6033388376235962,-0.40880993008613586,9.923966407775879,2.716064453125,-1.64794921875,1.922607421875
0.3174999,0.5213374495506287,-0.4818331003189087,9.782109260559082,-5.340576171875,0.48828125,-0.79345703125
0.3224999,0.5925649404525757,-0.5171475410461426,9.635464668273926,2.8076171875,0.396728515625,-1.983642578125
0.3274999,0.5249287486076355,-0.5542576909065247,9.779715538024902,-5.462646484375,0.42724609375,-0.640869140625
0.3324999,0.5883750915527344,-0.5776011347770691,9.62828254699707,2.593994140625,0.54931640625,-1.861572265625
0.3374999,0.5883750915527344,-0.5776011347770691,9.62828254699707,2.593994140625,0.54931640625,-1.861572265625
0.3424999,0.6153098344802856,-0.518943190574646,9.929352760314941,3.265380859375,-1.495361328125,1.708984375
0.34749990000000003,0.5201402902603149,-0.5620388388633728,9.7791166305542,-5.645751953125,0.396728515625,-0.518798828125
0.35249990000000003,0.5817909836769104,-0.5710170865058899,9.62947940826416,2.044677734375,0.732421875,-2.044677734375
0.3574999,0.6111199855804443,-0.4950011968612671,9.93354320526123,3.326416015625,-1.77001953125,1.678466796875
0.3624999,0.5231330990791321,-0.52552729845047,9.797073364257812,-5.55419921875,0.30517578125,-0.152587890625
0.3674999,0.5847837924957275,-0.5363011956214905,9.634865760803223,1.89208984375,0.8544921875,-2.01416015625
0.3724999,0.6326677799224854,-0.4578910768032074,9.941922187805176,3.387451171875,-1.312255859375,1.495361328125
0.3774999,0.5392939448356628,-0.48901569843292236,9.809642791748047,-5.4931640625,0.54931640625,-0.06103515625
0.3824999,0.5776011347770691,-0.507570743560791,9.645041465759277,1.434326171875,1.220703125,-1.953125
0.3874999,0.5147533416748047,-0.4602852761745453,9.82640266418457,-5.462646484375,0.457763671875,-0.091552734375
0.3924999,0.5476736426353455,-0.4908113479614258,9.659406661987305,1.15966796875,1.190185546875,-1.983642578125
0.3974999,0.6123170852661133,-0.40940847992897034,9.942521095275879,4.150390625,-1.068115234375,1.52587890625
0.4024999,0.1041477769613266,-0.4884171485900879,9.475052833557129,0.701904296875,1.190185546875,-1.922607421875
0.4074999,0.4752490520477295,-1.0007762908935547,8.982446670532227,20.99609375,-5.218505859375,0.06103515625
0.41249990000000003,0.4010287821292877,-0.6631938815116882,8.415618896484375,25.390625,3.326416015625,-17.88330078125
0.41749990000000003,0.6979097723960876,-0.4016273319721222,7.235876083374023,10.284423828125,12.14599609375,10.345458984375
0.4224999,0.8098387122154236,-0.16579847037792206,7.068880558013916,15.411376953125,7.50732421875,11.71875
0.4274999,0.0867898091673851,0.608127236366272,6.785766124725342,31.494140625,10.3759765625,-8.758544921875
0.4324999,-0.26575639843940735,0.23702596127986908,6.74267053604126,30.426025390625,11.77978515625,1.922607421875
0.4374999,-0.6530185341835022,-0.0975637212395668,6.918644428253174,37.750244140625,7.843017578125,2.593994140625
0.4424999,0.11133038252592087,0.657806932926178,6.515820026397705,-3.662109375,10.589599609375,11.810302734375
0.4474999,0.5225345492362976,1.790264368057251,6.627748966217041,-25.390625,5.2490234375,2.99072265625
0.4524999,0.49559974670410156,2.3684639930725098,6.590638637542725,-41.961669921875,1.46484375,1.40380859375
0.4574999,0.314238965511322,2.6569652557373047,7.392696380615234,-45.22705078125,-6.591796875,2.99072265625
0.4624999,-0.10953472554683685,2.42472767829895,8.721478462219238,-50.78125,-22.552490234375,-1.678466796875
0.4674999,-0.47884035110473633,1.0875661373138428,9.883264541625977,-38.330078125,-34.820556640625,-6.866455078125
0.47249990000000003,-0.5051765441894531,-0.11671733111143112,10.959458351135254,-18.524169921875,-34.332275390625,2.9296875
0.47749990000000003,-0.3693056106567383,-1.9943699836730957,11.14381217956543,-12.481689453125,-21.484375,4.94384765625
0.4824999,0.3645172119140625,-3.244741916656494,10.609905242919922,6.683349609375,-10.711669921875,0.6103515625
0.4874999,1.1773487329483032,-3.55479097366333,10.277709007263184,12.359619140625,-2.197265625,3.082275390625
0.4924999,1.7938556671142578,-3.2800562381744385,9.776124000549316,6.40869140625,10.528564453125,-2.777099609375
0.4974999,2.2864625453948975,-2.24935245513916,9.700108528137207,18.06640625,17.486572265625,-1.52587890625
0.5024999,1.0528502464294434,0.3866635859012604,9.800065994262695,9.185791015625,11.749267578125,0.732421875
0.5074999,0.2555810213088989,0.5746083855628967,9.852140426635742,-3.60107421875,4.119873046875,-0.48828125
0.5124999,-0.3429693877696991,0.4572925269603729,9.493009567260742,-1.89208984375,-1.03759765625,-4.364013671875
0.5174999,-0.5746083855628967,0.33758243918418884,9.797073364257812,1.220703125,-8.148193359375,2.288818359375
0.5224999,-0.6919242739677429,0.020350715145468712,9.696516990661621,-10.589599609375,-9.94873046875,1.0986328125
0.5274999,-0.26336219906806946,-0.2645592987537384,9.536704063415527,-1.922607421875,-9.521484375,-1.708984375
0.5324999,0.1777694821357727,-0.3447650372982025,9.847949981689453,-2.62451171875,-9.1552734375,2.166748046875
0.5374999,0.608127236366272,-0.618302583694458,9.6618013381958,-8.7890625,-3.35693359375,-1.52587890625
0.5424999,1.094150185585022,-0.7038952708244324,9.6803560256958,4.669189453125,-0.42724609375,-0.54931640625
0.5474999,1.2156559228897095,-0.7487865686416626,10.002974510192871,-0.3662109375,1.28173828125,1.983642578125
0.5524999,1.2342109680175781,-0.9546879529953003,9.739612579345703,-1.15966796875,5.584716796875,-2.899169921875
0.5574999,0.8463503122329712,-0.7356184720993042,10.051457405090332,-1.312255859375,3.509521484375,1.3427734375
0.5624999,0.5793967843055725,-0.6105214357376099,9.686341285705566,1.40380859375,4.058837890625,-2.8076171875
0.5674999000000001,0.43754035234451294,-0.31842881441116333,9.948506355285645,5.37109375,0.030517578125,1.77001953125
0.5724999000000001,0.15741875767707825,-0.23403321206569672,9.833584785461426,-7.476806640625,-1.312255859375,-0.244140625
0.5774999000000001,0.23523031175136566,-0.22505496442317963,9.570222854614258,0.518798828125,-1.5869140625,-2.197265625
0.5824999,0.2950853705406189,-0.16101007163524628,9.832986831665039,1.068115234375,-4.82177734375,2.410888671875
0.5874999,0.3315969407558441,-0.3405751883983612,9.631275177001953,-7.62939453125,-2.532958984375,-1.434326171875
0.5924999,0.6129156351089478,-0.45010992884635925,9.552865028381348,4.08935546875,-1.03759765625,-1.190185546875
0.5974999,0.690727174282074,-0.4495113790035248,9.92097282409668,-0.152587890625,-1.40380859375,2.166748046875
0.6024999,0.7882909178733826,-0.6476315855979919,9.692925453186035,-4.0283203125,2.44140625,-2.3193359375
0.6074999,0.8984242081642151,-0.6015431880950928,9.822811126708984,7.50732421875,1.556396484375,0
0.6124999,0.7876923680305481,-0.5722141861915588,10.06701946258545,-2.166748046875,1.0986328125,1.52587890625
0.6174999,0.6266822814941406,-0.4818331003189087,9.922768592834473,6.622314453125,-0.396728515625,1.007080078125
0.6224999,0.4321534037590027,-0.47584760189056396,9.922768592834473,-5.340576171875,-0.701904296875,0.6103515625
0.6274999,0.3932476341724396,-0.46088382601737976,9.551667213439941,0.640869140625,0.1220703125,-2.655029296875
0.6324999,0.45429977774620056,-0.3663128614425659,9.882067680358887,3.2958984375,-2.50244140625,2.166748046875
0.6374999,0.3603273630142212,-0.4129997789859772,9.715071678161621,-7.232666015625,-0.8544921875,-0.701904296875
0.6424999,0.5560533404350281,-0.47465047240257263,9.585186958312988,2.899169921875,0.030517578125,-1.922607421875
0.6474999,0.6093243360519409,-0.3878606855869293,9.903017044067383,1.739501953125,-2.227783203125,2.3193359375
0.6524999,0.6153098344802856,-0.535702645778656,9.670180320739746,-5.462646484375,1.3427734375,-1.678466796875
0.6574999,0.7511807680130005,-0.49559974670410156,9.6618013381958,5.92041015625,1.3427734375,-0.946044921875
0.6624999,0.6823474764823914,-0.4495113790035248,9.980828285217285,-0.579833984375,-0.701904296875,1.953125
0.6674999,0.669179379940033,-0.585382342338562,9.720458984375,-3.448486328125,2.227783203125,-2.38037109375
0.6724999,0.6901286244392395,-0.48602294921875,9.848548889160156,6.317138671875,0.213623046875,0.3662109375
0.6774999,0.5159504413604736,-0.5404910445213318,9.698312759399414,-2.0751953125,1.312255859375,-2.9296875
0.6824999,0.5596446394920349,-0.4321534037590027,9.928155899047852,5.462646484375,-1.617431640625,1.312255859375
0.6874999,0.4596867263317108,-0.4554968774318695,9.925163269042969,-5.889892578125,-0.823974609375,0.54931640625
0.6924999000000001,0.4967968463897705,-0.5165489912033081,9.566033363342285,0.701904296875,1.15966796875,-2.532958984375
0.6974999000000001,0.5931634902954102,-0.44771572947502136,9.898826599121094,4.08935546875,-1.40380859375,1.953125
0.7024999000000001,0.4842272996902466,-0.5123591423034668,9.740211486816406,-6.256103515625,0.823974609375,-0.640869140625
0.7074999,0.6362590789794922,-0.5512649416923523,9.586383819580078,3.60107421875,1.373291015625,-1.953125
0.7124999,0.641047477722168,-0.40701428055763245,9.886856079101562,2.410888671875,-1.312255859375,2.349853515625
0.7174999,0.569819986820221,-0.49559974670410156,9.665990829467773,-5.79833984375,1.0986328125,-1.46484375
0.7224999,0.6721721291542053,-0.4321534037590027,9.601945877075195,5.523681640625,0.30517578125,-1.251220703125
0.7274999,0.5889736413955688,-0.3579331636428833,9.938929557800293,-0.579833984375,-1.190185546875,2.166748046875
0.7324999,0.5692214369773865,-0.4818331003189087,9.70429801940918,-4.669189453125,1.15966796875,-2.13623046875
0.7374999,0.5823895931243896,-0.42377370595932007,10.055646896362305,-3.23486328125,-1.251220703125,1.495361328125
0.7424999,0.585382342338562,-0.5692214369773865,9.701904296875,-3.021240234375,1.190185546875,-2.532958984375
0.7474999,0.6422445774078369,-0.497395396232605,9.84495735168457,5.859375,-0.885009765625,0.823974609375
0.7524999,0.5650315880775452,-0.5500678420066833,9.942521095275879,-4.2724609375,-0.6103515625,0.54931640625
0.7574999,0.5422866940498352,-0.5913678407669067,9.588179588317871,-0.152587890625,1.739501953125,-2.5634765625
0.7624999,0.619499683380127,-0.47884035110473633,9.9000244140625,5.584716796875,-1.3427734375,1.678466796875
0.7674999,0.47405192255973816,-0.47225627303123474,9.843161582946777,-5.767822265625,0.213623046875,-0.091552734375
0.7724999,0.5410895943641663,-0.47465047240257263,9.564835548400879,1.983642578125,1.312255859375,-2.38037109375
0.7774999,0.5793967843055725,-0.38127660751342773,9.874884605407715,3.72314453125,-1.861572265625,2.13623046875
0.7824999,0.4776432514190674,-0.43275195360183716,9.707889556884766,-5.859375,0.213623046875,-1.03759765625
0.7874999,0.6189011335372925,-0.4770447015762329,9.576208114624023,3.753662109375,0.579833984375,-2.01416015625
0.7924999,0.6153098344802856,-0.3597288131713867,9.8970308303833,1.15966796875,-1.52587890625,2.25830078125
0.7974999,0.6009446382522583,-0.5171475410461426,9.841365814208984,4.974365234375,0.3662109375,-0.946044921875
0.8024999,0.52552729845047,-1.0857704877853394,10.023923873901367,4.45556640625,-1.8310546875,-2.593994140625
0.8074999,0.6392518281936646,-1.2186486721038818,9.822811126708984,17.15087890625,4.791259765625,-16.998291015625
0.8124999,0.7835025191307068,-1.0720038414001465,9.812037467956543,27.740478515625,12.725830078125,4.69970703125
0.8174999000000001,0.9062053561210632,-0.8954314589500427,9.38167953491211,13.36669921875,12.75634765625,13.641357421875
0.8224999000000001,0.5081692934036255,-0.3705027103424072,8.752602577209473,35.58349609375,11.474609375,-7.598876953125
0.8274999000000001,0.5937620401382446,0.262763649225235,7.8056960105896,41.748046875,6.591796875,9.8876953125
0.8324999000000001,0.31184476613998413,0.5363011956214905,7.091026782989502,25.69580078125,7.9345703125,3.814697265625
0.8374999,0.017956512048840523,1.4628572463989258,5.847837448120117,4.119873046875,7.598876953125,8.453369140625
0.8424999,0.1711854189634323,2.345120668411255,6.122572422027588,31.31103515625,-1.190185546875,-0.1220703125
0.8474999,-0.49619829654693604,2.8455088138580322,5.686229228973389,36.1328125,2.593994140625,-3.60107421875
0.8524999,-0.3645172119140625,3.250727415084839,5.942408561706543,3.7841796875,5.126953125,33.294677734375
0.8574999,0.10115502029657364,2.93349552154541,5.571307182312012,-26.0009765625,5.096435546875,9.368896484375
0.8624999,0.8960300087928772,2.6455929279327393,6.036979675292969,-20.172119140625,-5.401611328125,-1.495361328125
0.8674999,1.0247182846069336,2.692279815673828,6.531980991363525,-48.095703125,-6.195068359375,0.6103515625
0.8724999,1.2300211191177368,2.587533473968506,7.482479095458984,-63.232421875,-2.74658203125,10.894775390625
0.8774999,0.9235633015632629,2.203263998031616,9.162610054016113,-53.375244140625,-17.15087890625,-3.11279296875
0.8824999,0.42018240690231323,1.0468647480010986,10.202890396118164,-52.215576171875,-29.1748046875,-9.552001953125
0.8874999,0.0454898327589035,-0.6117185354232788,11.417349815368652,-25.726318359375,-31.768798828125,0
0.8924999,-0.1562216579914093,-2.5486276149749756,11.68190860748291,-13.00048828125,-20.08056640625,2.38037109375
0.8974999,0.14604631066322327,-3.9689879417419434,11.098321914672852,9.765625,-10.406494140625,-0.42724609375
0.9024999,0.7212532758712769,-4.316147327423096,10.58656120300293,16.815185546875,-2.44140625,3.84521484375
0.9074999,1.3856441974639893,-3.9707834720611572,9.783307075500488,10.25390625,11.23046875,-4.150390625
0.9124999,2.0213048458099365,-1.2773065567016602,9.889249801635742,7.8125,19.4091796875,2.044677734375
0.9174999,1.7118542194366455,-0.08080431073904037,9.586981773376465,9.1552734375,21.1181640625,-2.410888671875
0.9224999,1.0869675874710083,0.7595604658126831,9.841964721679688,6.561279296875,11.71875,2.838134765625
0.9274999,0.23044191300868988,0.933738648891449,9.536105155944824,-6.744384765625,5.31005859375,-3.662109375
0.9324999,-0.23283611238002777,0.8182184100151062,9.464279174804688,2.99072265625,-1.8310546875,-2.9296875
0.9374999,-0.6320692300796509,0.5159504413604736,9.803058624267578,-7.476806640625,-9.58251953125,1.8310546875
0.9424999000000001,-0.6302735805511475,-0.0077811554074287415,9.527127265930176,-6.53076171875,-9.21630859375,-1.5869140625
0.9474999000000001,-0.25677812099456787,-0.26815059781074524,9.929951667785645,0.91552734375,-12.20703125,2.899169921875
0.9524999000000001,0.05446808785200119,-0.5764040350914001,9.834781646728516,-11.65771484375,-8.4228515625,-1.15966796875
0.9574999000000001,0.6967126727104187,-0.7775170207023621,9.697713851928711,2.25830078125,-3.631591796875,-1.495361328125
0.9624999,1.0456676483154297,-0.7547720670700073,10.054450035095215,-0.79345703125,-2.105712890625,2.899169921875
0.9674999,1.2749123573303223,-0.9768342971801758,9.696516990661621,-3.387451171875,4.791259765625,-3.11279296875
0.9724999,1.0851719379425049,-0.8259995579719543,9.960477828979492,-2.410888671875,4.241943359375,0.518798828125
0.9774999,0.882861852645874,-0.7481880187988281,9.605537414550781,5.55419921875,5.859375,-2.5634765625
0.9824999,0.6165069341659546,-0.39624038338661194,9.950302124023438,4.730224609375,1.007080078125,2.9296875
0.9874999,0.33099839091300964,-0.34835633635520935,9.700108528137207,-6.2255859375,1.220703125,-2.197265625
0.9924999,0.33937808871269226,-0.16879121959209442,9.673771858215332,4.913330078125,-0.6103515625,-0.396728515625
0.9974999,0.21966800093650818,-0.12509703636169434,10.001777648925781,-5.55419921875,-4.2724609375,1.8310546875
1.0024999,0.2495955228805542,-0.2968810200691223,9.64564037322998,-4.180908203125,-1.89208984375,-3.143310546875
1.0074999000000002,0.43095630407333374,-0.33997663855552673,9.991601943969727,4.730224609375,-4.547119140625,1.861572265625
1.0124999000000001,0.4106055796146393,-0.4878185987472534,9.856928825378418,-7.6904296875,-1.953125,-0.8544921875
1.0174999000000002,0.6937199234962463,-0.6344634294509888,9.618106842041016,4.608154296875,0.823974609375,-1.8310546875
1.0224999000000001,0.7793126702308655,-0.5345055460929871,9.941922187805176,1.52587890625,-0.823974609375,2.593994140625
1.0274999,0.828393816947937,-0.6919242739677429,9.584588050842285,-4.364013671875,3.509521484375,-2.593994140625
1.0324999000000001,0.7571662664413452,-0.5339069962501526,9.946112632751465,-4.241943359375,0.732421875,1.03759765625
1.0374999,0.6111199855804443,-0.5309142470359802,9.554061889648438,0.701904296875,2.50244140625,-2.99072265625
1.0424999000000001,0.5674257874488831,-0.3884592354297638,9.95748519897461,4.69970703125,-2.01416015625,2.44140625
1.0474999,0.5674257874488831,-0.3884592354297638,9.95748519897461,4.69970703125,-2.01416015625,2.44140625
1.0524999000000002,0.31364041566848755,-0.40222588181495667,9.733028411865234,-7.720947265625,-0.946044921875,-1.220703125
1.0574999,0.45669397711753845,-0.3974374830722809,9.607931137084961,4.2724609375,-0.335693359375,-1.434326171875
1.0624999000000002,0.42377370595932007,-0.3214215636253357,9.953893661499023,-1.495361328125,-3.143310546875,2.3193359375
1.0674999,0.5063736438751221,-0.5201402902603149,9.61331844329834,-4.7607421875,0.457763671875,-2.74658203125
1.0724999000000002,0.6655880808830261,-0.46507367491722107,9.825204849243164,6.8359375,-1.0986328125,0.823974609375
1.0774999,0.6290764808654785,-0.547075092792511,9.967659950256348,-5.2490234375,-0.6103515625,0.42724609375
1.0824999000000002,0.6607996821403503,-0.6248866319656372,9.595361709594727,2.01416015625,2.5634765625,-2.62451171875
1.0874999,0.7092822790145874,-0.47824180126190186,9.955090522766113,4.425048828125,-0.30517578125,2.655029296875
1.0924999000000002,0.5979518890380859,-0.38307225704193115,9.822811126708984,6.28662109375,-1.373291015625,1.068115234375
1.0974999,0.5027823448181152,-0.4465186297893524,9.939528465270996,-6.561279296875,-1.373291015625,0.518798828125
1.1024999000000002,0.5333084464073181,-0.5183446407318115,9.57321548461914,0.457763671875,1.129150390625,-2.50244140625
1.1074999,0.6171054840087891,-0.42018240690231323,9.944915771484375,3.814697265625,-2.13623046875,2.532958984375
1.1124999000000002,0.4866214990615845,-0.5195417404174805,9.706692695617676,-6.500244140625,0.6103515625,-1.40380859375
1.1174999,0.669179379940033,-0.5099649429321289,9.609128952026367,6.28662109375,0.823974609375,-1.220703125
1.1224999000000002,0.5153518915176392,-0.5207388401031494,9.556455612182617,0.42724609375,1.3427734375,-2.777099609375
1.1274999,0.5776011347770691,-0.40880993008613586,9.948506355285645,4.0283203125,-2.13623046875,2.0751953125
1.1324999000000002,0.40462008118629456,-0.4704606235027313,9.747393608093262,-7.232666015625,0.213623046875,-0.9765625
1.1374999000000001,0.5722141861915588,-0.47405192255973816,9.608530044555664,4.33349609375,1.190185546875,-1.3427734375
1.1424999000000002,0.545877993106842,-0.36990416049957275,9.9586820602417,0.457763671875,-2.01416015625,2.197265625
1.1474999000000001,0.578798234462738,-0.5105634927749634,9.675567626953125,-4.913330078125,1.46484375,-2.8076171875
1.1524999000000002,0.689530074596405,-0.4465186297893524,9.747992515563965,6.8359375,0.1220703125,0.396728515625
1.1574999000000001,0.6302735805511475,-0.47884035110473633,10.025120735168457,-3.90625,-0.8544921875,1.312255859375
1.1624999,0.5823895931243896,-0.585382342338562,9.616909980773926,-0.885009765625,1.953125,-3.0517578125
1.1674999000000001,0.6428431272506714,-0.4836287498474121,9.961674690246582,6.16455078125,-1.64794921875,1.739501953125
1.1724999,0.45489832758903503,-0.536899745464325,9.85034465789795,-6.439208984375,-0.274658203125,-0.457763671875
1.1774999000000002,0.5781996846199036,-0.545877993106842,9.5809965133667,3.082275390625,1.068115234375,-2.0751953125
1.1824999,0.5237316489219666,-0.4836287498474121,9.59057331085205,-6.53076171875,0.946044921875,-2.044677734375
1.1874999000000002,0.6607996821403503,-0.4082113802433014,9.59715747833252,5.889892578125,0.18310546875,-0.579833984375
1.1924999,0.595557689666748,-0.38486793637275696,9.940725326538086,-1.922607421875,-1.5869140625,1.953125
1.1974999000000002,0.618302583694458,-0.5578489899635315,9.662399291992188,-3.448486328125,1.678466796875,-2.777099609375
1.2024999,0.6033388376235962,-0.5333084464073181,9.997588157653809,-5.31005859375,-0.579833984375,0.640869140625
1.2074999000000002,0.6033388376235962,-0.5333084464073181,9.997588157653809,-5.31005859375,-0.579833984375,0.640869140625
1.2124999,0.5668272376060486,-0.5536591410636902,9.595361709594727,0.457763671875,1.89208984375,-2.716064453125
1.2174999000000002,0.6117185354232788,-0.4537012279033661,9.953893661499023,4.638671875,-1.52587890625,2.13623046875
1.2224999,0.4339490532875061,-0.48901569843292236,9.752182006835938,-7.01904296875,0.3662109375,-0.823974609375
1.2274999000000002,0.558447539806366,-0.49799394607543945,9.5809965133667,3.96728515625,1.03759765625,-1.617431640625
1.2324999,0.5404910445213318,-0.3711012601852417,9.909601211547852,0.91552734375,-1.983642578125,2.227783203125
1.2374999000000002,0.5380968451499939,-0.46627077460289,9.659406661987305,-5.615234375,1.007080078125,-2.227783203125
1.2424999,0.6129156351089478,-0.5392939448356628,9.711481094360352,-2.685546875,1.861572265625,-3.021240234375
1.2474999000000002,0.6667851805686951,-0.45848962664604187,9.90241813659668,6.683349609375,-1.03759765625,0.885009765625
1.2524999,0.5578489899635315,-0.5345055460929871,9.965266227722168,-5.31005859375,-0.42724609375,0.6103515625
1.2574999000000002,0.45190557837486267,-0.7398083209991455,9.667187690734863,1.007080078125,1.64794921875,-2.410888671875
1.2624999000000001,0.5057750940322876,-0.8966285586357117,9.843161582946777,14.6484375,-4.0283203125,8.056640625
1.2674999000000002,0.36092591285705566,-0.8990227580070496,9.636063575744629,5.43212890625,1.5869140625,-0.42724609375
1.2724999000000001,0.47225627303123474,-0.9319429993629456,9.170391082763672,17.578125,4.730224609375,-5.18798828125
1.2774999000000002,0.761954665184021,0.14006079733371735,9.351153373718262,19.34814453125,5.31005859375,5.706787109375
1.2824999000000001,0.6027402877807617,0.14844051003456116,8.928576469421387,3.5400390625,9.918212890625,5.218505859375
1.2874999,0.8433575630187988,1.0324994325637817,8.903437614440918,35.491943359375,5.79833984375,5.7373046875
1.2924999000000001,0.6859387755393982,1.2348095178604126,9.355342864990234,15.533447265625,5.2490234375,11.77978515625
1.2974999,0.7487865686416626,1.4873977899551392,9.081805229187012,36.865234375,-1.861572265625,9.82666015625
1.3024999000000002,0.243011474609375,0.6021417379379272,7.981071472167969,-1.46484375,1.495361328125,15.045166015625
1.3074999,0.6985083222389221,1.8507179021835327,7.434594631195068,45.623779296875,3.997802734375,18.98193359375
1.3124999000000002,0.5776011347770691,1.9979612827301025,6.6355299949646,-1.0986328125,6.103515625,31.707763671875
1.3174999,0.292691171169281,2.713827610015869,5.832873821258545,-6.866455078125,-0.79345703125,9.46044921875
1.3224999000000002,0.8960300087928772,3.094505786895752,6.779181957244873,40.557861328125,-2.838134765625,-0.640869140625
1.3274999,0.727837324142456,3.2842462062835693,6.517615795135498,-2.044677734375,9.6435546875,23.590087890625
1.3324999000000002,1.2874820232391357,3.184288263320923,6.916848659515381,-63.201904296875,0.244140625,39.61181640625
1.3374999,1.2701239585876465,3.162740468978882,7.244256019592285,-26.4892578125,-7.843017578125,-1.40380859375
1.3424999000000002,1.0438719987869263,2.73537540435791,6.930016994476318,-43.914794921875,0.091552734375,-10.31494140625
1.3474999,0.7332242727279663,2.1302409172058105,8.218097686767578,-56.915283203125,-9.521484375,-6.866455078125
1.3524999000000002,0.2214636504650116,1.028908133506775,9.469067573547363,-56.121826171875,-25.299072265625,-10.55908203125
1.3574999,-0.0999579206109047,-1.8525135517120361,11.600505828857422,-11.16943359375,-15.31982421875,-1.3427734375
1.3624999000000002,0.13048399984836578,-3.3638534545898438,11.179126739501953,6.16455078125,-8.056640625,-2.99072265625
1.3674999,0.7380126714706421,-3.8815994262695312,10.721834182739258,17.7001953125,-0.3662109375,2.01416015625
1.3724999000000002,1.1581950187683105,-3.691859006881714,9.843161582946777,5.401611328125,8.453369140625,-2.593994140625
1.3774999,1.7363947629928589,-2.713827610015869,9.595361709594727,19.989013671875,14.6484375,-1.5869140625
1.3824999000000002,1.7076643705368042,-1.4065934419631958,9.857526779174805,7.781982421875,16.082763671875,1.40380859375
1.3874999000000001,1.4718354940414429,-0.2932897210121155,9.594164848327637,6.805419921875,17.63916015625,-3.814697265625
1.3924999000000002,1.0031704902648926,0.5249287486076355,9.921571731567383,6.683349609375,10.986328125,3.90625
1.3974999000000001,0.2998737692832947,0.7655459642410278,9.609128952026367,-7.2021484375,5.67626953125,-3.5400390625
1.4024999000000002,-0.060453593730926514,0.6973112225532532,9.516951560974121,4.058837890625,-1.40380859375,-2.74658203125
1.4074999000000001,-0.4339490532875061,0.4321534037590027,9.809642791748047,-8.1787109375,-8.60595703125,0.885009765625
1.4124999,-0.4315548539161682,-0.04369417950510979,9.460687637329102,-3.570556640625,-8.4228515625,-2.227783203125
1.4174999000000001,0.12868833541870117,-0.5949591398239136,9.70310115814209,-10.833740234375,-6.4697265625,-2.410888671875
1.4224999,0.6931213736534119,-0.6631938815116882,9.725247383117676,4.669189453125,-3.0517578125,0.06103515625
1.4274999000000002,0.9666589498519897,-0.729034423828125,10.0580415725708,-5.828857421875,-1.5869140625,1.46484375
1.4324999,1.161187767982483,-0.8678981065750122,9.653421401977539,1.40380859375,4.82177734375,-3.265380859375
1.4374999000000002,1.1917139291763306,-0.7032967209815979,10.035296440124512,6.561279296875,2.471923828125,2.838134765625
1.4424999,0.9319429993629456,-0.7930793166160583,9.746196746826172,-4.08935546875,5.0048828125,-2.532958984375
1.4474999000000002,0.8559271097183228,-0.6189011335372925,9.701305389404297,10.31494140625,3.7841796875,-0.030517578125
1.4524999,0.5476736426353455,-0.5063736438751221,9.96945571899414,-3.41796875,0.79345703125,1.64794921875
1.4574999000000002,0.3944447338581085,-0.4159925580024719,9.53969669342041,0.457763671875,2.197265625,-3.35693359375
1.4624999,0.3429693877696991,-0.21547815203666687,9.919178009033203,3.23486328125,-2.74658203125,2.960205078125
1.4674999000000002,0.2059013396501541,-0.2346317619085312,9.6989107131958,-8.97216796875,-1.89208984375,-2.166748046875
1.4724999,0.40521863102912903,-0.25977087020874023,9.64564037322998,4.913330078125,-1.922607421875,-0.152587890625
1.4774999000000002,0.5195417404174805,-0.5632359385490417,9.570222854614258,-1.15966796875,0.518798828125,-3.387451171875
1.4824999,0.6997054219245911,-0.5422866940498352,9.985017776489258,5.7373046875,-1.739501953125,2.471923828125
1.4874999000000002,0.6045359373092651,-0.6829460263252258,9.747393608093262,-6.8359375,1.28173828125,-1.89208984375
1.4924999,0.823006808757782,-0.6302735805511475,9.667187690734863,7.9345703125,2.62451171875,-0.79345703125
1.4974999000000002,0.7158663272857666,-0.5285200476646423,10.002974510192871,-1.739501953125,0.335693359375,2.3193359375
1.5024999,0.6572083830833435,-0.5608417391777039,9.599552154541016,-1.312255859375,3.326416015625,-3.41796875
1.5074999000000002,0.6661866307258606,-0.40222588181495667,9.967061996459961,6.40869140625,-0.640869140625,2.197265625
1.5124999000000001,0.40462008118629456,-0.4357447028160095,9.808445930480957,-7.720947265625,-0.6103515625,-1.251220703125
1.5174999000000002,0.5195417404174805,-0.43095630407333374,9.628880500793457,4.852294921875,-0.091552734375,-1.5869140625
1.5224999000000001,0.4207809567451477,-0.353743314743042,9.972448348999023,-2.044677734375,-3.326416015625,2.716064453125
1.5274999000000002,0.436343252658844,-0.4842272996902466,9.575610160827637,-4.669189453125,0.640869140625,-3.35693359375
1.5324999000000001,0.5907692909240723,-0.43694180250167847,9.889848709106445,6.04248046875,-1.15966796875,1.708984375
1.5374999000000003,0.6308721303939819,-0.46806642413139343,9.974244117736816,1.8310546875,-1.220703125,2.716064453125
1.5424999000000001,0.6326677799224854,-0.606930136680603,9.619902610778809,-5.4931640625,2.471923828125,-2.685546875
1.5474999,0.7326257228851318,-0.4531026780605316,9.718064308166504,7.568359375,0.946044921875,0.8544921875
1.5524999000000002,0.6356605291366577,-0.46627077460289,9.947309494018555,-5.126953125,-0.79345703125,0.91552734375
1.5574999,0.6087257862091064,-0.4884171485900879,9.55705451965332,1.007080078125,1.708984375,-3.021240234375
1.5624999000000002,0.629675030708313,-0.35254621505737305,9.975440979003906,3.35693359375,-2.25830078125,2.777099609375
1.5674999,0.47225627303123474,-0.45010992884635925,9.730634689331055,-7.75146484375,0.152587890625,-2.01416015625
1.5724999000000002,0.6212953329086304,-0.42197805643081665,9.683947563171387,5.79833984375,0.152587890625,-0.244140625
1.5774999,0.5446808934211731,-0.4106055796146393,10.027515411376953,-3.47900390625,-2.227783203125,2.044677734375
1.5824999000000002,0.5518634915351868,-0.5614402890205383,9.653421401977539,-2.227783203125,2.044677734375,-3.326416015625
1.5874999,0.657806932926178,-0.49140989780426025,10.017938613891602,6.988525390625,-1.190185546875,1.953125
1.5924999000000002,0.656609833240509,-0.5919663906097412,9.665990829467773,4.791259765625,1.556396484375,-2.01416015625
1.5974999,0.6129156351089478,-0.44532153010368347,10.00716495513916,0.42724609375,-1.495361328125,2.655029296875
1.6024999000000002,0.6117185354232788,-0.5770025849342346,9.617507934570312,-5.279541015625,1.708984375,-2.86865234375
1.6074999,0.6925228238105774,-0.424970805644989,9.743802070617676,7.01904296875,-0.579833984375,0.67138671875
1.6124999000000002,0.6111199855804443,-0.46627077460289,9.946112632751465,-5.92041015625,-1.495361328125,0.79345703125
1.6174999,0.5835866928100586,-0.4950011968612671,9.547477722167969,0.762939453125,1.678466796875,-2.8076171875
1.6224999000000002,0.6386532783508301,-0.38726213574409485,9.943120002746582,4.058837890625,-1.739501953125,2.50244140625
1.6274999,0.4644751250743866,-0.47644615173339844,9.68813705444336,-7.38525390625,0.213623046875,-1.77001953125
1.6324999000000002,0.6374561786651611,-0.46567222476005554,9.61331844329834,6.103515625,0.54931640625,-0.9765625
1.6374999000000001,0.557250440120697,-0.42616790533065796,9.940725326538086,-1.708984375,-1.5869140625,2.25830078125
1.6424999000000002,0.5734112858772278,-0.558447539806366,9.59715747833252,-3.11279296875,2.01416015625,-3.173828125
1.6474999000000001,0.6751648783683777,-0.46986207365989685,9.892841339111328,6.988525390625,-0.54931640625,1.373291015625
1.6524999000000002,0.49619829654693604,-0.48482584953308105,9.673771858215332,-6.683349609375,1.190185546875,-2.25830078125
1.6574999000000001,0.6260837316513062,-0.4100070297718048,9.66419506072998,6.561279296875,0.06103515625,-0.213623046875
1.6624999000000003,0.5548562407493591,-0.39205053448677063,10.019135475158691,-3.082275390625,-1.922607421875,1.739501953125
1.6674999000000001,0.5548562407493591,-0.5135562419891357,9.660005569458008,-2.25830078125,1.739501953125,-2.99072265625
1.6724999,0.6434416770935059,-0.46088382601737976,10.020332336425781,6.317138671875,-1.190185546875,1.922607421875
1.6774999000000002,0.49140989780426025,-0.5285200476646423,9.935338973999023,-6.561279296875,-0.213623046875,-0.396728515625
1.6824999,0.6224924325942993,-0.5776011347770691,9.641449928283691,3.35693359375,1.52587890625,-2.3193359375
1.6874999000000002,0.5961562395095825,-0.44412440061569214,9.91738224029541,2.349853515625,-1.800537109375,2.685546875
1.6924999,0.5638344883918762,-0.5003881454467773,9.622296333312988,-6.072998046875,1.3427734375,-2.3193359375
1.6974999000000002,0.667982280254364,-0.4255693554878235,9.62828254699707,6.683349609375,-0.213623046875,-0.30517578125
1.7024999,0.5380968451499939,-0.507570743560791,9.61212158203125,-1.953125,1.800537109375,-2.86865234375
1.7074999000000002,0.6033388376235962,-0.4596867263317108,9.95748519897461,6.2255859375,-1.46484375,1.64794921875
1.7124999,0.6033388376235962,-0.4596867263317108,9.95748519897461,6.2255859375,-1.46484375,1.64794921875
1.7174999000000002,0.43933600187301636,-0.497395396232605,9.890447616577148,-6.65283203125,-0.518798828125,-0.30517578125
1.7224999,0.5680243372917175,-0.5596446394920349,9.606135368347168,3.11279296875,1.3427734375,-2.105712890625
1.7274999000000002,0.5560533404350281,-0.40043023228645325,9.899425506591797,2.532958984375,-1.64794921875,2.655029296875
1.7324999,0.5267243981361389,-0.5057750940322876,9.616909980773926,-6.40869140625,1.220703125,-2.288818359375
1.7374999000000002,0.6643909811973572,-0.424970805644989,9.630077362060547,6.53076171875,0.152587890625,-0.3662109375
1.7424999,0.5841852426528931,-0.40462008118629456,9.966463088989258,-2.38037109375,-1.5869140625,1.77001953125
1.7474999000000002,0.5793967843055725,-0.5285200476646423,9.641449928283691,-2.50244140625,1.953125,-2.99072265625
1.7524999,0.645237386226654,-0.46507367491722107,9.92097282409668,6.317138671875,-0.946044921875,1.495361328125
1.7574999000000002,0.4866214990615845,-0.517746090888977,9.926959037780762,-5.859375,-0.640869140625,-0.030517578125
1.7624999000000001,0.52552729845047,-0.5488707423210144,9.80904483795166,1.0986328125,-2.99072265625,4.608154296875
1.7674999000000002,0.5632359385490417,-0.8451532125473022,9.459490776062012,2.62451171875,-0.1220703125,1.739501953125
1.7724999000000001,0.6165069341659546,-0.829590916633606,9.651026725769043,8.209228515625,-1.800537109375,-4.69970703125
1.7774999000000002,0.596754789352417,-1.434126853942871,9.470264434814453,13.031005859375,-0.18310546875,3.753662109375
1.7824999000000001,0.8990227580070496,-1.0127472877502441,9.01895809173584,66.375732421875,11.688232421875,3.692626953125
1.7874999000000003,0.8451532125473022,-0.28550854325294495,8.38688850402832,-9.063720703125,11.138916015625,26.0009765625
1.7924999000000001,0.8236053586006165,0.3130418658256531,7.398083209991455,0.518798828125,-0.274658203125,-4.364013671875
1.7974999,0.871489405632019,1.5711948871612549,6.833051681518555,42.05322265625,9.613037109375,-26.947021484375
1.8024999000000002,0.6901286244392395,2.0272903442382812,7.943961143493652,-18.1884765625,6.683349609375,4.364013671875
1.8074999,0.36332011222839355,2.363675594329834,8.506000518798828,-38.4521484375,-6.500244140625,-10.467529296875
1.8124999000000002,0.07781155407428741,1.9231425523757935,8.930971145629883,-31.1279296875,-14.46533203125,-3.814697265625
1.8174999,-0.3489548861980438,0.7691373229026794,9.750386238098145,-27.40478515625,-19.10400390625,3.47900390625
1.8224999000000002,-0.5416881442070007,-1.0001777410507202,10.032901763916016,-16.845703125,-22.430419921875,-3.662109375
1.8274999,-0.2908954918384552,-2.1362264156341553,10.477624893188477,1.251220703125,-20.965576171875,-0.67138671875
1.8324999000000002,0.07481880486011505,-2.873640537261963,10.557232856750488,-1.739501953125,-11.383056640625,-0.06103515625
1.8374999,0.8954314589500427,-2.9532477855682373,10.096348762512207,11.962890625,-0.274658203125,-0.91552734375
1.8424999000000002,1.900996208190918,-1.48081374168396,9.838972091674805,1.129150390625,13.885498046875,-3.204345703125
1.8474999,1.900996208190918,-1.48081374168396,9.838972091674805,1.129150390625,13.885498046875,-3.204345703125
1.8524999000000002,1.9518729448318481,-0.5482721924781799,9.81263542175293,12.3291015625,15.44189453125,-1.220703125
1.8574999,0.21787235140800476,0.22744916379451752,9.77791976928711,5.157470703125,0,0.91552734375
1.8624999000000002,-0.345363587141037,0.04429273307323456,9.542689323425293,-7.568359375,-3.753662109375,-2.838134765625
1.8674999,-0.2867056429386139,-0.08259996026754379,9.480440139770508,4.2724609375,-5.706787109375,-0.1220703125
1.8724999000000002,-0.2041056901216507,-0.1562216579914093,9.86111831665039,-5.462646484375,-8.575439453125,3.387451171875
1.8774999,0.10893617570400238,-0.3405751883983612,9.576208114624023,-7.720947265625,-4.486083984375,-3.448486328125
1.8824999000000002,0.5817909836769104,-0.40521863102912903,9.940725326538086,3.2958984375,-4.302978515625,1.15966796875
1.8874999000000001,0.7134721279144287,-0.5668272376060486,9.95748519897461,-8.148193359375,-1.52587890625,-0.1220703125
1.8924999000000002,1.01753568649292,-0.7846996188163757,9.682151794433594,3.875732421875,2.655029296875,-2.105712890625
1.8974999000000001,1.0271124839782715,-0.7308300733566284,9.987412452697754,4.21142578125,0.823974609375,2.44140625
1.9024999000000002,0.9385270476341248,-0.8571242094039917,9.672574996948242,-3.41796875,4.486083984375,-2.777099609375
1.9074999000000001,0.9163807034492493,-0.6661866307258606,9.685144424438477,9.46044921875,3.448486328125,0.213623046875
1.9124999000000003,0.7164648771286011,-0.4812345504760742,9.805453300476074,7.110595703125,-0.732421875,0.762939453125
1.9174999000000001,0.7356184720993042,-0.569819986820221,9.976638793945312,-5.401611328125,0.213623046875,0.946044921875
1.9224999,0.7679402232170105,-0.619499683380127,9.57201862335205,1.739501953125,3.509521484375,-2.62451171875
1.9274999000000002,0.7942764163017273,-0.49619829654693604,9.944915771484375,4.7607421875,0.1220703125,2.471923828125
1.9324999,0.5560533404350281,-0.5578489899635315,9.699509620666504,-6.195068359375,2.01416015625,-1.739501953125
1.9374999000000002,0.6380547285079956,-0.47824180126190186,9.603142738342285,6.4697265625,1.46484375,-1.03759765625
1.9424999,0.4620809257030487,-0.47644615173339844,9.597756385803223,-4.425048828125,0.8544921875,-3.082275390625
1.9474999000000002,0.5500678420066833,-0.3734954595565796,9.847352027893066,6.103515625,-2.044677734375,1.190185546875
1.9524999,0.45669397711753845,-0.43933600187301636,9.944316864013672,-6.805419921875,-2.0751953125,0.48828125
1.9574999000000002,0.5327098965644836,-0.5057750940322876,9.602544784545898,1.129150390625,1.007080078125,-2.655029296875
1.9624999,0.608127236366272,-0.4279635548591614,9.94970417022705,3.509521484375,-1.953125,2.62451171875
1.9674999000000002,0.5111620426177979,-0.536899745464325,9.686341285705566,-6.683349609375,1.0986328125,-1.708984375
1.9724999,0.6991068720817566,-0.5117605924606323,9.617507934570312,6.378173828125,1.40380859375,-0.885009765625
1.9774999000000002,0.6278793811798096,-0.4572925269603729,9.954492568969727,-1.068115234375,-0.79345703125,2.288818359375
1.9824999,0.628477931022644,-0.5632359385490417,9.621698379516602,-3.35693359375,2.655029296875,-2.899169921875
1.9874999000000002,0.6805518269538879,-0.43933600187301636,9.867103576660156,7.2021484375,-0.396728515625,1.068115234375
1.9924999,0.5321113467216492,-0.47225627303123474,9.948506355285645,-6.072998046875,-0.579833984375,0.6103515625
1.9974999000000002,0.5111620426177979,-0.4866214990615845,9.585186958312988,1.007080078125,1.190185546875,-2.593994140625
2.0024999,0.3992331326007843,-0.4572925269603729,9.701904296875,-7.476806640625,0,-1.64794921875
2.0074999,0.5793967843055725,-0.4531026780605316,9.59596061706543,5.0048828125,0.640869140625,-0.79345703125
2.0124999000000003,0.5446808934211731,-0.4129997789859772,9.964069366455078,-0.8544921875,-1.8310546875,2.410888671875
2.0174999000000002,0.5919663906097412,-0.5817909836769104,9.636063575744629,-4.45556640625,1.739501953125,-2.960205078125
2.0224999,0.6991068720817566,-0.4944026470184326,9.817423820495605,6.683349609375,0,0.701904296875
2.0274999,0.6374561786651611,-0.5620388388633728,10.004770278930664,-4.791259765625,-0.335693359375,1.0986328125
2.0324999000000004,0.5913678407669067,-0.5644330382347107,9.592967987060547,0.396728515625,2.197265625,-2.5634765625
2.0374999000000003,0.6362590789794922,-0.4620809257030487,9.987412452697754,5.4931640625,-1.8310546875,1.8310546875
2.0424999,0.43095630407333374,-0.4596867263317108,9.791686058044434,-7.01904296875,0.274658203125,-0.91552734375
2.0474999,0.558447539806366,-0.4489128291606903,9.622296333312988,4.119873046875,1.28173828125,-1.556396484375
2.0524999,0.5201402902603149,-0.3423708379268646,9.95748519897461,0.701904296875,-2.349853515625,2.532958984375
2.0574999000000003,0.536899745464325,-0.4471171796321869,9.679757118225098,-5.7373046875,1.068115234375,-2.471923828125
2.0624999,0.6141127347946167,-0.456095427274704,10.056844711303711,-3.47900390625,-1.46484375,1.434326171875
2.0674999,0.5925649404525757,-0.5662286877632141,9.668983459472656,-1.678466796875,1.922607421875,-2.86865234375
2.0724999,0.6643909811973572,-0.5315127968788147,9.987412452697754,6.4697265625,-1.129150390625,1.64794921875
2.0774999000000003,0.4920084476470947,-0.5303156971931458,9.91977596282959,-6.53076171875,0.1220703125,-0.030517578125
2.0824999,0.5764040350914001,-0.5758054852485657,9.593565940856934,2.3193359375,1.922607421875,-2.25830078125
2.0874999,0.5811924338340759,-0.41718965768814087,9.856329917907715,3.265380859375,-1.861572265625,2.3193359375
2.0924999,0.47824180126190186,-0.4818331003189087,9.617507934570312,-6.439208984375,0.885009765625,-1.556396484375
2.0974999000000003,0.6278793811798096,-0.4345476031303406,9.556455612182617,5.706787109375,0.67138671875,-0.885009765625
2.1024999,0.5590460896492004,-0.38067805767059326,9.953893661499023,-0.823974609375,-2.105712890625,1.922607421875
2.1074999,0.5781996846199036,-0.5392939448356628,9.660603523254395,-4.08935546875,1.434326171875,-2.716064453125
2.1124999,0.6667851805686951,-0.46088382601737976,9.848548889160156,6.683349609375,-0.701904296875,0.6103515625
2.1174999000000003,0.596754789352417,-0.52552729845047,10.044873237609863,-4.974365234375,-1.0986328125,1.03759765625
2.1224999,0.6218938827514648,-0.47165772318840027,10.01075553894043,5.2490234375,-1.220703125,1.8310546875
2.1274999,0.4465186297893524,-0.5135562419891357,9.8784761428833,-6.256103515625,-0.06103515625,-0.3662109375
2.1324999,0.5770025849342346,-0.5093663930892944,9.639056205749512,3.5400390625,1.28173828125,-2.105712890625
2.1374999000000003,0.5781996846199036,-0.36152446269989014,9.913790702819824,2.25830078125,-1.64794921875,2.349853515625
2.1424999000000002,0.5249287486076355,-0.46567222476005554,9.645041465759277,-6.28662109375,0.885009765625,-1.77001953125
2.1474999,0.6548141837120056,-0.383670836687088,9.599552154541016,5.55419921875,0.457763671875,-0.640869140625
2.1524999,0.579995334148407,-0.3776853084564209,9.928754806518555,-1.556396484375,-1.678466796875,1.8310546875
2.1574999000000004,0.5859808921813965,-0.5512649416923523,9.620500564575195,-3.84521484375,1.5869140625,-2.8076171875
2.1624999000000003,0.6123170852661133,-0.4854243993759155,9.985017776489258,5.279541015625,-1.251220703125,2.01416015625
2.1674999,0.5722141861915588,-0.5590460896492004,9.618106842041016,3.021240234375,1.40380859375,-2.471923828125
2.1724999,0.6063315868377686,-0.5021837949752808,9.882067680358887,3.448486328125,-0.54931640625,1.678466796875
2.1774999000000004,0.5728127360343933,-0.6470330357551575,9.64564037322998,-2.86865234375,2.716064453125,-2.105712890625
2.1824999000000003,0.7912836670875549,-0.7817068696022034,9.531316757202148,11.77978515625,3.814697265625,-2.471923828125
2.1874999,0.8433575630187988,-0.7966706156730652,9.778518676757812,9.1552734375,5.4931640625,-1.373291015625
2.1924999,0.9235633015632629,-0.5530605912208557,9.644442558288574,4.302978515625,10.19287109375,-4.39453125
2.1974999,0.9576807022094727,-0.21667525172233582,9.66299819946289,9.33837890625,8.9111328125,-0.91552734375
2.2024999000000003,0.6853402256965637,0.33279404044151306,10.059837341308594,-3.143310546875,5.31005859375,4.302978515625
2.2074999,0.2513911724090576,0.4991910457611084,9.680954933166504,-6.7138671875,0.9765625,1.739501953125
2.2124999,-0.22864626348018646,0.4405331015586853,9.910199165344238,-4.547119140625,-10.223388671875,3.173828125
2.2174999,-0.4884171485900879,-0.2585737705230713,9.739013671875,-6.53076171875,-17.39501953125,3.41796875
2.2224999000000003,-0.5542576909065247,-0.6709750294685364,9.469666481018066,20.751953125,-12.20703125,-0.6103515625
2.2274999,0.4255693554878235,-0.5117605924606323,9.585186958312988,10.955810546875,-1.220703125,9.857177734375
2.2324999,1.1025298833847046,0.16759411990642548,8.851364135742188,48.370361328125,10.8642578125,14.7705078125
2.2374999,1.6388310194015503,0.7433996200561523,8.564059257507324,30.94482421875,10.894775390625,27.9541015625
2.2424999000000003,1.5747861862182617,0.1256955862045288,7.04673433303833,41.259765625,17.974853515625,15.68603515625
2.2474999,1.7118542194366455,0.7380126714706421,7.009624004364014,63.17138671875,10.07080078125,30.975341796875
2.2524999,0.7451952695846558,0.5165489912033081,6.452373504638672,51.94091796875,13.97705078125,31.768798828125
2.2574999,0.15562310814857483,1.0534487962722778,6.412869453430176,34.820556640625,6.16455078125,28.717041015625
2.2624999000000003,-0.25258827209472656,1.0109516382217407,6.828263282775879,35.70556640625,-4.2724609375,14.0380859375
2.2674999000000002,-0.5279214978218079,1.692102074623108,6.943184852600098,26.641845703125,-4.241943359375,6.683349609375
2.2724999,0.1843535304069519,1.7232266664505005,7.344812393188477,9.552001953125,-6.072998046875,13.092041015625
2.2774999,0.4800374507904053,2.5528175830841064,7.489062786102295,-21.30126953125,-7.75146484375,3.631591796875
2.2824999000000004,1.1605892181396484,3.2369606494903564,7.204751491546631,-34.454345703125,-0.152587890625,5.584716796875
2.2874999000000003,1.4389152526855469,3.79840087890625,6.774393558502197,-89.9658203125,8.72802734375,0.762939453125
2.2924999,1.3305776119232178,3.377619981765747,7.751227855682373,-102.142333984375,6.65283203125,4.791259765625
2.2974999,0.6967126727104187,2.09672212600708,8.957905769348145,-99.91455078125,-11.962890625,-7.62939453125
2.3024999000000004,0.05626374110579491,0.18076223134994507,11.106701850891113,-46.600341796875,-47.36328125,-12.664794921875
2.3074999000000003,-0.5285200476646423,-2.035670042037964,12.589909553527832,-23.13232421875,-38.543701171875,-11.5966796875
2.3124999,-0.5781996846199036,-4.327519416809082,12.65275764465332,11.3525390625,-14.09912109375,-8.575439453125
2.3174999,0.0017956512747332454,-5.520430564880371,11.616666793823242,22.0947265625,-1.312255859375,3.0517578125
2.3224999,0.9199720025062561,-5.803544998168945,9.744400978088379,17.181396484375,7.110595703125,1.89208984375
2.3274999000000003,1.834557056427002,-4.6070427894592285,8.972869873046875,22.552490234375,15.289306640625,3.387451171875
2.3324999,2.16495680809021,-2.853888511657715,8.999205589294434,8.453369140625,21.05712890625,-3.662109375
2.3374999,2.2008697986602783,-0.9654618501663208,9.347561836242676,17.364501953125,23.4375,-7.26318359375
2.3424999,1.6023194789886475,0.6536170840263367,10.074800491333008,9.490966796875,17.059326171875,2.5634765625
2.3474999000000003,0.17058686912059784,1.5191209316253662,9.892841339111328,4.241943359375,6.927490234375,1.068115234375
2.3524999,0.17058686912059784,1.5191209316253662,9.892841339111328,4.241943359375,6.927490234375,1.068115234375
2.3574999,-0.5847837924957275,1.12467622756958,9.64803409576416,-11.77978515625,-2.99072265625,-3.96728515625
2.3624999,-0.7380126714706421,0.5901707410812378,9.529520988464355,-0.3662109375,-6.805419921875,-2.38037109375
2.3674999000000003,-0.8415619134902954,0.10474632680416107,9.870695114135742,-7.354736328125,-15.594482421875,3.936767578125
2.3724999,-0.5285200476646423,-0.4602852761745453,9.494805335998535,-7.659912109375,-12.39013671875,-2.044677734375
2.3774999,0.03232172131538391,-0.6482301354408264,9.90241813659668,0.518798828125,-12.725830078125,3.692626953125
2.3824999,0.4381389021873474,-0.8517372608184814,9.747393608093262,-11.53564453125,-7.6904296875,-1.40380859375
2.3874999000000003,1.1091139316558838,-0.8834604024887085,9.759963035583496,4.425048828125,-1.77001953125,-1.251220703125
2.3924999000000002,1.3204022645950317,-0.8044517636299133,10.101137161254883,-3.082275390625,0.823974609375,1.983642578125
2.3974999,1.3964180946350098,-0.9145850539207458,9.675567626953125,0.9765625,6.40869140625,-3.509521484375
2.4024999,0.9157821536064148,-0.788889467716217,9.744999885559082,-3.41796875,5.9814453125,-2.44140625
2.4074999000000004,0.243011474609375,-0.10654197633266449,9.881468772888184,3.326416015625,-3.204345703125,2.899169921875
2.4124999000000003,0.10175357013940811,-0.13347674906253815,9.64683723449707,-10.223388671875,-3.326416015625,-1.8310546875
2.4174999,0.3411737382411957,-0.21547815203666687,9.642048835754395,4.913330078125,-3.082275390625,-0.3662109375
2.4224999,0.37888240814208984,-0.3058592677116394,9.987412452697754,-5.706787109375,-4.5166015625,1.922607421875
2.4274999000000004,0.5351040959358215,-0.5847837924957275,9.589376449584961,-1.617431640625,-0.335693359375,-3.387451171875
2.4324999000000003,0.7589619159698486,-0.569819986820221,10.017938613891602,5.523681640625,-1.068115234375,2.74658203125
2.4374999,0.6883329749107361,-0.7266402244567871,9.7605619430542,-6.805419921875,1.77001953125,-1.800537109375
2.4424999,0.900818407535553,-0.6673837304115295,9.733627319335938,8.4228515625,3.631591796875,-0.579833984375
2.4474999,0.7583633661270142,-0.5710170865058899,10.031704902648926,-2.50244140625,1.251220703125,2.0751953125
2.4524999000000003,0.40521863102912903,-0.43275195360183716,9.579200744628906,-3.662109375,-0.1220703125,-3.326416015625
2.4574999,0.5728127360343933,-0.40043023228645325,9.95329475402832,5.79833984375,-1.922607421875,2.25830078125
2.4624999,0.49799394607543945,-0.5153518915176392,9.840767860412598,-7.8125,-0.732421875,-0.946044921875
2.4674999,0.7284358739852905,-0.5895721912384033,9.66419506072998,5.55419921875,1.434326171875,-1.556396484375
2.4724999000000003,0.6865373253822327,-0.5069721937179565,10.017938613891602,-0.54931640625,-0.457763671875,2.716064453125
2.4774999,0.6865373253822327,-0.6206967830657959,9.633070945739746,-3.509521484375,2.716064453125,-3.265380859375
2.4824999,0.7320271730422974,-0.47165772318840027,9.909601211547852,7.843017578125,0.67138671875,1.617431640625
2.4874999,0.5003881454467773,-0.5009866952896118,9.911994934082031,-6.77490234375,-0.030517578125,-0.030517578125
2.4924999000000003,0.456095427274704,-0.3477577865123749,9.974244117736816,0.8544921875,-2.0751953125,2.685546875
2.4974999,0.4537012279033661,-0.48961424827575684,9.63067626953125,-6.40869140625,0.091552734375,-2.86865234375
2.5024999,0.5680243372917175,-0.383670836687088,9.729436874389648,6.77490234375,-0.701904296875,0.9765625
2.5074999,0.5428852438926697,-0.4513070285320282,9.916184425354004,-6.53076171875,-1.5869140625,1.0986328125
2.5124999000000003,0.5901707410812378,-0.5374982953071594,9.527127265930176,0.6103515625,1.28173828125,-2.8076171875
2.5174999000000002,0.6613982319831848,-0.42856210470199585,9.913191795349121,3.90625,-1.46484375,2.532958984375
2.5224999,0.5428852438926697,-0.5446808934211731,9.656414031982422,-6.927490234375,0.9765625,-2.197265625
2.5274999,0.6913257241249084,-0.4866214990615845,9.664793968200684,7.354736328125,1.0986328125,-0.457763671875
2.5324999000000004,0.5835866928100586,-0.4471171796321869,9.991601943969727,-3.2958984375,-0.640869140625,1.89208984375
2.5374999000000003,0.5530605912208557,-0.5297171473503113,9.635464668273926,-1.708984375,2.197265625,-3.082275390625
2.5424999,0.606930136680603,-0.424970805644989,10.008959770202637,5.859375,-0.335693359375,2.227783203125
2.5474999,0.4159925580024719,-0.4794389009475708,9.834183692932129,-7.4462890625,-0.091552734375,-0.885009765625
2.5524999000000004,0.6661866307258606,-0.4225766062736511,9.781511306762695,7.537841796875,-0.79345703125,0.91552734375
2.5574999000000003,0.6015431880950928,-0.4842272996902466,9.943120002746582,-5.828857421875,-1.0986328125,0.6103515625
2.5624999,0.6117185354232788,-0.535702645778656,9.592369079589844,1.800537109375,1.739501953125,-2.777099609375
2.5674999,0.6332663297653198,-0.4034229815006256,9.963470458984375,3.814697265625,-1.03759765625,2.62451171875
2.5724999,0.4920084476470947,-0.5057750940322876,9.68274974822998,-6.988525390625,0.823974609375,-2.0751953125
2.5774999000000003,0.6416460275650024,-0.4423287510871887,9.642048835754395,6.866455078125,0.640869140625,-0.762939453125
2.5824999,0.5506663918495178,-0.3968389332294464,9.95329475402832,-2.99072265625,-1.129150390625,2.13623046875
2.5874999,0.547075092792511,-0.5051765441894531,9.622895240783691,-2.899169921875,1.617431640625,-3.021240234375
2.5924999,0.6332663297653198,-0.41539400815963745,9.955090522766113,6.195068359375,-0.67138671875,1.739501953125
2.5974999000000003,0.4692635238170624,-0.49799394607543945,9.907206535339355,-7.049560546875,-0.30517578125,-0.30517578125
2.6024999,0.5644330382347107,-0.5093663930892944,9.624092102050781,-6.04248046875,0.701904296875,-2.532958984375
2.6074999,0.6715735793113708,-0.43035775423049927,9.66299819946289,7.080078125,0.48828125,-0.091552734375
2.6124999,0.5895721912384033,-0.43275195360183716,9.971251487731934,-3.875732421875,-0.9765625,1.556396484375
2.6174999000000003,0.5476736426353455,-0.5309142470359802,9.598953247070312,-0.732421875,1.617431640625,-2.99072265625
2.6224999,0.6033388376235962,-0.4602852761745453,10.01075553894043,6.134033203125,-0.9765625,1.89208984375
2.6274999,0.4273650050163269,-0.5099649429321289,9.86889934539795,-6.988525390625,0.213623046875,-0.885009765625
2.6324999,0.5728127360343933,-0.5129576921463013,9.66419506072998,4.486083984375,1.15966796875,-1.678466796875
2.6374999000000003,0.5345055460929871,-0.395043283700943,9.95748519897461,0.3662109375,-1.190185546875,2.5634765625
2.6424999000000002,0.568622887134552,-0.49619829654693604,9.638457298278809,-5.645751953125,0.91552734375,-2.655029296875
2.6474999,0.6404489278793335,-0.4644751250743866,9.700706481933594,7.476806640625,-0.67138671875,0.244140625
2.6524999,0.568622887134552,-0.6655880808830261,10.031106948852539,-1.678466796875,-1.861572265625,2.593994140625
2.6574999000000004,0.7661445140838623,-0.7625532150268555,10.02571964263916,10.223388671875,1.739501953125,0.54931640625
2.6624999000000003,0.5901707410812378,-1.501164436340332,9.3427734375,6.591796875,4.425048828125,4.058837890625
2.6674999,0.9193734526634216,-0.8068459630012512,9.068038940429688,32.28759765625,3.631591796875,16.754150390625
2.6724999,0.8798691034317017,-0.48063600063323975,8.848370552062988,4.180908203125,2.288818359375,-1.739501953125
2.6774999000000004,0.8265981078147888,-0.28072014451026917,8.225279808044434,-8.23974609375,-1.739501953125,-6.988525390625
2.6824999000000003,1.0833762884140015,0.7745242714881897,8.605359077453613,4.974365234375,1.373291015625,0.213623046875
2.6874999,0.6973112225532532,0.46148237586021423,8.292916297912598,-9.21630859375,1.434326171875,10.1318359375
2.6924999,0.702099621295929,1.0145429372787476,8.145073890686035,19.744873046875,-0.152587890625,1.8310546875
2.6974999,0.7308300733566284,1.028908133506775,7.892486095428467,0.762939453125,-3.7841796875,-2.0751953125
2.7024999000000003,0.1885433793067932,0.8271966576576233,7.3687543869018555,-7.110595703125,-4.669189453125,-1.40380859375
2.7074999,0.6805518269538879,1.1641805171966553,7.116764545440674,40.34423828125,2.9296875,11.688232421875
2.7124999,-0.11851298063993454,1.9069817066192627,7.297526836395264,-22.39990234375,-2.13623046875,2.655029296875
2.7174999,-0.23044191300868988,1.800439715385437,7.527369976043701,-40.496826171875,-0.701904296875,-10.8642578125
2.7224999000000003,-0.023942016065120697,1.6573861837387085,8.193556785583496,-32.989501953125,-1.190185546875,-9.58251953125
2.7274999,-0.10354922711849213,1.2078747749328613,9.121310234069824,-44.036865234375,-9.70458984375,-5.7373046875
2.7324999,-0.019153613597154617,0.20949265360832214,9.973047256469727,-20.233154296875,-16.29638671875,-5.67626953125
2.7374999,-0.1496376097202301,-0.7314286231994629,10.736797332763672,-16.41845703125,-17.578125,0
2.7424999000000003,0.7811083197593689,-3.0340521335601807,9.958083152770996,1.0986328125,0.48828125,-1.983642578125
2.7474999,1.4095861911773682,-2.47560453414917,9.745597839355469,18.49365234375,8.697509765625,0.152587890625
2.7524999,1.556231141090393,-1.522712230682373,9.982025146484375,3.082275390625,11.932373046875,0.79345703125
2.7574999,1.577778935432434,-0.6518214344978333,9.630077362060547,8.392333984375,16.082763671875,-3.60107421875
2.7624999000000003,1.1785458326339722,0.12689268589019775,10.005967140197754,4.82177734375,9.735107421875,4.39453125
2.7674999000000002,0.608127236366272,0.29568392038345337,9.555258750915527,-4.7607421875,7.232666015625,-3.936767578125
2.7724999,0.19692309200763702,0.4213795065879822,9.712079048156738,6.439208984375,-0.579833984375,0.152587890625
2.7774999,-0.3016694188117981,0.181959331035614,9.713874816894531,-9.979248046875,-6.04248046875,-2.166748046875
2.7824999000000004,-0.22206220030784607,-0.05686229094862938,9.526528358459473,2.593994140625,-6.256103515625,-1.312255859375
2.7874999000000003,-0.17058686912059784,-0.16160862147808075,9.934141159057617,-4.913330078125,-9.796142578125,4.39453125
2.7924999,0.1430535465478897,-0.46746787428855896,9.50737476348877,-6.561279296875,-4.730224609375,-3.509521484375
2.7974999,1.0217255353927612,-0.7164648771286011,10.092158317565918,-2.01416015625,1.251220703125,1.983642578125
2.8024999000000004,0.5943605899810791,-0.5710170865058899,9.728240013122559,-5.92041015625,2.99072265625,-2.777099609375
2.8074999000000003,0.5632359385490417,-0.353743314743042,9.683947563171387,8.11767578125,1.861572265625,0.579833984375
2.8124999,0.3519476354122162,-0.2890998423099518,9.898826599121094,-7.01904296875,-1.739501953125,0.8544921875
2.8174999,0.3669114112854004,-0.33698388934135437,9.477447509765625,0.06103515625,0,-3.2958984375
2.8224999,0.3387795388698578,-0.2190694510936737,9.908403396606445,1.312255859375,-4.21142578125,3.41796875
2.8274999000000003,0.36810851097106934,-0.46567222476005554,9.585784912109375,-7.781982421875,-1.617431640625,-2.8076171875
2.8324999,0.5746083855628967,-0.4189853072166443,9.747992515563965,7.6904296875,-1.5869140625,1.190185546875
2.8374999,0.7433996200561523,-0.6045359373092651,9.585186958312988,3.204345703125,2.716064453125,-2.5634765625
2.8424999,0.7242460250854492,-0.4513070285320282,10.034099578857422,2.685546875,-0.54931640625,3.204345703125
2.8474999000000003,0.690727174282074,-0.619499683380127,9.645041465759277,-4.974365234375,2.86865234375,-3.35693359375
2.8524999,0.7529764175415039,-0.4704606235027313,9.84376049041748,9.063720703125,0.91552734375,1.15966796875
2.8574999,0.5057750940322876,-0.5129576921463013,9.88386344909668,-6.622314453125,-0.396728515625,-0.091552734375
2.8624999,0.5536591410636902,-0.5039794445037842,9.57201862335205,3.662109375,1.556396484375,-2.410888671875
2.8674999000000003,0.4255693554878235,-0.353743314743042,9.971850395202637,0.885009765625,-2.532958984375,2.960205078125
2.8724999,0.4100070297718048,-0.4836287498474121,9.564237594604492,-6.256103515625,0.091552734375,-3.47900390625
2.8774999,0.5542576909065247,-0.37648820877075195,9.816226959228516,7.049560546875,-1.190185546875,1.617431640625
2.8824999,0.6416460275650024,-0.5291185975074768,9.570821762084961,3.35693359375,2.0751953125,-2.74658203125
2.8874999000000003,0.5327098965644836,-0.36092591285705566,9.981427192687988,1.983642578125,-1.708984375,2.86865234375
2.8924999000000002,0.4878185987472534,-0.5165489912033081,9.636063575744629,-6.378173828125,0.885009765625,-3.021240234375
2.8974999,0.5871779918670654,-0.3860650360584259,9.761159896850586,7.4462890625,-0.213623046875,0.8544921875
2.9024999,0.5021837949752808,-0.45429977774620056,9.951498985290527,-6.561279296875,-1.708984375,0.54931640625
2.9074999000000004,0.586579442024231,-0.5267243981361389,9.580398559570312,1.434326171875,1.40380859375,-2.62451171875
2.9124999000000003,0.586579442024231,-0.3908534348011017,9.99220085144043,2.5634765625,-1.8310546875,3.0517578125
2.9174999,0.5452794432640076,-0.5333084464073181,9.733028411865234,-6.744384765625,0.701904296875,-2.838134765625
2.9224999,0.6518214344978333,-0.4495113790035248,9.728838920593262,8.209228515625,0.213623046875,0.091552734375
2.9274999000000004,0.5835866928100586,-0.4578910768032074,10.028712272644043,-4.852294921875,-1.068115234375,1.46484375
2.9324999000000003,0.5728127360343933,-0.5291185975074768,9.552266120910645,0.335693359375,2.38037109375,-3.11279296875
2.9374999,0.639850378036499,-0.40880993008613586,9.943717956542969,5.157470703125,-1.3427734375,2.655029296875
2.9424999,0.4800374507904053,-0.4944026470184326,9.6803560256958,-7.75146484375,0.396728515625,-2.105712890625
2.9474999,0.6470330357551575,-0.44831427931785583,9.62828254699707,6.683349609375,0.823974609375,-0.42724609375
2.9524999000000003,0.5422866940498352,-0.42616790533065796,9.988609313964844,-2.86865234375,-1.983642578125,2.044677734375
2.9574999,0.524330198764801,-0.5297171473503113,9.599552154541016,-2.197265625,1.373291015625,-3.448486328125
2.9624999,0.4345476031303406,-0.5303156971931458,9.822811126708984,-7.659912109375,-0.48828125,-0.732421875
2.9674999,0.4345476031303406,-0.5303156971931458,9.822811126708984,-7.659912109375,-0.48828125,-0.732421875
2.9724999000000003,0.6015431880950928,-0.5494692921638489,9.618705749511719,5.2490234375,1.251220703125,-1.434326171875
2.9774999,0.5428852438926697,-0.4471171796321869,9.961075782775879,-0.030517578125,-1.617431640625,2.44140625
2.9824999,0.5488707423210144,-0.5578489899635315,9.567230224609375,-4.45556640625,1.64794921875,-3.082275390625
2.9874999,0.6380547285079956,-0.44412440061569214,9.843161582946777,7.537841796875,-0.48828125,1.434326171875
2.9924999000000003,0.557250440120697,-0.5279214978218079,9.627084732055664,2.655029296875,1.8310546875,-2.471923828125
2.9974999,0.5135562419891357,-0.383670836687088,10.014945983886719,2.50244140625,-1.678466796875,2.777099609375
3.0024999,0.47584760189056396,-0.4866214990615845,9.714473724365234,-6.8359375,0.885009765625,-2.5634765625
3.0074999,0.6021417379379272,-0.4124012291431427,9.714473724365234,7.354736328125,0.1220703125,0.030517578125
3.0124999000000003,0.5488707423210144,-0.41539400815963745,10.044873237609863,-4.669189453125,-1.28173828125,1.617431640625
3.0174999000000002,0.5279214978218079,-0.5327098965644836,9.592369079589844,-1.0986328125,1.922607421875,-2.9296875
3.0224999,0.6159083843231201,-0.4596867263317108,10.018536567687988,6.195068359375,-1.495361328125,2.166748046875
3.0274999,0.4279635548591614,-0.5327098965644836,9.818621635437012,-7.38525390625,0.091552734375,-1.220703125
3.0324999000000004,0.5889736413955688,-0.5225345492362976,9.673771858215332,5.55419921875,1.28173828125,-1.28173828125
3.0374999000000003,0.5171475410461426,-0.42616790533065796,10.034099578857422,-0.48828125,-1.64794921875,2.227783203125
3.0424999,0.5297171473503113,-0.5488707423210144,9.644442558288574,-4.69970703125,1.77001953125,-3.082275390625
3.0474999,0.6254851818084717,-0.436343252658844,9.881468772888184,6.89697265625,-0.335693359375,1.3427734375
3.0524999000000004,0.5638344883918762,-0.5297171473503113,9.626486778259277,1.8310546875,1.3427734375,-2.86865234375
3.0574999000000003,0.5776011347770691,-0.3902548849582672,9.97484302520752,3.875732421875,-2.01416015625,2.532958984375
3.0624999,0.4776432514190674,-0.49559974670410156,9.692327499389648,-6.9580078125,0.457763671875,-1.89208984375
3.0674999,0.6302735805511475,-0.4297592043876648,9.641449928283691,6.7138671875,0.6103515625,-0.518798828125
3.0724999000000004,0.5560533404350281,-0.41359832882881165,9.979631423950195,-2.62451171875,-1.64794921875,1.739501953125
3.0774999000000003,0.5530605912208557,-0.5327098965644836,9.646238327026367,-2.716064453125,1.8310546875,-3.0517578125
3.0824999,0.6446388363838196,-0.46986207365989685,9.985616683959961,6.591796875,-0.8544921875,1.64794921875
3.0874999,0.47584760189056396,-0.5392939448356628,9.928754806518555,-7.110595703125,-0.6103515625,-0.18310546875
3.0924999,0.6051344871520996,-0.5758054852485657,9.628880500793457,3.11279296875,1.373291015625,-2.166748046875
3.0974999000000003,0.568622887134552,-0.4315548539161682,9.908403396606445,1.739501953125,-1.617431640625,2.62451171875
3.1024999,0.5500678420066833,-0.48901569843292236,9.610923767089844,-6.591796875,1.007080078125,-2.227783203125
3.1074999,0.6584054827690125,-0.4100070297718048,9.613917350769043,6.65283203125,0.518798828125,0.06103515625
3.1124999,0.535702645778656,-0.5129576921463013,9.621099472045898,-1.739501953125,1.556396484375,-3.11279296875
3.1174999000000003,0.608127236366272,-0.46507367491722107,10.005369186401367,6.256103515625,-0.823974609375,1.89208984375
3.1224999,0.569819986820221,-0.5434837937355042,9.620500564575195,3.60107421875,1.312255859375,-2.0751953125
3.1274999,0.5476736426353455,-0.4082113802433014,9.906607627868652,1.46484375,-1.617431640625,2.532958984375
3.1324999,0.5620388388633728,-0.47584760189056396,9.625887870788574,-6.2255859375,1.007080078125,-2.3193359375
3.1374999000000003,0.67815762758255,-0.406415730714798,9.662399291992188,6.927490234375,0.18310546875,0
3.1424999000000002,0.6129156351089478,-0.38546648621559143,10.007762908935547,-3.265380859375,-1.3427734375,1.617431640625
3.1474999,0.4644751250743866,-0.8547300100326538,9.256582260131836,-2.01416015625,1.190185546875,-1.861572265625
3.1524999,0.5931634902954102,-0.9594763517379761,9.403825759887695,42.8466796875,-7.659912109375,11.444091796875
3.1574999000000004,0.6590040326118469,-0.6625953316688538,8.451532363891602,27.130126953125,7.62939453125,5.31005859375
3.1624999000000003,0.5027823448181152,-0.08858546614646912,7.975684642791748,-2.960205078125,3.387451171875,5.31005859375
3.1674999,0.8236053586006165,1.6873136758804321,6.953958988189697,43.212890625,13.24462890625,-2.197265625
3.1724999,1.2856862545013428,1.8704700469970703,6.721122741699219,34.149169921875,5.279541015625,40.10009765625
3.1774999000000004,0.6171054840087891,2.2864625453948975,6.141726016998291,75.653076171875,13.397216796875,17.913818359375
3.1824999000000003,0.2717418968677521,1.6621745824813843,5.009867191314697,9.033203125,8.880615234375,24.627685546875
3.1874999,-0.20530278980731964,1.857301950454712,5.227739334106445,31.585693359375,-6.8359375,-3.387451171875
3.1924999,-0.5973533391952515,1.071405291557312,3.933074951171875,2.86865234375,-4.2724609375,-9.124755859375
3.1974999000000004,-0.08619125932455063,1.0546458959579468,5.219359874725342,-10.528564453125,-5.157470703125,-5.706787109375
3.2024999000000003,0.03232172131538391,1.5191209316253662,5.40790319442749,-36.376953125,0.91552734375,-12.725830078125
3.2074999,0.6721721291542053,2.4624364376068115,6.394314289093018,-67.535400390625,4.5166015625,0.67138671875
3.2124999,0.7266402244567871,3.1513679027557373,7.299322605133057,-81.787109375,8.392333984375,-5.31005859375
3.2174999,0.6751648783683777,2.889801502227783,8.320449829101562,-74.52392578125,1.068115234375,-5.615234375
3.2224999000000003,0.02693476900458336,1.7633295059204102,10.24538803100586,-60.882568359375,-23.4375,-1.52587890625
3.2274999,0.47405192255973816,-4.811747074127197,10.517129898071289,21.1181640625,-0.79345703125,2.410888671875
3.2324999,1.2006921768188477,-4.360439777374268,9.526528358459473,5.859375,8.331298828125,2.410888671875
3.2374999,1.9117701053619385,-3.115454912185669,9.060257911682129,17.547607421875,15.19775390625,-4.547119140625
3.2424999000000003,2.0248961448669434,-1.4790180921554565,9.664793968200684,11.962890625,17.730712890625,0.030517578125
3.2474999,1.7280150651931763,-0.18914192914962769,9.592369079589844,4.8828125,18.9208984375,-5.06591796875
3.2524999,1.2635399103164673,0.6901286244392395,9.992799758911133,10.25390625,12.87841796875,5.2490234375
3.2574999,0.41359832882881165,0.9463081955909729,9.691129684448242,-6.77490234375,9.1552734375,-1.52587890625
3.2624999000000003,-0.005985504016280174,0.8176198601722717,9.567828178405762,4.730224609375,0.732421875,-2.5634765625
3.2674999000000002,-0.5063736438751221,0.5602431893348694,9.823410034179688,-8.48388671875,-7.293701171875,0.1220703125
3.2724999,-0.49619829654693604,0.03770867735147476,9.479841232299805,-1.617431640625,-7.598876953125,-2.38037109375
3.2774999,0.4854243993759155,-0.5985504388809204,9.855133056640625,4.364013671875,-6.103515625,1.8310546875
3.2824999000000004,0.7146692276000977,-0.7529764175415039,9.889249801635742,-9.918212890625,-3.2958984375,-0.79345703125
3.2874999000000003,1.1516109704971313,-0.7930793166160583,9.697713851928711,5.859375,2.532958984375,-2.01416015625
3.2924999,1.1288660764694214,-0.70090252161026,10.072406768798828,-0.79345703125,0.732421875,2.593994140625
3.2974999,1.0678139925003052,-0.839766263961792,9.577404975891113,0.30517578125,5.828857421875,-4.150390625
3.3024999000000004,1.0031704902648926,-0.6290764808654785,9.966463088989258,9.09423828125,3.204345703125,3.021240234375
3.3074999000000003,0.4734533727169037,-0.6278793811798096,9.520543098449707,-6.28662109375,3.265380859375,-1.52587890625
3.3124999,0.39384618401527405,-0.4357447028160095,9.738415718078613,2.532958984375,-5.096435546875,7.293701171875
3.3174999,0.07003039866685867,-0.3124433159828186,9.651026725769043,-3.72314453125,-10.009765625,1.373291015625
3.3224999000000004,0.181959331035614,-0.20470423996448517,9.29189682006836,-2.0751953125,-6.011962890625,-11.322021484375
3.3274999000000003,0.5805938839912415,-0.33279404044151306,9.600150108337402,9.46044921875,-3.814697265625,0.274658203125
3.3324999,1.3617022037506104,-0.43694180250167847,9.430760383605957,10.955810546875,11.322021484375,5.31005859375
3.3374999,1.2192472219467163,-0.2992752194404602,9.63067626953125,-7.01904296875,8.697509765625,-2.044677734375
3.3424999,1.0899603366851807,-0.26575639843940735,9.507973670959473,-1.77001953125,6.04248046875,-3.997802734375
3.3474999000000003,0.4728548228740692,-0.16998831927776337,9.873687744140625,-7.01904296875,-2.960205078125,3.875732421875
3.3524999,0.12030863761901855,-0.4489128291606903,9.512163162231445,1.678466796875,-3.082275390625,-4.913330078125
3.3574999,-0.01735796220600605,-0.6075286865234375,9.862914085388184,5.767822265625,-6.622314453125,1.495361328125
3.3624999,0.38307225704193115,-0.5416881442070007,9.677363395690918,7.8125,-1.28173828125,1.068115234375
3.3674999000000003,0.5901707410812378,-0.3932476341724396,10.019135475158691,-7.14111328125,-1.953125,1.861572265625
3.3724999,0.8702923059463501,-0.49799394607543945,9.617507934570312,-0.152587890625,3.662109375,-4.058837890625
3.3774999,0.9307458996772766,-0.3824737071990967,10.099940299987793,4.180908203125,0.8544921875,2.86865234375
3.3824999,0.8086416125297546,-0.6751648783683777,9.746196746826172,-5.157470703125,3.0517578125,-3.326416015625
3.3874999000000003,0.5045779943466187,-0.6470330357551575,9.91738224029541,-5.950927734375,-0.54931640625,0
3.3924999000000002,0.5656301379203796,-0.5195417404174805,9.576807022094727,4.33349609375,2.044677734375,-2.62451171875
3.3974999,0.44412440061569214,-0.3130418658256531,9.996989250183105,0.091552734375,-2.25830078125,3.23486328125
3.4024999,0.3992331326007843,-0.3016694188117981,9.586981773376465,-6.805419921875,0.762939453125,-3.509521484375
3.4074999000000004,0.5237316489219666,-0.2388216257095337,9.904812812805176,5.645751953125,-1.739501953125,2.38037109375
3.4124999000000003,0.37828385829925537,-0.3693056106567383,9.853337287902832,-9.063720703125,-1.861572265625,-0.9765625
3.4174999,0.5913678407669067,-0.518943190574646,9.653421401977539,5.462646484375,0.640869140625,-1.678466796875
3.4224999,0.5781996846199036,-0.4967968463897705,10.038887977600098,-0.823974609375,-2.655029296875,2.74658203125
3.4274999000000004,0.6242880821228027,-0.6596025824546814,9.568427085876465,-2.685546875,2.899169921875,-3.753662109375
3.4324999000000003,0.7667431235313416,-0.5267243981361389,9.93354320526123,6.9580078125,0.396728515625,2.777099609375
3.4374999,0.5494692921638489,-0.578798234462738,9.75637149810791,-7.8125,1.3427734375,-1.52587890625
3.4424999,0.5249287486076355,-0.42856210470199585,9.977835655212402,-2.38037109375,-2.0751953125,2.105712890625
3.4474999000000004,0.4770447015762329,-0.5105634927749634,9.510966300964355,-2.044677734375,1.15966796875,-3.814697265625
3.4524999000000003,0.5494692921638489,-0.3776853084564209,9.920374870300293,5.828857421875,-1.8310546875,2.960205078125
3.4574999,0.37828385829925537,-0.4836287498474121,9.70310115814209,-8.880615234375,-0.579833984375,-1.800537109375
3.4624999,0.6117185354232788,-0.44592007994651794,9.642647743225098,6.34765625,0.640869140625,-0.54931640625
3.4674999,0.5596446394920349,-0.41359832882881165,10.02571964263916,-3.326416015625,-2.593994140625,2.044677734375
3.4724999000000003,0.5973533391952515,-0.5285200476646423,9.570222854614258,-1.46484375,2.13623046875,-3.631591796875
3.4774999,0.706289529800415,-0.43035775423049927,9.981427192687988,6.103515625,-1.0986328125,2.86865234375
3.4824999,0.5147533416748047,-0.5602431893348694,9.709086418151855,-7.476806640625,0.67138671875,-1.983642578125
3.4874999,0.689530074596405,-0.518943190574646,9.624691009521484,7.62939453125,1.64794921875,-0.579833984375
3.4924999000000003,0.568622887134552,-0.4578910768032074,9.974244117736816,-3.11279296875,-1.64794921875,1.800537109375
3.4974999,0.5494692921638489,-0.5333084464073181,9.512163162231445,-1.40380859375,2.166748046875,-3.5400390625
3.5024999,0.628477931022644,-0.3902548849582672,9.946710586547852,5.340576171875,-1.03759765625,2.99072265625
3.5074999,0.41539400815963745,-0.48602294921875,9.708487510681152,-8.148193359375,-0.091552734375,-1.8310546875
3.5124999000000003,0.6075286865234375,-0.4537012279033661,9.641449928283691,6.4697265625,0.91552734375,-0.823974609375
3.5174999000000002,0.5123591423034668,-0.4058171808719635,10.00955867767334,-3.35693359375,-2.38037109375,1.983642578125
3.5224999,0.4878185987472534,-0.5339069962501526,9.80904483795166,-7.781982421875,0.213623046875,-1.678466796875
3.5274999,0.6787561774253845,-0.5165489912033081,9.67077922821045,6.2255859375,1.678466796875,-1.40380859375
3.5324999000000004,0.5752069354057312,-0.4106055796146393,10.029909133911133,-1.3427734375,-1.922607421875,2.349853515625
3.5374999000000003,0.5506663918495178,-0.5237316489219666,9.628880500793457,-3.35693359375,2.0751953125,-3.41796875
3.5424999,0.6482301354408264,-0.4159925580024719,9.944316864013672,6.77490234375,-0.885009765625,2.105712890625
3.5474999,0.4626794755458832,-0.5135562419891357,9.831789016723633,-7.568359375,-0.701904296875,-0.8544921875
3.5524999000000004,0.6308721303939819,-0.5195417404174805,9.566033363342285,4.669189453125,1.312255859375,-1.861572265625
3.5574999000000003,0.5781996846199036,-0.4225766062736511,9.936535835266113,-0.3662109375,-2.197265625,2.777099609375
3.5624999,0.5883750915527344,-0.6141127347946167,9.914987564086914,-4.94384765625,-0.030517578125,-0.152587890625
3.5674999,0.6404489278793335,-0.6356605291366577,9.556455612182617,5.828857421875,4.547119140625,-1.52587890625
3.5724999000000004,0.7032967209815979,-0.5380968451499939,10.015543937683105,7.781982421875,0.67138671875,0.91552734375
3.5774999000000003,0.5811924338340759,-0.4381389021873474,9.541492462158203,-7.171630859375,3.35693359375,-1.40380859375
3.5824999,0.727837324142456,-0.43095630407333374,9.75278091430664,10.43701171875,2.50244140625,1.953125
3.5874999,0.5578489899635315,-0.5776011347770691,9.872490882873535,1.64794921875,1.434326171875,-0.885009765625
3.5924999,0.35075053572654724,-0.40282443165779114,9.315239906311035,12.054443359375,3.326416015625,-4.39453125
3.5974999000000003,0.5805938839912415,-0.26815059781074524,9.300874710083008,15.899658203125,-0.42724609375,7.965087890625
3.6024999,0.33099839091300964,0.07661445438861847,8.751405715942383,4.486083984375,2.838134765625,-3.875732421875
3.6074999,0.7906851172447205,0.45010992884635925,8.186373710632324,10.040283203125,2.50244140625,0
3.6124999,0.6649895310401917,0.028131870552897453,8.416217803955078,-7.354736328125,3.5400390625,-4.974365234375
3.6174999000000003,0.8361749649047852,0.47644615173339844,9.150040626525879,15.289306640625,-0.518798828125,6.103515625
3.6224999,0.33279404044151306,-0.29807811975479126,9.127894401550293,-5.035400390625,-0.579833984375,0.640869140625
3.6274999,0.5793967843055725,0.5045779943466187,9.017760276794434,17.425537109375,-3.448486328125,0.030517578125
3.6324999,0.43694180250167847,0.2106897532939911,9.130288124084473,-7.965087890625,-3.875732421875,4.974365234375
3.6374999000000003,0.18614917993545532,-0.0293289702385664,8.283937454223633,-1.556396484375,0.67138671875,-1.708984375
3.6424999000000002,0.618302583694458,0.18076223134994507,8.736441612243652,29.998779296875,-3.753662109375,11.16943359375
3.6474999,-0.28311434388160706,-0.6075286865234375,7.755417823791504,3.0517578125,0.18310546875,6.40869140625
3.6524999,0.5668272376060486,0.06883329898118973,7.992444038391113,46.661376953125,-1.77001953125,20.08056640625
3.6574999000000004,0.016759412363171577,0.0736217051744461,7.31967306137085,4.791259765625,0.9765625,19.500732421875
3.6624999000000003,0.49559974670410156,0.7613561153411865,6.426037311553955,7.38525390625,-2.960205078125,0.91552734375
3.6674999,0.5363011956214905,1.294066071510315,5.643732070922852,11.871337890625,7.75146484375,3.021240234375
3.6724999,0.5728127360343933,1.7292121648788452,5.761646270751953,2.0751953125,4.08935546875,28.839111328125
3.6774999000000004,0.5165489912033081,1.6962919235229492,5.876567840576172,5.18798828125,4.21142578125,-4.2724609375
3.6824999000000003,0.6991068720817566,2.0416555404663086,6.467936038970947,-39.6728515625,0.48828125,-9.1552734375
3.6874999,0.6991068720817566,2.0416555404663086,6.467936038970947,-39.6728515625,0.48828125,-9.1552734375
3.6924999,1.1456254720687866,2.409165382385254,7.111377716064453,-20.3857421875,8.36181640625,-18.463134765625
3.6974999000000004,0.8421604633331299,2.0667946338653564,8.143278121948242,-60.60791015625,2.3193359375,2.01416015625
3.7024999000000003,0.5680243372917175,1.4562731981277466,8.974664688110352,-47.027587890625,-4.08935546875,-8.30078125
3.7074999,0.02214636653661728,0.5249287486076355,10.229825019836426,-27.2216796875,-15.899658203125,-3.387451171875
3.7124999,-0.5321113467216492,-1.3431471586227417,10.764330863952637,-23.712158203125,-21.728515625,-8.9111328125
3.7174999,-0.5608417391777039,-2.693476915359497,11.0486421585083,3.326416015625,-18.06640625,-1.434326171875
3.7224999000000003,-0.33518823981285095,-3.6966474056243896,10.750564575195312,1.434326171875,-11.474609375,0.54931640625
3.7274999,1.0504560470581055,-3.0137014389038086,10.019734382629395,5.279541015625,4.058837890625,2.13623046875
3.7324999,1.6250643730163574,-1.9446903467178345,9.587580680847168,10.7421875,13.458251953125,-4.547119140625
3.7374999,1.7675193548202515,-0.657806932926178,10.095749855041504,10.19287109375,13.671875,3.814697265625
3.7424999000000003,1.4227544069290161,0.13048399984836578,9.680954933166504,-1.89208984375,14.984130859375,-3.814697265625
3.7474999,1.0145429372787476,0.5770025849342346,9.852140426635742,8.1787109375,8.23974609375,3.60107421875
3.7524999,0.24361002445220947,0.5560533404350281,9.618705749511719,-9.09423828125,2.0751953125,-3.204345703125
3.7574999,-0.019153613597154617,0.304063618183136,9.552266120910645,6.378173828125,-2.410888671875,-1.953125
3.7624999000000003,-0.38726213574409485,0.09038111567497253,9.803058624267578,-7.843017578125,-8.9111328125,1.617431640625
3.7674999000000002,-0.18375498056411743,-0.2819172441959381,9.433155059814453,0.152587890625,-6.04248046875,-2.50244140625
3.7724999,0.033518824726343155,-0.30466216802597046,9.958083152770996,-2.8076171875,-8.880615234375,4.69970703125
3.7774999,0.3196259140968323,-0.5722141861915588,9.549872398376465,-7.843017578125,-3.265380859375,-4.180908203125
3.7824999000000004,0.7745242714881897,-0.5428852438926697,9.962273597717285,5.523681640625,-3.41796875,3.265380859375
3.7874999000000003,0.9510966539382935,-0.6799532771110535,9.59177017211914,5.55419921875,5.615234375,-3.448486328125
3.7924999,0.7445967197418213,-0.4794389009475708,10.056844711303711,2.8076171875,1.190185546875,3.753662109375
3.7974999,0.5309142470359802,-0.4572925269603729,9.585186958312988,-2.86865234375,3.662109375,-4.486083984375
3.8024999000000004,0.5291185975074768,-0.29807811975479126,9.915586471557617,7.32421875,0.18310546875,2.777099609375
3.8074999000000003,0.24839842319488525,-0.30286651849746704,9.731831550598145,-9.70458984375,-0.79345703125,-2.349853515625
3.8124999,0.41718965768814087,-0.2795230448246002,9.630077362060547,6.89697265625,-0.8544921875,-0.18310546875
3.8174999,0.31783026456832886,-0.3166331648826599,9.940725326538086,-6.77490234375,-4.180908203125,1.77001953125
3.8224999000000004,0.5021837949752808,-0.44352585077285767,9.478046417236328,1.0986328125,-0.213623046875,-3.5400390625
3.8274999000000003,0.5781996846199036,-0.3842693865299225,10.036493301391602,1.617431640625,-2.99072265625,3.814697265625
3.8324999,0.6003460884094238,-0.595557689666748,9.611522674560547,-6.9580078125,1.03759765625,-3.936767578125
3.8374999,0.6111199855804443,-0.48482584953308105,10.041281700134277,-2.0751953125,-1.007080078125,2.50244140625
3.8424999,0.578798234462738,-0.5219359993934631,9.534908294677734,-0.67138671875,2.38037109375,-4.058837890625
3.8474999000000003,0.5722141861915588,-0.333991140127182,9.95090103149414,5.218505859375,-1.068115234375,3.5400390625
3.8524999,0.424970805644989,-0.4704606235027313,9.680954933166504,-8.270263671875,-0.06103515625,-2.8076171875
3.8574999,0.5392939448356628,-0.37229835987091064,9.701305389404297,8.056640625,-0.579833984375,0.67138671875
3.8624999,0.4225766062736511,-0.45250412821769714,9.91738224029541,-7.62939453125,-2.655029296875,0.6103515625
3.8674999000000003,0.5506663918495178,-0.5105634927749634,9.54209041595459,2.9296875,1.03759765625,-3.0517578125
3.8724999,0.5363011956214905,-0.4118026793003082,10.003573417663574,1.52587890625,-2.166748046875,3.509521484375
3.8774999,0.5428852438926697,-0.5590460896492004,9.603741645812988,-5.4931640625,1.495361328125,-3.72314453125
3.8824999,0.6877344250679016,-0.44592007994651794,9.932944297790527,8.48388671875,-0.030517578125,2.166748046875
3.8874999000000003,0.7170634269714355,-0.5213374495506287,9.686341285705566,6.2255859375,2.5634765625,-1.52587890625
3.8924999000000002,0.5937620401382446,-0.4207809567451477,10.047865867614746,-1.678466796875,-1.64794921875,2.62451171875
3.8974999,0.5728127360343933,-0.5207388401031494,9.549273490905762,-2.471923828125,2.01416015625,-3.96728515625
3.9024999,0.6350619792938232,-0.3758896589279175,9.95090103149414,6.591796875,-1.434326171875,2.9296875
3.9074999000000004,0.43335050344467163,-0.4854243993759155,9.701904296875,-8.60595703125,-0.3662109375,-1.953125
3.9124999000000003,0.6344634294509888,-0.47165772318840027,9.65222454071045,7.32421875,0.8544921875,-0.42724609375
3.9174999,0.517746090888977,-0.43754035234451294,10.001777648925781,-4.5166015625,-2.227783203125,1.800537109375
3.9224999,0.5219359993934631,-0.524330198764801,9.740211486816406,-7.50732421875,0.762939453125,-2.8076171875
3.9274999000000004,0.6554127335548401,-0.4489128291606903,9.686341285705566,8.331298828125,0.823974609375,0.3662109375
3.9324999000000003,0.5656301379203796,-0.4686649739742279,9.97603988647461,-5.767822265625,-1.251220703125,1.0986328125
3.9374999,0.6015431880950928,-0.406415730714798,9.981427192687988,3.47900390625,-1.953125,3.082275390625
3.9424999,0.5315127968788147,-0.5722141861915588,9.683348655700684,-7.476806640625,0.732421875,-2.838134765625
3.9474999000000004,0.6260837316513062,-0.4405331015586853,9.75936508178711,7.904052734375,0.244140625,1.007080078125
3.9524999000000003,0.507570743560791,-0.4866214990615845,9.980828285217285,-6.28662109375,-1.495361328125,0.67138671875
3.9574999,0.5805938839912415,-0.5309142470359802,9.557653427124023,2.50244140625,1.617431640625,-2.9296875
3.9624999,0.5590460896492004,-0.38546648621559143,9.995193481445312,2.38037109375,-1.617431640625,3.204345703125
3.9674999000000004,0.5333084464073181,-0.5602431893348694,9.657012939453125,-6.65283203125,1.129150390625,-3.0517578125
3.9724999000000003,0.6458359360694885,-0.43035775423049927,9.764751434326172,8.4228515625,-0.152587890625,0.91552734375
3.9774999,0.5345055460929871,-0.5105634927749634,9.966463088989258,-6.34765625,-1.190185546875,0.396728515625
3.9824999,0.619499683380127,-0.5422866940498352,9.560646057128906,2.716064453125,2.01416015625,-2.86865234375
3.9874999,0.5680243372917175,-0.4058171808719635,10.001777648925781,2.838134765625,-1.739501953125,2.99072265625
3.9924999000000003,0.5237316489219666,-0.5452794432640076,9.657610893249512,-6.8359375,1.190185546875,-3.0517578125
3.9974999,0.5015852451324463,-0.48243165016174316,9.973047256469727,-6.317138671875,-1.495361328125,0.640869140625
4.0024999,0.5722141861915588,-0.5279214978218079,9.57201862335205,2.197265625,1.678466796875,-2.9296875
4.0074999,0.5650315880775452,-0.3902548849582672,10.005967140197754,2.74658203125,-1.861572265625,2.9296875
4.0124999,0.517746090888977,-0.5021837949752808,9.68694019317627,-6.866455078125,1.03759765625,-2.777099609375
4.0174999,0.6254851818084717,-0.3992331326007843,9.731232643127441,7.781982421875,-0.213623046875,0.6103515625
4.022499900000001,0.5524620413780212,-0.4345476031303406,9.992799758911133,-6.04248046875,-1.678466796875,0.946044921875
4.0274999000000005,0.5752069354057312,-0.5273229479789734,9.55705451965332,0.823974609375,1.861572265625,-3.143310546875
4.0324999,0.6266822814941406,-0.414795458316803,9.978434562683105,3.90625,-1.312255859375,3.11279296875
4.0374999,0.5321113467216492,-0.5351040959358215,9.70549488067627,-7.476806640625,0.732421875,-2.38037109375
4.0424999,0.6637924313545227,-0.46806642413139343,9.661202430725098,7.354736328125,0.457763671875,-0.091552734375
4.0474999,0.5710170865058899,-0.4423287510871887,10.00836181640625,-4.638671875,-1.220703125,1.495361328125
4.0524999,0.5303156971931458,-0.5279214978218079,9.526528358459473,-0.762939453125,2.166748046875,-3.204345703125
4.0574999,0.3974374830722809,-0.5057750940322876,9.695918083190918,-7.720947265625,0.42724609375,-1.8310546875
4.062499900000001,0.6087257862091064,-0.47644615173339844,9.655217170715332,6.378173828125,1.190185546875,-0.54931640625
4.0674999000000005,0.5195417404174805,-0.4279635548591614,10.001777648925781,-2.227783203125,-2.105712890625,1.983642578125
4.0724999,0.5494692921638489,-0.5297171473503113,9.634267807006836,-2.685546875,1.953125,-3.448486328125
4.0774999,0.6530185341835022,-0.4471171796321869,10.014945983886719,6.439208984375,-1.0986328125,2.25830078125
4.0824999,0.5710170865058899,-0.43754035234451294,9.956886291503906,0,-1.953125,2.716064453125
4.0874999,0.5991489887237549,-0.5692214369773865,9.560047149658203,-5.096435546875,1.617431640625,-3.021240234375
4.0924999,0.6883329749107361,-0.436343252658844,9.81024169921875,7.659912109375,-0.732421875,1.40380859375
4.0974999,0.5656301379203796,-0.497395396232605,9.94970417022705,-6.40869140625,-0.885009765625,0.274658203125
4.1024999,0.6212953329086304,-0.5237316489219666,9.61451530456543,1.922607421875,1.89208984375,-2.50244140625
4.1074999000000005,0.5027823448181152,-0.45669397711753845,9.730035781860352,-6.8359375,0.885009765625,-2.410888671875
4.1124999,0.6147112846374512,-0.3974374830722809,9.70429801940918,7.568359375,0.18310546875,0.030517578125
4.1174999,0.5333084464073181,-0.4040215313434601,10.061034202575684,-3.84521484375,-1.708984375,1.708984375
4.1224999,0.5009866952896118,-0.5285200476646423,9.586383819580078,-0.946044921875,1.708984375,-3.173828125
4.1274999,0.5889736413955688,-0.4638765752315521,10.016741752624512,5.55419921875,-1.220703125,2.349853515625
4.1324999,0.41120412945747375,-0.5231330990791321,9.824007987976074,-7.4462890625,0.30517578125,-1.0986328125
4.1374999,0.5883750915527344,-0.5147533416748047,9.62828254699707,5.340576171875,1.251220703125,-1.251220703125
4.1424999,0.52552729845047,-0.40701428055763245,10.001178741455078,-0.335693359375,-1.678466796875,2.471923828125
4.147499900000001,0.5596446394920349,-0.5380968451499939,9.589376449584961,-4.82177734375,1.556396484375,-3.021240234375
4.1524999000000005,0.6524199843406677,-0.4321534037590027,9.822212219238281,7.415771484375,-0.3662109375,1.15966796875
4.1574999,0.5542576909065247,-0.4902127981185913,9.947309494018555,-6.2255859375,-0.762939453125,0.640869140625
4.1624999,0.6356605291366577,-0.4357447028160095,9.63067626953125,6.866455078125,0.79345703125,-0.244140625
4.1674999,0.5363011956214905,-0.41120412945747375,9.960477828979492,-2.62451171875,-1.89208984375,1.800537109375
4.1724999,0.3824737071990967,-0.7128735780715942,9.576208114624023,-2.349853515625,1.495361328125,-3.082275390625
4.1774999,0.5770025849342346,-0.7451952695846558,9.661202430725098,17.9443359375,-3.72314453125,6.2255859375
4.1824999,0.4944026470184326,-0.5237316489219666,9.413402557373047,6.134033203125,0.335693359375,-4.69970703125
4.187499900000001,0.74040687084198,-0.10594342648983002,8.983643531799316,14.46533203125,6.195068359375,-4.547119140625
4.1924999000000005,1.003769040107727,0.29867666959762573,9.245808601379395,10.162353515625,6.134033203125,2.86865234375
4.1974999,0.7715315222740173,0.35733461380004883,8.806472778320312,-6.561279296875,6.622314453125,2.655029296875
4.2024999,0.8379706144332886,0.26096799969673157,8.9680814743042,28.778076171875,2.01416015625,14.34326171875
4.2074999,0.3884592354297638,-0.07003039866685867,8.620323181152344,9.8876953125,3.173828125,-3.47900390625
4.2124999,0.1777694821357727,-0.08259996026754379,7.687182903289795,6.500244140625,-0.762939453125,-5.92041015625
4.2174999,-0.018555063754320145,1.4957774877548218,7.1706342697143555,19.53125,2.105712890625,22.613525390625
4.2224999,-0.23283611238002777,1.8830395936965942,6.998850345611572,19.34814453125,-8.85009765625,0.1220703125
4.2274999,-0.2519897222518921,2.299032211303711,5.912481307983398,35.064697265625,0.823974609375,-5.645751953125
4.2324999000000005,0.24899697303771973,1.9955670833587646,5.4653639793396,17.02880859375,-5.615234375,22.979736328125
4.2374999,0.4770447015762329,1.7723077535629272,5.100846767425537,33.38623046875,3.570556640625,2.8076171875
4.2424999,1.5221136808395386,1.5849615335464478,7.441777229309082,4.45556640625,0.9765625,-7.32421875
4.2474999,1.1623848676681519,1.7717092037200928,7.8092875480651855,-31.585693359375,-1.800537109375,-3.84521484375
4.2524999,1.4191631078720093,2.3092074394226074,7.738658428192139,-39.581298828125,8.4228515625,-11.23046875
4.2574999,0.9097966551780701,3.045424461364746,7.560888767242432,-93.1396484375,10.25390625,-12.176513671875
4.2624999,0.40462008118629456,2.7102363109588623,8.987833023071289,-80.38330078125,-4.45556640625,-1.953125
4.2674999,-0.36152446269989014,1.1510124206542969,10.417171478271484,-58.563232421875,-25.848388671875,-6.439208984375
4.272499900000001,-0.7864952683448792,-1.082777738571167,11.966219902038574,-10.3759765625,-36.407470703125,-6.744384765625
4.2774999000000005,-1.0133458375930786,-3.2854433059692383,12.484564781188965,-9.002685546875,-19.53125,-4.608154296875
4.2824999,-0.4423287510871887,-4.817732334136963,11.593921661376953,17.303466796875,-9.58251953125,-1.953125
4.2874999,0.40880993008613586,-5.118204593658447,10.459070205688477,19.775390625,-1.64794921875,5.79833984375
4.2924999,1.3395558595657349,-4.468777656555176,9.1446533203125,12.02392578125,10.772705078125,-4.119873046875
4.2974999,2.0434510707855225,-2.8155810832977295,9.37509536743164,16.6015625,16.265869140625,0.396728515625
4.3024999,2.0883424282073975,-1.2342109680175781,9.466673851013184,7.38525390625,19.04296875,-4.364013671875
4.3074999,1.911171555519104,0.2454056739807129,9.900622367858887,17.791748046875,18.524169921875,1.220703125
4.312499900000001,1.1109095811843872,0.973242998123169,9.929352760314941,-6.04248046875,13.763427734375,1.3427734375
4.3174999000000005,-0.4513070285320282,-0.5147533416748047,9.564237594604492,-12.26806640625,-10.498046875,-2.044677734375
4.3224999,0.4572925269603729,-0.8122329115867615,9.873687744140625,-11.29150390625,-7.01904296875,0.335693359375
4.3274999,1.0582371950149536,-0.8242039084434509,9.679757118225098,3.173828125,-0.335693359375,-2.716064453125
4.3324999,1.1689690351486206,-0.7086837291717529,10.122086524963379,-2.197265625,-0.54931640625,2.899169921875
4.3374999,1.2665326595306396,-0.8265981078147888,9.607333183288574,-0.640869140625,6.011962890625,-3.875732421875
4.3424999,1.2030863761901855,-0.6625953316688538,9.997588157653809,8.85009765625,3.387451171875,3.204345703125
4.3474999,0.8912416100502014,-0.7912836670875549,9.71926212310791,-4.669189453125,5.035400390625,-3.35693359375
4.352499900000001,0.788889467716217,-0.5847837924957275,9.766547203063965,12.02392578125,3.96728515625,0.518798828125
4.3574999000000005,0.2148796021938324,-0.16879121959209442,9.986215591430664,-1.434326171875,-2.74658203125,3.387451171875
4.3624999,0.17058686912059784,-0.22086510062217712,9.553462982177734,-6.89697265625,-1.28173828125,-3.96728515625
4.3674999,0.363918662071228,-0.21607670187950134,9.899425506591797,5.645751953125,-4.119873046875,2.899169921875
4.3724999,0.2890998423099518,-0.40282443165779114,9.746196746826172,-10.498046875,-2.838134765625,-1.8310546875
4.3774999,0.6470330357551575,-0.5321113467216492,9.662399291992188,6.744384765625,-0.457763671875,-0.42724609375
4.3824999,0.6590040326118469,-0.5752069354057312,10.00716495513916,-4.5166015625,-2.0751953125,2.01416015625
4.3874999,0.8176198601722717,-0.6799532771110535,9.572616577148438,1.129150390625,2.960205078125,-3.5400390625
4.3924999,0.8601169586181641,-0.5135562419891357,10.038887977600098,4.638671875,0.6103515625,3.90625
4.397499900000001,0.7398083209991455,-0.6524199843406677,9.718064308166504,-6.4697265625,2.685546875,-3.509521484375
4.4024999000000005,0.37469255924224854,-0.4213795065879822,9.591172218322754,-5.18798828125,0.091552734375,-3.7841796875
4.4074999,0.5380968451499939,-0.34835633635520935,9.955090522766113,6.927490234375,-1.556396484375,2.685546875
4.4124999,0.4273650050163269,-0.4495113790035248,9.828198432922363,-8.880615234375,-1.007080078125,-1.251220703125
4.4174999,0.6769605278968811,-0.5099649429321289,9.70549488067627,6.9580078125,1.373291015625,-1.251220703125
4.4224999,0.6278793811798096,-0.47884035110473633,10.012551307678223,-2.349853515625,-1.617431640625,2.471923828125
4.4274999,0.6596025824546814,-0.6045359373092651,9.5007905960083,-1.373291015625,2.13623046875,-3.814697265625
4.4324999,0.7416039705276489,-0.4537012279033661,9.889848709106445,6.134033203125,-0.396728515625,3.0517578125
4.437499900000001,0.5392939448356628,-0.5524620413780212,9.61331844329834,-7.843017578125,0.67138671875,-2.166748046875
4.4424999000000005,0.6817489266395569,-0.47405192255973816,9.57441234588623,8.026123046875,1.28173828125,-0.06103515625
4.4474999,0.5165489912033081,-0.4255693554878235,9.913790702819824,-5.218505859375,-1.8310546875,1.52587890625
4.4524999,0.45190557837486267,-0.5039794445037842,9.716269493103027,-7.781982421875,0.030517578125,-2.9296875
4.4574999,0.6087257862091064,-0.4339490532875061,9.71926212310791,7.965087890625,0.213623046875,0.518798828125
4.4624999,0.5596446394920349,-0.4776432514190674,9.99339771270752,-6.16455078125,-1.739501953125,1.190185546875
4.4674999,0.6350619792938232,-0.5656301379203796,9.558850288391113,1.739501953125,1.8310546875,-3.143310546875
4.4724999,0.6434416770935059,-0.43754035234451294,9.999981880187988,4.119873046875,-1.77001953125,2.838134765625
4.477499900000001,0.5883750915527344,-0.5871779918670654,9.695320129394531,-6.683349609375,1.03759765625,-2.99072265625
4.4824999000000005,0.5452794432640076,-0.3842693865299225,9.95329475402832,3.23486328125,-2.288818359375,2.99072265625
4.4874999,0.5039794445037842,-0.5333084464073181,9.633070945739746,-6.744384765625,0.457763671875,-3.082275390625
4.4924999,0.5518634915351868,-0.46567222476005554,9.953893661499023,-5.340576171875,-1.312255859375,0.91552734375
4.4974999,0.5668272376060486,-0.5285200476646423,9.555258750915527,1.678466796875,1.953125,-3.021240234375
4.5024999,0.6015431880950928,-0.4040215313434601,9.989208221435547,2.99072265625,-0.946044921875,3.021240234375
4.5074999,0.5093663930892944,-0.507570743560791,9.712677955627441,-7.14111328125,1.129150390625,-2.593994140625
4.5124999,0.629675030708313,-0.42856210470199585,9.706093788146973,7.843017578125,0.1220703125,0.152587890625
4.5174999,0.5566518902778625,-0.4411316514015198,10.01075553894043,-4.94384765625,-1.5869140625,1.15966796875
4.522499900000001,0.5333084464073181,-0.5141547918319702,9.549273490905762,-0.1220703125,1.64794921875,-2.99072265625
4.5274999000000005,0.5680243372917175,-0.5428852438926697,9.607333183288574,-1.5869140625,1.708984375,-3.204345703125
4.5324999,0.6572083830833435,-0.44412440061569214,10.037690162658691,6.103515625,-0.8544921875,2.532958984375
4.5374999,0.4686649739742279,-0.49799394607543945,9.830592155456543,-7.720947265625,-0.030517578125,-1.52587890625
4.5424999,0.6440402865409851,-0.4878185987472534,9.66539192199707,5.79833984375,0.701904296875,-1.28173828125
4.5474999,0.5434837937355042,-0.3794809579849243,9.972448348999023,-1.46484375,-1.52587890625,2.62451171875
4.5524999,0.5632359385490417,-0.4818331003189087,9.598953247070312,-4.08935546875,1.739501953125,-3.265380859375
4.5574999,0.6380547285079956,-0.4040215313434601,9.8784761428833,7.14111328125,-0.30517578125,1.922607421875
4.562499900000001,0.47824180126190186,-0.4812345504760742,9.889848709106445,-7.293701171875,-0.54931640625,-0.152587890625
4.5674999000000005,0.5973533391952515,-0.5410895943641663,9.589376449584961,3.84521484375,1.190185546875,-2.227783203125
4.5724999,0.5291185975074768,-0.4183867573738098,9.99339771270752,-2.593994140625,-1.5869140625,2.01416015625
4.5774999,0.5434837937355042,-0.52552729845047,9.668384552001953,-2.9296875,1.708984375,-3.35693359375
4.5824999,0.6260837316513062,-0.444722980260849,9.988011360168457,6.65283203125,-0.213623046875,1.89208984375
4.5874999,0.46088382601737976,-0.5321113467216492,9.880870819091797,-7.32421875,-0.06103515625,-0.30517578125
4.5924999,0.6039373874664307,-0.5530605912208557,9.592369079589844,3.84521484375,1.708984375,-2.01416015625
4.5974999,0.5716156363487244,-0.5345055460929871,9.57321548461914,-5.767822265625,0.885009765625,-2.593994140625
4.602499900000001,0.669179379940033,-0.43754035234451294,9.664793968200684,7.38525390625,0,0.6103515625
4.6074999000000005,0.5913678407669067,-0.47165772318840027,9.9772367477417,-5.31005859375,-1.15966796875,1.0986328125
4.6124999,0.5398924946784973,-0.5440823435783386,9.57201862335205,-0.244140625,1.800537109375,-2.960205078125
4.6174999,0.6021417379379272,-0.4854243993759155,10.010157585144043,5.218505859375,-1.129150390625,2.471923828125
4.6224999,0.406415730714798,-0.5171475410461426,9.783307075500488,-7.50732421875,0.030517578125,-1.556396484375
4.6274999,0.5847837924957275,-0.5033808946609497,9.646238327026367,5.4931640625,0.91552734375,-1.190185546875
4.6324999,0.5171475410461426,-0.3908534348011017,9.967659950256348,-0.701904296875,-1.495361328125,2.532958984375
4.6374999,0.579995334148407,-0.5297171473503113,9.609128952026367,-4.669189453125,1.190185546875,-3.0517578125
4.6424999,0.4854243993759155,-0.49380409717559814,9.726444244384766,-7.110595703125,0.396728515625,-1.77001953125
4.647499900000001,0.6506243348121643,-0.4578910768032074,9.661202430725098,6.134033203125,0.67138671875,-0.8544921875
4.6524999000000005,0.5482721924781799,-0.40282443165779114,9.988011360168457,-1.5869140625,-1.617431640625,2.25830078125
4.6574999,0.5805938839912415,-0.5333084464073181,9.66539192199707,-3.387451171875,1.03759765625,-3.11279296875
4.6624999,0.6422445774078369,-0.46327802538871765,9.889848709106445,7.32421875,-0.701904296875,0.9765625
4.6674999,0.5476736426353455,-0.5279214978218079,9.97065258026123,-6.439208984375,-0.579833984375,0.335693359375
4.6724999,0.557250440120697,-0.5680243372917175,9.597756385803223,2.0751953125,1.617431640625,-2.532958984375
4.6774999,0.6021417379379272,-0.4465186297893524,9.944316864013672,3.662109375,-1.556396484375,2.50244140625
4.6824999,0.4554968774318695,-0.4985924959182739,9.667187690734863,-6.866455078125,0.48828125,-1.861572265625
4.687499900000001,0.628477931022644,-0.4381389021873474,9.624092102050781,6.34765625,0.640869140625,-0.732421875
4.6924999000000005,0.5428852438926697,-0.383670836687088,9.95748519897461,-1.89208984375,-1.64794921875,2.105712890625
4.6974999,0.5841852426528931,-0.5309142470359802,9.6618013381958,-3.631591796875,1.007080078125,-2.99072265625
4.7024999,0.4339490532875061,-0.4800374507904053,9.692327499389648,-7.080078125,0.48828125,-1.3427734375
4.7074999,0.6009446382522583,-0.4596867263317108,9.584588050842285,5.43212890625,0.579833984375,-1.03759765625
4.7124999,0.524330198764801,-0.37828385829925537,9.93354320526123,-0.701904296875,-1.678466796875,2.197265625
4.7174999,0.5638344883918762,-0.5392939448356628,9.612719535827637,-4.638671875,1.40380859375,-2.50244140625
4.7224999,0.6380547285079956,-0.4991910457611084,10.018536567687988,4.638671875,-0.6103515625,2.3193359375
4.727499900000001,0.44592007994651794,-0.5273229479789734,9.815628051757812,-6.744384765625,0.1220703125,-0.946044921875
4.7324999000000005,0.5440823435783386,-0.375291109085083,9.928155899047852,1.28173828125,-1.64794921875,2.3193359375
4.7374999,0.5500678420066833,-0.4405331015586853,9.618106842041016,-5.67626953125,0.885009765625,-2.288818359375
4.7424999,0.6631938815116882,-0.3824737071990967,9.691129684448242,6.988525390625,-0.42724609375,-0.06103515625
4.7474999,0.5943605899810791,-0.3794809579849243,9.988011360168457,-3.448486328125,-1.5869140625,1.495361328125
4.7524999,0.5764040350914001,-0.52552729845047,9.666589736938477,-1.800537109375,1.52587890625,-2.9296875
4.7574999,0.6344634294509888,-0.4842272996902466,9.967061996459961,6.591796875,-0.67138671875,1.40380859375
4.7624999,0.4710591733455658,-0.6829460263252258,9.213486671447754,-3.84521484375,-1.129150390625,0.42724609375
4.7674999,0.4710591733455658,-0.6829460263252258,9.213486671447754,-3.84521484375,-1.129150390625,0.42724609375
4.772499900000001,0.7194576263427734,-1.0959458351135254,8.752602577209473,21.209716796875,0.274658203125,-14.373779296875
4.7774999000000005,0.8607155084609985,-1.224035620689392,7.971494674682617,39.0625,1.28173828125,-17.059326171875
4.7824999,1.2300211191177368,-1.8171991109848022,7.4322004318237305,30.731201171875,7.62939453125,-14.495849609375
4.7874999,1.1965023279190063,-0.910993754863739,6.66904878616333,56.671142578125,9.8876953125,-9.8876953125
4.7924999,-0.06703764945268631,0.8289923667907715,6.1501054763793945,57.67822265625,-6.77490234375,-26.519775390625
4.7974999,-0.3561375141143799,0.9870096445083618,6.115988254547119,46.38671875,-11.566162109375,-53.16162109375
4.8024999,-0.06464344263076782,1.599326729774475,6.053140640258789,69.51904296875,-15.106201171875,-52.337646484375
4.8074999,-0.1801636815071106,1.4508862495422363,6.278793811798096,40.863037109375,-16.11328125,-55.35888671875
4.812499900000001,0.02454056777060032,2.580350875854492,5.8855462074279785,44.12841796875,-6.622314453125,-47.332763671875
4.8174999000000005,-0.39564183354377747,2.449268341064453,5.8616042137146,42.236328125,-9.002685546875,-47.42431640625
4.8224999,-0.20350714027881622,3.2172086238861084,5.351639270782471,76.019287109375,-9.46044921875,-62.957763671875
4.8274999,-0.21009120345115662,3.2854433059692383,4.942230701446533,45.95947265625,0.30517578125,-5.859375
4.8324999,-0.08918401598930359,3.3638534545898438,5.088277339935303,39.73388671875,4.058837890625,-29.876708984375
4.8374999,0.4183867573738098,3.116652011871338,4.553173065185547,81.6650390625,-0.213623046875,-21.392822265625
4.8424999,0.8583213090896606,3.95641827583313,4.817732334136963,66.070556640625,-4.486083984375,-24.383544921875
4.8474999,0.9493009448051453,3.536834478378296,4.208407878875732,-0.3662109375,1.922607421875,-0.42724609375
4.852499900000001,1.0097545385360718,3.0113072395324707,4.593874454498291,16.845703125,4.791259765625,1.922607421875
4.8574999000000005,0.06524199992418289,2.670732021331787,4.787805080413818,-38.421630859375,10.528564453125,12.603759765625
4.8624999,0.3196259140968323,2.9670145511627197,6.138134479522705,-31.3720703125,8.7890625,0.54931640625
4.8674999,-0.03172317147254944,3.692457675933838,6.830059051513672,-87.982177734375,8.758544921875,32.623291015625
4.8724999,0.35673606395721436,4.487332344055176,7.398083209991455,-109.466552734375,19.805908203125,36.041259765625
4.8774999,0.38905778527259827,5.237316131591797,7.557297706604004,-125.79345703125,20.355224609375,39.703369140625
4.8824999,0.2795230448246002,4.446032524108887,6.988076210021973,-192.108154296875,20.721435546875,48.675537109375
4.8874999,0.2795230448246002,4.446032524108887,6.988076210021973,-192.108154296875,20.721435546875,48.675537109375
4.8924999,-0.22086510062217712,2.4402899742126465,8.13908863067627,-187.8662109375,-10.589599609375,22.979736328125
4.897499900000001,-0.9876081943511963,-0.004788403399288654,10.411784172058105,-110.687255859375,-105.712890625,-2.5634765625
4.9024999000000005,-1.2791022062301636,-3.3877954483032227,12.42351245880127,-47.515869140625,-101.50146484375,-27.2216796875
4.9074999,2.7934348583221436,-0.6488286852836609,9.59057331085205,28.717041015625,25.787353515625,-9.185791015625
4.9124999,1.602918028831482,1.0420763492584229,10.821791648864746,9.979248046875,20.751953125,-2.13623046875
4.9174999,0.6542156338691711,1.7854759693145752,11.069591522216797,15.44189453125,16.54052734375,4.2724609375
4.9224999,-0.38905778527259827,1.898003339767456,10.72602367401123,-7.080078125,10.6201171875,8.23974609375
4.9274999,-0.8475474119186401,1.4443022012710571,9.929352760314941,1.3427734375,-0.762939453125,-1.922607421875
4.9324999,-1.1701661348342896,0.9259575009346008,9.853935241699219,-12.237548828125,-10.6201171875,0.518798828125
4.937499900000001,-0.9989806413650513,0.22385786473751068,9.344569206237793,-6.65283203125,-11.29150390625,-6.16455078125
4.9424999000000005,0.4620809257030487,-0.8882488012313843,9.862914085388184,0.244140625,-12.5732421875,5.218505859375
4.9474999,0.8972271084785461,-1.0767922401428223,9.540295600891113,-9.46044921875,-3.875732421875,-5.035400390625
4.9524999,1.4425065517425537,-1.0749965906143188,9.971850395202637,9.124755859375,-0.457763671875,2.777099609375
4.9574999,1.4856021404266357,-1.0546458959579468,9.890447616577148,-7.568359375,3.875732421875,-3.143310546875
4.9624999,1.6101006269454956,-0.9882067441940308,9.97603988647461,13.7939453125,6.866455078125,1.3427734375
4.9674999,1.22642982006073,-0.7793126702308655,9.945513725280762,-5.615234375,5.950927734375,-0.3662109375
4.9724999,1.0307037830352783,-0.6841431260108948,9.706692695617676,11.932373046875,6.744384765625,-1.46484375
4.977499900000001,0.5285200476646423,-0.365115761756897,9.892841339111328,-4.302978515625,1.739501953125,2.3193359375
4.9824999000000005,0.3878606855869293,-0.35434186458587646,9.515155792236328,4.730224609375,2.410888671875,-3.72314453125
4.9874999,0.14903905987739563,-0.11791443079710007,9.955090522766113,-2.3193359375,-4.058837890625,3.96728515625
4.9924999,0.1628057211637497,-0.2495955228805542,9.475052833557129,-3.509521484375,-1.64794921875,-4.82177734375
4.9974999,0.31842881441116333,-0.4076128304004669,9.560646057128906,-9.033203125,-2.166748046875,-4.486083984375
5.0024999,0.641047477722168,-0.4794389009475708,9.894038200378418,6.988525390625,-3.143310546875,3.23486328125
5.0074999,0.6530185341835022,-0.718859076499939,9.73781681060791,-10.009765625,-0.67138671875,-2.685546875
5.0124999,0.9343371987342834,-0.7793126702308655,9.841964721679688,10.650634765625,1.007080078125,0.91552734375
5.0174999,0.8158242106437683,-0.7936778664588928,9.921571731567383,-8.056640625,0.67138671875,0.640869140625
5.022499900000001,0.9558850526809692,-0.761954665184021,9.695918083190918,8.331298828125,4.119873046875,-2.3193359375
5.0274999000000005,0.74040687084198,-0.557250440120697,10.052654266357422,-2.838134765625,0.030517578125,3.143310546875
5.0324999,0.7338228225708008,-0.5734112858772278,9.565434455871582,1.89208984375,3.448486328125,-4.669189453125
5.0374999,0.5979518890380859,-0.3447650372982025,10.035895347595215,2.9296875,-1.312255859375,4.39453125
5.0424999,0.4106055796146393,-0.44532153010368347,9.55705451965332,-5.767822265625,0.885009765625,-4.8828125
5.0474999,0.5033808946609497,-0.35075053572654724,9.88386344909668,6.744384765625,-2.197265625,3.7841796875
5.0524999,0.35733461380004883,-0.49320554733276367,9.685144424438477,-9.796142578125,-1.40380859375,-2.716064453125
5.0574999,0.5153518915176392,-0.5464765429496765,9.882665634155273,-8.6669921875,-2.13623046875,0.396728515625
5.062499900000001,0.7577648162841797,-0.5961562395095825,9.636661529541016,6.256103515625,1.64794921875,-2.62451171875
5.0674999000000005,0.6961141228675842,-0.49380409717559814,10.035296440124512,-2.838134765625,-1.495361328125,3.41796875
5.0724999,0.7799112200737,-0.6236895322799683,9.566631317138672,-0.152587890625,3.082275390625,-4.7607421875
5.0774999,0.7811083197593689,-0.4423287510871887,10.005967140197754,4.608154296875,-1.03759765625,4.2724609375
5.0824999,0.6266822814941406,-0.5979518890380859,9.639056205749512,-6.744384765625,1.739501953125,-3.96728515625
5.0874999,0.6787561774253845,-0.43694180250167847,9.88506031036377,8.6669921875,-0.030517578125,2.593994140625
5.0924999,0.45669397711753845,-0.5309142470359802,9.789292335510254,-9.21630859375,-0.640869140625,-1.40380859375
5.0974999,0.6003460884094238,-0.49619829654693604,9.719860076904297,7.75146484375,0.6103515625,-0.67138671875
5.102499900000001,0.4626794755458832,-0.44173020124435425,9.989806175231934,-5.9814453125,-2.3193359375,2.197265625
5.1074999000000005,0.6027402877807617,-0.5835866928100586,9.555258750915527,1.434326171875,1.617431640625,-3.997802734375
5.1124999,0.6147112846374512,-0.4423287510871887,10.051457405090332,1.739501953125,-2.8076171875,4.119873046875
5.1174999,0.7242460250854492,-0.5494692921638489,9.9185791015625,8.30078125,-0.335693359375,3.082275390625
5.1224999,0.6135141849517822,-0.5422866940498352,9.914389610290527,-5.767822265625,-1.312255859375,1.495361328125
5.1274999,0.7170634269714355,-0.5901707410812378,9.495404243469238,3.021240234375,1.922607421875,-3.570556640625
5.1324999,0.646434485912323,-0.4159925580024719,10.003573417663574,1.434326171875,-2.197265625,3.90625
5.1374999,0.5608417391777039,-0.5422866940498352,9.59177017211914,-5.4931640625,1.190185546875,-4.425048828125
5.1424999,0.6590040326118469,-0.44771572947502136,9.934141159057617,7.75146484375,-1.15966796875,2.86865234375
5.147499900000001,0.48901569843292236,-0.5321113467216492,9.761159896850586,-9.124755859375,-0.457763671875,-1.861572265625
5.1524999000000005,0.6997054219245911,-0.5632359385490417,9.68574333190918,7.843017578125,1.068115234375,-0.579833984375
5.1574999,0.608127236366272,-0.5093663930892944,9.935338973999023,-5.523681640625,-1.89208984375,1.861572265625
5.1624999,0.7140706777572632,-0.6320692300796509,9.499593734741211,1.3427734375,2.044677734375,-3.7841796875
5.1674999,0.7056909799575806,-0.4429273009300232,9.96825885772705,2.8076171875,-1.495361328125,3.84521484375
5.1724999,0.6248866319656372,-0.6470330357551575,9.583989143371582,-6.256103515625,1.708984375,-3.692626953125
5.1774999,0.7032967209815979,-0.48303020000457764,9.79527759552002,8.758544921875,-0.091552734375,2.227783203125
5.1824999,0.524330198764801,-0.5835866928100586,9.79288387298584,-8.697509765625,-0.518798828125,-0.67138671875
5.187499900000001,0.6877344250679016,-0.5345055460929871,9.621099472045898,6.28662109375,1.5869140625,-1.52587890625
5.1924999000000005,0.5602431893348694,-0.4255693554878235,10.033500671386719,-2.13623046875,-2.288818359375,2.838134765625
5.1974999,0.5919663906097412,-0.5225345492362976,9.55466079711914,-1.800537109375,1.251220703125,-4.119873046875
5.2024999,0.5434837937355042,-0.5351040959358215,9.694122314453125,-8.48388671875,0.42724609375,-2.86865234375
5.2074999,0.6919242739677429,-0.47584760189056396,9.70429801940918,8.636474609375,0.396728515625,0.732421875
5.2124999,0.5847837924957275,-0.5171475410461426,9.951498985290527,-6.8359375,-1.28173828125,1.007080078125
5.2174999,0.6739677786827087,-0.586579442024231,9.558850288391113,2.86865234375,2.410888671875,-3.2958984375
5.2224999,0.6314706802368164,-0.4429273009300232,10.029909133911133,2.01416015625,-1.800537109375,3.448486328125
5.227499900000001,0.6075286865234375,-0.6177040338516235,9.639654159545898,-5.950927734375,1.373291015625,-3.84521484375
5.2324999000000005,0.6925228238105774,-0.45429977774620056,9.880271911621094,7.843017578125,-0.274658203125,2.25830078125
5.2374999,0.5231330990791321,-0.5542576909065247,9.864709854125977,-8.392333984375,-0.518798828125,-0.67138671875
5.2424999,0.6877344250679016,-0.5380968451499939,9.636063575744629,5.828857421875,1.922607421875,-1.77001953125
5.2474999,0.5638344883918762,-0.4339490532875061,10.000580787658691,-1.708984375,-1.922607421875,2.716064453125
5.2524999,0.5770025849342346,-0.5674257874488831,9.556455612182617,-2.716064453125,1.64794921875,-3.936767578125
5.2574999,0.6787561774253845,-0.4489128291606903,9.928155899047852,6.256103515625,-1.068115234375,3.11279296875
5.2624999,0.4991910457611084,-0.5500678420066833,9.720458984375,-8.392333984375,0.30517578125,-2.13623046875
5.2674999,0.6967126727104187,-0.5524620413780212,9.670180320739746,7.50732421875,0.9765625,-0.48828125
