# Time (seconds),Accel_X,Accel_Y,Accel_Z,Gyro_X,Gyro_Y,Gyro_Z
0.0024999,0.6745663285255432,-0.6859387755393982,9.527725219726562,-13.24462890625,2.25830078125,-6.866455078125
0.0074999,0.6745663285255432,-0.6859387755393982,9.527725219726562,-13.24462890625,2.25830078125,-6.866455078125
0.012499900000000001,0.7942764163017273,-0.5817909836769104,9.959280967712402,13.031005859375,-0.274658203125,6.622314453125
0.0174999,0.6703764796257019,-0.6799532771110535,9.450512886047363,-11.23046875,2.532958984375,-7.50732421875
0.0224999,0.7709329724311829,-0.5716156363487244,10.017938613891602,10.711669921875,-0.67138671875,6.866455078125
0.0274999,0.6973112225532532,-0.6434416770935059,9.459490776062012,-8.85009765625,1.64794921875,-7.75146484375
0.0324999,0.6991068720817566,-0.6135141849517822,9.487024307250977,-7.50732421875,1.007080078125,-7.568359375
0.0374999,0.751779317855835,-0.517746090888977,10.065223693847656,6.256103515625,-2.197265625,7.171630859375
0.0424999,0.6889315247535706,-0.6129156351089478,9.484031677246094,-6.011962890625,0.213623046875,-7.598876953125
0.0474999,0.7529764175415039,-0.536899745464325,10.038289070129395,5.0048828125,-2.13623046875,7.476806640625
0.0524999,0.7026981711387634,-0.6524199843406677,9.494206428527832,-4.7607421875,0.48828125,-7.720947265625
0.0574999,0.7823054194450378,-0.5650315880775452,10.019135475158691,4.33349609375,-1.3427734375,7.110595703125
0.0624999,0.7362170219421387,-0.6799532771110535,9.496601104736328,-4.058837890625,1.3427734375,-7.659912109375
0.0674999,0.811634361743927,-0.5596446394920349,9.96945571899414,4.21142578125,-0.3662109375,7.110595703125
0.0724999,0.7475894689559937,-0.6823474764823914,9.452308654785156,-3.875732421875,1.5869140625,-7.598876953125
0.0774999,0.7924807667732239,-0.5428852438926697,9.888651847839355,4.45556640625,-0.42724609375,7.080078125
0.0824999,0.7487865686416626,-0.5512649416923523,9.84495735168457,4.94384765625,-0.6103515625,6.805419921875
0.0874999,0.7350199222564697,-0.5608417391777039,9.895833969116211,6.103515625,-1.0986328125,6.89697265625
0.0924999,0.6979097723960876,-0.6889315247535706,9.424775123596191,-6.591796875,0.762939453125,-7.293701171875
0.0974999,0.7595604658126831,-0.5494692921638489,10.00716495513916,7.14111328125,-1.251220703125,6.65283203125
0.1024999,0.7122750282287598,-0.6530185341835022,9.528324127197266,-8.056640625,0.885009765625,-6.988525390625
0.1074999,0.800261914730072,-0.5321113467216492,10.068216323852539,8.9111328125,-1.5869140625,6.34765625
0.1124999,0.7032967209815979,-0.6572083830833435,9.57441234588623,-9.918212890625,0.823974609375,-6.8359375
0.1174999,0.8301894664764404,-0.5452794432640076,10.010157585144043,10.68115234375,-1.068115234375,5.828857421875
0.1224999,0.7116764783859253,-0.7122750282287598,9.602544784545898,-11.5966796875,0.9765625,-6.011962890625
0.1274999,0.8457517623901367,-0.595557689666748,9.95209789276123,12.542724609375,-1.220703125,5.2490234375
0.1324999,0.7356184720993042,-0.7613561153411865,9.692327499389648,-13.12255859375,1.03759765625,-5.279541015625
0.1374999,0.8457517623901367,-0.6099228858947754,9.978434562683105,13.7939453125,-0.79345703125,4.180908203125
0.1424999,0.7954735159873962,-0.5339069962501526,9.913790702819824,14.70947265625,-0.701904296875,3.0517578125
0.1474999,0.7368155717849731,-0.6643909811973572,9.683348655700684,-14.862060546875,1.007080078125,-2.685546875
0.1524999,0.727837324142456,-0.4991910457611084,9.750985145568848,15.106201171875,-0.79345703125,1.220703125
0.1574999,0.6961141228675842,-0.6015431880950928,9.664793968200684,-14.09912109375,0.823974609375,-0.91552734375
0.1624999,0.7368155717849731,-0.5297171473503113,9.639654159545898,13.427734375,-0.48828125,-0.457763671875
0.1674999,0.727837324142456,-0.6236895322799683,9.725247383117676,-12.451171875,0.42724609375,1.0986328125
0.1724999,0.7745242714881897,-0.5781996846199036,9.645041465759277,11.383056640625,-0.701904296875,-2.532958984375
0.17749990000000002,0.7589619159698486,-0.6584054827690125,9.906607627868652,-9.429931640625,-0.152587890625,2.99072265625
0.1824999,0.7212532758712769,-0.6470330357551575,9.593565940856934,6.8359375,-0.6103515625,-3.662109375
0.1874999,0.6230909824371338,-0.6021417379379272,9.829395294189453,-8.148193359375,-1.617431640625,7.62939453125
0.1924999,0.02992752194404602,-0.5111620426177979,8.885480880737305,-10.92529296875,-5.615234375,3.875732421875
0.1974999,-1.22642982006073,-0.010773907415568829,8.316259384155273,-38.604736328125,-22.03369140625,43.060302734375
0.2024999,-5.064933776855469,-0.2214636504650116,8.989029884338379,-5.4931640625,-106.5673828125,122.772216796875
0.20749990000000001,-6.015431880950928,-0.6799532771110535,10.244789123535156,50.445556640625,-128.143310546875,132.38525390625
0.2124999,-5.668272495269775,-1.61069917678833,11.368268013000488,59.75341796875,-116.14990234375,117.0654296875
0.2174999,-3.958214044570923,-1.9728221893310547,10.90798282623291,47.18017578125,-92.95654296875,104.888916015625
0.2224999,-1.3275848627090454,-1.7824832201004028,9.761159896850586,27.4658203125,-79.9560546875,135.284423828125
0.2274999,1.4484920501708984,-1.1294646263122559,8.576030731201172,20.843505859375,-52.8564453125,151.947021484375
0.2324999,3.9701850414276123,-0.4578910768032074,8.107964515686035,24.23095703125,-17.242431640625,131.65283203125
0.2374999,6.101623058319092,0.10115502029657364,8.246828079223633,32.501220703125,9.307861328125,99.334716796875
0.2424999,1.6124948263168335,0.21547815203666687,9.461885452270508,-16.204833984375,92.132568359375,-54.840087890625
0.2474999,0.27892449498176575,0.1215057373046875,10.04188060760498,-8.60595703125,89.2333984375,-43.609619140625
0.2524999,-0.8954314589500427,-0.15741875767707825,10.685920715332031,1.617431640625,72.296142578125,-32.16552734375
0.2574999,-1.975814938545227,-0.5829881429672241,11.115679740905762,8.7890625,44.647216796875,-25.20751953125
0.2624999,-2.855085611343384,-0.9654618501663208,11.165958404541016,7.415771484375,16.54052734375,-23.92578125
0.2674999,-3.405751943588257,-1.206079125404358,10.779892921447754,1.678466796875,-1.15966796875,-24.993896484375
0.2724999,-3.4374752044677734,-1.2898762226104736,10.163386344909668,-0.8544921875,-8.392333984375,-19.989013671875
0.2774999,-2.934692621231079,-1.1109095811843872,9.63067626953125,-1.068115234375,-12.786865234375,-6.04248046875
0.2824999,-2.0225019454956055,-0.7948749661445618,9.446322441101074,-2.3193359375,-19.83642578125,6.805419921875
0.28749990000000003,0.04249707981944084,-0.16759411990642548,9.668983459472656,-7.598876953125,-26.3671875,2.01416015625
0.2924999,0.8325836658477783,-0.17238251864910126,9.745597839355469,-7.781982421875,-25.421142578125,-0.701904296875
0.2974999,1.4616601467132568,-0.3363853394985199,9.751583099365234,-5.706787109375,-17.730712890625,0.48828125
0.3024999,1.821987509727478,-0.6236895322799683,9.769539833068848,-1.800537109375,-12.20703125,0.579833984375
0.3074999,1.9925743341445923,-0.8780734539031982,9.729436874389648,0.213623046875,-6.805419921875,-1.129150390625
0.3124999,1.9303251504898071,-0.961870551109314,9.740809440612793,1.77001953125,-2.655029296875,-1.77001953125
0.3174999,1.7178397178649902,-0.9349357485771179,9.695320129394531,1.373291015625,0.1220703125,-0.54931640625
0.3224999,1.434126853942871,-0.7996633648872375,9.707889556884766,0.885009765625,3.0517578125,0.213623046875
0.3274999,1.149815320968628,-0.6326677799224854,9.691129684448242,0.335693359375,3.0517578125,0.457763671875
0.3324999,0.8960300087928772,-0.5147533416748047,9.731232643127441,-0.3662109375,2.655029296875,-0.396728515625
0.3374999,0.7523778676986694,-0.49799394607543945,9.767744064331055,-0.213623046875,1.739501953125,-1.220703125
0.3424999,0.6823474764823914,-0.47165772318840027,9.821015357971191,0.640869140625,2.86865234375,-0.732421875
0.34749990000000003,0.7823054194450378,-0.6165069341659546,9.815628051757812,0.579833984375,4.058837890625,-1.64794921875
0.35249990000000003,0.8702923059463501,-0.5907692909240723,9.739612579345703,0.701904296875,6.011962890625,-0.152587890625
0.3574999,0.9139865040779114,-0.6458359360694885,9.733627319335938,0.06103515625,6.256103515625,0.67138671875
0.3624999,0.8942343592643738,-0.5883750915527344,9.727043151855469,-0.244140625,5.9814453125,0.42724609375
0.3674999,0.7966706156730652,-0.6021417379379272,9.738415718078613,-0.06103515625,3.662109375,0.67138671875
0.3724999,0.6171054840087891,-0.6159083843231201,9.767744064331055,0.6103515625,0.457763671875,1.40380859375
0.3774999,0.44532153010368347,-0.6350619792938232,9.790489196777344,0.8544921875,-3.692626953125,0
0.3824999,0.36810851097106934,-0.5937620401382446,9.816825866699219,0.1220703125,-5.828857421875,-1.708984375
0.3874999,0.38127660751342773,-0.6159083843231201,9.821015357971191,0.213623046875,-6.195068359375,-0.1220703125
0.3924999,0.5069721937179565,-0.5165489912033081,9.765948295593262,-1.52587890625,-6.378173828125,-0.67138671875
0.3974999,0.7631517648696899,-0.5482721924781799,9.784503936767578,-1.52587890625,-3.265380859375,-1.495361328125
0.4024999,0.9241618514060974,-0.5309142470359802,9.732429504394531,-2.44140625,-1.220703125,0.946044921875
0.4074999,1.0971429347991943,-0.6757634282112122,9.764153480529785,0.518798828125,0.9765625,0.48828125
0.41249990000000003,1.0402805805206299,-0.7691373229026794,9.7605619430542,1.922607421875,0.335693359375,-0.91552734375
0.41749990000000003,1.0067617893218994,-0.7775170207023621,9.848548889160156,2.227783203125,1.922607421875,-1.739501953125
0.4224999,0.9253589510917664,-0.7523778676986694,9.75517463684082,1.77001953125,2.899169921875,-1.708984375
0.4274999,0.9564836025238037,-0.6159083843231201,9.814431190490723,-0.30517578125,4.302978515625,-2.685546875
0.4324999,0.8643068075180054,-0.5057750940322876,9.719860076904297,-1.861572265625,5.340576171875,-0.579833984375
0.4374999,0.7697358727455139,-0.4842272996902466,9.765948295593262,-1.800537109375,3.2958984375,2.838134765625
0.4424999,0.5919663906097412,-0.5105634927749634,9.740809440612793,0.1220703125,0.457763671875,2.44140625
0.4474999,0.4704606235027313,-0.6218938827514648,9.799467086791992,1.434326171875,-4.39453125,-1.861572265625
0.4524999,0.44412440061569214,-0.7978677153587341,9.799467086791992,2.62451171875,-4.058837890625,-3.387451171875
0.4574999,0.5327098965644836,-0.690727174282074,9.75517463684082,0.457763671875,-4.058837890625,-2.532958984375
0.4624999,0.7601590156555176,-0.6925228238105774,9.741408348083496,-0.946044921875,-0.152587890625,-1.77001953125
0.4674999,0.9546879529953003,-0.5033808946609497,9.749788284301758,-0.579833984375,1.007080078125,5.340576171875
0.47249990000000003,0.9558850526809692,-0.5476736426353455,9.791686058044434,-0.030517578125,-2.74658203125,-0.091552734375
0.47749990000000003,0.8864531517028809,-0.8038532137870789,9.75397777557373,2.50244140625,-2.044677734375,-4.974365234375
0.4824999,0.9307458996772766,-0.7194576263427734,9.764153480529785,1.52587890625,-0.946044921875,-3.936767578125
0.4874999,0.9397241473197937,-0.739209771156311,9.674968719482422,0.457763671875,3.662109375,-0.701904296875
0.4924999,0.9493009448051453,-0.4554968774318695,9.755773544311523,-1.8310546875,3.631591796875,4.608154296875
0.4974999,0.8487445116043091,-0.4554968774318695,9.738415718078613,-0.67138671875,1.983642578125,4.852294921875
0.5024999,0.718859076499939,-0.4884171485900879,9.803058624267578,0,-1.922607421875,-3.204345703125
0.5074999,0.6625953316688538,-0.6380547285079956,9.720458984375,0.640869140625,-1.40380859375,-6.53076171875
0.5124999,0.6931213736534119,-0.739209771156311,9.718064308166504,1.190185546875,1.708984375,-2.838134765625
0.5174999,0.7487865686416626,-0.6649895310401917,9.731831550598145,-0.42724609375,3.692626953125,4.45556640625
0.5224999,0.7601590156555176,-0.6362590789794922,9.759963035583496,0.274658203125,1.15966796875,6.2255859375
0.5274999,0.6847416758537292,-0.667982280254364,9.766547203063965,-0.457763671875,-3.23486328125,-7.62939453125
0.5324999,0.7146692276000977,-0.6596025824546814,9.7791166305542,0.1220703125,0.1220703125,-2.838134765625
0.5374999,0.8062474131584167,-0.6075286865234375,9.780912399291992,0.06103515625,2.349853515625,6.744384765625
0.5424999,0.8122329115867615,-0.5656301379203796,9.792284965515137,0.67138671875,-0.335693359375,7.01904296875
0.5474999,0.8182184100151062,-0.5871779918670654,9.894038200378418,0.701904296875,-3.47900390625,-4.8828125
0.5524999,0.7876923680305481,-0.6470330357551575,9.790489196777344,-2.01416015625,-2.8076171875,-9.674072265625
0.5574999,0.8583213090896606,-0.6985083222389221,9.783905029296875,-0.79345703125,1.8310546875,-0.701904296875
0.5624999,0.8529343605041504,-0.6308721303939819,9.774927139282227,1.495361328125,3.23486328125,10.07080078125
0.5674999000000001,0.8439561128616333,-0.618302583694458,9.840168952941895,1.495361328125,-0.6103515625,4.486083984375
0.5724999000000001,0.7763199210166931,-0.6123170852661133,9.774927139282227,-0.244140625,-2.62451171875,-10.650634765625
0.5774999000000001,0.7805097699165344,-0.5841852426528931,9.7791166305542,-3.662109375,0.48828125,-9.94873046875
0.5824999,0.8146271109580994,-0.6165069341659546,9.718064308166504,0.3662109375,4.21142578125,6.378173828125
0.5874999,0.7924807667732239,-0.5823895931243896,9.803657531738281,1.89208984375,-2.74658203125,-5.523681640625
0.5924999,0.7553706169128418,-0.5817909836769104,9.774927139282227,-5.31005859375,-1.953125,-15.289306640625
0.5974999,0.7655459642410278,-0.6129156351089478,9.75397777557373,-1.678466796875,2.62451171875,0.8544921875
0.6024999,0.7422025203704834,-0.6123170852661133,9.738415718078613,4.974365234375,2.74658203125,16.021728515625
0.6074999,0.750582218170166,-0.619499683380127,9.773730278015137,3.204345703125,-2.593994140625,0.1220703125
0.6124999,0.7320271730422974,-0.5937620401382446,9.725247383117676,-6.072998046875,-3.875732421875,-17.39501953125
0.6174999,0.7703344225883484,-0.6165069341659546,9.73781681060791,-3.631591796875,1.068115234375,-3.143310546875
0.6224999,0.7703344225883484,-0.6165069341659546,9.73781681060791,-3.631591796875,1.068115234375,-3.143310546875
0.6274999,0.8074445128440857,-0.5847837924957275,9.787496566772461,6.134033203125,3.173828125,17.730712890625
0.6324999,0.8313865661621094,-0.5740098357200623,9.800664901733398,4.302978515625,-1.953125,2.410888671875
0.6374999,0.8337807655334473,-0.535702645778656,9.791686058044434,-7.62939453125,-4.302978515625,-19.195556640625
0.6424999,0.8361749649047852,-0.585382342338562,9.79527759552002,-3.662109375,1.251220703125,-3.60107421875
0.6474999,0.8248024582862854,-0.6093243360519409,9.740809440612793,-9.765625,-3.631591796875,-20.782470703125
0.6524999,0.8122329115867615,-0.6506243348121643,9.807847023010254,-1.251220703125,2.655029296875,1.007080078125
0.6574999,0.801459014415741,-0.6757634282112122,9.806650161743164,9.033203125,4.241943359375,19.6533203125
0.6624999,0.7733271718025208,-0.6488286852836609,9.722254753112793,-0.30517578125,-1.800537109375,-7.01904296875
0.6674999,0.7894880175590515,-0.6817489266395569,9.77672290802002,-10.345458984375,-3.173828125,-19.378662109375
0.6724999,0.7637503147125244,-0.667982280254364,9.79527759552002,4.425048828125,3.23486328125,10.955810546875
0.6774999,0.760757565498352,-0.6212953329086304,9.734225273132324,8.4228515625,2.288818359375,14.70947265625
0.6824999,0.7990648150444031,-0.5650315880775452,9.699509620666504,-7.62939453125,-3.41796875,-17.059326171875
0.6874999,0.7835025191307068,-0.6003460884094238,9.81024169921875,-5.645751953125,-1.373291015625,-9.27734375
0.6924999000000001,0.8158242106437683,-0.5841852426528931,9.81143856048584,9.3994140625,3.570556640625,19.195556640625
0.6974999000000001,0.7870938181877136,-0.5596446394920349,9.709685325622559,1.15966796875,-0.762939453125,-0.48828125
0.7024999000000001,0.7942764163017273,-0.6272808313369751,9.829395294189453,5.340576171875,1.953125,9.09423828125
0.7074999,0.7870938181877136,-0.5548562407493591,9.688735961914062,7.38525390625,1.556396484375,12.359619140625
0.7124999,0.7469909191131592,-0.52552729845047,9.549872398376465,-9.979248046875,-2.410888671875,-16.998291015625
0.7174999,0.6631938815116882,-1.1929110288619995,9.078214645385742,-5.401611328125,-0.1220703125,4.21142578125
0.7224999,0.09696517139673233,-2.623446464538574,7.072471618652344,-3.265380859375,-1.40380859375,71.014404296875
0.7274999,0.09696517139673233,-2.623446464538574,7.072471618652344,-3.265380859375,-1.40380859375,71.014404296875
0.7324999,-0.4357447028160095,-2.935291290283203,7.060500621795654,-0.885009765625,-11.65771484375,64.727783203125
0.7374999,-0.5632359385490417,-3.825335741043091,7.305307865142822,22.03369140625,-27.099609375,64.94140625
0.7424999,-0.7523778676986694,-2.6426000595092773,8.681375503540039,61.279296875,-29.998779296875,57.586669921875
0.7474999,-0.800261914730072,-1.6382324695587158,9.53849983215332,45.867919921875,-47.454833984375,29.510498046875
0.7524999,-0.8092401623725891,1.2749123573303223,9.53969669342041,43.548583984375,-69.549560546875,20.56884765625
0.7574999,-0.17477671802043915,2.9502551555633545,9.45410442352295,27.679443359375,-84.28955078125,5.706787109375
0.7624999,1.7603367567062378,4.520252704620361,8.028356552124023,9.3994140625,-68.05419921875,14.373779296875
0.7674999,2.544437885284424,3.5913026332855225,7.669825077056885,11.90185546875,-31.55517578125,21.759033203125
0.7724999,3.755903959274292,2.6126725673675537,7.954735279083252,31.036376953125,-6.7138671875,32.71484375
0.7774999,4.125808238983154,1.5269020795822144,7.740454196929932,-0.3662109375,11.77978515625,33.599853515625
0.7824999,4.575918197631836,1.058835744857788,7.957727909088135,-21.575927734375,7.659912109375,7.232666015625
0.7874999,4.55496883392334,0.8822633028030396,7.432799339294434,-41.290283203125,11.993408203125,-14.862060546875
0.7924999,4.426878929138184,0.9493009448051453,7.24485445022583,-68.389892578125,27.9541015625,-25.634765625
0.7974999,4.2527008056640625,0.9624691009521484,7.4782891273498535,-69.82421875,62.286376953125,-28.289794921875
0.8024999,3.7020344734191895,-0.29388827085494995,9.862914085388184,-23.3154296875,118.255615234375,-9.46044921875
0.8074999,3.7020344734191895,-0.29388827085494995,9.862914085388184,-23.3154296875,118.255615234375,-9.46044921875
0.8124999,2.98437237739563,-1.4305355548858643,11.351509094238281,-0.79345703125,92.681884765625,-6.683349609375
0.8174999000000001,-2.6240451335906982,-1.236605167388916,9.223662376403809,8.9111328125,0.335693359375,-3.814697265625
0.8224999000000001,-2.0841526985168457,-0.27054479718208313,9.369708061218262,-0.274658203125,-9.765625,0.9765625
0.8274999000000001,-1.2222399711608887,0.30047231912612915,9.611522674560547,-5.828857421875,-16.082763671875,-1.40380859375
0.8324999000000001,-0.4704606235027313,0.6224924325942993,9.73542308807373,-12.20703125,-18.37158203125,2.471923828125
0.8374999,0.25737667083740234,0.5195417404174805,9.840168952941895,-7.2021484375,-18.24951171875,5.859375
0.8424999,0.7817068696022034,0.09516951441764832,9.881468772888184,-5.67626953125,-19.34814453125,2.899169921875
0.8474999,1.0887632369995117,-0.5219359993934631,9.954492568969727,-1.495361328125,-19.439697265625,-3.265380859375
0.8524999,1.3784615993499756,-0.7481880187988281,9.9185791015625,-1.495361328125,-15.31982421875,-6.89697265625
0.8574999,1.3682862520217896,-0.5925649404525757,9.726444244384766,0.946044921875,0,-1.708984375
0.8624999,1.1653777360916138,-0.43035775423049927,9.68694019317627,-2.99072265625,0.701904296875,-7.843017578125
0.8674999,1.169567584991455,-0.3645172119140625,9.765350341796875,-0.67138671875,6.500244140625,-7.110595703125
0.8724999,1.0402805805206299,-0.29867666959762573,9.733627319335938,-1.922607421875,9.918212890625,4.302978515625
0.8774999,0.9678560495376587,-0.5207388401031494,9.794678688049316,3.753662109375,8.85009765625,9.6435546875
0.8824999,0.6224924325942993,-0.7314286231994629,9.798869132995605,0.762939453125,5.279541015625,-7.62939453125
0.8874999,0.5614402890205383,-0.7050924301147461,9.739612579345703,-0.48828125,5.43212890625,4.638671875
0.8924999,0.49140989780426025,-0.6548141837120056,9.757569313049316,2.13623046875,1.190185546875,9.368896484375
0.8974999,0.40880993008613586,-0.5758054852485657,9.798270225524902,-3.90625,-5.92041015625,-10.3759765625
0.9024999,0.5135562419891357,-0.6165069341659546,9.833584785461426,-1.007080078125,-3.41796875,-4.33349609375
0.9074999,0.6218938827514648,-0.4985924959182739,9.813833236694336,-0.518798828125,-2.99072265625,9.429931640625
0.9124999,0.7577648162841797,-0.5285200476646423,9.86770248413086,1.800537109375,-5.55419921875,7.87353515625
0.9174999,0.7655459642410278,-0.5835866928100586,9.829395294189453,-0.152587890625,-7.110595703125,-7.598876953125
0.9224999,0.8936358094215393,-0.6153098344802856,9.791088104248047,-4.2724609375,-3.936767578125,-12.176513671875
0.9274999,0.960673451423645,-0.7116764783859253,9.699509620666504,-1.129150390625,1.40380859375,2.197265625
0.9324999,1.0546458959579468,-0.6721721291542053,9.707889556884766,4.150390625,2.0751953125,13.61083984375
0.9374999,1.0462661981582642,-0.7709329724311829,9.82640266418457,2.899169921875,0.457763671875,-0.06103515625
0.9424999000000001,1.049857497215271,-0.6260837316513062,9.77253246307373,-5.0048828125,1.434326171875,-14.7705078125
0.9474999000000001,0.9780313968658447,-0.7152677774429321,9.831191062927246,-2.593994140625,5.9814453125,-5.584716796875
0.9524999000000001,0.9163807034492493,-0.6027402877807617,9.75517463684082,4.730224609375,7.14111328125,14.0380859375
0.9574999000000001,0.6949170231819153,-0.568622887134552,9.749189376831055,-3.814697265625,-1.312255859375,-15.228271484375
0.9624999,0.6153098344802856,-0.6117185354232788,9.751583099365234,-4.791259765625,1.129150390625,-9.552001953125
0.9674999,0.5811924338340759,-0.5883750915527344,9.742006301879883,3.936767578125,2.899169921875,13.916015625
0.9724999,0.5764040350914001,-0.6685808300971985,9.781511306762695,5.31005859375,-0.9765625,8.23974609375
0.9774999,0.6206967830657959,-0.596754789352417,9.741408348083496,-5.18798828125,-4.69970703125,-15.80810546875
0.9824999,0.6913257241249084,-0.6817489266395569,9.73542308807373,-6.195068359375,-1.678466796875,-10.467529296875
0.9874999,0.7757213711738586,-0.6171054840087891,9.749788284301758,5.157470703125,1.8310546875,15.777587890625
0.9924999,0.8517372608184814,-0.6823474764823914,9.761758804321289,6.500244140625,-1.52587890625,8.026123046875
0.9974999,0.9044097065925598,-0.5704185366630554,9.752182006835938,-7.38525390625,-3.753662109375,-18.035888671875
1.0024999,0.921169102191925,-0.645237386226654,9.7791166305542,-5.7373046875,-0.335693359375,-8.453369140625
1.0074999000000002,0.9151836037635803,-0.5021837949752808,9.774927139282227,7.904052734375,3.753662109375,18.341064453125
1.0124999000000001,0.8684966564178467,-0.5309142470359802,9.803058624267578,5.157470703125,0.885009765625,4.119873046875
1.0174999000000002,0.8433575630187988,-0.4794389009475708,9.815628051757812,-1.495361328125,-0.213623046875,-5.828857421875
1.0224999000000001,0.8487445116043091,-0.5315127968788147,9.84495735168457,-10.223388671875,-1.15966796875,-19.1650390625
1.0274999,0.7757213711738586,-0.5009866952896118,9.855133056640625,5.157470703125,2.9296875,11.077880859375
1.0324999000000001,0.6805518269538879,-0.6476315855979919,9.695918083190918,8.453369140625,0.9765625,13.00048828125
1.0374999,0.6871358752250671,-0.5057750940322876,9.676166534423828,-9.674072265625,-2.777099609375,-17.669677734375
1.0424999000000001,0.6763619780540466,-0.5811924338340759,9.789292335510254,11.138916015625,1.251220703125,18.585205078125
1.0474999,0.7218518257141113,-0.6099228858947754,9.72165584564209,-1.220703125,-3.23486328125,-3.662109375
1.0524999000000002,0.7829039692878723,-0.6446388363838196,9.77791976928711,-10.284423828125,-2.593994140625,-17.76123046875
1.0574999,0.7547720670700073,-0.6368576288223267,9.888651847839355,6.805419921875,1.495361328125,12.14599609375
1.0624999000000002,0.8152256608009338,-0.7410054206848145,9.780313491821289,-3.60107421875,1.129150390625,-7.659912109375
1.0674999,0.8373720645904541,-0.6057330369949341,9.715071678161621,12.26806640625,2.62451171875,16.357421875
1.0724999000000002,0.800261914730072,-0.5734112858772278,9.548674583435059,-5.279541015625,-0.9765625,-5.7373046875
1.0774999,0.8050503134727478,-0.6817489266395569,9.753378868103027,-7.26318359375,-0.06103515625,-12.451171875
1.0824999000000002,0.8062474131584167,-0.5793967843055725,9.821614265441895,11.688232421875,1.617431640625,14.22119140625
1.0874999,0.7541735172271729,-0.5482721924781799,9.68274974822998,-2.166748046875,-1.068115234375,-1.068115234375
1.0924999000000002,0.7649474143981934,-0.6314706802368164,9.853337287902832,-10.040283203125,-0.701904296875,-14.007568359375
1.0974999,0.7416039705276489,-0.6524199843406677,9.9586820602417,11.29150390625,1.03759765625,12.237548828125
1.1024999000000002,0.8062474131584167,-0.5805938839912415,9.687539100646973,0.640869140625,-1.15966796875,2.899169921875
1.1074999,0.8547300100326538,-0.6673837304115295,9.781511306762695,-12.664794921875,-0.732421875,-14.068603515625
1.1124999000000002,0.8439561128616333,-0.6829460263252258,9.910798072814941,12.39013671875,1.708984375,9.918212890625
1.1174999,0.8044517636299133,-0.5632359385490417,9.607333183288574,0.18310546875,-0.640869140625,2.227783203125
1.1224999000000002,0.7655459642410278,-0.5081692934036255,9.566631317138672,-2.532958984375,-0.579833984375,0.244140625
1.1274999,0.7457938194274902,-0.6392518281936646,9.742006301879883,-12.176513671875,-0.152587890625,-10.6201171875
1.1324999000000002,0.8020575642585754,-0.6009446382522583,9.817423820495605,16.357421875,1.40380859375,10.7421875
1.1374999000000001,0.7218518257141113,-0.5279214978218079,9.546878814697266,-6.683349609375,-0.762939453125,-3.11279296875
1.1424999000000002,0.811634361743927,-0.6811503767967224,9.924564361572266,18.310546875,1.068115234375,10.406494140625
1.1474999000000001,0.7451952695846558,-0.6093243360519409,9.672574996948242,-13.0615234375,-1.52587890625,-6.591796875
1.1524999000000002,0.8164227604866028,-0.7200561761856079,10.001178741455078,-3.692626953125,0.30517578125,-2.9296875
1.1574999000000001,0.7894880175590515,-0.6027402877807617,9.81143856048584,17.51708984375,0.30517578125,8.48388671875
1.1624999,0.7799112200737,-0.4692635238170624,9.595361709594727,-18.951416015625,-1.28173828125,-9.246826171875
1.1674999000000001,0.8080430626869202,-0.6242880821228027,9.916184425354004,5.462646484375,0.732421875,2.5634765625
1.1724999,0.8086416125297546,-0.5027823448181152,9.66419506072998,13.458251953125,0.457763671875,3.7841796875
1.1774999000000002,0.7757213711738586,-0.5590460896492004,9.667187690734863,-22.003173828125,-0.9765625,-8.9111328125
1.1824999,0.8415619134902954,-0.6500257849693298,9.943717956542969,15.7470703125,1.5869140625,7.232666015625
1.1874999000000002,0.7799112200737,-0.5249287486076355,9.572616577148438,1.52587890625,0.18310546875,-2.471923828125
1.1924999,0.7715315222740173,-0.6105214357376099,9.785101890563965,-17.913818359375,-0.640869140625,-4.8828125
1.1974999000000002,0.8182184100151062,-0.6787561774253845,9.912593841552734,23.223876953125,1.617431640625,7.99560546875
1.2024999,0.761954665184021,-0.6356605291366577,9.819818496704102,-18.37158203125,-1.03759765625,-1.739501953125
1.2074999000000002,0.7996633648872375,-0.646434485912323,9.86889934539795,24.444580078125,0.48828125,6.134033203125
1.2124999,0.7996633648872375,-0.646434485912323,9.86889934539795,24.444580078125,0.48828125,6.134033203125
1.2174999000000002,0.7763199210166931,-0.5297171473503113,9.568427085876465,-18.9208984375,-0.091552734375,-8.880615234375
1.2224999,0.8098387122154236,-0.646434485912323,9.974244117736816,4.058837890625,-0.274658203125,6.40869140625
1.2274999000000002,0.8212111592292786,-0.5650315880775452,9.622895240783691,12.420654296875,1.007080078125,-2.777099609375
1.2324999,0.750582218170166,-0.6147112846374512,9.751583099365234,-22.76611328125,-0.457763671875,-3.7841796875
1.2374999000000002,0.47165772318840027,-2.6384103298187256,7.7763671875,43.212890625,12.725830078125,95.550537109375
1.2424999,0.6997054219245911,-2.846107244491577,6.825270652770996,105.133056640625,15.2587890625,14.22119140625
1.2474999000000002,0.7344213724136353,-1.4688427448272705,6.247070789337158,-36.956787109375,9.94873046875,-25.69580078125
1.2524999,0.47465047240257263,-0.7463923692703247,6.221931457519531,-41.534423828125,-25.7568359375,-6.7138671875
1.2574999000000002,0.08738835901021957,1.0720038414001465,6.196194171905518,44.952392578125,-15.777587890625,-4.180908203125
1.2624999000000001,-0.20889410376548767,3.2537200450897217,7.127538681030273,40.740966796875,-5.035400390625,-16.845703125
1.2674999000000002,-0.11971008777618408,4.937442302703857,8.446743965148926,-13.73291015625,-35.919189453125,-22.796630859375
1.2724999000000001,0.21308395266532898,6.125565052032471,9.071630477905273,-16.11328125,-51.20849609375,-30.8837890625
1.2774999000000002,1.2653355598449707,4.402936935424805,8.729259490966797,-24.078369140625,-1.89208984375,-11.53564453125
1.2824999000000001,1.8082208633422852,2.5468320846557617,8.908226013183594,-20.751953125,5.55419921875,-1.861572265625
1.2874999,2.301426410675049,0.7272387742996216,9.354146003723145,-26.947021484375,7.99560546875,-6.195068359375
1.2924999000000001,2.410961151123047,-1.015141487121582,9.88745403289795,-19.927978515625,16.448974609375,-10.650634765625
1.2974999,2.163759708404541,-2.2373814582824707,10.1568021774292,-8.72802734375,15.07568359375,-5.950927734375
1.3024999000000002,1.653794765472412,-3.0346505641937256,9.951498985290527,6.622314453125,6.439208984375,-2.593994140625
1.3074999,0.9307458996772766,-3.534440279006958,9.621099472045898,14.678955078125,2.532958984375,-7.2021484375
1.3124999000000002,0.4926069974899292,-3.200449228286743,9.320028305053711,7.537841796875,3.2958984375,-14.16015625
1.3174999,0.18794482946395874,-2.5743653774261475,9.29309368133545,3.875732421875,5.950927734375,-10.3759765625
1.3224999000000002,0.21607670187950134,-1.501164436340332,9.551069259643555,8.60595703125,3.96728515625,4.791259765625
1.3274999,0.2998737692832947,-0.5404910445213318,9.889848709106445,5.18798828125,-1.617431640625,9.765625
1.3324999000000002,0.49559974670410156,0.060453593730926514,9.989806175231934,-1.8310546875,-1.068115234375,-2.99072265625
1.3374999,0.8475474119186401,0.23163901269435883,9.836577415466309,-5.340576171875,3.11279296875,2.777099609375
1.3424999000000002,0.9068039059638977,-0.090979665517807,9.774927139282227,1.953125,-0.396728515625,14.129638671875
1.3474999,0.8702923059463501,-0.5374982953071594,9.822811126708984,3.692626953125,-5.126953125,1.5869140625
1.3524999000000002,0.7924807667732239,-0.9115923047065735,9.801861763000488,-1.983642578125,-5.43212890625,-13.580322265625
1.3574999,0.7499836683273315,-1.05105459690094,9.77791976928711,-1.3427734375,-1.40380859375,-8.270263671875
1.3624999000000002,0.8547300100326538,-0.7332242727279663,9.807847023010254,3.814697265625,-4.57763671875,8.880615234375
1.3674999,0.9205705523490906,-0.5416881442070007,9.742006301879883,-3.0517578125,-4.302978515625,-10.223388671875
1.3724999000000002,0.9552865028381348,-0.48303020000457764,9.743802070617676,-5.92041015625,0.274658203125,-12.542724609375
1.3774999,1.0001777410507202,-0.5141547918319702,9.698312759399414,0.946044921875,4.547119140625,8.60595703125
1.3824999000000002,0.9690531492233276,-0.6721721291542053,9.767146110534668,5.79833984375,1.15966796875,14.09912109375
1.3874999000000001,0.9965864419937134,-0.7362170219421387,9.765350341796875,0.18310546875,-0.1220703125,-7.232666015625
1.3924999000000002,0.921169102191925,-0.7948749661445618,9.743204116821289,1.617431640625,7.01904296875,5.645751953125
1.3974999000000001,0.8248024582862854,-0.7691373229026794,9.7791166305542,7.415771484375,1.922607421875,15.167236328125
1.4024999000000002,0.8026561141014099,-0.6440402865409851,9.727641105651855,-0.579833984375,-1.617431640625,-7.659912109375
1.4074999000000001,0.6919242739677429,-0.6171054840087891,9.773131370544434,-7.720947265625,0.8544921875,-17.608642578125
1.4124999,0.6889315247535706,-0.5488707423210144,9.717466354370117,1.251220703125,2.25830078125,7.110595703125
1.4174999000000001,0.656609833240509,-0.5452794432640076,9.759963035583496,7.99560546875,-2.8076171875,15.838623046875
1.4224999,0.6428431272506714,-0.5464765429496765,9.719860076904297,-2.532958984375,-6.256103515625,-10.101318359375
1.4274999000000002,0.7050924301147461,-0.6314706802368164,9.821614265441895,-9.002685546875,-2.62451171875,-16.7236328125
1.4324999,0.7236474752426147,-0.707486629486084,9.840168952941895,4.669189453125,1.15966796875,11.77978515625
1.4374999000000002,0.7966706156730652,-0.7835025191307068,9.851541519165039,8.30078125,-3.143310546875,13.458251953125
1.4424999,1.0091559886932373,-0.6661866307258606,9.678560256958008,5.43212890625,-0.885009765625,5.126953125
1.4474999000000002,0.973242998123169,-0.6548141837120056,9.680954933166504,-10.833740234375,2.197265625,-20.01953125
1.4524999,0.8978256583213806,-0.7236474752426147,9.747992515563965,0.6103515625,4.8828125,0.396728515625
1.4574999000000002,0.8140285611152649,-0.656609833240509,9.730035781860352,11.260986328125,0.30517578125,18.463134765625
1.4624999,0.7649474143981934,-0.6218938827514648,9.668983459472656,-4.425048828125,-1.220703125,-9.552001953125
1.4674999000000002,0.761954665184021,-0.6775590777397156,9.75278091430664,-9.033203125,2.349853515625,-15.228271484375
1.4724999,0.7086837291717529,-0.6536170840263367,9.838972091674805,9.1552734375,0.3662109375,15.2587890625
1.4774999000000002,0.7314286231994629,-0.6165069341659546,9.73542308807373,4.21142578125,-4.08935546875,6.256103515625
1.4824999,0.7661445140838623,-0.6602011322975159,9.766547203063965,-12.603759765625,-0.640869140625,-18.890380859375
1.4874999000000002,0.8092401623725891,-0.7032967209815979,9.868300437927246,3.631591796875,1.556396484375,3.692626953125
1.4924999,0.8236053586006165,-0.6715735793113708,9.815628051757812,10.25390625,-3.23486328125,15.380859375
1.4974999000000002,0.8619126081466675,-0.5578489899635315,9.622895240783691,-5.4931640625,-1.861572265625,-5.92041015625
1.5024999,0.9091981053352356,-0.646434485912323,9.738415718078613,-8.697509765625,3.143310546875,-13.214111328125
1.5074999000000002,0.8667010068893433,-0.6153098344802856,9.808445930480957,12.786865234375,1.007080078125,14.373779296875
1.5124999000000001,0.8379706144332886,-0.557250440120697,9.665990829467773,-1.0986328125,-1.800537109375,0.67138671875
1.5174999000000002,0.8589198589324951,-0.7086837291717529,9.77013874053955,-11.71875,2.288818359375,-15.167236328125
1.5224999000000001,0.8164227604866028,-0.7775170207023621,9.93593692779541,10.955810546875,1.15966796875,8.514404296875
1.5274999000000002,0.7637503147125244,-0.6338648796081543,9.697115898132324,3.7841796875,-2.74658203125,5.4931640625
1.5324999000000001,0.8086416125297546,-0.7338228225708008,9.888052940368652,11.3525390625,1.220703125,7.476806640625
1.5374999000000003,0.7709329724311829,-0.5746083855628967,9.673771858215332,4.2724609375,-2.410888671875,5.43212890625
1.5424999000000001,0.8391677141189575,-0.667982280254364,9.718663215637207,-15.9912109375,1.007080078125,-13.458251953125
1.5474999,0.8188169598579407,-0.6931213736534119,9.927556991577148,12.63427734375,1.0986328125,7.659912109375
1.5524999000000002,0.7918822169303894,-0.535702645778656,9.672574996948242,3.204345703125,-2.105712890625,3.875732421875
1.5574999,0.8361749649047852,-0.6488286852836609,9.718663215637207,-16.357421875,1.678466796875,-12.02392578125
1.5624999000000002,0.8331822156906128,-0.639850378036499,9.885659217834473,15.350341796875,1.007080078125,8.544921875
1.5674999,0.8277952671051025,-0.4920084476470947,9.575610160827637,-0.06103515625,-1.46484375,0.946044921875
1.5724999000000002,0.821809709072113,-0.6404489278793335,9.691129684448242,-15.5029296875,2.044677734375,-9.765625
1.5774999,0.8319851160049438,-0.6440402865409851,9.834781646728516,18.61572265625,0.30517578125,9.674072265625
1.5824999000000002,0.7613561153411865,-0.5746083855628967,9.57201862335205,-5.615234375,-0.946044921875,-3.23486328125
1.5874999,0.7996633648872375,-0.7380126714706421,9.832986831665039,-12.237548828125,1.708984375,-6.256103515625
1.5924999000000002,0.8577227592468262,-0.7691373229026794,9.93593692779541,-5.157470703125,1.40380859375,-1.220703125
1.5974999,0.8289923667907715,-0.6189011335372925,9.808445930480957,20.477294921875,-1.434326171875,6.988525390625
1.6024999000000002,0.8313865661621094,-0.5482721924781799,9.563039779663086,-20.965576171875,-0.18310546875,-9.185791015625
1.6074999,0.8601169586181641,-0.6985083222389221,9.862914085388184,6.16455078125,0.67138671875,4.39453125
1.6124999000000002,0.8792705535888672,-0.5656301379203796,9.671378135681152,13.763427734375,-1.129150390625,1.52587890625
1.6174999,0.8355764150619507,-0.6643909811973572,9.64564037322998,-23.834228515625,1.251220703125,-7.659912109375
1.6224999000000002,0.8756792545318604,-0.7601590156555176,9.9586820602417,18.768310546875,0.396728515625,7.843017578125
1.6274999,0.8038532137870789,-0.6200982332229614,9.608530044555664,-1.068115234375,0.06103515625,-5.126953125
1.6324999000000002,0.8062474131584167,-0.6979097723960876,9.830592155456543,-16.937255859375,1.5869140625,-1.861572265625
1.6374999000000001,0.8080430626869202,-0.6512228846549988,9.87967300415039,25.238037109375,-0.640869140625,6.439208984375
1.6424999000000002,0.7948749661445618,-0.5165489912033081,9.589975357055664,-18.280029296875,0.701904296875,-8.819580078125
1.6474999000000001,0.8445546627044678,-0.7451952695846558,9.974244117736816,20.782470703125,-1.129150390625,7.720947265625
1.6524999000000002,0.7529764175415039,-0.618302583694458,9.582792282104492,-5.9814453125,-0.1220703125,-7.537841796875
1.6574999000000001,0.8313865661621094,-0.7445967197418213,9.911994934082031,-11.627197265625,0.701904296875,2.62451171875
1.6624999000000003,0.8553285598754883,-0.6865373253822327,9.831191062927246,23.193359375,-1.5869140625,2.227783203125
1.6674999000000001,0.801459014415741,-0.6362590789794922,9.604938507080078,-24.169921875,1.251220703125,-7.080078125
1.6724999,0.884058952331543,-0.7356184720993042,10.04068374633789,14.83154296875,-0.762939453125,7.965087890625
1.6774999000000002,0.8062474131584167,-0.6087257862091064,9.609128952026367,0.701904296875,-0.244140625,-6.89697265625
1.6824999,0.8277952671051025,-0.6661866307258606,9.898826599121094,-15.68603515625,1.678466796875,1.678466796875
1.6874999000000002,0.8523358106613159,-0.6380547285079956,9.862914085388184,24.4140625,-1.861572265625,2.593994140625
1.6924999,0.7775170207023621,-0.5704185366630554,9.571419715881348,-23.162841796875,1.922607421875,-7.293701171875
1.6974999000000002,0.7799112200737,-0.5817909836769104,9.567230224609375,0.18310546875,-0.213623046875,-7.293701171875
1.7024999,0.8164227604866028,-0.6422445774078369,9.870695114135742,-14.190673828125,2.105712890625,2.685546875
1.7074999000000002,0.8355764150619507,-0.6242880821228027,9.81143856048584,23.345947265625,-2.3193359375,0.885009765625
1.7124999,0.7745242714881897,-0.5997475385665894,9.575610160827637,-24.200439453125,2.166748046875,-5.889892578125
1.7174999000000002,0.8463503122329712,-0.657806932926178,9.98681354522705,18.157958984375,-1.3427734375,7.50732421875
1.7224999,0.7775170207023621,-0.5943605899810791,9.530718803405762,-6.28662109375,-0.3662109375,-8.453369140625
1.7274999000000002,0.8092401623725891,-0.6494272351264954,9.913191795349121,-6.8359375,1.434326171875,5.4931640625
1.7324999,0.7942764163017273,-0.6446388363838196,9.728240013122559,17.822265625,-2.471923828125,-2.655029296875
1.7374999000000002,0.7876923680305481,-0.6260837316513062,9.698312759399414,-23.834228515625,2.899169921875,-2.288818359375
1.7424999,0.8092401623725891,-0.706289529800415,9.9586820602417,23.406982421875,-2.01416015625,5.2490234375
1.7474999000000002,0.7894880175590515,-0.6344634294509888,9.556455612182617,-17.303466796875,1.007080078125,-8.056640625
1.7524999,0.8595184087753296,-0.7206547260284424,10.0580415725708,7.110595703125,0.732421875,7.720947265625
1.7574999000000002,0.8074445128440857,-0.629675030708313,9.616909980773926,-23.62060546875,2.50244140625,-3.448486328125
1.7624999000000001,0.8110358119010925,-0.6715735793113708,9.9371337890625,21.514892578125,-1.220703125,5.645751953125
1.7674999000000002,0.7721300721168518,-0.6230909824371338,9.519944190979004,-15.13671875,0.457763671875,-8.148193359375
1.7724999000000001,0.8367735147476196,-0.6985083222389221,10.037690162658691,6.256103515625,0.946044921875,7.8125
1.7774999000000002,0.7984662652015686,-0.6404489278793335,9.597756385803223,3.631591796875,-1.861572265625,-7.50732421875
1.7824999000000001,0.8505401611328125,-0.6446388363838196,9.895833969116211,-12.237548828125,2.105712890625,4.730224609375
1.7874999000000003,0.8158242106437683,-0.6727706789970398,9.7605619430542,18.85986328125,-2.62451171875,-2.74658203125
1.7924999000000001,0.8319851160049438,-0.641047477722168,9.66419506072998,-22.27783203125,2.3193359375,-1.03759765625
1.7974999,0.8577227592468262,-0.690727174282074,9.884461402893066,22.705078125,-1.861572265625,3.23486328125
1.8024999000000002,0.8242039084434509,-0.6643909811973572,9.5223388671875,-19.744873046875,0.79345703125,-6.34765625
1.8074999,0.811634361743927,-0.6218938827514648,9.491812705993652,-8.11767578125,-0.54931640625,-8.270263671875
1.8124999000000002,0.8738836050033569,-0.646434485912323,9.993996620178223,0.6103515625,1.495361328125,7.38525390625
1.8174999,0.8403648138046265,-0.6440402865409851,9.647436141967773,6.7138671875,-1.708984375,-6.988525390625
1.8224999000000002,0.8924387097358704,-0.6386532783508301,9.912593841552734,-13.00048828125,2.227783203125,4.45556640625
1.8274999,0.8487445116043091,-0.6889315247535706,9.797073364257812,17.608642578125,-1.800537109375,-2.99072265625
1.8324999000000002,0.839766263961792,-0.618302583694458,9.695320129394531,-20.599365234375,1.861572265625,-0.091552734375
1.8374999,0.839766263961792,-0.618302583694458,9.695320129394531,-20.599365234375,1.861572265625,-0.091552734375
1.8424999000000002,0.8355764150619507,-0.679354727268219,9.858125686645508,21.636962890625,-1.312255859375,1.617431640625
1.8474999,0.7852981686592102,-0.641047477722168,9.627084732055664,-20.660400390625,1.129150390625,-4.425048828125
1.8524999000000002,0.8134300112724304,-0.6715735793113708,9.983820915222168,18.310546875,-0.396728515625,5.4931640625
1.8574999,0.7589619159698486,-0.6506243348121643,9.592369079589844,-14.5263671875,0.091552734375,-7.171630859375
1.8624999000000002,0.7966706156730652,-0.6332663297653198,9.989208221435547,10.31494140625,0.1220703125,7.354736328125
1.8674999,0.8044517636299133,-0.6236895322799683,9.55585765838623,4.638671875,-1.40380859375,-7.110595703125
1.8724999000000002,0.8798691034317017,-0.6512228846549988,9.952696800231934,-8.72802734375,1.495361328125,5.767822265625
1.8774999,0.8170213103294373,-0.7308300733566284,9.715071678161621,12.725830078125,-1.556396484375,-5.218505859375
1.8824999000000002,0.8254010081291199,-0.6536170840263367,9.810839653015137,-15.31982421875,1.64794921875,3.0517578125
1.8874999000000001,0.8068459630012512,-0.7236474752426147,9.770736694335938,17.730712890625,-1.46484375,-2.227783203125
1.8924999000000002,0.8188169598579407,-0.6230909824371338,9.651625633239746,-18.98193359375,1.28173828125,0.213623046875
1.8974999000000001,0.8158242106437683,-0.645237386226654,9.815030097961426,19.4091796875,-0.67138671875,0.54931640625
1.9024999000000002,0.8421604633331299,-0.6542156338691711,9.627683639526367,-19.59228515625,1.129150390625,-2.593994140625
1.9074999000000001,0.8541314601898193,-0.6440402865409851,9.894637107849121,19.256591796875,-0.67138671875,3.0517578125
1.9124999000000003,0.800261914730072,-0.6841431260108948,9.638457298278809,-17.7001953125,0.457763671875,-4.730224609375
1.9174999000000001,0.8541314601898193,-0.6673837304115295,9.965864181518555,16.387939453125,-0.335693359375,4.94384765625
1.9224999,0.7398083209991455,-0.6853402256965637,9.544485092163086,-11.04736328125,-0.335693359375,-7.110595703125
1.9274999000000002,0.7906851172447205,-0.6260837316513062,9.954492568969727,9.002685546875,0.152587890625,6.927490234375
1.9324999,0.800261914730072,-0.6799532771110535,9.542689323425293,-7.26318359375,-0.457763671875,-7.537841796875
1.9374999000000002,0.8559271097183228,-0.5997475385665894,9.955689430236816,5.401611328125,0.579833984375,7.14111328125
1.9424999,0.823006808757782,-0.6775590777397156,9.535507202148438,-3.47900390625,-0.701904296875,-7.659912109375
1.9474999000000002,0.8750807046890259,-0.5835866928100586,9.9371337890625,1.861572265625,0.79345703125,7.171630859375
1.9524999,0.8050503134727478,-0.6649895310401917,9.529520988464355,-0.579833984375,-0.946044921875,-7.50732421875
1.9574999000000002,0.8888474106788635,-0.5650315880775452,9.962273597717285,-0.579833984375,0.9765625,6.65283203125
1.9624999,0.7948749661445618,-0.6775590777397156,9.582193374633789,1.861572265625,-0.762939453125,-7.080078125
1.9674999000000002,0.9145850539207458,-0.5620388388633728,10.023324966430664,-2.86865234375,1.068115234375,6.378173828125
1.9724999,0.8122329115867615,-0.7194576263427734,9.609726905822754,3.875732421875,-0.6103515625,-6.805419921875
1.9774999000000002,0.7709329724311829,-0.6721721291542053,9.510966300964355,6.195068359375,-0.91552734375,-6.134033203125
1.9824999,0.7709329724311829,-0.6721721291542053,9.510966300964355,6.195068359375,-0.91552734375,-6.134033203125
1.9874999000000002,0.851138710975647,-0.5680243372917175,9.926360130310059,-6.744384765625,1.129150390625,5.7373046875
1.9924999,0.729034423828125,-0.6961141228675842,9.564835548400879,6.988525390625,-0.823974609375,-6.072998046875
1.9974999000000002,0.8271966576576233,-0.6548141837120056,9.98681354522705,-6.927490234375,0.732421875,5.584716796875
2.0024999,0.6596025824546814,-1.854907751083374,6.573879241943359,-41.9921875,11.16943359375,125.274658203125
2.0074999,0.14065934717655182,-2.272696018218994,4.466981887817383,60.11962890625,13.275146484375,238.525390625
2.0124999000000003,0.1999158412218094,-1.7950527667999268,3.250128746032715,157.989501953125,44.61669921875,190.24658203125
2.0174999000000002,-0.4315548539161682,-2.321178436279297,2.697068214416504,64.361572265625,57.159423828125,100.09765625
2.0224999,-2.7766754627227783,-0.44592007994651794,3.3931822776794434,17.486572265625,-66.253662109375,45.867919921875
2.0274999,-2.9472622871398926,2.2822728157043457,4.547187805175781,25.45166015625,-80.56640625,-5.4931640625
2.0324999000000004,-2.5019407272338867,4.976946830749512,7.016208171844482,25.45166015625,-50.47607421875,-23.284912109375
2.0374999000000003,-1.5053542852401733,6.741473197937012,8.87829875946045,-7.293701171875,-40.618896484375,-54.99267578125
2.0424999,-0.008379706181585789,8.02416706085205,10.72602367401123,-14.190673828125,-72.357177734375,-40.46630859375
2.0474999,1.2575544118881226,7.773972988128662,11.161767959594727,18.951416015625,-79.9560546875,-39.9169921875
2.0524999,2.144007682800293,7.184999465942383,10.697293281555176,5.096435546875,-60.1806640625,-70.556640625
2.0574999000000003,2.8856115341186523,5.925050735473633,10.150816917419434,-27.740478515625,-52.032470703125,-61.920166015625
2.0624999,3.624821424484253,5.319317817687988,9.631275177001953,-8.36181640625,-46.20361328125,-35.125732421875
2.0674999,4.044404983520508,3.934870481491089,9.082404136657715,-17.822265625,-25.57373046875,-23.895263671875
2.0724999,4.4490251541137695,2.9718029499053955,8.796895980834961,-32.806396484375,2.50244140625,-9.3994140625
2.0774999000000003,4.581305027008057,1.8872294425964355,8.659229278564453,-29.449462890625,25.87890625,-3.997802734375
2.0824999,4.095282077789307,-0.11611878126859665,8.99740982055664,-28.594970703125,52.6123046875,-3.47900390625
2.0874999,3.618237257003784,-0.9570821523666382,9.39365005493164,-25.482177734375,62.286376953125,-4.608154296875
2.0924999,3.06876802444458,-1.7058687210083008,9.730634689331055,-16.41845703125,68.511962890625,-8.72802734375
2.0974999000000003,2.3259668350219727,-2.425326347351074,9.928155899047852,-9.368896484375,66.71142578125,-12.51220703125
2.1024999,1.5634137392044067,-2.7988216876983643,10.017938613891602,-7.598876953125,55.267333984375,-15.350341796875
2.1074999,0.67815762758255,-2.8868086338043213,9.91738224029541,-3.814697265625,49.1943359375,-13.916015625
2.1124999,-0.09816227108240128,-2.7940332889556885,9.801262855529785,4.08935546875,41.900634765625,-9.735107421875
2.1174999000000003,-0.767341673374176,-2.3792378902435303,9.718064308166504,7.26318359375,25.32958984375,-2.044677734375
2.1224999,-1.2521674633026123,-1.8507179021835327,9.709086418151855,10.498046875,11.77978515625,4.730224609375
2.1274999,-1.5723919868469238,-1.3365631103515625,9.773131370544434,10.589599609375,-1.64794921875,5.9814453125
2.1324999,-1.6047136783599854,-0.7583633661270142,9.916184425354004,7.659912109375,-13.0615234375,-0.18310546875
2.1374999000000003,-1.3706804513931274,-0.3860650360584259,10.010157585144043,5.37109375,-17.547607421875,-6.011962890625
2.1424999000000002,-0.8517372608184814,-0.11192893236875534,9.982025146484375,-2.685546875,-22.491455078125,-6.89697265625
2.1474999,-0.11671733111143112,-0.005386953707784414,10.02811336517334,-2.9296875,-19.500732421875,-5.18798828125
2.1524999,0.5566518902778625,-0.11851298063993454,9.861717224121094,-4.57763671875,-19.561767578125,-1.617431640625
2.1574999000000004,1.1605892181396484,-0.21009120345115662,9.901819229125977,-4.486083984375,-18.829345703125,3.84521484375
2.1624999000000003,1.499967336654663,-0.4572925269603729,9.803058624267578,-0.701904296875,-15.899658203125,6.8359375
2.1674999,1.6651673316955566,-0.6685808300971985,9.815030097961426,1.3427734375,-13.641357421875,3.11279296875
2.1724999,1.679532527923584,-0.9756371974945068,9.671378135681152,3.60107421875,-6.317138671875,-3.60107421875
2.1774999000000004,1.6053122282028198,-0.9870096445083618,9.646238327026367,0.946044921875,-2.166748046875,-8.819580078125
2.1824999000000003,1.6035165786743164,-1.083974838256836,9.512163162231445,1.220703125,7.9345703125,-9.490966796875
2.1874999,1.5520412921905518,-0.9157821536064148,9.514557838439941,-1.434326171875,11.688232421875,-2.5634765625
2.1924999,1.4969745874404907,-0.706289529800415,9.600150108337402,2.349853515625,10.19287109375,5.7373046875
2.1974999,1.3048399686813354,-0.5805938839912415,9.709685325622559,0.823974609375,6.927490234375,6.866455078125
2.2024999000000003,0.6631938815116882,-0.44831427931785583,9.853935241699219,-1.922607421875,5.2490234375,-6.195068359375
2.2074999,0.4728548228740692,-0.6344634294509888,9.825204849243164,-1.800537109375,6.195068359375,-6.439208984375
2.2124999,0.3603273630142212,-0.5901707410812378,9.801861763000488,-0.9765625,2.593994140625,0.8544921875
2.2174999,0.3621230125427246,-0.7475894689559937,9.81263542175293,2.227783203125,-2.288818359375,7.415771484375
2.2224999000000003,0.44412440061569214,-0.6697779297828674,9.819818496704102,1.495361328125,-6.744384765625,3.509521484375
2.2274999,0.45190557837486267,-0.8056488633155823,9.782708168029785,1.28173828125,-5.584716796875,-4.608154296875
2.2324999,0.6314706802368164,-0.702099621295929,9.757569313049316,-2.01416015625,-3.936767578125,-8.056640625
2.2374999,0.8265981078147888,-0.7823054194450378,9.68813705444336,-0.457763671875,0.396728515625,-4.058837890625
2.2424999000000003,1.1222820281982422,-0.6709750294685364,9.825204849243164,1.953125,-1.434326171875,-1.64794921875
2.2474999,1.0528502464294434,-0.645237386226654,9.786299705505371,-3.35693359375,1.495361328125,-9.368896484375
2.2524999,0.9648633003234863,-0.6374561786651611,9.707290649414062,2.899169921875,0,10.345458984375
2.2574999,0.8254010081291199,-0.6673837304115295,9.823410034179688,3.23486328125,-2.044677734375,-0.8544921875
2.2624999000000003,0.7266402244567871,-0.6236895322799683,9.877877235412598,-4.180908203125,-0.091552734375,-10.986328125
2.2674999000000002,0.6518214344978333,-0.6847416758537292,9.764153480529785,-2.5634765625,3.509521484375,-6.89697265625
2.2724999,0.6709750294685364,-0.6218938827514648,9.755773544311523,1.739501953125,1.983642578125,7.720947265625
2.2774999,0.6979097723960876,-0.6931213736534119,9.801861763000488,3.204345703125,-4.2724609375,9.796142578125
2.2824999000000004,0.7350199222564697,-0.739209771156311,9.79288387298584,1.617431640625,-4.33349609375,-4.730224609375
2.2874999000000003,0.7374141216278076,-0.6805518269538879,9.774927139282227,-5.584716796875,-0.030517578125,-13.48876953125
2.2924999,0.8523358106613159,-0.6871358752250671,9.695320129394531,-2.25830078125,4.2724609375,-2.349853515625
2.2974999,0.9175778031349182,-0.6901286244392395,9.700108528137207,4.791259765625,-0.6103515625,12.3291015625
2.3024999000000004,0.9445125460624695,-0.6506243348121643,9.792284965515137,5.18798828125,-4.425048828125,4.791259765625
2.3074999000000003,0.8834604024887085,-0.5889736413955688,9.797672271728516,6.988525390625,-3.84521484375,11.199951171875
2.3124999,0.829590916633606,-0.6009446382522583,9.75278091430664,-1.708984375,-2.0751953125,-7.965087890625
2.3174999,0.8451532125473022,-0.5991489887237549,9.767744064331055,-8.392333984375,4.45556640625,-14.556884765625
2.3224999,0.8313865661621094,-0.6350619792938232,9.725846290588379,2.0751953125,4.486083984375,4.94384765625
2.3274999000000003,0.8367735147476196,-0.6607996821403503,9.743204116821289,8.48388671875,-4.8828125,13.458251953125
2.3324999,0.8236053586006165,-0.6883329749107361,9.750386238098145,-0.6103515625,-3.082275390625,-5.4931640625
2.3374999,0.8391677141189575,-0.6925228238105774,9.77791976928711,-10.07080078125,4.21142578125,-15.869140625
2.3424999,0.7984662652015686,-0.7038952708244324,9.732429504394531,2.227783203125,4.69970703125,3.90625
2.3474999000000003,0.8188169598579407,-0.706289529800415,9.774927139282227,9.94873046875,-5.859375,13.946533203125
2.3524999,0.8176198601722717,-0.6877344250679016,9.749189376831055,-1.8310546875,-2.716064453125,-5.9814453125
2.3574999,0.8768763542175293,-0.6428431272506714,9.746196746826172,-6.103515625,-0.67138671875,-9.6435546875
2.3624999,0.8595184087753296,-0.6518214344978333,9.782109260559082,-9.552001953125,7.2021484375,-12.420654296875
2.3674999000000003,0.7996633648872375,-0.5871779918670654,9.77013874053955,9.368896484375,0.18310546875,10.955810546875
2.3724999,0.8008604645729065,-0.5811924338340759,9.742006301879883,7.415771484375,-7.049560546875,7.781982421875
2.3774999,0.7942764163017273,-0.5835866928100586,9.744400978088379,-11.871337890625,3.143310546875,-14.58740234375
2.3824999,0.7990648150444031,-0.6590040326118469,9.77133560180664,-2.471923828125,6.256103515625,-4.486083984375
2.3874999000000003,0.7846996188163757,-0.6613982319831848,9.784503936767578,13.18359375,-5.43212890625,14.09912109375
2.3924999000000002,0.8110358119010925,-0.6332663297653198,9.722254753112793,-2.044677734375,-4.119873046875,-2.593994140625
2.3974999,0.8678981065750122,-0.7044938206672668,9.722254753112793,-12.939453125,6.9580078125,-13.885498046875
2.4024999,0.8732850551605225,-0.6404489278793335,9.727043151855469,-13.916015625,3.35693359375,-12.725830078125
2.4074999000000004,0.9032126069068909,-0.7003039717674255,9.838972091674805,-1.220703125,6.256103515625,-2.899169921875
2.4124999000000003,0.8643068075180054,-0.6745663285255432,9.831191062927246,15.31982421875,-5.767822265625,12.664794921875
2.4174999,0.8672995567321777,-0.6230909824371338,9.752182006835938,-7.720947265625,-1.64794921875,-5.645751953125
2.4224999,0.862511157989502,-0.7056909799575806,9.746794700622559,-11.138916015625,7.598876953125,-9.6435546875
2.4274999000000004,0.8098387122154236,-0.67815762758255,9.814431190490723,15.472412109375,-2.3193359375,10.3759765625
2.4324999000000003,0.7739257216453552,-0.578798234462738,9.682151794433594,1.46484375,-5.2490234375,1.5869140625
2.4374999,0.8373720645904541,-0.6500257849693298,9.72165584564209,-17.08984375,6.134033203125,-11.749267578125
2.4424999,0.8457517623901367,-0.729034423828125,9.898228645324707,11.322021484375,0.79345703125,5.9814453125
2.4474999,0.8289923667907715,-0.6458359360694885,9.809642791748047,9.58251953125,-6.8359375,5.79833984375
2.4524999000000003,0.8810662031173706,-0.6871358752250671,9.757569313049316,-19.073486328125,4.058837890625,-10.8642578125
2.4574999,0.8277952671051025,-0.7445967197418213,9.865307807922363,5.79833984375,3.082275390625,2.349853515625
2.4624999,0.8122329115867615,-0.5949591398239136,9.646238327026367,-19.012451171875,2.74658203125,-9.33837890625
2.4674999,0.8265981078147888,-0.6584054827690125,9.766547203063965,0.274658203125,4.913330078125,0.54931640625
2.4724999000000003,0.812831461429596,-0.5973533391952515,9.767146110534668,20.263671875,-6.561279296875,7.2021484375
2.4774999,0.8343793153762817,-0.5602431893348694,9.653421401977539,-17.974853515625,1.617431640625,-8.30078125
2.4824999,0.8421604633331299,-0.67815762758255,9.791686058044434,-4.08935546875,5.401611328125,0.30517578125
2.4874999,0.8188169598579407,-0.6542156338691711,9.84495735168457,23.040771484375,-6.134033203125,6.591796875
2.4924999000000003,0.8188169598579407,-0.6542156338691711,9.84495735168457,23.040771484375,-6.134033203125,6.591796875
2.4974999,0.829590916633606,-0.6057330369949341,9.687539100646973,-17.51708984375,1.251220703125,-8.331298828125
2.5024999,0.823006808757782,-0.7182605266571045,9.805453300476074,-6.53076171875,5.79833984375,0.885009765625
2.5074999,0.8074445128440857,-0.6763619780540466,9.852140426635742,25.115966796875,-6.103515625,5.523681640625
2.5124999000000003,0.823006808757782,-0.6159083843231201,9.66419506072998,-18.280029296875,1.495361328125,-8.544921875
2.5174999000000002,0.8301894664764404,-0.7218518257141113,9.817423820495605,-6.04248046875,5.157470703125,2.532958984375
2.5224999,0.8631097078323364,-0.6057330369949341,9.640851974487305,-24.932861328125,3.692626953125,-8.30078125
2.5274999,0.8631097078323364,-0.6057330369949341,9.640851974487305,-24.932861328125,3.692626953125,-8.30078125
2.5324999000000004,0.828393816947937,-0.6685808300971985,9.835979461669922,4.913330078125,2.960205078125,7.32421875
2.5374999000000003,0.7960720658302307,-0.5764040350914001,9.741408348083496,19.287109375,-6.683349609375,-2.25830078125
2.5424999,0.8146271109580994,-0.568622887134552,9.601346969604492,-27.9541015625,5.462646484375,-6.134033203125
2.5474999,0.8373720645904541,-0.6841431260108948,9.8970308303833,15.289306640625,0.06103515625,8.30078125
2.5524999000000004,0.8170213103294373,-0.6458359360694885,9.75278091430664,8.9111328125,-5.37109375,-6.16455078125
2.5574999000000003,0.8768763542175293,-0.6919242739677429,9.70549488067627,-25.787353515625,7.232666015625,-1.89208984375
2.5624999,0.8505401611328125,-0.5895721912384033,9.601346969604492,-21.392822265625,2.166748046875,-8.514404296875
2.5674999,0.8505401611328125,-0.5895721912384033,9.601346969604492,-21.392822265625,2.166748046875,-8.514404296875
2.5724999,0.8271966576576233,-0.6428431272506714,9.844358444213867,2.50244140625,3.509521484375,7.904052734375
2.5774999000000003,0.7954735159873962,-0.6224924325942993,9.749189376831055,17.578125,-6.683349609375,-4.08935546875
2.5824999,0.8427590131759644,-0.5692214369773865,9.610325813293457,-26.7333984375,6.2255859375,-3.2958984375
2.5874999,0.8427590131759644,-0.6871358752250671,9.931148529052734,21.240234375,-2.197265625,7.568359375
2.5924999,0.8505401611328125,-0.6248866319656372,9.66958236694336,-4.058837890625,-3.23486328125,-8.941650390625
2.5974999000000003,0.8990227580070496,-0.6661866307258606,9.80904483795166,-14.617919921875,6.53076171875,4.486083984375
2.6024999,0.8457517623901367,-0.7038952708244324,9.922170639038086,25.726318359375,-6.561279296875,1.068115234375
2.6074999,0.8619126081466675,-0.6242880821228027,9.645041465759277,-23.406982421875,3.021240234375,-7.049560546875
2.6124999,0.8649053573608398,-0.6883329749107361,9.971251487731934,9.94873046875,1.617431640625,8.30078125
2.6174999000000003,0.7960720658302307,-0.6560112833976746,9.715071678161621,7.8125,-5.645751953125,-7.14111328125
2.6224999,0.788889467716217,-0.7026981711387634,9.876082420349121,25.482177734375,-4.82177734375,3.72314453125
2.6274999,0.8008604645729065,-0.6123170852661133,9.564237594604492,-18.341064453125,1.068115234375,-7.99560546875
2.6324999,0.8475474119186401,-0.6607996821403503,9.88506031036377,3.936767578125,3.72314453125,8.1787109375
2.6374999000000003,0.801459014415741,-0.6458359360694885,9.703699111938477,11.77978515625,-6.317138671875,-6.195068359375
2.6424999000000002,0.8182184100151062,-0.6997054219245911,9.910798072814941,24.444580078125,-4.2724609375,3.875732421875
2.6474999,0.8182184100151062,-0.6997054219245911,9.910798072814941,24.444580078125,-4.2724609375,3.875732421875
2.6524999,0.8242039084434509,-0.6380547285079956,9.588777542114258,-17.39501953125,0.30517578125,-8.026123046875
2.6574999000000004,0.861314058303833,-0.6613982319831848,9.910798072814941,4.5166015625,3.7841796875,8.087158203125
2.6624999000000003,0.8080430626869202,-0.6494272351264954,9.692327499389648,9.6435546875,-6.195068359375,-6.805419921875
2.6674999,0.922366201877594,-0.6332663297653198,9.724648475646973,-20.263671875,6.561279296875,1.739501953125
2.6724999,0.8319851160049438,-0.6685808300971985,9.8970308303833,24.322509765625,-4.730224609375,2.105712890625
2.6774999000000004,0.872686505317688,-0.6099228858947754,9.59057331085205,-20.32470703125,1.40380859375,-6.744384765625
2.6824999000000003,0.768538773059845,-0.6518214344978333,9.800664901733398,21.42333984375,-5.7373046875,-1.556396484375
2.6874999,0.7799112200737,-0.5937620401382446,9.568427085876465,-23.284912109375,3.96728515625,-3.35693359375
2.6924999,0.7817068696022034,-0.6775590777397156,9.923367500305176,19.622802734375,-0.579833984375,6.011962890625
2.6974999,0.7763199210166931,-0.6488286852836609,9.615114212036133,-11.16943359375,-2.50244140625,-8.36181640625
2.7024999000000003,0.8732850551605225,-0.6949170231819153,9.9401273727417,0.3662109375,4.852294921875,7.598876953125
2.7074999,0.8194155097007751,-0.7170634269714355,9.759963035583496,10.101318359375,-5.92041015625,-6.53076171875
2.7124999,0.922366201877594,-0.6697779297828674,9.776124000549316,-18.096923828125,5.645751953125,2.8076171875
2.7174999,0.8331822156906128,-0.706289529800415,9.86889934539795,22.430419921875,-4.058837890625,0.213623046875
2.7224999000000003,0.9062053561210632,-0.606930136680603,9.736021041870117,-14.923095703125,5.0048828125,4.0283203125
2.7274999,0.8277952671051025,-0.6871358752250671,9.818022727966309,20.050048828125,-4.0283203125,-1.77001953125
2.7324999,0.8427590131759644,-0.639850378036499,9.599552154541016,-21.759033203125,2.410888671875,-1.64794921875
2.7374999,0.800261914730072,-0.6943184733390808,9.938929557800293,20.355224609375,-0.91552734375,3.90625
2.7424999000000003,0.8068459630012512,-0.6955155730247498,9.610923767089844,-16.387939453125,-1.0986328125,-6.622314453125
2.7474999,0.8104372620582581,-0.6643909811973572,9.95209789276123,10.68115234375,2.838134765625,7.232666015625
2.7524999,0.7829039692878723,-0.6697779297828674,9.600749015808105,-3.72314453125,-3.662109375,-8.1787109375
2.7574999,0.8667010068893433,-0.6212953329086304,9.857526779174805,-2.99072265625,4.21142578125,7.01904296875
2.7624999000000003,0.7912836670875549,-0.6979097723960876,9.719860076904297,9.613037109375,-4.08935546875,-6.4697265625
2.7674999000000002,0.882861852645874,-0.639850378036499,9.748590469360352,-14.83154296875,4.150390625,3.96728515625
2.7724999,0.7960720658302307,-0.6661866307258606,9.86889934539795,20.3857421875,-1.007080078125,2.044677734375
2.7774999,0.800261914730072,-0.6709750294685364,9.62947940826416,-18.585205078125,0.06103515625,-4.547119140625
2.7824999000000004,0.7906851172447205,-0.6530185341835022,9.928155899047852,15.5029296875,1.03759765625,5.55419921875
2.7874999000000003,0.7739257216453552,-0.6536170840263367,9.633668899536133,-11.749267578125,-2.01416015625,-7.171630859375
2.7924999,0.811634361743927,-0.6147112846374512,9.930550575256348,7.14111328125,2.62451171875,7.110595703125
2.7974999,0.8146271109580994,-0.6236895322799683,9.627683639526367,-2.25830078125,-3.0517578125,-7.99560546875
2.8024999000000004,0.9151836037635803,-0.5979518890380859,9.880870819091797,-2.471923828125,3.60107421875,6.9580078125
2.8074999000000003,0.8134300112724304,-0.6392518281936646,9.657610893249512,6.988525390625,-3.60107421875,-6.683349609375
2.8124999,0.9265560507774353,-0.6200982332229614,9.840168952941895,-10.467529296875,3.41796875,5.096435546875
2.8174999,0.8122329115867615,-0.7194576263427734,9.777320861816406,13.85498046875,-2.960205078125,-4.547119140625
2.8224999,0.851138710975647,-0.6278793811798096,9.692327499389648,-16.021728515625,2.685546875,2.50244140625
2.8274999000000003,0.7924807667732239,-0.6524199843406677,9.876680374145508,18.890380859375,-1.28173828125,0.885009765625
2.8324999,0.8307880163192749,-0.6961141228675842,9.702502250671387,-18.096923828125,0.518798828125,-2.74658203125
2.8374999,0.800261914730072,-0.6823474764823914,9.932944297790527,17.364501953125,0.030517578125,3.35693359375
2.8424999,0.7410054206848145,-0.7032967209815979,9.64803409576416,-15.655517578125,-0.579833984375,-4.852294921875
2.8474999000000003,0.7966706156730652,-0.6512228846549988,9.93593692779541,14.46533203125,0.67138671875,4.8828125
2.8524999,0.7739257216453552,-0.6667851805686951,9.598953247070312,-12.481689453125,-1.190185546875,-6.134033203125
2.8574999,0.8289923667907715,-0.5883750915527344,9.923367500305176,10.43701171875,1.739501953125,6.134033203125
2.8624999,0.8577227592468262,-0.641047477722168,9.600150108337402,-8.48388671875,-1.77001953125,-7.01904296875
2.8674999000000003,0.8529343605041504,-0.5859808921813965,9.88506031036377,6.561279296875,2.105712890625,6.65283203125
2.8724999,0.8696937561035156,-0.6584054827690125,9.637859344482422,-4.638671875,-2.227783203125,-7.32421875
2.8774999,0.8541314601898193,-0.6548141837120056,9.847949981689453,-2.8076171875,2.593994140625,6.256103515625
2.8824999,0.7571662664413452,-0.7230489253997803,9.651026725769043,4.180908203125,-2.655029296875,-6.744384765625
2.8874999000000003,0.8984242081642151,-0.5889736413955688,9.864110946655273,-4.974365234375,2.50244140625,5.79833984375
2.8924999000000002,0.788889467716217,-0.6859387755393982,9.682151794433594,5.9814453125,-2.655029296875,-6.34765625
2.8974999,0.9528923034667969,-0.5566518902778625,9.889249801635742,-6.53076171875,2.44140625,5.4931640625
2.9024999,0.8176198601722717,-0.7038952708244324,9.693524360656738,6.927490234375,-2.288818359375,-5.79833984375
2.9074999000000004,0.9457096457481384,-0.6057330369949341,9.853337287902832,-7.4462890625,2.25830078125,5.157470703125
2.9124999000000003,0.7984662652015686,-0.7571662664413452,9.68933391571045,7.99560546875,-2.349853515625,-5.767822265625
2.9174999,0.8990227580070496,-0.6494272351264954,9.814431190490723,-7.904052734375,2.471923828125,5.0048828125
2.9224999,0.7463923692703247,-0.7481880187988281,9.699509620666504,7.87353515625,-2.166748046875,-5.523681640625
2.9274999000000004,0.8690952062606812,-0.596754789352417,9.837176322937012,-7.476806640625,2.288818359375,4.82177734375
2.9324999000000003,0.7469909191131592,-0.7284358739852905,9.706093788146973,7.476806640625,-2.349853515625,-5.4931640625
2.9374999,0.8888474106788635,-0.5704185366630554,9.856329917907715,-6.89697265625,2.13623046875,5.126953125
2.9424999,0.7469909191131592,-0.7326257228851318,9.697115898132324,6.500244140625,-1.8310546875,-5.523681640625
2.9474999,0.889445960521698,-0.5662286877632141,9.860519409179688,-5.584716796875,2.25830078125,5.096435546875
2.9524999000000003,0.7433996200561523,-0.7362170219421387,9.68574333190918,5.37109375,-2.044677734375,-5.92041015625
2.9574999,0.8577227592468262,-0.5776011347770691,9.84256362915039,-4.21142578125,2.13623046875,5.37109375
2.9624999,0.7841010689735413,-0.7200561761856079,9.670180320739746,1.3427734375,-1.77001953125,-6.16455078125
2.9674999,0.8331822156906128,-0.5770025849342346,9.903017044067383,2.288818359375,1.861572265625,5.9814453125
2.9724999000000003,0.8206126093864441,-0.739209771156311,9.638457298278809,-3.84521484375,-1.3427734375,-6.28662109375
2.9774999,0.8373720645904541,-0.6177040338516235,9.905410766601562,5.279541015625,1.708984375,5.43212890625
2.9824999,0.7984662652015686,-0.7643488645553589,9.61212158203125,-6.34765625,-1.678466796875,-5.950927734375
2.9874999,0.8517372608184814,-0.6254851818084717,9.912593841552734,8.148193359375,1.3427734375,5.157470703125
2.9924999000000003,0.7864952683448792,-0.751779317855835,9.633070945739746,-9.246826171875,-1.129150390625,-5.37109375
2.9974999,0.8271966576576233,-0.585382342338562,9.884461402893066,10.467529296875,0.9765625,4.39453125
3.0024999,0.8307880163192749,-0.7463923692703247,9.647436141967773,-11.688232421875,-0.762939453125,-4.21142578125
3.0074999,0.8110358119010925,-0.5440823435783386,9.860519409179688,12.542724609375,0.6103515625,2.99072265625
3.0124999000000003,0.9020155072212219,-0.7230489253997803,9.66958236694336,-13.214111328125,-0.54931640625,-2.86865234375
3.0174999000000002,0.8050503134727478,-0.5404910445213318,9.852738380432129,13.7939453125,-0.152587890625,1.556396484375
3.0224999,0.821809709072113,-0.6901286244392395,9.671976089477539,-12.87841796875,0.885009765625,0.6103515625
3.0274999,0.788889467716217,-0.6661866307258606,9.761159896850586,12.14599609375,-0.9765625,-2.166748046875
3.0324999000000004,0.8852560520172119,-0.6596025824546814,9.821614265441895,-10.955810546875,1.28173828125,2.8076171875
3.0374999000000003,0.8212111592292786,-0.6883329749107361,9.7791166305542,8.72802734375,-0.8544921875,-3.875732421875
3.0424999,0.9313444495201111,-0.5225345492362976,9.858125686645508,-6.89697265625,1.5869140625,4.21142578125
3.0474999,0.8050503134727478,-0.6661866307258606,9.691728591918945,4.45556640625,-1.46484375,-5.218505859375
3.0524999000000004,0.8637082576751709,-0.44831427931785583,9.807847023010254,-1.495361328125,1.373291015625,5.157470703125
3.0574999000000003,0.7577648162841797,-0.6631938815116882,9.605537414550781,-1.068115234375,-1.64794921875,-5.645751953125
3.0624999,0.8038532137870789,-0.518943190574646,9.86231517791748,4.0283203125,1.190185546875,5.035400390625
3.0674999,0.7649474143981934,-0.7104793787002563,9.641449928283691,-6.4697265625,-1.220703125,-5.18798828125
3.0724999000000004,0.8122329115867615,-0.5973533391952515,9.905410766601562,8.758544921875,0.8544921875,4.302978515625
3.0774999000000003,0.8277952671051025,-0.5829881429672241,9.852140426635742,12.054443359375,0.396728515625,2.166748046875
3.0824999,0.9026140570640564,-0.7158663272857666,9.630077362060547,-12.8173828125,0,-1.40380859375
3.0874999,0.8206126093864441,-0.5674257874488831,9.75936508178711,12.8173828125,-0.3662109375,-0.30517578125
3.0924999,0.872686505317688,-0.6625953316688538,9.708487510681152,-11.65771484375,0.67138671875,1.0986328125
3.0974999000000003,0.7930793166160583,-0.6518214344978333,9.731831550598145,9.857177734375,-0.79345703125,-2.960205078125
3.1024999,0.8864531517028809,-0.6177040338516235,9.86889934539795,-7.568359375,1.312255859375,3.387451171875
3.1074999,0.7703344225883484,-0.718859076499939,9.743802070617676,4.638671875,-0.946044921875,-4.791259765625
3.1124999,0.7703344225883484,-0.718859076499939,9.743802070617676,4.638671875,-0.946044921875,-4.791259765625
3.1174999000000003,0.8427590131759644,-0.5111620426177979,9.871891975402832,-1.40380859375,1.40380859375,4.7607421875
3.1224999,0.8068459630012512,-0.5434837937355042,9.861717224121094,5.55419921875,1.007080078125,4.486083984375
3.1274999,0.8068459630012512,-0.5434837937355042,9.861717224121094,5.55419921875,1.007080078125,4.486083984375
3.1324999,0.8259995579719543,-0.7715315222740173,9.661202430725098,-8.331298828125,-0.8544921875,-4.08935546875
3.1374999000000003,0.862511157989502,-0.7595604658126831,9.663596153259277,-11.749267578125,-0.274658203125,-1.983642578125
3.1424999000000002,0.7817068696022034,-0.6045359373092651,9.781511306762695,12.054443359375,-0.213623046875,-0.030517578125
3.1474999,0.8505401611328125,-0.669179379940033,9.712079048156738,-10.80322265625,0.42724609375,1.007080078125
3.1524999,0.7679402232170105,-0.645237386226654,9.710283279418945,8.941650390625,-0.54931640625,-2.9296875
3.1574999000000004,0.8684966564178467,-0.595557689666748,9.808445930480957,-6.011962890625,1.0986328125,3.662109375
3.1624999000000003,0.7739257216453552,-0.6823474764823914,9.679757118225098,2.62451171875,-1.251220703125,-4.8828125
3.1674999,0.8361749649047852,-0.5129576921463013,9.835380554199219,1.40380859375,0.885009765625,4.57763671875
3.1724999,0.8098387122154236,-0.6961141228675842,9.670180320739746,-5.218505859375,-1.007080078125,-4.8828125
3.1774999000000004,0.8050503134727478,-0.5662286877632141,9.88745403289795,8.36181640625,0.885009765625,3.509521484375
3.1824999000000003,0.8631097078323364,-0.7451952695846558,9.671976089477539,-10.55908203125,-0.42724609375,-2.716064453125
3.1874999,0.7978677153587341,-0.6200982332229614,9.818022727966309,11.53564453125,-0.030517578125,0.640869140625
3.1924999,0.8738836050033569,-0.7272387742996216,9.733627319335938,-10.80322265625,0.457763671875,0.640869140625
3.1974999000000004,0.6278793811798096,-1.0199298858642578,9.319430351257324,-7.38525390625,-3.448486328125,14.5263671875
3.2024999000000003,-2.4606409072875977,-1.8710685968399048,5.305551052093506,38.787841796875,-108.2763671875,123.046875
3.2074999,-2.4606409072875977,-1.8710685968399048,5.305551052093506,38.787841796875,-108.2763671875,123.046875
3.2124999,-1.5185223817825317,-0.05626374110579491,6.821080684661865,122.00927734375,-126.46484375,148.345947265625
3.2174999,-0.8667010068893433,0.42856210470199585,7.426215171813965,140.777587890625,-104.18701171875,107.330322265625
3.2224999000000003,0.7212532758712769,1.2563573122024536,8.44195556640625,68.54248046875,-108.428955078125,94.42138671875
3.2274999,1.9249382019042969,1.7082629203796387,9.414599418640137,157.501220703125,-120.269775390625,79.7119140625
3.2324999,3.294421434402466,1.8070237636566162,9.50857162475586,125.457763671875,-124.237060546875,50.47607421875
3.2374999,5.738901615142822,2.345120668411255,8.766369819641113,115.997314453125,-90.88134765625,7.568359375
3.2424999000000003,6.339846134185791,2.561197280883789,7.85537576675415,94.207763671875,-68.54248046875,-27.099609375
3.2474999,6.854599475860596,2.4361002445220947,6.774393558502197,23.5595703125,-53.40576171875,-28.106689453125
3.2524999,7.146093368530273,2.6623523235321045,6.050147533416748,23.86474609375,-27.52685546875,-34.698486328125
3.2574999,7.0371575355529785,2.78086519241333,5.251082897186279,1.800537109375,-3.204345703125,-54.3212890625
3.2624999000000003,6.750451564788818,2.9963433742523193,4.817133903503418,-60.302734375,8.48388671875,-51.94091796875
3.2674999000000002,6.291962146759033,3.202244758605957,4.765059947967529,-71.71630859375,28.86962890625,-45.867919921875
3.2724999,5.674258232116699,3.251325845718384,4.921281814575195,-93.56689453125,50.537109375,-60.36376953125
3.2774999,5.015852451324463,3.2531216144561768,5.1810526847839355,-152.618408203125,62.3779296875,-58.837890625
3.2824999000000004,4.379593372344971,3.2333693504333496,5.628767967224121,-166.778564453125,76.385498046875,-52.3681640625
3.2874999000000003,3.776853084564209,3.2848446369171143,6.07588529586792,-181.70166015625,101.470947265625,-63.690185546875
3.2924999,3.248931646347046,3.157353401184082,6.636727333068848,-230.621337890625,129.39453125,-57.159423828125
3.2974999,2.7479450702667236,-3.1070752143859863,15.929222106933594,9.735107421875,104.949951171875,-43.27392578125
3.3024999000000004,1.2743138074874878,-4.728548526763916,16.268001556396484,-9.33837890625,37.65869140625,-41.19873046875
3.3074999000000003,-0.7134721279144287,-5.12000036239624,14.442422866821289,-34.088134765625,20.111083984375,-28.289794921875
3.3124999,-2.5791537761688232,-4.298789024353027,11.276689529418945,-6.40869140625,3.204345703125,-16.632080078125
3.3174999,-3.8594532012939453,-3.158550500869751,8.109161376953125,3.5400390625,-18.768310546875,-32.318115234375
3.3224999000000004,-4.485537052154541,-2.1380221843719482,5.970540523529053,-9.033203125,-18.035888671875,-16.326904296875
3.3274999000000003,-4.5639472007751465,-1.6065093278884888,5.495291233062744,29.693603515625,-1.5869140625,-0.54931640625
3.3324999,-4.126406669616699,-1.6741455793380737,6.455965042114258,24.0478515625,-7.965087890625,-15.19775390625
3.3374999,-3.332728862762451,-1.896806240081787,8.182184219360352,11.962890625,-34.24072265625,1.953125
3.3424999,-2.3092074394226074,-1.9279309511184692,9.986215591430664,35.33935546875,-54.351806640625,3.47900390625
3.3474999000000003,-0.13287819921970367,-0.9546879529953003,11.587337493896484,7.38525390625,-49.652099609375,8.48388671875
3.3524999,0.7541735172271729,-0.15322890877723694,11.600505828857422,22.64404296875,-59.75341796875,-4.638671875
3.3574999,1.4059948921203613,0.5883750915527344,11.121665000915527,-22.796630859375,-55.206298828125,-11.8408203125
3.3624999,2.5306711196899414,0.2472013235092163,9.376891136169434,14.739990234375,-11.138916015625,-3.997802734375
3.3674999000000003,2.5510218143463135,-0.2585737705230713,8.859743118286133,-11.29150390625,-5.0048828125,-10.467529296875
3.3724999,2.734178304672241,-0.7972691655158997,8.777742385864258,-10.955810546875,12.20703125,6.622314453125
3.3774999,2.6647465229034424,-1.22642982006073,8.951920509338379,20.20263671875,12.14599609375,-2.44140625
3.3824999,2.562992811203003,-1.2862848043441772,9.019556045532227,-20.416259765625,21.575927734375,-5.462646484375
3.3874999000000003,2.3295583724975586,-1.3251906633377075,9.503185272216797,13.336181640625,28.900146484375,6.28662109375
3.3924999000000002,1.5233107805252075,-0.8373720645904541,9.794678688049316,-17.4560546875,33.935546875,1.678466796875
3.3974999,1.004966139793396,-0.6206967830657959,10.010157585144043,24.96337890625,25.787353515625,1.953125
3.4024999,0.5907692909240723,-0.3621230125427246,9.832986831665039,-16.448974609375,20.721435546875,-5.828857421875
3.4074999000000004,0.27892449498176575,-0.31783026456832886,10.128071784973145,3.2958984375,19.1650390625,10.589599609375
3.4124999000000003,-0.0005985504249110818,-0.26156654953956604,10.042478561401367,13.18359375,4.669189453125,-4.0283203125
3.4174999,-0.15023615956306458,-0.3214215636253357,10.001777648925781,-23.13232421875,5.7373046875,1.953125
3.4224999,-0.17537526786327362,-0.3974374830722809,10.14782428741455,22.064208984375,-4.8828125,4.974365234375
3.4274999000000004,-0.15682020783424377,-0.4537012279033661,9.801262855529785,-14.312744140625,-8.7890625,-7.8125
3.4324999000000003,0.09277531504631042,-0.5261258482933044,9.939528465270996,-1.5869140625,-6.89697265625,7.99560546875
3.4374999,0.31603461503982544,-0.6206967830657959,9.868300437927246,15.899658203125,-17.578125,-5.4931640625
3.4424999,0.6242880821228027,-0.6368576288223267,9.691728591918945,-23.86474609375,-7.568359375,-0.946044921875
3.4474999000000004,0.9415197968482971,-0.6943184733390808,9.909601211547852,22.3388671875,-10.406494140625,3.814697265625
3.4524999000000003,1.4987702369689941,-0.5704185366630554,9.625887870788574,13.427734375,-4.302978515625,-5.950927734375
3.4574999,1.5622166395187378,-0.5033808946609497,9.604340553283691,-21.759033203125,7.568359375,0.640869140625
3.4624999,1.4754267930984497,-0.5883750915527344,9.828198432922363,22.76611328125,4.241943359375,1.77001953125
3.4674999,1.3515268564224243,-0.5123591423034668,9.576807022094727,-17.51708984375,5.706787109375,-6.65283203125
3.4724999000000003,1.2210428714752197,-0.5746083855628967,9.893440246582031,7.38525390625,10.650634765625,7.293701171875
3.4774999,1.0001777410507202,-0.5752069354057312,9.712079048156738,5.06591796875,1.068115234375,-7.75146484375
3.4824999,0.8762778043746948,-0.5428852438926697,9.728838920593262,-15.07568359375,9.063720703125,4.241943359375
3.4874999,0.6524199843406677,-0.5620388388633728,9.859322547912598,22.186279296875,-1.800537109375,-1.617431640625
3.4924999000000003,0.569819986820221,-0.4920084476470947,9.620500564575195,-22.27783203125,1.5869140625,-3.265380859375
3.4974999,0.5213374495506287,-0.47644615173339844,9.952696800231934,17.730712890625,-1.251220703125,5.462646484375
3.5024999,0.5081692934036255,-0.47644615173339844,9.670180320739746,-9.1552734375,-6.77490234375,-7.8125
3.5074999,0.9409212470054626,-0.5943605899810791,9.834781646728516,-19.073486328125,0.732421875,2.86865234375
3.5124999000000003,0.9642647504806519,-0.6171054840087891,9.904213905334473,21.728515625,-4.730224609375,-0.213623046875
3.5174999000000002,1.0911574363708496,-0.5560533404350281,9.643844604492188,-20.965576171875,-0.518798828125,-3.662109375
3.5224999,1.1540051698684692,-0.48243165016174316,9.767146110534668,-0.06103515625,7.14111328125,7.26318359375
3.5274999,1.0408791303634644,-0.5740098357200623,9.662399291992188,8.72802734375,-1.922607421875,-6.927490234375
3.5324999000000004,1.0905588865280151,-0.5291185975074768,9.694122314453125,-14.83154296875,7.01904296875,4.180908203125
3.5374999000000003,0.9534908533096313,-0.6135141849517822,9.821015357971191,19.561767578125,-0.274658203125,-2.227783203125
3.5424999,0.8427590131759644,-0.5512649416923523,9.595361709594727,-20.965576171875,2.960205078125,-0.8544921875
3.5474999,0.7451952695846558,-0.5339069962501526,10.002974510192871,10.589599609375,1.617431640625,6.34765625
3.5524999000000004,0.7487865686416626,-0.49559974670410156,9.68274974822998,-3.96728515625,-4.45556640625,-8.026123046875
3.5574999000000003,0.8744821548461914,-0.5141547918319702,9.895236015319824,-3.0517578125,2.25830078125,6.9580078125
3.5624999,0.8200140595436096,-0.5758054852485657,9.752182006835938,9.1552734375,-5.18798828125,-6.28662109375
3.5674999,0.9457096457481384,-0.50876784324646,9.794678688049316,-14.190673828125,2.01416015625,4.2724609375
3.5724999000000004,0.9181763529777527,-0.6117185354232788,9.822811126708984,17.608642578125,-3.47900390625,-3.204345703125
3.5774999000000003,0.9648633003234863,-0.5602431893348694,9.672574996948242,-19.53125,1.03759765625,0.1220703125
3.5824999,0.9576807022094727,-0.5602431893348694,9.840168952941895,19.71435546875,-0.48828125,1.007080078125
3.5874999,0.9690531492233276,-0.5608417391777039,9.586383819580078,-18.5546875,0,-3.631591796875
3.5924999,0.9648633003234863,-0.5410895943641663,9.852140426635742,16.204833984375,2.044677734375,4.425048828125
3.5974999000000003,0.9906009435653687,-0.5129576921463013,9.564835548400879,-12.02392578125,-1.495361328125,-6.34765625
3.6024999,0.9259575009346008,-0.5015852451324463,9.922768592834473,-9.185791015625,3.23486328125,5.523681640625
3.6074999,0.8409633636474609,-0.6236895322799683,9.798270225524902,12.51220703125,-2.716064453125,-4.8828125
3.6124999,0.9139865040779114,-0.5159504413604736,9.741408348083496,-14.862060546875,2.3193359375,3.509521484375
3.6174999000000003,0.8948329091072083,-0.5937620401382446,9.758766174316406,16.937255859375,-2.105712890625,-2.8076171875
3.6224999,0.9654618501663208,-0.5201402902603149,9.627683639526367,-18.06640625,1.52587890625,0.885009765625
3.6274999,0.9498994946479797,-0.5315127968788147,9.750386238098145,18.24951171875,-1.03759765625,-0.335693359375
3.6324999,0.9241618514060974,-0.5422866940498352,9.599552154541016,-18.157958984375,0.518798828125,-1.40380859375
3.6374999000000003,0.9259575009346008,-0.5309142470359802,9.823410034179688,17.822265625,0.06103515625,2.3193359375
3.6424999000000002,0.8637082576751709,-0.5752069354057312,9.555258750915527,-16.571044921875,-0.335693359375,-3.448486328125
3.6474999,0.9091981053352356,-0.5746083855628967,9.581595420837402,-13.885498046875,-0.946044921875,-5.06591796875
3.6524999,0.9415197968482971,-0.5261258482933044,9.911396026611328,12.176513671875,1.46484375,5.126953125
3.6574999000000004,0.9385270476341248,-0.5746083855628967,9.604938507080078,-10.25390625,-1.373291015625,-5.92041015625
3.6624999000000003,0.9624691009521484,-0.5213374495506287,9.877279281616211,8.514404296875,1.739501953125,5.767822265625
3.6674999,0.960673451423645,-0.5776011347770691,9.603741645812988,-6.8359375,-1.739501953125,-6.561279296875
3.6724999,0.9582792520523071,-0.5123591423034668,9.867103576660156,5.035400390625,2.105712890625,6.16455078125
3.6774999000000004,0.9379284977912903,-0.585382342338562,9.6618013381958,-3.387451171875,-2.13623046875,-6.89697265625
3.6824999000000003,0.9397241473197937,-0.47465047240257263,9.911994934082031,-0.335693359375,2.105712890625,6.04248046875
3.6874999,0.8553285598754883,-0.618302583694458,9.660005569458008,1.800537109375,-2.410888671875,-6.65283203125
3.6924999,0.9475052952766418,-0.46327802538871765,9.87967300415039,-2.410888671875,2.227783203125,5.767822265625
3.6974999000000004,0.9469067454338074,-0.436343252658844,9.8784761428833,-4.0283203125,2.288818359375,5.67626953125
3.7024999000000003,0.8289923667907715,-0.6087257862091064,9.707889556884766,4.913330078125,-2.3193359375,-6.103515625
3.7074999,0.9714473485946655,-0.3776853084564209,9.882067680358887,-5.462646484375,2.288818359375,5.55419921875
3.7124999,0.8553285598754883,-0.6015431880950928,9.710882186889648,5.859375,-2.38037109375,-5.950927734375
3.7174999,1.0169371366500854,-0.34835633635520935,9.855133056640625,-5.706787109375,2.044677734375,5.584716796875
3.7224999000000003,0.8906430602073669,-0.6141127347946167,9.679159164428711,6.317138671875,-2.227783203125,-6.134033203125
3.7274999,1.0384849309921265,-0.3770867586135864,9.80904483795166,-6.378173828125,2.0751953125,5.340576171875
3.7324999,0.9002198576927185,-0.6440402865409851,9.645041465759277,6.378173828125,-1.922607421875,-5.9814453125
3.7374999,1.028908133506775,-0.4207809567451477,9.795876502990723,-5.950927734375,2.166748046875,5.43212890625
3.7424999000000003,1.028908133506775,-0.4207809567451477,9.795876502990723,-5.950927734375,2.166748046875,5.43212890625
3.7474999,0.8876502513885498,-0.6554127335548401,9.641449928283691,5.706787109375,-1.678466796875,-5.828857421875
3.7524999,0.9923965930938721,-0.4321534037590027,9.815030097961426,-5.218505859375,2.01416015625,5.584716796875
3.7574999,0.8631097078323364,-0.6637924313545227,9.671378135681152,1.922607421875,-1.64794921875,-6.34765625
3.7624999000000003,0.8846575021743774,-0.6506243348121643,9.668983459472656,-0.3662109375,-1.678466796875,-6.317138671875
3.7674999000000002,0.8846575021743774,-0.6506243348121643,9.668983459472656,-0.3662109375,-1.678466796875,-6.317138671875
3.7724999,0.8978256583213806,-0.4836287498474121,9.8599214553833,1.800537109375,1.46484375,5.67626953125
3.7774999,0.8786720037460327,-0.6290764808654785,9.626486778259277,-2.716064453125,-1.5869140625,-6.072998046875
3.7824999000000004,0.9181763529777527,-0.48722004890441895,9.888052940368652,4.425048828125,1.15966796875,5.401611328125
3.7874999000000003,0.8918401598930359,-0.6326677799224854,9.616909980773926,-5.584716796875,-1.46484375,-5.889892578125
3.7924999,0.9594763517379761,-0.50876784324646,9.938929557800293,7.01904296875,1.312255859375,4.94384765625
3.7974999,0.8900445103645325,-0.6356605291366577,9.637859344482422,-8.087158203125,-0.701904296875,-5.157470703125
3.8024999000000004,0.9546879529953003,-0.6733692288398743,9.658807754516602,-12.847900390625,-0.091552734375,-3.021240234375
3.8074999000000003,0.9002198576927185,-0.5231330990791321,9.864709854125977,13.702392578125,0.18310546875,1.617431640625
3.8124999,0.9774328470230103,-0.6344634294509888,9.63187313079834,-13.97705078125,0.1220703125,-1.312255859375
3.8174999,0.8930372595787048,-0.4620809257030487,9.78989028930664,14.251708984375,-0.396728515625,0
3.8224999000000004,0.910993754863739,-0.5321113467216492,9.636063575744629,-13.885498046875,0.67138671875,0.274658203125
3.8274999000000003,0.8750807046890259,-0.4381389021873474,9.766547203063965,13.48876953125,-0.79345703125,-1.89208984375
3.8324999,0.9259575009346008,-0.5303156971931458,9.762357711791992,-12.298583984375,0.67138671875,2.197265625
3.8374999,0.8667010068893433,-0.5363011956214905,9.786897659301758,11.41357421875,-1.220703125,-3.570556640625
3.8424999,0.8637082576751709,-0.6236895322799683,9.77672290802002,6.988525390625,-1.03759765625,-4.7607421875
3.8474999000000003,0.8637082576751709,-0.6236895322799683,9.77672290802002,6.988525390625,-1.03759765625,-4.7607421875
3.8524999,0.8667010068893433,-0.6308721303939819,9.718064308166504,2.288818359375,-1.46484375,-5.645751953125
3.8574999,0.9127894043922424,-0.4465186297893524,9.850942611694336,0.732421875,1.03759765625,5.31005859375
3.8624999,0.8481459617614746,-0.639850378036499,9.640851974487305,-3.47900390625,-1.190185546875,-5.43212890625
3.8674999000000003,0.900818407535553,-0.518943190574646,9.87967300415039,6.378173828125,0.732421875,4.425048828125
3.8724999,0.8846575021743774,-0.7254431247711182,9.685144424438477,-8.636474609375,-0.396728515625,-4.45556640625
3.8774999,0.8984242081642151,-0.6129156351089478,9.947908401489258,10.55908203125,0.457763671875,2.9296875
3.8824999,0.9624691009521484,-0.7170634269714355,9.712079048156738,-12.0849609375,0.030517578125,-2.25830078125
3.8874999000000003,0.8888474106788635,-0.5398924946784973,9.858723640441895,13.0615234375,-0.213623046875,0.6103515625
3.8924999000000002,0.9528923034667969,-0.6015431880950928,9.672574996948242,-13.031005859375,0.518798828125,0.1220703125
3.8974999,0.8732850551605225,-0.46986207365989685,9.75397777557373,12.51220703125,-0.701904296875,-1.89208984375
3.9024999,0.9648633003234863,-0.5626373887062073,9.779715538024902,-10.8642578125,0.8544921875,2.685546875
3.9074999000000004,0.8541314601898193,-0.5578489899635315,9.764153480529785,8.514404296875,-0.9765625,-4.119873046875
3.9124999000000003,0.8415619134902954,-0.5805938839912415,9.716867446899414,2.288818359375,-1.15966796875,-5.31005859375
3.9174999,0.9074024558067322,-0.3932476341724396,9.865906715393066,1.251220703125,1.0986328125,4.8828125
3.9224999,0.9151836037635803,-0.5273229479789734,9.857526779174805,11.962890625,0.030517578125,1.40380859375
3.9274999000000004,0.9929951429367065,-0.6584054827690125,9.643844604492188,-12.20703125,0.274658203125,-0.091552734375
3.9324999000000003,0.8960300087928772,-0.545877993106842,9.73661994934082,11.749267578125,-0.762939453125,-1.617431640625
3.9374999,0.9798270463943481,-0.6159083843231201,9.747992515563965,-9.6435546875,0.885009765625,2.44140625
3.9424999,0.8547300100326538,-0.6027402877807617,9.724648475646973,7.354736328125,-1.068115234375,-4.241943359375
3.9474999000000004,0.960673451423645,-0.49978959560394287,9.909002304077148,-3.692626953125,0.823974609375,4.425048828125
3.9524999000000003,0.8409633636474609,-0.5817909836769104,9.696516990661621,-0.091552734375,-0.946044921875,-4.974365234375
3.9574999,0.9469067454338074,-0.6045359373092651,9.645041465759277,-11.627197265625,0,-1.129150390625
3.9624999,0.8858546018600464,-0.5231330990791321,9.786299705505371,11.627197265625,-0.48828125,-0.9765625
3.9674999000000004,0.9696516990661621,-0.6057330369949341,9.751583099365234,-10.101318359375,0.640869140625,2.197265625
3.9724999000000003,0.8553285598754883,-0.6033388376235962,9.739612579345703,7.568359375,-1.007080078125,-3.997802734375
3.9774999,0.9582792520523071,-0.52552729845047,9.907805442810059,-3.631591796875,0.79345703125,4.180908203125
3.9824999,0.8445546627044678,-0.5991489887237549,9.706093788146973,-0.6103515625,-0.67138671875,-4.69970703125
3.9874999,0.910993754863739,-0.40282443165779114,9.88625717163086,4.7607421875,0.518798828125,3.96728515625
3.9924999000000003,0.9229647517204285,-0.5626373887062073,9.654019355773926,-8.23974609375,-0.244140625,-3.35693359375
3.9974999,0.9115923047065735,-0.45908817648887634,9.825204849243164,10.498046875,0.152587890625,1.3427734375
4.0024999,0.9690531492233276,-0.5895721912384033,9.781511306762695,-7.50732421875,0.6103515625,2.9296875
4.0074999,0.8661024570465088,-0.6147112846374512,9.664793968200684,3.936767578125,-0.8544921875,-4.425048828125
4.0124999,0.9564836025238037,-0.4387374520301819,9.856928825378418,0.701904296875,0.6103515625,4.21142578125
4.0174999,0.9032126069068909,-0.595557689666748,9.692327499389648,-4.913330078125,-0.42724609375,-4.302978515625
4.022499900000001,0.9085995554924011,-0.42676645517349243,9.9000244140625,8.575439453125,0.6103515625,2.410888671875
4.0274999000000005,0.9145850539207458,-0.5817909836769104,9.67077922821045,-10.528564453125,0.244140625,-1.251220703125
4.0324999,0.8541314601898193,-0.5285200476646423,9.800065994262695,11.16943359375,-0.701904296875,-1.03759765625
4.0374999,0.9433154463768005,-0.586579442024231,9.769539833068848,-9.21630859375,0.54931640625,2.288818359375
4.0424999,0.8349778652191162,-0.6141127347946167,9.723451614379883,5.950927734375,-0.6103515625,-3.997802734375
4.0474999,0.9355342984199524,-0.524330198764801,9.877877235412598,-1.220703125,0.640869140625,3.96728515625
4.0524999,0.8571242094039917,-0.657806932926178,9.703699111938477,-3.5400390625,-0.6103515625,-4.241943359375
4.0574999,0.8678981065750122,-0.4967968463897705,9.86111831665039,7.598876953125,0.274658203125,2.62451171875
4.062499900000001,0.8319851160049438,-0.52552729845047,9.764751434326172,10.6201171875,-0.244140625,-0.732421875
4.0674999000000005,0.9487023949623108,-0.5554547905921936,9.762955665588379,-8.880615234375,0.732421875,2.105712890625
4.0724999,0.8535329103469849,-0.5883750915527344,9.716867446899414,5.340576171875,-0.701904296875,-3.875732421875
4.0774999,0.961870551109314,-0.49559974670410156,9.9000244140625,-0.762939453125,0.67138671875,3.753662109375
4.0824999,0.921169102191925,-0.6212953329086304,9.668983459472656,-10.101318359375,0.091552734375,-0.91552734375
4.0874999,0.8487445116043091,-0.557250440120697,9.7605619430542,10.284423828125,-0.48828125,-1.52587890625
4.0924999,0.9576807022094727,-0.5404910445213318,9.75278091430664,-7.537841796875,0.518798828125,2.716064453125
4.0974999,0.8457517623901367,-0.5638344883918762,9.660005569458008,3.387451171875,-0.54931640625,-4.0283203125
4.1024999,0.9546879529953003,-0.43275195360183716,9.877877235412598,1.89208984375,0.579833984375,3.692626953125
4.1074999000000005,0.9427168965339661,-0.5943605899810791,9.6989107131958,-6.28662109375,-0.274658203125,-3.326416015625
4.1124999,0.9971849918365479,-0.6087257862091064,9.784503936767578,-10.07080078125,0.42724609375,0.244140625
4.1174999,0.861314058303833,-0.6063315868377686,9.779715538024902,8.30078125,-0.3662109375,-2.838134765625
4.1224999,0.9283517003059387,-0.5273229479789734,9.860519409179688,-4.241943359375,0.885009765625,3.387451171875
4.1274999,0.828393816947937,-0.6159083843231201,9.707889556884766,-0.67138671875,-0.3662109375,-4.180908203125
4.1324999,0.8708908557891846,-0.46327802538871765,9.897629737854004,5.43212890625,0.152587890625,2.960205078125
4.1374999,0.8978256583213806,-0.5339069962501526,9.646238327026367,-8.97216796875,0.152587890625,-1.89208984375
4.1424999,0.8690952062606812,-0.4902127981185913,9.768342971801758,9.765625,-0.213623046875,-0.67138671875
4.147499900000001,1.0007762908935547,-0.5363011956214905,9.73542308807373,-8.209228515625,0.6103515625,2.288818359375
4.1524999000000005,0.8942343592643738,-0.5770025849342346,9.660603523254395,4.302978515625,-0.579833984375,-3.875732421875
4.1574999,0.9888052940368652,-0.49140989780426025,9.864110946655273,1.0986328125,0.457763671875,3.570556640625
4.1624999,0.9654618501663208,-0.6380547285079956,9.700706481933594,-5.859375,-0.42724609375,-3.082275390625
4.1674999,0.9103952050209045,-0.4884171485900879,9.825204849243164,9.307861328125,-0.06103515625,1.068115234375
4.1724999,0.8595184087753296,-0.6153098344802856,9.730634689331055,7.2021484375,-0.335693359375,-3.11279296875
4.1774999,0.9469067454338074,-0.5225345492362976,9.816226959228516,-2.5634765625,0.91552734375,3.570556640625
4.1824999,0.8643068075180054,-0.6350619792938232,9.673771858215332,-2.655029296875,-0.213623046875,-3.753662109375
4.187499900000001,0.8750807046890259,-0.46507367491722107,9.840767860412598,7.293701171875,0.213623046875,2.105712890625
4.1924999000000005,0.9313444495201111,-0.5632359385490417,9.721057891845703,-9.46044921875,0.030517578125,-0.823974609375
4.1974999,0.8487445116043091,-0.5506663918495178,9.774328231811523,8.697509765625,-0.54931640625,-1.922607421875
4.2024999,0.9433154463768005,-0.49140989780426025,9.829395294189453,-5.0048828125,0.640869140625,3.0517578125
4.2074999,0.8421604633331299,-0.5781996846199036,9.70429801940918,0.06103515625,-0.518798828125,-3.84521484375
4.2124999,0.8822633028030396,-0.4710591733455658,9.91738224029541,5.37109375,0.06103515625,2.716064453125
4.2174999,0.8942343592643738,-0.5494692921638489,9.70310115814209,-8.697509765625,-0.213623046875,-1.64794921875
4.2224999,0.8439561128616333,-0.5159504413604736,9.795876502990723,9.27734375,-0.18310546875,-1.220703125
4.2274999,0.9654618501663208,-0.5123591423034668,9.88506031036377,3.47900390625,0.42724609375,3.173828125
4.2324999000000005,0.9301473498344421,-0.5937620401382446,9.673172950744629,-7.598876953125,0.06103515625,-2.105712890625
4.2374999,0.8780734539031982,-0.5027823448181152,9.78989028930664,9.21630859375,-0.06103515625,-0.54931640625
4.2424999,0.9768342971801758,-0.5183446407318115,9.757569313049316,-7.415771484375,0.54931640625,2.105712890625
4.2474999,0.851138710975647,-0.5620388388633728,9.66958236694336,3.11279296875,-0.457763671875,-3.692626953125
4.2524999,0.9498994946479797,-0.4854243993759155,9.865906715393066,2.50244140625,0.54931640625,3.265380859375
4.2574999,0.9115923047065735,-0.5901707410812378,9.66299819946289,-7.293701171875,-0.396728515625,-2.349853515625
4.2624999,0.8738836050033569,-0.49799394607543945,9.774328231811523,9.033203125,-0.244140625,-0.18310546875
4.2674999,0.9762357473373413,-0.5386953949928284,9.768941879272461,-7.50732421875,0.42724609375,1.89208984375
4.272499900000001,0.8493430614471436,-0.5901707410812378,9.699509620666504,3.326416015625,-0.640869140625,-3.631591796875
4.2774999000000005,0.9463081955909729,-0.5111620426177979,9.890447616577148,2.38037109375,0.3662109375,3.11279296875
4.2824999,0.8481459617614746,-0.5895721912384033,9.694721221923828,3.204345703125,-0.244140625,-3.7841796875
4.2874999,0.9385270476341248,-0.5135562419891357,9.891644477844238,2.593994140625,0.701904296875,3.35693359375
4.2924999,0.8900445103645325,-0.5883750915527344,9.68274974822998,-7.110595703125,-0.152587890625,-2.044677734375
4.2974999,0.8487445116043091,-0.5003881454467773,9.782109260559082,8.819580078125,0,-0.640869140625
4.3024999,0.9493009448051453,-0.5165489912033081,9.75936508178711,-7.049560546875,0.335693359375,2.166748046875
4.3074999,0.8409633636474609,-0.5752069354057312,9.704896926879883,2.25830078125,-0.91552734375,-3.753662109375
4.312499900000001,0.9265560507774353,-0.524330198764801,9.922170639038086,3.47900390625,0.457763671875,2.838134765625
4.3174999000000005,0.9097966551780701,-0.5817909836769104,9.730634689331055,-7.50732421875,0.06103515625,-1.556396484375
4.3224999,0.9690531492233276,-0.4926069974899292,9.775525093078613,-6.04248046875,0.6103515625,2.410888671875
4.3274999,0.8595184087753296,-0.6057330369949341,9.815628051757812,8.11767578125,0.274658203125,-1.800537109375
4.3324999,0.9510966539382935,-0.5021837949752808,9.807249069213867,-4.33349609375,0.701904296875,2.716064453125
4.3374999,0.8822633028030396,-0.6129156351089478,9.66958236694336,-1.129150390625,-0.152587890625,-3.41796875
4.3424999,0.8882488012313843,-0.47405192255973816,9.838373184204102,6.500244140625,0.18310546875,1.89208984375
4.3474999,0.9570821523666382,-0.5740098357200623,9.743802070617676,-8.758544921875,0.18310546875,-0.213623046875
4.352499900000001,0.8541314601898193,-0.6111199855804443,9.757569313049316,6.683349609375,-0.6103515625,-2.716064453125
4.3574999000000005,0.9600749015808105,-0.47225627303123474,9.821015357971191,-1.77001953125,0.244140625,3.11279296875
4.3624999,0.9163807034492493,-0.619499683380127,9.654618263244629,-3.72314453125,-0.6103515625,-3.143310546875
4.3674999,0.9026140570640564,-0.4644751250743866,9.77253246307373,7.87353515625,-0.091552734375,0.9765625
4.3724999,0.9026140570640564,-0.4644751250743866,9.77253246307373,7.87353515625,-0.091552734375,0.9765625
4.3774999,0.9522937536239624,-0.5165489912033081,9.853337287902832,1.0986328125,0.335693359375,2.99072265625
4.3824999,0.8750807046890259,-0.5829881429672241,9.641449928283691,-6.378173828125,-0.06103515625,-2.25830078125
4.3874999,0.8487445116043091,-0.4626794755458832,9.729436874389648,8.30078125,-0.152587890625,-0.30517578125
4.3924999,0.9522937536239624,-0.49320554733276367,9.720458984375,-6.500244140625,0.213623046875,2.166748046875
4.397499900000001,0.8487445116043091,-0.5662286877632141,9.699509620666504,1.40380859375,-0.3662109375,-3.692626953125
4.4024999000000005,0.8565256595611572,-0.5883750915527344,9.82879638671875,7.659912109375,-0.335693359375,-1.77001953125
4.4074999,0.9654618501663208,-0.47225627303123474,9.813833236694336,-3.570556640625,0.6103515625,2.9296875
4.4124999,0.9080010056495667,-0.6009446382522583,9.663596153259277,-2.349853515625,-0.274658203125,-3.387451171875
4.4174999,0.9050082564353943,-0.4513070285320282,9.793481826782227,6.8359375,0.152587890625,0.946044921875
4.4224999,0.8571242094039917,-0.43035775423049927,9.695320129394531,8.209228515625,0,-0.54931640625
4.4274999,0.8571242094039917,-0.43035775423049927,9.695320129394531,8.209228515625,0,-0.54931640625
4.4324999,0.9522937536239624,-0.46627077460289,9.704896926879883,-5.9814453125,0.335693359375,2.166748046875
4.437499900000001,0.862511157989502,-0.569819986820221,9.68933391571045,0.946044921875,-0.091552734375,-3.47900390625
4.4424999000000005,0.9319429993629456,-0.5452794432640076,9.929951667785645,5.035400390625,0.48828125,2.197265625
4.4474999,0.9415197968482971,-0.6356605291366577,9.845556259155273,-8.056640625,0.030517578125,-0.518798828125
4.4524999,0.8493430614471436,-0.6488286852836609,9.843161582946777,6.89697265625,-0.213623046875,-2.44140625
4.4574999,0.9469067454338074,-0.5039794445037842,9.855731010437012,-1.708984375,0.274658203125,3.143310546875
4.4624999,0.8984242081642151,-0.6099228858947754,9.647436141967773,-3.936767578125,-0.48828125,-2.716064453125
4.4674999,0.8948329091072083,-0.44352585077285767,9.742006301879883,7.8125,0.335693359375,0.274658203125
4.4724999,0.8313865661621094,-0.5770025849342346,9.79288387298584,7.476806640625,0.1220703125,-1.983642578125
4.477499900000001,0.9648633003234863,-0.46986207365989685,9.779715538024902,-3.0517578125,0.640869140625,2.655029296875
4.4824999000000005,0.9229647517204285,-0.5835866928100586,9.655217170715332,-2.593994140625,-0.213623046875,-3.082275390625
4.4874999,0.9415197968482971,-0.44592007994651794,9.79527759552002,7.171630859375,0.3662109375,0.701904296875
4.4924999,1.0235211849212646,-0.5446808934211731,9.789292335510254,-7.38525390625,0.030517578125,1.190185546875
4.4974999,0.8720879554748535,-0.5997475385665894,9.739612579345703,3.448486328125,-0.274658203125,-3.23486328125
4.5024999,0.9331400990486145,-0.5219359993934631,9.8970308303833,2.50244140625,0.579833984375,2.716064453125
4.5074999,0.8762778043746948,-0.6087257862091064,9.689932823181152,-6.927490234375,-0.18310546875,-1.190185546875
4.5124999,0.8146271109580994,-0.5500678420066833,9.75278091430664,7.50732421875,-0.152587890625,-1.678466796875
4.5174999,0.889445960521698,-0.5847837924957275,9.657012939453125,-2.166748046875,-0.518798828125,-3.021240234375
4.522499900000001,0.9115923047065735,-0.4554968774318695,9.813833236694336,6.866455078125,0.244140625,0.762939453125
4.5274999000000005,1.002571940422058,-0.5638344883918762,9.807847023010254,-7.537841796875,0.244140625,1.312255859375
4.5324999,0.8637082576751709,-0.6266822814941406,9.767146110534668,3.35693359375,-0.274658203125,-3.11279296875
4.5374999,0.9295487999916077,-0.5398924946784973,9.913790702819824,2.716064453125,0.396728515625,2.62451171875
4.5424999,0.8942343592643738,-0.6308721303939819,9.714473724365234,-6.89697265625,-0.06103515625,-1.0986328125
4.5474999,0.8236053586006165,-0.5614402890205383,9.759963035583496,7.4462890625,-0.18310546875,-1.89208984375
4.5524999,0.9498994946479797,-0.4471171796321869,9.755773544311523,-3.11279296875,0.213623046875,2.74658203125
4.5574999,0.8966285586357117,-0.5554547905921936,9.641449928283691,-3.021240234375,-0.274658203125,-2.9296875
4.562499900000001,0.9923965930938721,-0.5225345492362976,9.770736694335938,-6.866455078125,0.30517578125,1.617431640625
4.5674999000000005,0.861314058303833,-0.6051344871520996,9.749788284301758,2.410888671875,0.06103515625,-3.448486328125
4.5724999,0.8936358094215393,-0.6326677799224854,9.79527759552002,-7.2021484375,-0.06103515625,-0.579833984375
4.5774999,0.8259995579719543,-0.6051344871520996,9.77253246307373,6.53076171875,-0.42724609375,-2.3193359375
4.5824999,0.9397241473197937,-0.4471171796321869,9.78869342803955,-1.434326171875,0.244140625,2.777099609375
4.5874999,0.9026140570640564,-0.5506663918495178,9.583391189575195,-4.241943359375,-0.244140625,-2.44140625
4.5924999,0.8882488012313843,-0.4106055796146393,9.674370765686035,7.568359375,-0.030517578125,-0.274658203125
4.5974999,0.9792284965515137,-0.48243165016174316,9.70310115814209,-5.615234375,-0.1220703125,1.800537109375
4.602499900000001,0.8774749040603638,-0.5961562395095825,9.683348655700684,0.457763671875,0,-3.387451171875
4.6074999000000005,0.9097966551780701,-0.5662286877632141,9.894637107849121,5.126953125,0.42724609375,1.861572265625
4.6124999,0.9690531492233276,-0.667982280254364,9.828198432922363,-7.354736328125,0.152587890625,0.30517578125
4.6174999,0.838569164276123,-0.6530185341835022,9.814431190490723,4.974365234375,0.030517578125,-2.8076171875
4.6224999,0.9690531492233276,-0.5123591423034668,9.839570045471191,0.701904296875,0.762939453125,2.685546875
4.6274999,0.8780734539031982,-0.5536591410636902,9.648633003234863,-6.04248046875,0.152587890625,-1.739501953125
4.6324999,0.5871779918670654,-1.237802267074585,9.083003044128418,-4.058837890625,-0.946044921875,-0.54931640625
4.6374999,0.0628477931022644,-2.406172752380371,8.002020835876465,21.392822265625,-4.2724609375,31.31103515625
4.6424999,-0.5237316489219666,-4.246116638183594,6.6391215324401855,-2.25830078125,-23.5595703125,140.777587890625
4.647499900000001,-1.2120646238327026,-4.974552631378174,4.924872875213623,169.0673828125,19.10400390625,353.118896484375
4.6524999000000005,-1.5544354915618896,-5.1810526847839355,3.49314022064209,97.686767578125,76.995849609375,403.38134765625
4.6574999,-1.801636815071106,-2.9765913486480713,2.478597402572632,143.890380859375,-19.1650390625,300.506591796875
4.6624999,-1.9333178997039795,-0.6835445761680603,1.6711528301239014,75.531005859375,-80.963134765625,162.506103515625
4.6674999,-1.8052281141281128,2.186504602432251,1.2282254695892334,29.296875,-132.6904296875,80.87158203125
4.6724999,-1.3204022645950317,4.159327030181885,1.6286556720733643,61.95068359375,-165.557861328125,-8.056640625
4.6774999,0.08798690885305405,5.8191070556640625,3.0310592651367188,15.07568359375,-174.468994140625,-61.126708984375
4.6824999,2.1727380752563477,6.697779178619385,5.278017520904541,-22.674560546875,-160.2783203125,-96.86279296875
4.687499900000001,6.803123950958252,6.909666061401367,8.872312545776367,-94.78759765625,-68.7255859375,-82.45849609375
4.6924999000000005,8.307281494140625,6.036979675292969,9.095572471618652,-41.015625,24.627685546875,-87.46337890625
4.6974999,9.077615737915039,4.953603267669678,9.067440032958984,-25.7568359375,71.929931640625,-79.4677734375
4.7024999,9.091980934143066,3.529053211212158,9.169194221496582,-21.54541015625,74.981689453125,-69.39697265625
4.7074999,8.615534782409668,2.0183119773864746,9.54209041595459,-64.544677734375,79.742431640625,-47.4853515625
4.7124999,7.668029308319092,0.8026561141014099,10.131064414978027,-18.585205078125,105.712890625,-28.839111328125
4.7174999,6.116586685180664,-0.3878606855869293,10.261548042297363,-22.39990234375,108.795166015625,-34.515380859375
4.7224999,2.627037763595581,-1.533486247062683,9.90241813659668,-11.016845703125,104.583740234375,-26.2451171875
4.727499900000001,1.1342530250549316,-1.875258445739746,9.661202430725098,-28.594970703125,93.75,-18.890380859375
4.7324999000000005,-0.12988543510437012,-2.0392613410949707,9.560047149658203,11.383056640625,78.277587890625,-13.763427734375
4.7374999,-1.0205284357070923,-2.3247697353363037,9.644442558288574,-1.129150390625,46.112060546875,-15.289306640625
4.7424999,-1.932719349861145,-2.183511972427368,9.882067680358887,16.815185546875,7.080078125,0.732421875
4.7474999,-1.9183541536331177,-1.7711106538772583,9.999382972717285,8.23974609375,-1.800537109375,16.845703125
4.7524999,-1.8620903491973877,-1.2749123573303223,9.855133056640625,22.979736328125,-10.7421875,6.622314453125
4.7574999,-1.4514847993850708,-0.6889315247535706,9.864709854125977,-5.889892578125,-13.824462890625,6.256103515625
4.7624999,-0.9959878921508789,-0.14484919607639313,9.990405082702637,21.78955078125,-21.331787109375,2.62451171875
4.7674999,-0.33039984107017517,0.2190694510936737,10.007762908935547,-15.472412109375,-18.524169921875,-6.622314453125
4.772499900000001,0.35913026332855225,0.44412440061569214,10.3734769821167,9.70458984375,-15.777587890625,3.265380859375
4.7774999000000005,0.8882488012313843,0.38307225704193115,10.178350448608398,-11.871337890625,-17.486572265625,-8.026123046875
4.7824999,1.4155718088150024,0.23283611238002777,10.237008094787598,-5.55419921875,-10.009765625,4.180908203125
4.7874999,1.5257049798965454,-0.10773907601833344,9.908403396606445,6.2255859375,-12.0849609375,-9.21630859375
4.7924999,1.692102074623108,-0.3315969407558441,9.616311073303223,-17.333984375,-3.60107421875,1.312255859375
4.7974999,1.589151382446289,-0.6356605291366577,9.55705451965332,16.78466796875,-3.509521484375,-4.94384765625
4.8024999,1.2336124181747437,-0.6009446382522583,9.747393608093262,12.26806640625,6.4697265625,3.448486328125
4.8074999,1.0767922401428223,-0.4207809567451477,9.59057331085205,-4.08935546875,3.0517578125,-8.514404296875
4.812499900000001,1.0785878896713257,-0.23044191300868988,9.90122127532959,-0.48828125,6.500244140625,5.218505859375
4.8174999000000005,0.839766263961792,-0.20231004059314728,9.801861763000488,4.791259765625,1.15966796875,-6.622314453125
4.8224999,0.8601169586181641,-0.17417816817760468,9.970054626464844,-11.77978515625,3.23486328125,4.638671875
4.8274999,0.6667851805686951,-0.30047231912612915,9.90241813659668,13.916015625,-1.52587890625,-3.35693359375
4.8324999,0.6835445761680603,-0.39803603291511536,9.841365814208984,-17.730712890625,-0.213623046875,1.64794921875
4.8374999,0.6422445774078369,-0.48063600063323975,9.874286651611328,18.310546875,-3.0517578125,-1.190185546875
4.8424999,0.6560112833976746,-0.536899745464325,9.671378135681152,-17.974853515625,-2.74658203125,-2.655029296875
4.8474999,0.750582218170166,-0.5596446394920349,9.88386344909668,17.822265625,-3.082275390625,1.922607421875
4.852499900000001,0.93254154920578,-0.4800374507904053,9.871294021606445,12.603759765625,-1.068115234375,4.302978515625
4.8574999000000005,0.9965864419937134,-0.45669397711753845,9.600150108337402,-8.23974609375,-2.44140625,-6.16455078125
4.8624999,1.1234791278839111,-0.33937808871269226,9.843161582946777,5.4931640625,0.79345703125,5.43212890625
4.8674999,1.0755951404571533,-0.3274070918560028,9.61331844329834,-1.3427734375,-0.8544921875,-6.65283203125
4.8724999,1.1881226301193237,-0.24660277366638184,9.857526779174805,-2.716064453125,2.777099609375,5.645751953125
4.8774999,1.01753568649292,-0.322618693113327,9.657610893249512,5.584716796875,-0.3662109375,-6.103515625
4.8824999,1.1049240827560425,-0.2908954918384552,9.854534149169922,-9.09423828125,3.72314453125,4.7607421875
4.8874999,0.9289502501487732,-0.45190557837486267,9.728838920593262,11.65771484375,-0.091552734375,-5.126953125
4.8924999,0.9493009448051453,-0.4076128304004669,9.786299705505371,-13.18359375,3.23486328125,3.570556640625
4.897499900000001,0.8475474119186401,-0.48722004890441895,9.771934509277344,15.19775390625,-0.091552734375,-3.265380859375
4.9024999000000005,0.851138710975647,-0.38546648621559143,9.715071678161621,-16.021728515625,2.25830078125,2.044677734375
4.9074999,0.8146271109580994,-0.40043023228645325,9.833584785461426,17.63916015625,-1.251220703125,-1.8310546875
4.9124999,0.8248024582862854,-0.38905778527259827,9.709685325622559,-17.2119140625,1.46484375,0.274658203125
4.9174999,0.8355764150619507,-0.3770867586135864,9.88386344909668,17.425537109375,-1.3427734375,0.152587890625
4.9224999,0.7894880175590515,-0.45190557837486267,9.68813705444336,-16.876220703125,0.732421875,-1.190185546875
4.9274999,0.8643068075180054,-0.40282443165779114,9.904213905334473,16.693115234375,-1.0986328125,1.40380859375
4.9324999,0.8277952671051025,-0.4207809567451477,9.643844604492188,-15.594482421875,0.274658203125,-2.471923828125
4.937499900000001,0.9187749028205872,-0.39863458275794983,9.907805442810059,15.13671875,-0.823974609375,2.288818359375
4.9424999000000005,0.8984242081642151,-0.38965633511543274,9.615114212036133,-13.824462890625,0.518798828125,-3.631591796875
4.9474999,0.9738415479660034,-0.395043283700943,9.913790702819824,13.336181640625,-0.518798828125,3.173828125
4.9524999,0.922366201877594,-0.4034229815006256,9.609726905822754,-12.3291015625,0.518798828125,-4.180908203125
4.9574999,0.9750386476516724,-0.4159925580024719,9.954492568969727,11.627197265625,-0.091552734375,3.875732421875
4.9624999,0.9175778031349182,-0.4297592043876648,9.61451530456543,-10.406494140625,0.457763671875,-4.791259765625
4.9674999,0.9481038451194763,-0.43335050344467163,9.963470458984375,9.796142578125,-0.030517578125,4.302978515625
4.9724999,0.9181763529777527,-0.39205053448677063,9.952696800231934,8.48388671875,0.152587890625,4.57763671875
4.977499900000001,0.8469488620758057,-0.38905778527259827,9.604938507080078,-7.843017578125,-0.274658203125,-5.4931640625
4.9824999000000005,0.9127894043922424,-0.34356793761253357,9.93593692779541,7.537841796875,0.244140625,4.730224609375
4.9874999,0.8553285598754883,-0.37828385829925537,9.592967987060547,-6.927490234375,-0.48828125,-5.706787109375
4.9924999,0.9313444495201111,-0.3387795388698578,9.910798072814941,6.89697265625,0.3662109375,4.791259765625
4.9974999,0.8810662031173706,-0.4058171808719635,9.583989143371582,-6.744384765625,-0.640869140625,-5.7373046875
5.0024999,0.9475052952766418,-0.3597288131713867,9.910199165344238,6.805419921875,0.48828125,4.852294921875
5.0074999,0.8888474106788635,-0.43095630407333374,9.602544784545898,-6.16455078125,-0.79345703125,-5.767822265625
5.0124999,0.9487023949623108,-0.375291109085083,9.931148529052734,6.89697265625,0.6103515625,4.8828125
5.0174999,0.8846575021743774,-0.42856210470199585,9.624691009521484,-6.744384765625,-0.48828125,-5.4931640625
5.022499900000001,0.9475052952766418,-0.36810851097106934,9.948506355285645,7.32421875,0.48828125,4.730224609375
5.0274999000000005,0.8858546018600464,-0.40222588181495667,9.627683639526367,-7.720947265625,-0.213623046875,-5.31005859375
5.0324999,0.8798691034317017,-0.3992331326007843,9.594164848327637,-8.575439453125,0,-4.82177734375
5.0374999,0.9427168965339661,-0.3645172119140625,9.91738224029541,9.27734375,0.18310546875,4.119873046875
5.0424999,0.9361328482627869,-0.3968389332294464,9.882067680358887,10.894775390625,-0.48828125,3.60107421875
5.0474999,0.9361328482627869,-0.3968389332294464,9.882067680358887,10.894775390625,-0.48828125,3.60107421875
5.0524999,0.8421604633331299,-0.4255693554878235,9.585186958312988,-11.29150390625,-0.213623046875,-3.84521484375
5.0574999,0.9074024558067322,-0.40282443165779114,9.929352760314941,12.054443359375,-0.518798828125,2.8076171875
5.062499900000001,0.8475474119186401,-0.4076128304004669,9.666589736938477,-12.5732421875,0.701904296875,-2.99072265625
5.0674999000000005,0.9085995554924011,-0.3884592354297638,9.950302124023438,13.397216796875,-0.823974609375,1.8310546875
5.0724999,0.9373299479484558,-0.4124012291431427,9.701904296875,-13.671875,1.0986328125,-1.953125
5.0774999,0.9415197968482971,-0.37469255924224854,9.885659217834473,14.007568359375,-0.9765625,0.762939453125
5.0824999,1.027711033821106,-0.4034229815006256,9.688735961914062,-14.16015625,1.312255859375,-0.8544921875
5.0874999,0.9768342971801758,-0.35733461380004883,9.610325813293457,-14.09912109375,1.495361328125,0.732421875
5.0924999,0.8942343592643738,-0.37169981002807617,9.761159896850586,13.824462890625,-1.708984375,-1.8310546875
5.0974999,0.8804676532745361,-0.37169981002807617,9.707290649414062,-13.153076171875,1.800537109375,1.953125
5.102499900000001,0.8206126093864441,-0.4405331015586853,9.800065994262695,12.26806640625,-1.77001953125,-3.173828125
5.1074999000000005,0.884058952331543,-0.46088382601737976,9.853337287902832,-11.138916015625,2.105712890625,3.47900390625
5.1124999,0.8212111592292786,-0.5081692934036255,9.78989028930664,10.162353515625,-1.922607421875,-4.730224609375
5.1174999,0.9672574996948242,-0.45010992884635925,9.84256362915039,-7.568359375,1.64794921875,4.5166015625
5.1224999,0.9870096445083618,-0.35733461380004883,9.857526779174805,-3.84521484375,1.28173828125,5.18798828125
5.1274999,0.9870096445083618,-0.35733461380004883,9.857526779174805,-3.84521484375,1.28173828125,5.18798828125
5.1324999,0.8750807046890259,-0.34835633635520935,9.660603523254395,1.495361328125,-1.3427734375,-5.889892578125
5.1374999,0.9343371987342834,-0.27234044671058655,9.869498252868652,1.251220703125,1.434326171875,5.218505859375
5.1424999,0.8445546627044678,-0.3429693877696991,9.635464668273926,-3.662109375,-0.8544921875,-5.4931640625
5.147499900000001,0.8355764150619507,-0.43275195360183716,9.674370765686035,-8.209228515625,-0.30517578125,-4.364013671875
5.1524999000000005,0.8882488012313843,-0.3866635859012604,9.959878921508789,10.31494140625,0.091552734375,3.021240234375
5.1574999,0.9283517003059387,-0.5692214369773865,9.71926212310791,-11.65771484375,0.732421875,-2.44140625
5.1624999,0.8846575021743774,-0.4704606235027313,9.947309494018555,12.8173828125,-0.457763671875,0.6103515625
5.1674999,0.9487023949623108,-0.5542576909065247,9.637260437011719,-13.0615234375,1.220703125,-0.1220703125
5.1724999,0.8643068075180054,-0.4273650050163269,9.809642791748047,12.87841796875,-1.28173828125,-1.64794921875
5.1774999,0.8948329091072083,-0.44173020124435425,9.66958236694336,-11.77978515625,1.312255859375,2.3193359375
5.1824999,0.8122329115867615,-0.41778820753097534,9.750985145568848,10.223388671875,-1.556396484375,-3.84521484375
5.187499900000001,0.9391255974769592,-0.4118026793003082,9.849745750427246,-7.99560546875,1.3427734375,4.150390625
5.1924999000000005,0.8433575630187988,-0.43335050344467163,9.753378868103027,5.157470703125,-1.5869140625,-5.340576171875
5.1974999,0.9415197968482971,-0.3579331636428833,9.894038200378418,-1.800537109375,1.129150390625,5.096435546875
5.2024999,0.8678981065750122,-0.38726213574409485,9.657610893249512,-1.251220703125,-1.129150390625,-5.4931640625
5.2074999,0.8696937561035156,-0.38307225704193115,9.628880500793457,-7.659912109375,-0.396728515625,-4.119873046875
5.2124999,0.9259575009346008,-0.30945056676864624,9.904812812805176,10.009765625,0.091552734375,2.685546875
5.2174999,0.9445125460624695,-0.424970805644989,9.691728591918945,-11.505126953125,0.54931640625,-1.77001953125
5.2224999,0.9301473498344421,-0.3902548849582672,9.86231517791748,12.3291015625,-0.67138671875,-0.396728515625
5.227499900000001,0.9768342971801758,-0.4405331015586853,9.753378868103027,-11.932373046875,1.129150390625,1.068115234375
5.2324999000000005,0.884058952331543,-0.43514615297317505,9.75397777557373,10.7421875,-1.312255859375,-3.173828125
5.2374999,0.9630676507949829,-0.4297592043876648,9.837775230407715,-8.026123046875,1.3427734375,3.662109375
5.2424999,0.8361749649047852,-0.48063600063323975,9.716867446899414,5.096435546875,-1.495361328125,-4.94384765625
5.2474999,0.9151836037635803,-0.33937808871269226,9.868300437927246,-1.312255859375,1.129150390625,4.608154296875
5.2524999,0.8032546639442444,-0.4165911078453064,9.657610893249512,-2.197265625,-0.946044921875,-4.94384765625
