# Time (seconds),Accel_X,Accel_Y,Accel_Z,Gyro_X,Gyro_Y,Gyro_Z
0.0024999,2.650381326675415,0.021547814831137657,11.24795913696289,73.822021484375,50.506591796875,101.776123046875
0.0074999,2.650381326675415,0.021547814831137657,11.24795913696289,73.822021484375,50.506591796875,101.776123046875
0.012499900000000001,3.3919851779937744,-0.07422025501728058,10.762535095214844,73.91357421875,50.72021484375,77.301025390625
0.0174999,3.867234230041504,-0.1628057211637497,10.234015464782715,65.643310546875,43.548583984375,40.130615234375
0.0224999,3.993528366088867,-0.08439560979604721,9.715670585632324,55.60302734375,36.43798828125,3.41796875
0.0274999,3.7169981002807617,0.24899697303771973,9.129091262817383,37.53662109375,26.214599609375,-32.562255859375
0.0324999,3.2124202251434326,0.8086416125297546,8.620323181152344,13.18359375,10.467529296875,-68.17626953125
0.0374999,2.11946702003479,2.115875720977783,7.333439826965332,-53.680419921875,-18.280029296875,-141.510009765625
0.0424999,1.7375918626785278,2.6024973392486572,6.653486728668213,-98.32763671875,-36.68212890625,-172.393798828125
0.0474999,1.7345991134643555,2.7886464595794678,6.1285576820373535,-132.87353515625,-39.794921875,-195.709228515625
0.0524999,1.9063831567764282,2.7006595134735107,6.907271862030029,-143.61572265625,-0.518798828125,-204.04052734375
0.0574999,1.7016788721084595,1.61069917678833,8.838793754577637,-79.315185546875,65.0634765625,-171.81396484375
0.0624999,1.0672154426574707,0.30945056676864624,10.506355285644531,2.593994140625,66.986083984375,-109.0087890625
0.0674999,1.0672154426574707,0.30945056676864624,10.506355285644531,2.593994140625,66.986083984375,-109.0087890625
0.0724999,-0.4010287821292877,-1.8590975999832153,11.64719295501709,-40.52734375,15.533447265625,-37.811279296875
0.0774999,-2.358887195587158,-2.8844144344329834,10.993576049804688,-44.219970703125,-10.25390625,32.71484375
0.0824999,-5.297171115875244,-3.575740337371826,7.921814918518066,0.8544921875,-57.159423828125,63.446044921875
0.0874999,-5.757456302642822,-2.9730000495910645,7.632715225219727,-1.800537109375,-99.42626953125,67.779541015625
0.0924999,-4.14915132522583,-1.5077484846115112,9.03751277923584,34.271240234375,-73.2421875,66.497802734375
0.0974999,-4.14915132522583,-1.5077484846115112,9.03751277923584,34.271240234375,-73.2421875,66.497802734375
0.1024999,-2.455253839492798,-0.9576807022094727,10.307038307189941,12.8173828125,-81.11572265625,69.305419921875
0.1074999,-0.6177040338516235,-0.6931213736534119,11.262923240661621,19.073486328125,-62.347412109375,80.963134765625
0.1124999,0.9852139949798584,-0.5847837924957275,11.686098098754883,38.39111328125,-30.364990234375,98.602294921875
0.1174999,2.1727380752563477,-0.7116764783859253,11.495759010314941,51.055908203125,-6.011962890625,110.77880859375
0.1224999,3.004124641418457,-0.8690952062606812,10.910377502441406,54.8095703125,10.3759765625,111.87744140625
0.1274999,3.5488054752349854,-1.1791443824768066,10.332776069641113,53.009033203125,13.275146484375,95.855712890625
0.1324999,3.9049429893493652,-1.2437877655029297,9.967659950256348,54.443359375,17.27294921875,74.432373046875
0.1374999,4.063559055328369,-1.2485761642456055,9.694721221923828,52.459716796875,17.059326171875,52.6123046875
0.1424999,4.030638694763184,-1.0217255353927612,9.577404975891113,45.867919921875,8.544921875,23.834228515625
0.1474999,3.8810009956359863,-0.6572083830833435,9.452906608581543,39.520263671875,6.072998046875,-6.134033203125
0.1524999,3.6816837787628174,-0.24779987335205078,9.305663108825684,33.843994140625,9.033203125,-30.609130859375
0.1574999,3.384204149246216,0.4728548228740692,9.000402450561523,14.34326171875,8.85009765625,-79.833984375
0.1624999,3.2848446369171143,0.7745242714881897,8.665214538574219,-3.265380859375,8.087158203125,-104.949951171875
0.1674999,3.2848446369171143,0.7745242714881897,8.665214538574219,-3.265380859375,8.087158203125,-104.949951171875
0.1724999,3.2207999229431152,0.9870096445083618,8.163629531860352,-25.0244140625,11.77978515625,-127.655029296875
0.17749990000000002,3.2339680194854736,1.3467384576797485,7.468712329864502,-52.520751953125,19.439697265625,-149.444580078125
0.1824999,3.310582399368286,1.8171991109848022,6.733093738555908,-87.82958984375,26.153564453125,-172.637939453125
0.1874999,3.4410665035247803,2.4600422382354736,6.2165446281433105,-127.50244140625,36.4990234375,-193.084716796875
0.1924999,3.4524388313293457,2.8443117141723633,7.13891077041626,-148.62060546875,83.160400390625,-196.746826171875
0.1974999,2.47560453414917,2.057217836380005,9.1662015914917,-74.89013671875,171.38671875,-157.40966796875
0.2024999,1.1965023279190063,-0.055665191262960434,11.440692901611328,35.70556640625,128.96728515625,-82.244873046875
0.20749990000000001,-0.8236053586006165,-1.8632874488830566,12.29362678527832,-11.16943359375,51.605224609375,4.638671875
0.2124999,-2.8808231353759766,-3.5057098865509033,11.578957557678223,-42.877197265625,27.34375,78.033447265625
0.2174999,-3.110666513442993,-0.7416039705276489,11.511322021484375,14.70947265625,-75.347900390625,83.099365234375
0.2224999,-0.8601169586181641,-0.8098387122154236,12.83711051940918,31.1279296875,-65.5517578125,84.075927734375
0.2274999,1.127070426940918,-0.7721300721168518,12.972383499145508,34.210205078125,-55.328369140625,94.573974609375
0.2324999,2.540247917175293,-0.7170634269714355,11.962628364562988,37.078857421875,-41.93115234375,91.9189453125
0.2374999,3.4578258991241455,-0.7236474752426147,10.54406452178955,31.341552734375,-22.430419921875,83.709716796875
0.2424999,4.001908302307129,-0.7649474143981934,9.30686092376709,25.5126953125,1.861572265625,69.82421875
0.2474999,4.332307815551758,-0.8026561141014099,8.627506256103516,23.345947265625,10.1318359375,52.520751953125
0.2524999,2.654571056365967,0.29628247022628784,9.452308654785156,-7.904052734375,36.07177734375,-32.53173828125
0.2574999,2.340930700302124,-0.026336219161748886,9.396044731140137,-9.033203125,45.34912109375,-35.09521484375
0.2624999,2.1733365058898926,-0.21966800093650818,9.363123893737793,-10.43701171875,52.337646484375,-40.4052734375
0.2674999,2.139817714691162,-0.1711854189634323,9.371503829956055,-13.85498046875,56.70166015625,-52.001953125
0.2724999,2.186504602432251,0.041299980133771896,9.449316024780273,-20.32470703125,59.112548828125,-65.399169921875
0.2774999,2.2020668983459473,0.3250128924846649,9.627084732055664,-24.71923828125,67.962646484375,-73.577880859375
0.2824999,2.077568531036377,0.395043283700943,10.008959770202637,-18.9208984375,79.925537109375,-74.127197265625
0.28749990000000003,-3.336320161819458,-1.1300631761550903,9.761758804321289,-23.101806640625,0.54931640625,-9.765625
0.2924999,-4.719570159912109,-1.1534066200256348,8.973467826843262,-15.7470703125,-37.53662109375,48.828125
0.2974999,-5.798158168792725,-1.3455413579940796,8.281543731689453,0.42724609375,-76.324462890625,66.83349609375
0.3024999,-6.418854713439941,-1.106719732284546,8.343792915344238,-21.942138671875,-97.35107421875,50.47607421875
0.3074999,-6.159682273864746,-0.5518634915351868,9.156025886535645,-24.169921875,-112.3046875,48.614501953125
0.3124999,-4.862623691558838,-0.1364694982767105,10.225635528564453,-5.79833984375,-110.9619140625,54.229736328125
0.3174999,-2.9023709297180176,0.09816227108240128,11.176732063293457,5.035400390625,-106.658935546875,61.248779296875
0.3224999,4.194641590118408,-1.9734207391738892,9.52353572845459,30.3955078125,-22.5830078125,77.239990234375
0.3274999,4.580107688903809,-2.0865468978881836,9.181164741516113,27.52685546875,-8.544921875,72.509765625
0.3324999,4.540005207061768,-1.9255367517471313,9.182361602783203,30.45654296875,0.06103515625,59.99755859375
0.3374999,4.246116638183594,-1.4760253429412842,9.287108421325684,30.609130859375,10.406494140625,47.05810546875
0.3424999,3.870227098464966,-1.0732009410858154,9.43135929107666,29.35791015625,13.763427734375,33.3251953125
0.34749990000000003,3.550601005554199,-0.6338648796081543,9.613917350769043,30.1513671875,17.303466796875,17.547607421875
0.35249990000000003,3.2854433059692383,-0.1693897694349289,9.642048835754395,26.153564453125,20.599365234375,-0.762939453125
0.3574999,3.073556423187256,0.1951274424791336,9.66419506072998,17.730712890625,14.312744140625,-21.270751953125
0.3624999,2.9161376953125,0.5476736426353455,9.501389503479004,9.979248046875,12.26806640625,-39.85595703125
0.3674999,2.7970261573791504,0.7457938194274902,9.231443405151367,0,16.571044921875,-54.5654296875
0.3724999,2.742558002471924,0.7499836683273315,8.87410831451416,-10.68115234375,21.78955078125,-69.091796875
0.3774999,2.7760767936706543,0.7643488645553589,8.49402904510498,-24.383544921875,26.519775390625,-85.14404296875
0.3824999,3.0544028282165527,0.8619126081466675,7.93019437789917,-57.403564453125,43.609619140625,-120.452880859375
0.3874999,3.292625904083252,1.0301052331924438,8.14028549194336,-67.07763671875,71.59423828125,-131.011962890625
0.3924999,3.375225782394409,1.0307037830352783,9.024943351745605,-56.15234375,125.54931640625,-126.953125
0.3974999,2.9514522552490234,0.6991068720817566,10.760141372680664,-11.16943359375,157.073974609375,-110.198974609375
0.4024999,1.9806033372879028,0.0933738648891449,12.389395713806152,30.609130859375,108.642578125,-90.118408203125
0.4074999,0.42437225580215454,-0.4620809257030487,13.28183364868164,10.43701171875,66.680908203125,-71.10595703125
0.41249990000000003,-1.5263035297393799,-0.9780313968658447,12.894572257995605,-24.871826171875,57.647705078125,-45.5322265625
0.41749990000000003,-3.441664934158325,-1.5328876972198486,11.322778701782227,-39.703369140625,25.177001953125,-2.0751953125
0.4224999,-5.253477096557617,-1.866280198097229,9.290101051330566,-21.484375,-34.393310546875,62.042236328125
0.4274999,-6.610390663146973,-2.3529016971588135,7.554903507232666,-15.106201171875,-86.029052734375,90.4541015625
0.4324999,-7.437587738037109,-2.494758129119873,6.495469093322754,-26.06201171875,-124.6337890625,96.771240234375
0.4374999,-7.430405139923096,-2.09672212600708,6.721122741699219,1.861572265625,-143.98193359375,98.20556640625
0.4424999,-2.6647465229034424,-0.5081692934036255,12.049418449401855,11.71875,-89.263916015625,94.29931640625
0.4474999,-0.42018240690231323,-0.4967968463897705,12.588712692260742,27.008056640625,-86.273193359375,103.271484375
0.4524999,1.469441294670105,-0.6494272351264954,11.847108840942383,40.22216796875,-67.962646484375,108.642578125
0.4574999,2.866457939147949,-1.0295066833496094,10.719439506530762,35.491943359375,-42.236328125,109.619140625
0.4624999,3.7648820877075195,-1.3623007535934448,9.824606895446777,37.811279296875,-13.916015625,103.607177734375
0.4674999,4.331709384918213,-1.6047136783599854,9.351153373718262,48.583984375,7.568359375,100.5859375
0.47249990000000003,4.53761100769043,-1.6340426206588745,9.079411506652832,47.943115234375,9.674072265625,92.71240234375
0.47749990000000003,4.55616569519043,-1.403002142906189,9.208099365234375,41.168212890625,6.89697265625,70.404052734375
0.4824999,4.460397720336914,-0.9481038451194763,9.520543098449707,44.647216796875,4.669189453125,46.539306640625
0.4874999,4.258686065673828,-0.4794389009475708,9.828198432922363,45.59326171875,3.326416015625,24.505615234375
0.4924999,4.0078935623168945,-0.07122749835252762,9.9772367477417,41.68701171875,-1.40380859375,0.18310546875
0.4974999,3.752312660217285,0.15023615956306458,9.840168952941895,32.867431640625,-3.997802734375,-27.374267578125
0.5024999,3.4638113975524902,0.18375498056411743,9.451709747314453,20.782470703125,-2.86865234375,-54.13818359375
0.5074999,3.207033157348633,0.11312603205442429,9.008183479309082,11.322021484375,-0.823974609375,-70.25146484375
0.5124999,3.0394389629364014,0.09576806426048279,8.519766807556152,2.288818359375,8.209228515625,-81.23779296875
0.5174999,2.9484593868255615,0.21787235140800476,8.200140953063965,-10.7421875,13.97705078125,-98.08349609375
0.5224999,3.04602313041687,0.6476315855979919,7.7883381843566895,-31.1279296875,17.730712890625,-118.194580078125
0.5274999,3.2537200450897217,1.3563152551651,7.31967306137085,-65.093994140625,23.25439453125,-147.430419921875
0.5324999,3.5206735134124756,2.2475569248199463,6.7031660079956055,-105.010986328125,29.327392578125,-172.515869140625
0.5374999,3.77565598487854,3.1513679027557373,6.293159008026123,-145.538330078125,45.7763671875,-186.8896484375
0.5424999,3.861248731613159,3.4171242713928223,7.326855659484863,-169.3115234375,114.3798828125,-186.370849609375
0.5474999,2.983773946762085,2.4869771003723145,9.391256332397461,-103.8818359375,274.749755859375,-169.37255859375
0.5524999,1.592742681503296,0.6200982332229614,12.041637420654297,38.14697265625,186.737060546875,-121.368408203125
0.5574999,-4.260481834411621,-3.1268274784088135,10.380660057067871,-49.1943359375,47.607421875,20.1416015625
0.5624999,-5.626972675323486,-3.1471781730651855,7.880515098571777,-45.0439453125,-17.2119140625,55.96923828125
0.5674999000000001,-6.6391215324401855,-2.895188331604004,6.044162273406982,-30.029296875,-109.31396484375,85.693359375
0.5724999000000001,-7.140706539154053,-2.8610711097717285,5.295375823974609,-2.44140625,-145.263671875,102.813720703125
0.5774999000000001,-6.868366241455078,-2.832340717315674,5.480327606201172,47.8515625,-151.336669921875,108.09326171875
0.5824999,-5.744288444519043,-2.7252001762390137,7.082048416137695,98.44970703125,-133.636474609375,113.83056640625
0.5874999,-3.955221176147461,-2.3086090087890625,9.475651741027832,77.972412109375,-82.183837890625,122.100830078125
0.5924999,-1.9255367517471313,-1.7603367567062378,11.490970611572266,13.641357421875,-45.135498046875,125.152587890625
0.5974999,-0.010175357572734356,-1.058835744857788,12.92449951171875,29.47998046875,-57.80029296875,117.67578125
0.6024999,1.5604209899902344,-0.4387374520301819,12.665327072143555,52.886962890625,-56.45751953125,112.060546875
0.6074999,2.672527551651001,-0.10833762586116791,11.44907283782959,41.290283203125,-33.721923828125,111.053466796875
0.6124999,3.8804023265838623,-0.06404489278793335,9.37748908996582,26.30615234375,-5.859375,-4.82177734375
0.6174999,3.797802448272705,0.16160862147808075,9.26915168762207,16.2353515625,-4.302978515625,-30.029296875
0.6224999,3.7038300037384033,0.34177228808403015,8.923788070678711,0.518798828125,-0.335693359375,-54.87060546875
0.6274999,3.560776472091675,0.30885201692581177,8.5903959274292,-13.336181640625,3.60107421875,-72.93701171875
0.6324999,3.3931822776794434,0.3387795388698578,8.307281494140625,-18.890380859375,14.801025390625,-81.1767578125
0.6374999,3.3931822776794434,0.3387795388698578,8.307281494140625,-18.890380859375,14.801025390625,-81.1767578125
0.6424999,3.268085241317749,0.304063618183136,8.011597633361816,-28.3203125,27.984619140625,-88.80615234375
0.6474999,3.309983968734741,1.2970588207244873,7.360973358154297,-89.05029296875,36.7431640625,-142.2119140625
0.6524999,3.5266590118408203,2.145204782485962,7.113771915435791,-122.650146484375,53.131103515625,-161.865234375
0.6574999,3.75829815864563,2.76350736618042,7.920617580413818,-132.904052734375,114.1357421875,-159.66796875
0.6624999,3.0406360626220703,2.2403743267059326,9.77672290802002,-80.74951171875,236.38916015625,-133.85009765625
0.6674999,1.7962498664855957,0.8265981078147888,12.162544250488281,7.62939453125,173.583984375,-117.3095703125
0.6724999,-0.17058686912059784,-0.9361328482627869,13.366230010986328,40.374755859375,49.86572265625,-64.483642578125
0.6774999,-2.3349452018737793,-2.65097975730896,12.748525619506836,-3.509521484375,37.04833984375,-26.885986328125
0.6824999,-4.125209331512451,-3.4141316413879395,10.36449909210205,-32.04345703125,37.933349609375,5.67626953125
0.6874999,-5.520430564880371,-3.5721490383148193,7.757812023162842,-12.3291015625,-13.702392578125,45.654296875
0.6924999000000001,-6.593631267547607,-3.4117374420166016,5.993884086608887,1.312255859375,-96.588134765625,70.80078125
0.6974999000000001,-7.186794757843018,-3.074753522872925,5.719149112701416,-1.007080078125,-136.04736328125,83.49609375
0.7024999000000001,-6.92881965637207,-2.6641478538513184,6.9258270263671875,33.294677734375,-125.213623046875,74.615478515625
0.7074999,-3.5416228771209717,-1.2114660739898682,11.39161205291748,19.561767578125,-94.635009765625,55.816650390625
0.7124999,-1.0528502464294434,-0.579995334148407,12.879009246826172,15.411376953125,-94.573974609375,65.460205078125
0.7174999,1.2324153184890747,-0.08200141042470932,13.040617942810059,35.064697265625,-70.73974609375,76.873779296875
0.7224999,2.83174204826355,0.10833762586116791,12.1008939743042,41.6259765625,-45.501708984375,84.136962890625
0.7274999,3.8331170082092285,0.0975637212395668,10.760141372680664,39.794921875,-24.2919921875,90.63720703125
0.7324999,4.281431198120117,-0.19572599232196808,9.509769439697266,34.423828125,-2.288818359375,81.512451171875
0.7374999,4.4041337966918945,-0.6350619792938232,8.834604263305664,32.2265625,7.38525390625,62.164306640625
0.7424999,4.2730512619018555,-0.751779317855835,8.625710487365723,39.1845703125,14.34326171875,59.600830078125
0.7474999,3.971980571746826,-0.7637503147125244,8.69095230102539,31.55517578125,21.66748046875,53.741455078125
0.7524999,3.597288131713867,-0.3423708379268646,9.285911560058594,32.28759765625,18.157958984375,36.31591796875
0.7574999,3.161543369293213,0.14006079733371735,9.448118209838867,28.076171875,14.862060546875,21.575927734375
0.7624999,2.84790301322937,0.3363853394985199,9.52473258972168,17.76123046875,12.664794921875,0.54931640625
0.7674999,2.522890090942383,0.14844051003456116,9.050681114196777,-4.913330078125,6.988525390625,-48.33984375
0.7724999,2.5061306953430176,0.03172317147254944,8.797493934631348,-13.092041015625,9.002685546875,-61.920166015625
0.7774999,2.581547975540161,0.11192893236875534,8.558672904968262,-23.01025390625,14.617919921875,-75.62255859375
0.7824999,2.7467479705810547,0.46627077460289,8.254609107971191,-42.1142578125,17.63916015625,-98.14453125
0.7874999,3.0352492332458496,1.0241197347640991,7.8763251304626465,-69.915771484375,20.93505859375,-127.716064453125
0.7924999,3.4099416732788086,1.7166426181793213,7.625532627105713,-97.442626953125,38.87939453125,-149.35302734375
0.7974999,3.780444383621216,2.298433542251587,8.269572257995605,-107.2998046875,94.268798828125,-151.031494140625
0.8024999,3.378218650817871,1.9303251504898071,9.936535835266113,-71.197509765625,194.580078125,-129.8828125
0.8074999,2.383427858352661,0.8331822156906128,12.127828598022461,5.828857421875,161.163330078125,-114.31884765625
0.8124999,0.6512228846549988,-0.5237316489219666,13.39436149597168,32.89794921875,61.614990234375,-76.141357421875
0.8174999000000001,-1.4712369441986084,-1.79146146774292,13.210606575012207,-6.439208984375,44.189453125,-39.24560546875
0.8224999000000001,-3.514089584350586,-2.603694438934326,11.443086624145508,-39.85595703125,40.283203125,-3.387451171875
0.8274999000000001,-6.522404193878174,-2.932298421859741,7.1676411628723145,-17.608642578125,-92.620849609375,79.77294921875
0.8324999000000001,-6.522404193878174,-2.932298421859741,7.1676411628723145,-17.608642578125,-92.620849609375,79.77294921875
0.8374999,-7.250839710235596,-2.955641984939575,6.223128795623779,-12.725830078125,-136.53564453125,89.9658203125
0.8424999,-7.041945934295654,-2.6198551654815674,6.446388244628906,28.350830078125,-141.54052734375,89.447021484375
0.8474999,-5.8203043937683105,-2.2637176513671875,8.179790496826172,64.056396484375,-107.177734375,80.291748046875
0.8524999,-3.8576574325561523,-1.7513585090637207,10.407594680786133,37.78076171875,-89.813232421875,74.27978515625
0.8574999,-1.4676456451416016,-1.3323732614517212,12.307394027709961,12.63427734375,-89.7216796875,77.69775390625
0.8624999,0.7631517648696899,-0.8924387097358704,13.00051498413086,35.5224609375,-72.723388671875,84.41162109375
0.8674999,2.456450939178467,-0.5524620413780212,12.352883338928223,49.74365234375,-46.539306640625,92.28515625
0.8724999,3.5679590702056885,-0.34596213698387146,11.16236686706543,48.492431640625,-24.017333984375,104.248046875
0.8774999,4.19224739074707,-0.41120412945747375,9.967061996459961,42.29736328125,-4.150390625,96.25244140625
0.8824999,4.459200859069824,-0.4728548228740692,9.383475303649902,45.2880859375,9.613037109375,79.925537109375
0.8874999,4.444236755371094,-0.46567222476005554,9.14345645904541,55.11474609375,12.298583984375,77.484130859375
0.8924999,3.7487213611602783,-0.2908954918384552,9.516353607177734,47.9736328125,9.58251953125,44.097900390625
0.8974999,3.265092611312866,-0.166995570063591,9.572616577148438,44.61669921875,9.58251953125,24.71923828125
0.9024999,2.9227216243743896,-0.14365209639072418,9.477447509765625,35.5224609375,4.8828125,1.5869140625
0.9074999,2.783858060836792,-0.04967968538403511,9.213486671447754,21.42333984375,-0.18310546875,-26.702880859375
0.9124999,2.8401217460632324,0.228047713637352,8.872312545776367,6.378173828125,-2.3193359375,-54.290771484375
0.9174999,3.025672435760498,0.6673837304115295,8.440757751464844,-11.688232421875,-2.655029296875,-79.7119140625
0.9224999,3.2549171447753906,1.0923545360565186,7.936180114746094,-34.332275390625,0.152587890625,-103.69873046875
0.9274999,3.404554843902588,1.3754688501358032,7.484873294830322,-57.80029296875,7.2021484375,-125.885009765625
0.9324999,3.5440170764923096,1.6011223793029785,7.043142795562744,-79.132080078125,16.571044921875,-140.472412109375
0.9374999,3.620631456375122,1.8225860595703125,6.694188117980957,-110.16845703125,32.89794921875,-158.14208984375
0.9424999000000001,3.8097734451293945,2.07397723197937,6.998850345611572,-138.763427734375,63.201904296875,-173.858642578125
0.9474999000000001,-0.016160860657691956,-1.5041571855545044,13.854047775268555,31.67724609375,47.66845703125,-46.56982421875
0.9524999000000001,-2.167351007461548,-2.3936030864715576,12.533645629882812,-24.078369140625,49.957275390625,-17.51708984375
0.9574999000000001,-4.137180328369141,-2.669534921646118,10.20767879486084,-47.18017578125,34.332275390625,19.287109375
0.9624999,-5.817910194396973,-2.718017578125,7.923610687255859,-24.96337890625,-38.14697265625,68.115234375
0.9674999,-7.1041951179504395,-2.7982232570648193,6.439205646514893,-21.697998046875,-114.07470703125,95.123291015625
0.9724999,-7.715314865112305,-2.8844144344329834,5.86040735244751,-6.591796875,-145.050048828125,102.783203125
0.9774999,-7.371148586273193,-2.8197710514068604,6.276998519897461,35.736083984375,-146.240234375,103.57666015625
0.9824999,-6.010045051574707,-2.6150667667388916,8.130708694458008,79.28466796875,-115.142822265625,98.602294921875
0.9874999,-3.951031446456909,-2.168548107147217,10.448894500732422,51.7578125,-79.345703125,93.963623046875
0.9924999,-1.6089035272598267,-1.6202759742736816,12.321160316467285,15.350341796875,-71.2890625,96.405029296875
0.9974999,2.2601263523101807,-0.42616790533065796,12.531251907348633,47.8515625,-54.962158203125,97.503662109375
1.0024999,3.4572272300720215,-0.06464344263076782,11.286267280578613,44.37255859375,-33.111572265625,107.879638671875
1.0074999000000002,4.113238334655762,-0.08978256583213806,10.257957458496094,41.8701171875,-14.923095703125,93.994140625
1.0124999000000001,4.425083160400391,-0.2041056901216507,9.512163162231445,46.875,3.265380859375,81.939697265625
1.0174999000000002,4.437653064727783,-0.40521863102912903,9.167996406555176,53.466796875,13.763427734375,84.41162109375
1.0224999000000001,4.219780445098877,-0.5003881454467773,9.132083892822266,53.40576171875,16.4794921875,78.277587890625
1.0274999,3.8804023265838623,-0.4357447028160095,9.299677848815918,49.86572265625,13.24462890625,59.326171875
1.0324999000000001,3.5051112174987793,-0.3100491166114807,9.39245319366455,43.670654296875,8.575439453125,32.40966796875
1.0374999,3.20404052734375,-0.14484919607639313,9.34157657623291,33.02001953125,3.0517578125,3.60107421875
1.0424999000000001,4.134786128997803,2.603694438934326,7.19936466217041,-145.904541015625,69.366455078125,-177.764892578125
1.0474999,4.0084919929504395,2.208651065826416,8.964489936828613,-119.62890625,191.22314453125,-163.39111328125
1.0524999000000002,3.0771477222442627,0.8140285611152649,11.647790908813477,-24.84130859375,271.91162109375,-146.820068359375
1.0574999,1.668160080909729,-0.7990648150444031,13.687052726745605,52.001953125,112.579345703125,-122.49755859375
1.0624999000000002,-0.3776853084564209,-2.2864625453948975,14.215572357177734,30.364990234375,50.96435546875,-71.47216796875
1.0674999,-2.431910276412964,-3.1914708614349365,12.6150484085083,-24.23095703125,60.60791015625,-36.407470703125
1.0724999000000002,-4.26706600189209,-3.2776620388031006,10.173561096191406,-33.233642578125,40.130615234375,11.932373046875
1.0774999,-5.847837448120117,-3.338115692138672,7.800309181213379,-10.101318359375,-36.651611328125,65.24658203125
1.0824999000000002,-7.078457355499268,-3.138798475265503,6.30094051361084,-16.357421875,-108.917236328125,86.761474609375
1.0874999,-7.3867106437683105,-2.495955228805542,6.189610004425049,25.054931640625,-149.84130859375,95.428466796875
1.0924999000000002,-6.05852746963501,-1.9835960865020752,8.196549415588379,65.948486328125,-118.83544921875,91.583251953125
1.0974999,-4.081515312194824,-1.3617022037506104,10.555437088012695,44.036865234375,-84.16748046875,90.850830078125
1.1024999000000002,-1.7723077535629272,-0.8122329115867615,12.500725746154785,14.923095703125,-87.46337890625,94.635009765625
1.1074999,0.46507367491722107,-0.33039984107017517,13.133992195129395,39.9169921875,-80.38330078125,98.57177734375
1.1124999000000002,2.1529858112335205,-0.1149216815829277,12.26010799407959,45.5322265625,-58.4716796875,103.424072265625
1.1174999,3.405751943588257,-0.07900865375995636,11.08635139465332,42.816162109375,-39.6728515625,108.09326171875
1.1224999000000002,4.149750232696533,-0.32441434264183044,9.895833969116211,43.304443359375,-13.153076171875,99.2431640625
1.1274999,4.4759602546691895,-0.578798234462738,9.126696586608887,40.8935546875,17.88330078125,83.49609375
1.1324999000000002,4.54419469833374,-0.7422025203704834,8.786121368408203,47.271728515625,21.6064453125,81.573486328125
1.1374999000000001,4.351461410522461,-0.7433996200561523,8.794501304626465,47.54638671875,19.95849609375,83.038330078125
1.1424999000000002,4.034828186035156,-0.4950011968612671,9.099761962890625,43.914794921875,20.111083984375,68.29833984375
1.1474999000000001,3.3177649974823,0.1041477769613266,9.615114212036133,33.8134765625,10.43701171875,15.899658203125
1.1524999000000002,3.0609867572784424,0.22206220030784607,9.45410442352295,20.751953125,5.523681640625,-11.566162109375
1.1574999000000001,2.9490580558776855,0.3363853394985199,9.060855865478516,5.0048828125,0.3662109375,-40.374755859375
1.1624999,2.9730000495910645,0.45489832758903503,8.577227592468262,-12.481689453125,-0.579833984375,-67.657470703125
1.1674999000000001,3.095702886581421,0.7308300733566284,8.088212013244629,-31.3720703125,1.739501953125,-92.376708984375
1.1724999,3.250128746032715,1.006163239479065,7.685986042022705,-52.79541015625,6.591796875,-114.80712890625
1.1774999000000002,3.425503969192505,1.4095861911773682,7.353790283203125,-74.5849609375,13.0615234375,-133.575439453125
1.1824999,3.5859155654907227,1.824381709098816,7.103596210479736,-102.1728515625,26.397705078125,-153.656005859375
1.1874999000000002,3.7930140495300293,2.2870612144470215,7.336432456970215,-124.969482421875,52.520751953125,-167.510986328125
1.1924999,3.954622745513916,2.319981336593628,8.687959671020508,-118.255615234375,127.685546875,-161.4990234375
1.1974999000000002,3.177704095840454,1.326986312866211,10.950480461120605,-46.7529296875,230.224609375,-132.8125
1.2024999,-6.402693748474121,-1.7980455160140991,8.099584579467773,40.557861328125,-124.603271484375,79.04052734375
1.2074999000000002,-4.541202068328857,-1.1689690351486206,10.46086597442627,28.167724609375,-92.681884765625,78.0029296875
1.2124999,-2.205658197402954,-0.7038952708244324,12.521675109863281,14.739990234375,-96.343994140625,85.662841796875
1.2174999000000002,0.17477671802043915,-0.3734954595565796,13.260884284973145,38.055419921875,-83.831787109375,96.74072265625
1.2224999,2.077568531036377,-0.34416648745536804,12.419322967529297,47.210693359375,-53.436279296875,102.35595703125
1.2274999000000002,3.397970676422119,-0.4381389021873474,11.131840705871582,42.3583984375,-29.571533203125,105.40771484375
1.2324999,4.23773717880249,-0.5859808921813965,9.923966407775879,43.304443359375,-11.871337890625,106.231689453125
1.2374999000000002,4.6273932456970215,-0.7583633661270142,9.045293807983398,40.4052734375,14.007568359375,92.498779296875
1.2424999,4.730343818664551,-0.8044517636299133,8.784924507141113,43.45703125,24.322509765625,79.803466796875
1.2474999000000002,4.5394062995910645,-0.7326257228851318,8.876502990722656,46.875,20.904541015625,77.972412109375
1.2524999,4.162319660186768,-0.5285200476646423,9.210494041442871,46.478271484375,22.216796875,64.0869140625
1.2574999000000002,3.665522813796997,-0.25677812099456787,9.651026725769043,43.914794921875,16.6015625,38.482666015625
1.2624999000000001,3.18249249458313,-0.002394201699644327,9.753378868103027,35.58349609375,9.033203125,10.467529296875
1.2674999000000002,2.8365304470062256,0.13048399984836578,9.572616577148438,22.88818359375,3.204345703125,-17.51708984375
1.2724999000000001,2.674921751022339,0.24779987335205078,9.177573204040527,8.056640625,-1.373291015625,-44.464111328125
1.2774999000000002,2.7012581825256348,0.3944447338581085,8.680776596069336,-7.8125,-1.861572265625,-68.7255859375
1.2824999000000001,2.825756549835205,0.5710170865058899,8.237849235534668,-24.71923828125,0.48828125,-90.362548828125
1.2874999,3.28963303565979,1.4586673974990845,7.436390399932861,-82.427978515625,24.078369140625,-142.364501953125
1.2924999000000001,3.488950490951538,1.9063831567764282,7.27418327331543,-108.551025390625,37.90283203125,-160.64453125
1.2974999,3.77565598487854,2.319382905960083,7.940370082855225,-124.969482421875,73.18115234375,-165.924072265625
1.3024999000000002,3.5482068061828613,1.9925743341445923,9.621099472045898,-93.56689453125,176.055908203125,-145.263671875
1.3074999,2.5797524452209473,0.6224924325942993,12.047024726867676,2.960205078125,195.343017578125,-117.340087890625
1.3124999000000002,1.1629834175109863,-0.8182184100151062,13.506290435791016,35.94970703125,87.493896484375,-96.19140625
1.3174999,-0.8786720037460327,-2.251746654510498,13.5685396194458,8.72802734375,57.586669921875,-53.070068359375
1.3224999000000002,-2.7922377586364746,-3.0406360626220703,11.648988723754883,-24.90234375,55.0537109375,-23.74267578125
1.3274999,-4.549582004547119,-3.2333693504333496,9.201516151428223,-22.369384765625,19.012451171875,25.054931640625
1.3324999000000002,-6.011840343475342,-3.291428804397583,7.088632583618164,-5.4931640625,-58.197021484375,74.493408203125
1.3374999,-7.111976146697998,-3.250128746032715,5.8837504386901855,-11.566162109375,-114.288330078125,89.141845703125
1.3424999000000002,-7.016806602478027,-2.141014814376831,7.143100738525391,36.92626953125,-136.383056640625,84.3505859375
1.3474999,-5.512050628662109,-1.2246341705322266,9.382277488708496,41.473388671875,-96.405029296875,79.498291015625
1.3524999000000002,-3.4374752044677734,-0.5422866940498352,11.693880081176758,14.7705078125,-89.90478515625,84.8388671875
1.3574999,-1.0660183429718018,-0.0999579206109047,13.100473403930664,24.23095703125,-93.994140625,94.879150390625
1.3624999000000002,1.082777738571167,0.0011971008498221636,12.934674263000488,43.9453125,-69.488525390625,101.01318359375
1.3674999,2.6629507541656494,-0.18614917993545532,11.657367706298828,41.19873046875,-42.694091796875,103.240966796875
1.3724999000000002,3.7451300621032715,-0.4596867263317108,10.407594680786133,38.6962890625,-22.216796875,104.095458984375
1.3774999,4.40353536605835,-0.7326257228851318,9.361329078674316,42.66357421875,3.570556640625,104.522705078125
1.3824999000000002,4.66330623626709,-0.8906430602073669,8.815450668334961,41.046142578125,17.791748046875,91.461181640625
1.3874999000000001,4.657320976257324,-0.9056068062782288,8.774748802185059,38.970947265625,15.07568359375,75.5615234375
1.3924999000000002,4.444236755371094,-0.7852981686592102,9.031527519226074,42.877197265625,17.059326171875,65.338134765625
1.3974999000000001,4.049193859100342,-0.5506663918495178,9.428964614868164,43.975830078125,17.425537109375,46.93603515625
1.4024999000000002,2.8425159454345703,0.22385786473751068,8.978256225585938,1.251220703125,0.6103515625,-58.349609375
1.4074999000000001,2.7880477905273438,0.3076549172401428,8.595782279968262,-11.993408203125,2.960205078125,-76.141357421875
1.4124999,2.84790301322937,0.46986207365989685,8.225878715515137,-21.54541015625,11.3525390625,-87.738037109375
1.4174999000000001,2.9305028915405273,0.761954665184021,7.9625163078308105,-39.947509765625,17.059326171875,-107.513427734375
1.4224999,3.096301317214966,1.2473790645599365,7.712322235107422,-63.78173828125,18.12744140625,-131.40869140625
1.4274999000000002,3.3231520652770996,1.9865888357162476,7.347805023193359,-91.36962890625,27.099609375,-151.153564453125
1.4324999,3.555389642715454,2.4672248363494873,7.259219646453857,-118.743896484375,45.379638671875,-163.818359375
1.4374999000000002,3.773261785507202,2.646191358566284,8.264185905456543,-122.61962890625,101.959228515625,-160.308837890625
1.4424999,2.094926595687866,-0.10534487664699554,12.571952819824219,30.975341796875,155.517578125,-115.29541015625
1.4474999000000002,-1.523909330368042,-2.847304344177246,13.0729398727417,-4.638671875,59.63134765625,-45.074462890625
1.4524999,-3.3039982318878174,-3.290830135345459,10.879252433776855,-28.656005859375,50.72021484375,-10.68115234375
1.4574999000000002,-4.93385124206543,-3.2585084438323975,8.507197380065918,-13.763427734375,-2.99072265625,46.295166015625
1.4624999,-6.299144744873047,-3.132812976837158,6.716932773590088,-7.50732421875,-80.596923828125,83.831787109375
1.4674999000000002,-7.264008045196533,-3.026869535446167,5.786187171936035,-13.092041015625,-124.1455078125,91.30859375
1.4724999,-7.475894927978516,-2.4827871322631836,6.092644691467285,12.237548828125,-142.547607421875,89.141845703125
1.4774999000000002,-6.678027153015137,-1.7304092645645142,7.813477039337158,43.0908203125,-124.755859375,80.13916015625
1.4824999,-4.999093055725098,-0.9367313981056213,10.112509727478027,31.3720703125,-89.447021484375,77.69775390625
1.4874999000000002,-2.846107244491577,-0.33937808871269226,12.301408767700195,13.458251953125,-97.5341796875,88.836669921875
1.4924999,-0.5656301379203796,0.030526071786880493,13.259687423706055,34.271240234375,-89.9658203125,104.217529296875
1.4974999000000002,1.3311761617660522,0.05386953800916672,12.618041038513184,48.187255859375,-58.53271484375,114.349365234375
1.5024999,2.6803088188171387,-0.22505496442317963,11.299434661865234,42.999267578125,-36.31591796875,119.2626953125
1.5074999000000002,4.229955673217773,-0.9624691009521484,9.142857551574707,46.173095703125,10.284423828125,111.907958984375
1.5124999000000001,4.502296447753906,-1.1629834175109863,8.712499618530273,43.3349609375,16.05224609375,100.09765625
1.5174999000000002,4.562749862670898,-1.146224021911621,8.770559310913086,37.750244140625,14.495849609375,79.16259765625
1.5224999000000001,4.401739597320557,-0.9487023949623108,9.122507095336914,41.259765625,10.955810546875,61.370849609375
1.5274999000000002,4.077325344085693,-0.6470330357551575,9.487024307250977,40.191650390625,8.453369140625,38.51318359375
1.5324999000000001,3.729567766189575,-0.30705636739730835,9.78869342803955,34.85107421875,0.6103515625,8.544921875
1.5374999000000003,3.4332852363586426,0.011372458189725876,9.774328231811523,25.81787109375,-4.7607421875,-20.599365234375
1.5424999000000001,3.2333693504333496,0.32381579279899597,9.464279174804688,12.939453125,-5.035400390625,-46.0205078125
1.5474999,3.064578056335449,0.27892449498176575,9.059659004211426,0.48828125,-2.44140625,-65.73486328125
1.5524999000000002,2.943072557449341,0.3280056416988373,8.71609115600586,-5.615234375,5.279541015625,-73.91357421875
1.5574999,2.8856115341186523,0.3058592677116394,8.415618896484375,-11.383056640625,18.37158203125,-80.56640625
1.5624999000000002,2.889202833175659,0.5267243981361389,8.200140953063965,-29.022216796875,22.0947265625,-100.799560546875
1.5674999,3.2094273567199707,1.7298107147216797,7.4537482261657715,-83.06884765625,25.482177734375,-148.8037109375
1.5724999000000002,3.380014181137085,2.4666264057159424,7.043142795562744,-114.74609375,37.078857421875,-164.85595703125
1.5774999,3.602076530456543,2.844910144805908,7.432799339294434,-136.77978515625,70.556640625,-170.10498046875
1.5824999000000002,3.2758665084838867,2.4013843536376953,9.042301177978516,-103.973388671875,173.64501953125,-149.993896484375
1.5874999,2.272696018218994,0.7170634269714355,11.473014831542969,2.50244140625,203.521728515625,-125.396728515625
1.5924999000000002,0.861314058303833,-0.9858125448226929,13.08910083770752,42.724609375,88.958740234375,-93.32275390625
1.5974999,-1.0552444458007812,-2.7126305103302,13.155539512634277,11.260986328125,53.64990234375,-47.05810546875
1.6024999000000002,-2.82515811920166,-3.5703532695770264,11.339537620544434,-32.470703125,51.26953125,-13.519287109375
1.6074999,-4.448426723480225,-3.7283706665039062,8.774748802185059,-17.88330078125,17.4560546875,39.093017578125
1.6124999000000002,-5.8215012550354,-3.6822822093963623,6.815094947814941,6.89697265625,-56.121826171875,77.484130859375
1.6174999,-6.964134216308594,-3.5284547805786133,5.738901615142822,-8.9111328125,-112.762451171875,86.456298828125
1.6224999000000002,-3.5224692821502686,0.17956513166427612,12.065579414367676,8.97216796875,-97.0458984375,82.427978515625
1.6274999,-1.1737574338912964,0.6314706802368164,13.210007667541504,24.139404296875,-99.91455078125,96.038818359375
1.6324999000000002,0.900818407535553,0.5303156971931458,12.743138313293457,39.764404296875,-69.976806640625,104.736328125
1.6374999000000001,2.4654293060302734,0.08379705995321274,11.440692901611328,38.543701171875,-43.27392578125,108.5205078125
1.6424999000000002,3.602076530456543,-0.5165489912033081,10.067618370056152,35.888671875,-17.76123046875,104.79736328125
1.6474999000000001,4.352060317993164,-0.9756371974945068,9.14585018157959,36.163330078125,3.387451171875,94.940185546875
1.6524999000000002,4.725555419921875,-1.227626919746399,8.69334602355957,36.285400390625,6.9580078125,87.615966796875
1.6574999000000001,4.779425144195557,-1.2862848043441772,8.614337921142578,31.585693359375,10.19287109375,75.225830078125
1.6624999000000003,4.60165548324585,-1.148618221282959,8.882488250732422,29.083251953125,15.19775390625,50.537109375
1.6674999000000001,4.2544965744018555,-0.8391677141189575,9.213486671447754,28.1982421875,13.97705078125,27.03857421875
1.6724999,2.9927520751953125,0.4189853072166443,9.348758697509766,2.3193359375,11.04736328125,-52.459716796875
1.6774999000000002,2.868852138519287,0.4752490520477295,9.011775016784668,-8.30078125,14.984130859375,-69.9462890625
1.6824999,2.868852138519287,0.8182184100151062,8.238448143005371,-39.1845703125,23.3154296875,-104.79736328125
1.6874999000000002,2.9526493549346924,1.2629413604736328,7.865550994873047,-59.326171875,28.778076171875,-124.298095703125
1.6924999,3.075352191925049,1.6466121673583984,7.606977462768555,-83.953857421875,37.384033203125,-141.90673828125
1.6974999000000002,3.2609026432037354,1.9524714946746826,7.812280178070068,-99.884033203125,62.1337890625,-150.177001953125
1.7024999,3.2525229454040527,1.6735470294952393,9.116521835327148,-80.474853515625,130.06591796875,-139.95361328125
1.7074999000000002,2.558204412460327,0.5943605899810791,11.267112731933594,-12.420654296875,179.229736328125,-117.462158203125
1.7124999,1.5538369417190552,-0.6649895310401917,13.093290328979492,37.994384765625,107.452392578125,-103.668212890625
1.7174999000000002,-7.374141216278076,-1.6735470294952393,7.294534206390381,7.537841796875,-123.9013671875,74.03564453125
1.7224999,-6.273406982421875,-0.5811924338340759,9.284713745117188,20.81298828125,-102.325439453125,62.591552734375
1.7274999000000002,-4.520851135253906,0.20949265360832214,11.438298225402832,7.476806640625,-107.391357421875,69.3359375
1.7324999,-2.2487540245056152,0.4429273009300232,12.875418663024902,14.312744140625,-116.119384765625,84.1064453125
1.7374999000000002,-0.023343466222286224,0.2585737705230713,12.729372024536133,31.06689453125,-84.197998046875,94.268798828125
1.7424999,1.79146146774292,-0.2555810213088989,11.644798278808594,35.82763671875,-55.511474609375,102.1728515625
1.7474999000000002,3.2136173248291016,-0.861314058303833,10.281899452209473,34.698486328125,-28.13720703125,104.736328125
1.7524999,4.817133903503418,-1.5807716846466064,8.813654899597168,36.1328125,9.033203125,87.799072265625
1.7574999000000002,5.0685248374938965,-1.5741876363754272,8.741230010986328,35.21728515625,15.289306640625,75.653076171875
1.7624999000000001,4.949413299560547,-1.335964560508728,8.908226013183594,34.149169921875,15.594482421875,60.638427734375
1.7674999000000002,4.61661958694458,-1.026513934135437,9.2033109664917,30.364990234375,16.66259765625,35.64453125
1.7724999000000001,4.155735492706299,-0.5937620401382446,9.520543098449707,28.38134765625,15.960693359375,8.1787109375
1.7774999000000002,3.688866376876831,-0.1538274586200714,9.644442558288574,23.0712890625,9.979248046875,-16.29638671875
1.7824999000000001,3.3231520652770996,0.23822307586669922,9.660603523254395,15.411376953125,6.04248046875,-36.9873046875
1.7874999000000003,3.047220230102539,0.536899745464325,9.46607494354248,7.26318359375,8.209228515625,-53.52783203125
1.7924999000000001,2.8772318363189697,0.6416460275650024,9.133879661560059,-2.99072265625,12.20703125,-69.488525390625
1.7974999,2.7916390895843506,0.6967126727104187,8.73105525970459,-14.58740234375,16.90673828125,-85.75439453125
1.8024999000000002,2.786850690841675,0.7864952683448792,8.28094482421875,-31.494140625,22.918701171875,-102.752685546875
1.8074999,2.8634653091430664,1.1342530250549316,7.870339393615723,-52.276611328125,27.069091796875,-120.391845703125
1.8124999000000002,3.203441858291626,1.8279730081558228,7.51659631729126,-96.954345703125,51.7578125,-151.885986328125
1.8174999,3.355473756790161,1.764526605606079,8.49402904510498,-92.28515625,109.527587890625,-146.91162109375
1.8224999000000002,2.875436305999756,0.9762357473373413,10.512341499328613,-32.501220703125,186.492919921875,-120.208740234375
1.8274999,2.0039467811584473,-0.2711433470249176,12.639589309692383,34.85107421875,136.688232421875,-100.64697265625
1.8324999000000002,0.52552729845047,-1.3449428081512451,13.773842811584473,29.4189453125,72.32666015625,-79.16259765625
1.8374999,0.52552729845047,-1.3449428081512451,13.773842811584473,29.4189453125,72.32666015625,-79.16259765625
1.8424999000000002,-1.2659341096878052,-2.184110403060913,13.175890922546387,-9.521484375,63.96484375,-44.158935546875
1.8474999,-3.0567970275878906,-2.7252001762390137,11.282076835632324,-34.759521484375,43.64013671875,-3.60107421875
1.8524999000000002,-4.752490520477295,-2.7724854946136475,8.89445972442627,-8.758544921875,-18.1884765625,60.9130859375
1.8574999,-6.266822814941406,-3.0352492332458496,7.115567684173584,5.401611328125,-74.5849609375,88.19580078125
1.8624999000000002,-7.313088893890381,-2.8365304470062256,6.1716532707214355,-16.693115234375,-116.058349609375,88.5009765625
1.8674999,-7.683591842651367,-2.012925148010254,6.624756336212158,-0.274658203125,-134.58251953125,82.305908203125
1.8724999000000002,-0.8672995567321777,0.45669397711753845,13.049596786499023,29.266357421875,-98.846435546875,99.151611328125
1.8774999,-0.8672995567321777,0.45669397711753845,13.049596786499023,29.266357421875,-98.846435546875,99.151611328125
1.8824999000000002,1.0965443849563599,0.004788403399288654,12.140996932983398,36.529541015625,-66.802978515625,108.856201171875
1.8874999000000001,2.584540843963623,-0.6637924313545227,10.761338233947754,33.050537109375,-43.701171875,111.14501953125
1.8924999000000002,3.708618402481079,-1.270722508430481,9.53849983215332,35.33935546875,-11.688232421875,107.940673828125
1.8974999000000001,4.489128112792969,-1.6543933153152466,8.909422874450684,39.4287109375,7.537841796875,98.57177734375
1.9024999000000002,4.930259704589844,-1.7693150043487549,8.702922821044922,36.712646484375,9.857177734375,86.151123046875
1.9074999000000001,5.060145378112793,-1.600523829460144,8.927379608154297,36.2548828125,9.21630859375,72.265625
1.9124999000000003,4.888959884643555,-1.2665326595306396,9.21707820892334,36.865234375,14.678955078125,51.483154296875
1.9174999000000001,4.516661643981934,-0.8601169586181641,9.493608474731445,31.79931640625,15.838623046875,23.345947265625
1.9224999,4.061763286590576,-0.34416648745536804,9.66539192199707,27.52685546875,10.498046875,-3.7841796875
1.9274999000000002,3.3470940589904785,0.43335050344467163,9.539097785949707,12.39013671875,3.692626953125,-49.591064453125
1.9324999,3.3470940589904785,0.43335050344467163,9.539097785949707,12.39013671875,3.692626953125,-49.591064453125
1.9374999000000002,3.1256303787231445,0.6224924325942993,9.27334213256836,3.326416015625,7.080078125,-65.765380859375
1.9424999,2.979583978652954,0.6709750294685364,8.87171459197998,-7.904052734375,13.36669921875,-81.451416015625
1.9474999000000002,2.890998601913452,0.7015010714530945,8.401253700256348,-23.3154296875,18.890380859375,-97.65625
1.9524999,2.896984100341797,0.8888474106788635,7.956530570983887,-41.93115234375,23.406982421875,-115.631103515625
1.9574999000000002,2.982576847076416,1.2701239585876465,7.535749912261963,-65.3076171875,30.914306640625,-135.498046875
1.9624999,3.1423897743225098,1.6968904733657837,7.270592212677002,-91.97998046875,40.985107421875,-151.9775390625
1.9674999000000002,3.3728315830230713,2.02848744392395,7.6117658615112305,-108.551025390625,69.27490234375,-158.63037109375
1.9724999,3.3441011905670166,1.7747019529342651,9.090784072875977,-84.8388671875,155.1513671875,-144.4091796875
1.9774999000000002,2.494159698486328,0.6548141837120056,11.445481300354004,-4.0283203125,203.2470703125,-116.76025390625
1.9824999,1.3605051040649414,-0.6542156338691711,13.284228324890137,46.630859375,108.612060546875,-101.37939453125
1.9874999000000002,-3.9869444370269775,-3.1238346099853516,10.198700904846191,-32.073974609375,17.425537109375,36.865234375
1.9924999,-3.9869444370269775,-3.1238346099853516,10.198700904846191,-32.073974609375,17.425537109375,36.865234375
1.9974999000000002,-5.524620532989502,-3.2638955116271973,7.757213592529297,12.908935546875,-45.7763671875,83.19091796875
2.0024999,-6.803722858428955,-3.2160115242004395,6.312911510467529,3.021240234375,-95.367431640625,85.02197265625
2.0074999,-7.5782470703125,-2.6372132301330566,5.981314182281494,-18.096923828125,-128.692626953125,81.60400390625
2.0124999000000003,-7.416638374328613,-1.5418659448623657,7.310096263885498,12.14599609375,-126.251220703125,73.028564453125
2.0174999000000002,-6.1985883712768555,-0.4531026780605316,9.520543098449707,26.153564453125,-99.884033203125,60.577392578125
2.0224999,-4.371213912963867,0.48602294921875,11.796232223510742,7.904052734375,-109.893798828125,70.1904296875
2.0274999,-2.0404584407806396,0.811634361743927,13.086706161499023,16.29638671875,-115.90576171875,89.569091796875
2.0324999000000004,0.14664486050605774,0.6075286865234375,12.693458557128906,34.759521484375,-77.789306640625,105.16357421875
2.0374999000000003,1.8824410438537598,-0.015562310814857483,11.403582572937012,36.376953125,-48.614501953125,112.9150390625
2.0424999,3.1926679611206055,-0.767341673374176,9.961674690246582,29.052734375,-29.571533203125,111.175537109375
2.0474999,5.053561210632324,-1.624465823173523,8.989628791809082,27.740478515625,7.62939453125,42.6025390625
2.0524999,5.053561210632324,-1.624465823173523,8.989628791809082,27.740478515625,7.62939453125,42.6025390625
2.0574999000000003,4.783016681671143,-1.2012907266616821,9.27453899383545,25.390625,8.880615234375,21.54541015625
2.0624999,4.368220806121826,-0.6236895322799683,9.479243278503418,21.05712890625,11.077880859375,-1.5869140625
2.0674999,3.93367338180542,-0.016759412363171577,9.551069259643555,16.082763671875,10.7421875,-22.857666015625
2.0724999,3.559579372406006,0.45848962664604187,9.485228538513184,9.27734375,10.31494140625,-39.642333984375
2.0774999000000003,3.244741916656494,0.6943184733390808,9.317035675048828,1.77001953125,14.617919921875,-52.886962890625
2.0824999,2.9915549755096436,1.478419542312622,8.10317611694336,-78.399658203125,66.71142578125,-128.875732421875
2.0874999,3.008913040161133,1.467047095298767,8.98543930053711,-69.183349609375,117.462158203125,-126.03759765625
2.0924999,2.473809003829956,0.557250440120697,10.74876880645752,-21.087646484375,162.811279296875,-109.649658203125
2.0974999000000003,1.5682021379470825,-0.5141547918319702,12.518083572387695,35.736083984375,117.706298828125,-95.3369140625
2.1024999,0.14903905987739563,-1.6388310194015503,13.435661315917969,29.60205078125,73.455810546875,-76.507568359375
2.1074999,-1.460463047027588,-2.27748441696167,12.96460247039795,-10.650634765625,60.211181640625,-53.741455078125
2.1124999,-3.074753522872925,-2.5546131134033203,11.173140525817871,-28.594970703125,33.02001953125,-12.115478515625
2.1174999000000003,-4.759673118591309,-2.53725528717041,9.024943351745605,-9.307861328125,-27.40478515625,57.7392578125
2.1224999,-6.175843238830566,-2.5097219944000244,7.417236804962158,11.322021484375,-71.929931640625,82.061767578125
2.1274999,-7.274781703948975,-2.2433669567108154,6.596624374389648,-11.444091796875,-104.67529296875,73.1201171875
2.1324999,-7.586028099060059,-1.37906014919281,7.24605131149292,-15.44189453125,-129.82177734375,65.704345703125
2.1374999000000003,-6.718728542327881,-0.4207809567451477,8.98005199432373,5.37109375,-116.51611328125,53.89404296875
2.1424999000000002,1.5604209899902344,-0.12509703636169434,11.462240219116211,27.496337890625,-61.065673828125,100.89111328125
2.1474999,2.9885623455047607,-0.8948329091072083,10.236409187316895,27.587890625,-42.266845703125,101.776123046875
2.1524999,4.000710964202881,-1.5729905366897583,9.240421295166016,28.01513671875,-14.09912109375,98.20556640625
2.1574999000000004,4.657320976257324,-1.9177556037902832,8.875904083251953,33.5693359375,5.401611328125,91.30859375
2.1624999000000003,4.35684871673584,-0.7870938181877136,9.567828178405762,27.618408203125,14.556884765625,11.627197265625
2.1674999,3.890577793121338,-0.30945056676864624,9.675567626953125,22.064208984375,11.016845703125,-10.894775390625
2.1724999,3.448847532272339,0.14065934717655182,9.654618263244629,17.364501953125,9.33837890625,-29.998779296875
2.1774999000000004,2.8592753410339355,0.5877765417098999,9.226056098937988,1.3427734375,16.998291015625,-57.373046875
2.1824999000000003,2.7024552822113037,0.6009446382522583,8.889671325683594,-7.62939453125,22.674560546875,-67.81005859375
2.1874999,2.6174609661102295,0.6027402877807617,8.53532886505127,-19.378662109375,28.62548828125,-80.352783203125
2.1924999,2.6174609661102295,0.7194576263427734,8.235455513000488,-34.3017578125,33.75244140625,-97.22900390625
2.1974999,2.7269957065582275,1.083974838256836,7.990049839019775,-53.52783203125,39.0625,-115.6005859375
2.2024999000000003,2.934692621231079,1.4425065517425537,7.864354133605957,-75.01220703125,50.10986328125,-130.157470703125
2.2074999,3.1663317680358887,1.702277421951294,8.262989044189453,-82.58056640625,80.56640625,-133.880615234375
2.2124999,3.06876802444458,1.2563573122024536,9.446322441101074,-57.037353515625,150.665283203125,-121.52099609375
2.2174999,2.3481132984161377,-0.002992752008140087,11.51850414276123,8.514404296875,161.163330078125,-98.57177734375
2.2224999000000003,1.1689690351486206,-1.2635399103164673,12.980164527893066,51.361083984375,92.864990234375,-76.96533203125
2.2274999,-0.4908113479614258,-2.2643163204193115,13.437457084655762,7.232666015625,66.5283203125,-61.309814453125
2.2324999,-2.275688648223877,-2.7503392696380615,12.305598258972168,-16.41845703125,54.50439453125,-32.470703125
2.2374999,-6.991667747497559,-2.184709072113037,6.852803707122803,1.129150390625,-92.254638671875,84.16748046875
2.2424999000000003,-7.781754016876221,-1.533486247062683,6.853402137756348,-17.27294921875,-121.429443359375,69.488525390625
2.2474999,-7.517194747924805,-0.43933600187301636,8.229470252990723,-11.566162109375,-126.89208984375,56.732177734375
2.2524999,-6.096834659576416,0.4297592043876648,10.074800491333008,2.99072265625,-108.978271484375,48.492431640625
2.2574999,-4.015076160430908,0.945111095905304,11.962628364562988,6.561279296875,-118.46923828125,66.5283203125
2.2624999000000003,-1.5209165811538696,0.7727286219596863,12.673707008361816,19.04296875,-117.828369140625,88.470458984375
2.2674999000000002,0.7380126714706421,0.11971008777618408,11.944672584533691,26.4892578125,-76.202392578125,98.0224609375
2.2724999,2.4588451385498047,-0.7541735172271729,10.740388870239258,29.296875,-50.872802734375,100.250244140625
2.2774999,3.709815502166748,-1.523909330368042,9.50737476348877,27.130126953125,-28.839111328125,97.7783203125
2.2824999000000004,4.575319290161133,-2.035670042037964,8.876502990722656,29.47998046875,-1.0986328125,92.559814453125
2.2874999000000003,5.0703206062316895,-2.1152772903442383,8.780136108398438,34.3017578125,7.904052734375,82.3974609375
2.2924999,5.08648157119751,-1.403002142906189,9.174580574035645,27.03857421875,11.322021484375,39.85595703125
2.2974999,4.704606533050537,-0.9528923034667969,9.503783226013184,26.79443359375,13.97705078125,18.524169921875
2.3024999000000004,4.1862616539001465,-0.39384618401527405,9.567828178405762,24.7802734375,16.66259765625,0.1220703125
2.3074999000000003,3.6996402740478516,-0.002992752008140087,9.70549488067627,18.218994140625,12.481689453125,-23.345947265625
2.3124999,3.2423477172851562,0.41718965768814087,9.550470352172852,11.41357421875,11.260986328125,-40.83251953125
2.3174999,2.9221231937408447,0.6135141849517822,9.30386734008789,1.15966796875,15.289306640625,-53.28369140625
2.3224999,2.5546131134033203,0.5273229479789734,8.640673637390137,-15.655517578125,28.4423828125,-74.3408203125
2.3274999000000003,2.5348610877990723,0.5542576909065247,8.367136001586914,-28.50341796875,35.15625,-89.324951171875
2.3324999,2.6174609661102295,0.7739257216453552,8.172008514404297,-44.708251953125,38.87939453125,-107.147216796875
2.3374999,2.8371291160583496,1.3611036539077759,8.08162784576416,-63.262939453125,46.32568359375,-123.504638671875
2.3424999,1.523909330368042,-0.910993754863739,12.436680793762207,48.675537109375,109.43603515625,-77.33154296875
2.3474999000000003,-0.0071826050989329815,-1.9584569931030273,13.166912078857422,18.402099609375,71.502685546875,-64.39208984375
2.3524999,-1.8255788087844849,-2.2194249629974365,12.44087028503418,-11.65771484375,57.92236328125,-42.724609375
2.3574999,-3.6278140544891357,-2.474407434463501,10.729016304016113,-28.411865234375,23.92578125,5.7373046875
2.3624999,-5.270834922790527,-2.141613483428955,8.610746383666992,-0.30517578125,-37.53662109375,73.089599609375
2.3674999000000003,-6.700173377990723,-2.2212207317352295,7.287351608276367,6.53076171875,-81.1767578125,86.48681640625
2.3724999,-7.593210697174072,-1.7998411655426025,6.858789443969727,-21.514892578125,-116.39404296875,73.1201171875
2.3774999,-7.671022415161133,-0.8792705535888672,7.887697696685791,-13.641357421875,-131.378173828125,59.844970703125
2.3824999,-6.51641845703125,0.008978256024420261,9.617507934570312,1.861572265625,-113.76953125,47.088623046875
2.3874999000000003,-4.614225387573242,0.6554127335548401,11.468226432800293,3.997802734375,-113.037109375,59.38720703125
2.3924999000000002,0.23283611238002777,0.1538274586200714,12.175114631652832,24.90234375,-87.799072265625,94.7265625
2.3974999,2.120065689086914,-0.6428431272506714,11.063007354736328,28.38134765625,-55.633544921875,97.564697265625
2.4024999,4.970362663269043,-2.101510524749756,8.841188430786133,34.881591796875,8.270263671875,84.625244140625
2.4074999000000004,5.14932918548584,-1.8836381435394287,8.932168006896973,32.806396484375,7.781982421875,69.244384765625
2.4124999000000003,5.078700542449951,-1.4760253429412842,9.147047996520996,29.23583984375,9.246826171875,46.38671875
2.4174999,4.765059947967529,-1.07379949092865,9.502586364746094,29.571533203125,13.519287109375,24.444580078125
2.4224999,4.279635429382324,-0.5171475410461426,9.59596061706543,28.74755859375,15.93017578125,6.378173828125
2.4274999000000004,4.279635429382324,-0.5171475410461426,9.59596061706543,28.74755859375,15.93017578125,6.378173828125
2.4324999000000003,3.821146011352539,-0.13048399984836578,9.751583099365234,22.308349609375,11.993408203125,-18.310546875
2.4374999,3.3871967792510986,0.32381579279899597,9.608530044555664,16.387939453125,11.199951171875,-37.628173828125
2.4424999,2.5115175247192383,0.5740098357200623,8.325238227844238,-25.543212890625,30.792236328125,-88.5009765625
2.4474999,2.5115175247192383,0.5740098357200623,8.325238227844238,-25.543212890625,30.792236328125,-88.5009765625
2.4524999000000003,2.5474305152893066,0.7906851172447205,8.076240539550781,-42.17529296875,35.980224609375,-105.65185546875
2.4574999,2.7108349800109863,1.2000936269760132,7.933187484741211,-62.652587890625,41.259765625,-122.894287109375
2.4624999,3.003525972366333,1.6675615310668945,7.975085735321045,-80.810546875,58.10546875,-134.490966796875
2.4674999,3.1657330989837646,1.722628116607666,8.692748069763184,-78.55224609375,107.635498046875,-132.01904296875
2.4724999000000003,2.8341362476348877,0.8373720645904541,10.330381393432617,-33.905029296875,171.142578125,-115.203857421875
2.4774999,1.9321208000183105,-0.3687070608139038,12.31517505645752,38.177490234375,133.544921875,-89.2333984375
2.4824999,-3.0154969692230225,-2.541445016860962,11.484387397766113,-24.35302734375,44.3115234375,-14.373779296875
2.4874999,-3.0154969692230225,-2.541445016860962,11.484387397766113,-24.35302734375,44.3115234375,-14.373779296875
2.4924999000000003,-6.269815921783447,-2.4007856845855713,7.375936985015869,8.36181640625,-75.347900390625,91.00341796875
2.4974999,-7.385513782501221,-2.2200236320495605,6.56071138381958,-5.279541015625,-109.039306640625,80.74951171875
2.5024999,-7.800309181213379,-1.43532395362854,7.020398139953613,-15.045166015625,-125.42724609375,66.436767578125
2.5074999,-7.029974937438965,-0.31543606519699097,8.849568367004395,-2.960205078125,-118.988037109375,53.619384765625
2.5124999000000003,-5.325901508331299,0.5063736438751221,10.792462348937988,3.570556640625,-109.710693359375,51.910400390625
2.5174999000000002,-3.0346505641937256,0.8583213090896606,12.530055046081543,9.979248046875,-125.091552734375,73.66943359375
2.5224999,-0.5554547905921936,0.5488707423210144,12.600683212280273,23.49853515625,-104.30908203125,91.796875
2.5274999,1.50355863571167,-0.12270283699035645,11.577760696411133,29.144287109375,-61.03515625,98.602294921875
2.5324999000000004,3.027467966079712,-0.9588778018951416,10.261548042297363,28.62548828125,-39.48974609375,98.236083984375
2.5374999000000003,4.107851505279541,-1.6011223793029785,9.169194221496582,24.7802734375,-18.218994140625,95.76416015625
2.5424999,4.8069586753845215,-1.953070044517517,8.7484130859375,28.62548828125,2.74658203125,88.9892578125
2.5474999,5.1331682205200195,-1.944091796875,8.741828918457031,30.303955078125,11.1083984375,74.981689453125
2.5524999000000004,4.882375717163086,-1.225232720375061,9.272144317626953,23.345947265625,9.674072265625,31.18896484375
2.5574999000000003,4.434061527252197,-0.7386112213134766,9.564835548400879,24.688720703125,14.34326171875,11.474609375
2.5624999,3.8953661918640137,-0.24001872539520264,9.618705749511719,19.6533203125,15.899658203125,-7.537841796875
2.5674999,3.4404678344726562,0.19273324310779572,9.676166534423828,13.153076171875,11.474609375,-28.411865234375
2.5724999,3.022679567337036,0.5392939448356628,9.473855972290039,5.43212890625,12.20703125,-42.083740234375
2.5774999000000003,2.7473464012145996,0.6530185341835022,9.206304550170898,-3.082275390625,18.6767578125,-51.81884765625
2.5824999,2.5558102130889893,0.5949591398239136,8.914810180664062,-9.1552734375,27.52685546875,-59.600830078125
2.5874999,2.4468741416931152,0.497395396232605,8.605957984924316,-19.134521484375,34.423828125,-67.474365234375
2.5924999,2.4187421798706055,0.5363011956214905,8.42699146270752,-30.487060546875,39.85595703125,-79.437255859375
2.5974999000000003,2.4815900325775146,0.7272387742996216,8.365341186523438,-43.51806640625,43.121337890625,-95.458984375
2.6024999,2.630629062652588,1.070208191871643,8.449137687683105,-56.610107421875,55.145263671875,-109.130859375
2.6074999,2.8119897842407227,1.2204443216323853,8.844181060791016,-61.09619140625,80.078125,-113.70849609375
2.6124999,2.205059766769409,0.07481880486011505,11.198878288269043,0.762939453125,133.23974609375,-91.4306640625
2.6174999000000003,1.2270283699035645,-0.8984242081642151,12.36605167388916,30.303955078125,89.84375,-82.09228515625
2.6224999,-0.2106897532939911,-1.821987509727478,12.670714378356934,17.608642578125,64.422607421875,-64.3310546875
2.6274999,-1.789067268371582,-2.079962730407715,11.850101470947266,-11.29150390625,47.66845703125,-48.095703125
2.6324999,-3.375824451446533,-2.2152352333068848,10.24000072479248,-14.892578125,17.608642578125,-12.5732421875
2.6374999000000003,-5.018246650695801,-2.12485408782959,8.632294654846191,-9.368896484375,-31.890869140625,49.163818359375
2.6424999000000002,-7.225700855255127,-1.734000563621521,7.32505989074707,-10.7421875,-106.781005859375,63.873291015625
2.6474999,-7.204751491546631,-0.8667010068893433,8.215703010559082,-21.17919921875,-118.46923828125,52.06298828125
2.6524999,-6.038775444030762,0.12689268589019775,9.90361499786377,-7.6904296875,-115.41748046875,48.675537109375
2.6574999000000004,-4.113238334655762,0.7386112213134766,11.428123474121094,2.166748046875,-115.631103515625,56.0302734375
2.6624999000000003,-1.7872716188430786,0.768538773059845,12.29781723022461,10.528564453125,-113.250732421875,77.606201171875
2.6674999,2.278681516647339,-0.7314286231994629,10.746973037719727,22.705078125,-55.328369140625,88.836669921875
2.6724999,3.6074633598327637,-1.5622166395187378,9.688735961914062,25.08544921875,-31.219482421875,86.334228515625
2.6774999000000004,4.496310710906982,-2.1104888916015625,9.080010414123535,27.16064453125,-10.31494140625,84.04541015625
2.6824999000000003,4.9565958976745605,-2.2439656257629395,9.008782386779785,31.494140625,0.18310546875,77.20947265625
2.6874999,5.021239280700684,-2.0464439392089844,9.118915557861328,32.53173828125,8.9111328125,61.676025390625
2.6924999,4.79738187789917,-1.5843629837036133,9.281123161315918,31.341552734375,19.95849609375,43.243408203125
2.6974999,4.370615005493164,-0.9415197968482971,9.39784049987793,28.62548828125,24.566650390625,28.4423828125
2.7024999000000003,3.8744168281555176,-0.30885201692581177,9.481637001037598,24.505615234375,21.6064453125,13.763427734375
2.7074999,3.4123358726501465,0.28371289372444153,9.525331497192383,21.240234375,20.69091796875,-3.84521484375
2.7124999,3.005321741104126,0.6386532783508301,9.50498104095459,14.34326171875,18.06640625,-21.6064453125
2.7174999,2.6617536544799805,0.7487865686416626,9.39245319366455,6.591796875,18.463134765625,-35.614013671875
2.7224999000000003,2.181716203689575,0.52552729845047,8.489839553833008,-34.66796875,32.196044921875,-84.747314453125
2.7274999,2.3810336589813232,0.7529764175415039,8.423399925231934,-47.2412109375,38.330078125,-98.388671875
2.7324999,2.6569652557373047,1.125873327255249,8.514379501342773,-58.2275390625,51.177978515625,-110.137939453125
2.7374999,2.8652608394622803,1.1450269222259521,9.017760276794434,-58.319091796875,81.756591796875,-113.09814453125
2.7424999000000003,2.76350736618042,0.8176198601722717,10.047865867614746,-32.989501953125,125.640869140625,-103.240966796875
2.7474999,2.2002713680267334,-0.333991140127182,11.480795860290527,9.33837890625,121.09375,-90.88134765625
2.7524999,1.1683704853057861,-1.2641384601593018,12.458827018737793,32.53173828125,80.322265625,-73.333740234375
2.7574999,-0.2735375463962555,-2.0847511291503906,12.522273063659668,6.866455078125,65.032958984375,-55.35888671875
2.7624999000000003,-1.945288896560669,-2.160168409347534,11.562797546386719,-9.674072265625,46.783447265625,-32.196044921875
2.7674999000000002,-3.6523547172546387,-2.163161277770996,9.861717224121094,-14.007568359375,7.415771484375,7.232666015625
2.7724999,-7.378331184387207,-1.3946224451065063,7.393294811248779,-14.0380859375,-112.060546875,61.492919921875
2.7774999,-7.074865818023682,-0.46806642413139343,8.565256118774414,-19.012451171875,-119.5068359375,51.20849609375
2.7824999000000004,-5.682039260864258,0.444722980260849,10.278307914733887,-5.889892578125,-115.692138671875,47.36328125
2.7874999000000003,-3.603872060775757,0.9289502501487732,11.71662425994873,3.326416015625,-116.51611328125,62.042236328125
2.7924999,-1.1701661348342896,0.7266402244567871,12.266692161560059,15.411376953125,-106.536865234375,82.794189453125
2.7974999,1.037886381149292,-0.016759412363171577,11.583148002624512,20.69091796875,-76.507568359375,89.84375
2.8024999000000004,4.987720489501953,-2.296039342880249,9.011177062988281,32.77587890625,5.31005859375,74.5849609375
2.8074999000000003,4.991910457611084,-1.9321208000183105,9.170391082763672,33.14208984375,16.357421875,59.50927734375
2.8124999,4.314949989318848,-0.7805097699165344,9.519944190979004,28.594970703125,19.744873046875,23.5595703125
2.8174999,3.821744441986084,-0.2190694510936737,9.633668899536133,28.656005859375,20.111083984375,6.8359375
2.8224999,3.358466386795044,0.2519897222518921,9.674370765686035,22.674560546875,15.960693359375,-14.6484375
2.8274999000000003,2.9496564865112305,0.4920084476470947,9.626486778259277,15.13671875,11.8408203125,-36.1328125
2.8324999,2.6150667667388916,0.5949591398239136,9.340977668762207,4.94384765625,14.068603515625,-48.15673828125
2.8374999,2.3965959548950195,0.557250440120697,9.014169692993164,-3.875732421875,18.585205078125,-58.89892578125
2.8424999,2.278082847595215,0.47165772318840027,8.653841972351074,-14.0380859375,23.895263671875,-70.648193359375
2.8474999000000003,2.276885747909546,0.5345055460929871,8.379107475280762,-27.2216796875,27.77099609375,-83.099365234375
2.8524999,2.3936030864715576,0.7846996188163757,8.184578895568848,-41.8701171875,34.48486328125,-97.442626953125
2.8574999,2.6114754676818848,1.116895079612732,8.094796180725098,-58.28857421875,41.56494140625,-111.724853515625
2.8624999,2.890399932861328,1.4383167028427124,8.248024940490723,-71.563720703125,58.59375,-121.612548828125
2.8674999000000003,3.0573954582214355,1.3940238952636719,9.035717010498047,-64.300537109375,102.569580078125,-118.377685546875
2.8724999,-0.9481038451194763,-2.232593059539795,12.791022300720215,-7.080078125,61.798095703125,-46.9970703125
2.8774999,-2.738368272781372,-2.4372973442077637,11.185111999511719,-16.815185546875,39.55078125,-21.759033203125
2.8824999,-7.175422668457031,-2.009333848953247,6.781576156616211,-4.8828125,-104.06494140625,75.74462890625
2.8874999000000003,-7.5848307609558105,-1.3593080043792725,7.332841396331787,-15.411376953125,-120.819091796875,59.906005859375
2.8924999000000002,-6.840832710266113,-0.29568392038345337,8.989029884338379,-10.223388671875,-117.340087890625,50.048828125
2.8974999,-5.155314922332764,0.5596446394920349,10.837952613830566,0.48828125,-113.922119140625,49.1943359375
2.9024999,-2.872443437576294,0.9277531504631042,12.335525512695312,7.232666015625,-119.171142578125,69.488525390625
2.9074999000000004,-0.4183867573738098,0.619499683380127,12.436081886291504,19.866943359375,-100.2197265625,86.334228515625
2.9124999000000003,3.1902737617492676,-1.036689281463623,10.182539939880371,23.590087890625,-40.008544921875,90.087890625
2.9174999,4.240131378173828,-1.7962498664855957,9.25179386138916,25.08544921875,-16.937255859375,90.301513671875
2.9224999,4.823119163513184,-2.182314872741699,8.912415504455566,29.998779296875,1.5869140625,85.51025390625
2.9274999000000004,5.021838188171387,-2.166153907775879,8.941145896911621,32.77587890625,13.580322265625,73.486328125
2.9324999000000003,4.90452241897583,-1.7812861204147339,9.1662015914917,31.67724609375,15.625,56.21337890625
2.9374999,4.57112979888916,-1.2078747749328613,9.385271072387695,28.564453125,16.082763671875,34.759521484375
2.9424999,4.1431660652160645,-0.7727286219596863,9.573814392089844,25.909423828125,16.387939453125,14.190673828125
2.9474999,3.6553473472595215,-0.18614917993545532,9.716867446899414,27.64892578125,17.2119140625,-2.0751953125
2.9524999000000003,3.2345664501190186,0.14065934717655182,9.677961349487305,18.463134765625,12.8173828125,-25.0244140625
2.9574999,2.897582530975342,0.4578910768032074,9.628880500793457,11.932373046875,9.33837890625,-44.281005859375
2.9624999,2.980781078338623,1.5376760959625244,8.389283180236816,-71.868896484375,69.580078125,-123.6572265625
2.9674999,3.022679567337036,1.4299370050430298,9.358335494995117,-56.21337890625,121.15478515625,-116.973876953125
2.9724999000000003,2.542043685913086,0.38546648621559143,11.08635139465332,-6.011962890625,151.3671875,-102.1728515625
2.9774999,1.5682021379470825,-0.7559691667556763,12.607267379760742,37.445068359375,102.47802734375,-79.986572265625
2.9824999,0.090979665517807,-1.7968484163284302,13.22976016998291,20.44677734375,68.4814453125,-55.755615234375
2.9874999,-1.657984733581543,-2.1936872005462646,12.509105682373047,-17.578125,57.098388671875,-39.1845703125
2.9924999000000003,-3.445256233215332,-2.425326347351074,10.617087364196777,-22.88818359375,24.261474609375,0.3662109375
2.9974999,-5.188833713531494,-2.390011787414551,8.64127254486084,-9.6435546875,-40.71044921875,67.56591796875
3.0024999,-6.621164798736572,-2.4450783729553223,7.105990409851074,4.638671875,-87.738037109375,87.554931640625
3.0074999,-7.562684535980225,-2.0805611610412598,6.708553314208984,-8.056640625,-113.4033203125,72.418212890625
3.0124999000000003,-7.574057102203369,-1.1617863178253174,7.68658447265625,-13.214111328125,-123.96240234375,58.89892578125
3.0174999000000002,-6.412270545959473,-0.05746084079146385,9.627084732055664,-0.3662109375,-114.6240234375,48.309326171875
3.0224999,-4.447229862213135,0.7338228225708008,11.472415924072266,3.23486328125,-115.447998046875,55.694580078125
3.0274999,-1.9596540927886963,0.8475474119186401,12.600085258483887,13.427734375,-117.706298828125,78.55224609375
3.0324999000000004,0.4692635238170624,0.37469255924224854,12.132018089294434,21.728515625,-86.639404296875,89.385986328125
3.0374999000000003,2.3720552921295166,-0.4471171796321869,10.96304988861084,24.017333984375,-54.0771484375,91.49169921875
3.0424999,3.7187938690185547,-1.2898762226104736,9.755773544311523,24.871826171875,-31.036376953125,90.8203125
3.0474999,4.5854949951171875,-1.8656816482543945,9.062651634216309,26.9775390625,-7.049560546875,88.104248046875
3.0524999000000004,5.008669853210449,-2.099714994430542,8.89565658569336,31.1279296875,4.0283203125,77.880859375
3.0574999000000003,5.053561210632324,-1.9692308902740479,8.992023468017578,29.6630859375,5.92041015625,60.943603515625
3.0624999,3.1866824626922607,0.3687070608139038,9.657012939453125,17.730712890625,11.16943359375,-35.33935546875
3.0674999,2.8652608394622803,0.6949170231819153,9.41759204864502,8.48388671875,14.6484375,-47.36328125
3.0724999000000004,2.65097975730896,0.8008604645729065,9.095572471618652,0.640869140625,21.3623046875,-59.14306640625
3.0774999000000003,2.4863784313201904,0.7428010702133179,8.71369743347168,-10.772705078125,25.390625,-70.404052734375
3.0824999,2.432508945465088,0.7433996200561523,8.393472671508789,-24.47509765625,28.778076171875,-84.259033203125
3.0874999,2.4875755310058594,0.8936358094215393,8.107365608215332,-40.069580078125,35.186767578125,-101.07421875
3.0924999,2.6605565547943115,1.2216414213180542,7.909245491027832,-60.394287109375,42.633056640625,-117.12646484375
3.0974999000000003,2.9311013221740723,1.5292962789535522,7.930793285369873,-78.06396484375,59.112548828125,-128.082275390625
3.1024999,3.1076738834381104,1.5496470928192139,8.707113265991211,-72.6318359375,105.224609375,-125.274658203125
3.1074999,1.9608511924743652,-0.0802057534456253,12.405555725097656,33.294677734375,128.326416015625,-91.583251953125
3.1124999,0.6045359373092651,-1.0696096420288086,13.512275695800781,26.092529296875,75.62255859375,-69.27490234375
3.1174999000000003,-1.0977414846420288,-1.7088614702224731,13.277045249938965,-13.092041015625,61.4013671875,-46.905517578125
3.1224999,-6.9042792320251465,-1.081580638885498,8.516175270080566,6.439208984375,-117.950439453125,61.95068359375
3.1274999,-5.277419090270996,-0.12330138683319092,10.606911659240723,14.190673828125,-102.05078125,57.31201171875
3.1324999,-3.0777463912963867,0.4100070297718048,12.425308227539062,12.420654296875,-116.912841796875,77.117919921875
3.1374999000000003,-0.6733692288398743,0.4124012291431427,12.683283805847168,24.017333984375,-104.400634765625,94.573974609375
3.1424999000000002,2.8646624088287354,-0.7182605266571045,10.436325073242188,32.958984375,-33.50830078125,105.712890625
3.1474999,3.9426517486572266,-1.3084312677383423,9.353547096252441,30.059814453125,-13.916015625,103.45458984375
3.1524999,4.639364242553711,-1.6813281774520874,8.910021781921387,30.21240234375,-2.5634765625,93.780517578125
3.1574999000000004,4.943428039550781,-1.7812861204147339,8.793902397155762,29.449462890625,0.823974609375,73.42529296875
3.1624999000000003,5.002684593200684,-1.7651251554489136,9.05367374420166,29.876708984375,6.103515625,51.849365234375
3.1674999,4.759673118591309,-1.5041571855545044,9.2841157913208,33.75244140625,15.80810546875,39.36767578125
3.1724999,4.423287868499756,-1.0797849893569946,9.585784912109375,32.440185546875,23.468017578125,19.683837890625
3.1774999000000004,4.015076160430908,-0.49559974670410156,9.70549488067627,27.587890625,17.51708984375,-6.89697265625
3.1824999000000003,3.6308069229125977,0.16101007163524628,9.671976089477539,19.59228515625,11.474609375,-27.03857421875
3.1874999,3.309983968734741,0.6901286244392395,9.522936820983887,12.115478515625,11.71875,-43.182373046875
3.1924999,3.0376434326171875,0.9552865028381348,9.248801231384277,3.23486328125,14.617919921875,-57.403564453125
3.1974999000000004,2.7922377586364746,0.8948329091072083,8.87051773071289,-8.758544921875,17.7001953125,-71.59423828125
3.2024999000000003,2.5941176414489746,0.7697358727455139,8.116942405700684,-36.376953125,31.036376953125,-102.508544921875
3.2074999,2.673126220703125,0.9469067454338074,7.824849605560303,-56.21337890625,36.651611328125,-119.384765625
3.2124999,2.896984100341797,1.3862427473068237,7.6764092445373535,-76.873779296875,47.42431640625,-134.063720703125
3.2174999,3.1501708030700684,1.653794765472412,8.072649955749512,-88.9892578125,77.911376953125,-139.46533203125
3.2224999000000003,3.087921619415283,1.501164436340332,9.43494987487793,-63.29345703125,146.392822265625,-126.251220703125
3.2274999,2.405574083328247,0.5285200476646423,11.59212589263916,5.9814453125,166.717529296875,-106.353759765625
3.2324999,1.3090298175811768,-0.46627077460289,13.201029777526855,43.060302734375,96.038818359375,-91.094970703125
3.2374999,-0.3471592366695404,-1.4987702369689941,13.725359916687012,9.033203125,67.07763671875,-64.849853515625
3.2424999000000003,-2.0685901641845703,-2.186504602432251,12.53184986114502,-25.146484375,59.02099609375,-36.651611328125
3.2474999,-3.820547342300415,-2.580350875854492,10.31362247467041,-35.70556640625,16.7236328125,19.95849609375
3.2524999,-5.436633586883545,-2.93888258934021,8.150461196899414,4.33349609375,-51.116943359375,80.810546875
3.2574999,-6.736684799194336,-3.004124641418457,6.588842868804932,6.866455078125,-93.56689453125,86.669921875
3.2624999000000003,-7.367557048797607,-1.6304513216018677,7.360973358154297,0.244140625,-130.889892578125,68.54248046875
3.2674999000000002,-6.094440460205078,-0.5841852426528931,9.391854286193848,13.73291015625,-103.485107421875,54.50439453125
3.2724999,-4.213196277618408,0.32860419154167175,11.481992721557617,7.293701171875,-105.8349609375,63.720703125
3.2774999,-1.8734627962112427,0.6775590777397156,12.770072937011719,20.01953125,-118.7744140625,85.38818359375
3.2824999000000004,0.32620999217033386,0.44592007994651794,12.315773963928223,29.72412109375,-80.62744140625,98.724365234375
3.2874999000000003,2.0213048458099365,-0.12689268589019775,11.132439613342285,30.242919921875,-48.2177734375,105.5908203125
3.2924999,3.2620997428894043,-0.8182184100151062,9.865307807922363,27.34375,-31.18896484375,104.79736328125
3.2974999,4.1431660652160645,-1.3742717504501343,8.975862503051758,26.580810546875,-7.904052734375,97.22900390625
3.3024999000000004,4.692635536193848,-1.7028759717941284,8.728062629699707,29.1748046875,4.2724609375,83.160400390625
3.3074999000000003,4.937442302703857,-1.7573440074920654,8.813654899597168,28.228759765625,2.5634765625,65.582275390625
3.3124999,4.912303447723389,-1.6089035272598267,9.156025886535645,28.472900390625,5.4931640625,47.36328125
3.3174999,4.651933670043945,-1.2743138074874878,9.441534042358398,29.022216796875,12.481689453125,26.153564453125
3.3224999000000004,3.4775779247283936,0.27234044671058655,9.587580680847168,12.51220703125,8.97216796875,-37.567138671875
3.3274999000000003,3.1908724308013916,0.5919663906097412,9.388861656188965,6.195068359375,12.969970703125,-50.59814453125
3.3324999,2.962226152420044,0.718859076499939,9.103952407836914,-2.166748046875,20.660400390625,-61.4013671875
3.3374999,2.7724854946136475,0.7056909799575806,8.778939247131348,-11.749267578125,28.3203125,-70.343017578125
3.3424999,2.6581623554229736,0.7308300733566284,8.430583000183105,-24.444580078125,33.843994140625,-81.1767578125
3.3474999000000003,2.6114754676818848,0.8619126081466675,8.139687538146973,-40.496826171875,39.825439453125,-96.405029296875
3.3524999,2.6671407222747803,1.1917139291763306,7.934982776641846,-58.59375,45.806884765625,-112.85400390625
3.3574999,2.8095955848693848,1.4000093936920166,8.005013465881348,-74.737548828125,62.8662109375,-123.931884765625
3.3624999,2.9454667568206787,1.4927847385406494,8.720281600952148,-70.9228515625,103.179931640625,-122.406005859375
3.3674999000000003,2.6390087604522705,0.8756792545318604,10.348937034606934,-28.472900390625,156.6162109375,-106.719970703125
3.3724999,1.899200439453125,-0.13826514780521393,12.2403564453125,26.641845703125,130.157470703125,-95.458984375
3.3774999,0.6661866307258606,-1.0468647480010986,13.385383605957031,28.594970703125,78.55224609375,-83.099365234375
3.3824999,-0.9313444495201111,-1.7375918626785278,13.257891654968262,-4.45556640625,64.788818359375,-57.861328125
3.3874999000000003,-2.6007015705108643,-2.1936872005462646,11.694478034973145,-24.749755859375,44.342041015625,-30.57861328125
3.3924999000000002,-4.292803764343262,-2.362478494644165,9.479243278503418,-26.30615234375,-8.056640625,29.144287109375
3.3974999,-5.846042156219482,-2.738368272781372,7.684788703918457,4.486083984375,-66.253662109375,81.787109375
3.4024999,-7.011419773101807,-2.7066450119018555,6.512228488922119,1.434326171875,-99.853515625,80.6884765625
3.4074999000000004,-7.515398979187012,-2.2218191623687744,6.749853134155273,-8.514404296875,-122.894287109375,67.474365234375
3.4124999000000003,-6.985682010650635,-1.1007342338562012,8.325836181640625,-5.9814453125,-121.09375,57.708740234375
3.4174999,-5.416881561279297,-0.0586579404771328,10.439916610717773,8.23974609375,-106.781005859375,51.849365234375
3.4224999,-3.313575267791748,0.6949170231819153,12.237363815307617,9.27734375,-114.013671875,66.5283203125
3.4274999000000004,-0.9498994946479797,0.74040687084198,12.801796913146973,20.93505859375,-109.344482421875,88.134765625
3.4324999000000003,1.0905588865280151,0.24001872539520264,11.884817123413086,25.390625,-73.73046875,98.052978515625
3.4374999,3.7439329624176025,-1.27191960811615,9.47146224975586,26.2451171875,-24.444580078125,95.27587890625
3.4424999,4.909310817718506,-2.011129379272461,8.845976829528809,30.242919921875,4.058837890625,74.27978515625
3.4474999000000004,4.993107795715332,-1.8818424940109253,8.97765827178955,30.70068359375,11.627197265625,58.04443359375
3.4524999000000003,4.809352874755859,-1.5257049798965454,9.188347816467285,30.76171875,23.162841796875,42.41943359375
3.4574999,4.458003520965576,-0.9115923047065735,9.408015251159668,30.059814453125,28.9306640625,28.3203125
3.4624999,4.001908302307129,-0.29388827085494995,9.570821762084961,25.787353515625,24.383544921875,11.749267578125
3.4674999,3.5440170764923096,0.3010708689689636,9.673172950744629,21.209716796875,19.775390625,-7.99560546875
3.4724999000000003,3.0849289894104004,0.6548141837120056,9.636661529541016,14.6484375,17.2119140625,-26.79443359375
3.4774999,2.6850972175598145,0.7344213724136353,9.4636812210083,4.8828125,15.44189453125,-42.510986328125
3.4824999,2.3702597618103027,0.6685808300971985,9.139864921569824,-4.7607421875,18.218994140625,-56.640625
3.4874999,2.167351007461548,0.5363011956214905,8.790311813354492,-16.54052734375,20.111083984375,-70.1904296875
3.4924999000000003,2.2649147510528564,0.730231523513794,8.276156425476074,-43.3349609375,28.9306640625,-100.006103515625
3.4974999,2.521692991256714,1.0672154426574707,8.157045364379883,-59.844970703125,36.68212890625,-113.800048828125
3.5024999,2.82515811920166,1.2946646213531494,8.309675216674805,-72.81494140625,56.884765625,-121.124267578125
3.5074999,3.008913040161133,1.291671872138977,9.059659004211426,-62.469482421875,103.668212890625,-114.74609375
3.5124999000000003,2.6605565547943115,0.6524199843406677,10.539276123046875,-20.660400390625,151.458740234375,-98.57177734375
3.5174999000000002,1.909974455833435,-0.44592007994651794,12.160749435424805,26.031494140625,115.814208984375,-92.376708984375
3.5224999,0.6446388363838196,-1.3682862520217896,13.038224220275879,26.42822265625,68.359375,-81.35986328125
3.5274999,-0.8810662031173706,-2.0266916751861572,12.701239585876465,-3.204345703125,57.769775390625,-59.9365234375
3.5324999000000004,-2.519897222518921,-2.360084295272827,11.186907768249512,-19.4091796875,39.459228515625,-29.632568359375
3.5374999000000003,-4.183269023895264,-2.3469161987304688,9.23563289642334,-16.754150390625,-10.31494140625,30.853271484375
3.5424999,-5.747879505157471,-2.491166830062866,7.7434468269348145,7.75146484375,-67.047119140625,79.742431640625
3.5474999,-6.8791399002075195,-2.251746654510498,6.934805393218994,-2.50244140625,-98.358154296875,72.998046875
3.5524999000000004,-6.634931564331055,-0.518943190574646,9.026140213012695,-7.14111328125,-114.74609375,50.811767578125
3.5574999000000003,-4.982932090759277,0.35434186458587646,10.813411712646484,0.823974609375,-109.649658203125,48.4619140625
3.5624999,-2.846705913543701,0.8427590131759644,12.267291069030762,7.659912109375,-115.478515625,67.474365234375
3.5674999,-0.5069721937179565,0.629675030708313,12.39957046508789,21.17919921875,-98.907470703125,85.357666015625
3.5724999000000004,1.456871747970581,-0.05686229094862938,11.421539306640625,23.529052734375,-62.774658203125,91.49169921875
3.5774999000000003,2.9011738300323486,-0.8391677141189575,10.180744171142578,24.383544921875,-38.26904296875,93.32275390625
3.5824999,3.9384617805480957,-1.5598224401474,9.25179386138916,25.604248046875,-18.1884765625,92.4072265625
3.5874999,4.579509258270264,-1.942894697189331,8.89565658569336,28.38134765625,-2.38037109375,85.693359375
3.5924999,4.869207859039307,-2.005143880844116,8.951920509338379,29.9072265625,5.401611328125,70.098876953125
3.5974999000000003,4.853046894073486,-1.7711106538772583,9.165003776550293,29.937744140625,10.498046875,50.323486328125
3.6024999,2.6222493648529053,0.6200982332229614,9.339181900024414,6.103515625,19.775390625,-43.609619140625
3.6074999,2.3756465911865234,0.6027402877807617,9.03631591796875,-1.617431640625,24.383544921875,-55.23681640625
3.6124999,2.3756465911865234,0.6027402877807617,9.03631591796875,-1.617431640625,24.383544921875,-55.23681640625
3.6174999000000003,2.227206230163574,0.545877993106842,8.704718589782715,-14.068603515625,26.519775390625,-67.87109375
3.6224999,2.204461097717285,0.6087257862091064,8.434772491455078,-28.717041015625,27.862548828125,-84.41162109375
3.6274999,2.29484224319458,0.8667010068893433,8.224681854248047,-44.647216796875,32.2265625,-101.318359375
3.6324999,2.5234885215759277,1.1941081285476685,8.093599319458008,-61.8896484375,41.412353515625,-115.936279296875
3.6374999000000003,2.7934348583221436,1.427542805671692,8.271966934204102,-75.25634765625,62.469482421875,-123.22998046875
3.6424999000000002,2.937685489654541,1.3640964031219482,9.208099365234375,-61.21826171875,108.82568359375,-116.02783203125
3.6474999,2.497152328491211,0.5033808946609497,10.943896293640137,-11.749267578125,143.463134765625,-98.419189453125
3.6524999,-1.292868971824646,-2.0177135467529297,12.611457824707031,-14.373779296875,56.488037109375,-44.525146484375
3.6574999000000004,-3.02327823638916,-2.236783027648926,10.671555519104004,-23.4375,28.50341796875,-9.1552734375
3.6624999000000003,-4.745906352996826,-2.36188006401062,8.782530784606934,-9.918212890625,-30.181884765625,58.502197265625
3.6674999,-6.260837554931641,-2.3774423599243164,7.18320369720459,8.6669921875,-81.54296875,86.0595703125
3.6724999,-7.286154270172119,-2.214038133621216,6.7749924659729,-7.75146484375,-110.015869140625,71.83837890625
3.6774999000000004,-7.4800848960876465,-1.4395138025283813,7.659051418304443,-15.2587890625,-122.711181640625,58.10546875
3.6824999000000003,-6.475118637084961,-0.3824737071990967,9.531915664672852,-0.762939453125,-112.213134765625,50.750732421875
3.6874999,-4.658517837524414,0.3932476341724396,11.351509094238281,7.26318359375,-109.405517578125,54.962158203125
3.6924999,-2.346317768096924,0.6997054219245911,12.625823020935059,13.580322265625,-118.621826171875,76.812744140625
3.6974999000000004,-0.02513911761343479,0.30526071786880493,12.319364547729492,23.468017578125,-92.7734375,92.34619140625
3.7024999000000003,1.8183962106704712,-0.3908534348011017,11.170147895812988,28.4423828125,-52.581787109375,99.639892578125
3.7074999,4.921281814575195,-1.9279309511184692,8.972869873046875,32.867431640625,5.950927734375,70.068359375
3.7124999,4.921281814575195,-1.9279309511184692,8.972869873046875,32.867431640625,5.950927734375,70.068359375
3.7174999,4.884769916534424,-1.6687586307525635,9.185355186462402,33.26416015625,16.17431640625,51.26953125
3.7224999000000003,4.626794815063477,-1.3820528984069824,9.504382133483887,37.506103515625,23.590087890625,38.787841796875
3.7274999,4.24970817565918,-0.7823054194450378,9.634267807006836,37.41455078125,24.261474609375,23.49853515625
3.7324999,3.885789394378662,-0.32022446393966675,9.822811126708984,30.3955078125,18.5546875,-7.293701171875
3.7374999,3.469796895980835,0.2932897210121155,9.763554573059082,23.3154296875,10.1318359375,-31.402587890625
3.7424999000000003,3.1226375102996826,0.6943184733390808,9.572616577148438,13.916015625,8.941650390625,-48.004150390625
3.7474999,2.8425159454345703,0.8074445128440857,9.214683532714844,5.157470703125,13.00048828125,-64.361572265625
3.7524999,2.6186580657958984,0.7386112213134766,8.757390975952148,-8.880615234375,14.83154296875,-79.620361328125
3.7574999,2.544437885284424,0.7146692276000977,8.324040412902832,-23.590087890625,18.5546875,-97.10693359375
3.7624999000000003,3.0119056701660156,1.690904974937439,7.372345447540283,-89.7216796875,44.708251953125,-145.5078125
3.7674999000000002,3.309385299682617,2.0171148777008057,7.861361503601074,-99.700927734375,78.9794921875,-146.97265625
3.7724999,3.1441853046417236,1.5873557329177856,9.457097053527832,-64.544677734375,158.203125,-130.0048828125
3.7774999,2.3762452602386475,0.44532153010368347,11.744756698608398,17.27294921875,170.379638671875,-108.367919921875
3.7824999000000004,1.125873327255249,-0.6877344250679016,13.357251167297363,43.15185546875,92.437744140625,-83.221435546875
3.7874999000000003,-0.6434416770935059,-1.7651251554489136,13.691242218017578,0.3662109375,65.826416015625,-52.42919921875
3.7924999,-2.45285964012146,-2.44747257232666,12.02188491821289,-36.895751953125,55.23681640625,-21.66748046875
3.7974999,-4.232349872589111,-2.853888511657715,9.768342971801758,-30.029296875,2.38037109375,50.10986328125
3.8024999000000004,-5.792172431945801,-3.0885202884674072,7.385513782501221,14.007568359375,-63.232421875,93.93310546875
3.8074999000000003,-7.000645637512207,-3.1489737033843994,6.096236228942871,3.96728515625,-106.93359375,89.263916015625
3.8124999,-7.24485445022583,-1.4586673974990845,7.681197643280029,6.866455078125,-125.701904296875,69.793701171875
3.8174999,-5.849034786224365,-0.36332011222839355,9.891045570373535,18.707275390625,-91.97998046875,59.295654296875
3.8224999000000004,-3.9205052852630615,0.47824180126190186,12.109273910522461,11.23046875,-114.013671875,75.98876953125
3.8274999000000003,-1.5867571830749512,0.6811503767967224,12.980164527893066,23.529052734375,-114.501953125,95.184326171875
3.8324999,0.4381389021873474,0.39145198464393616,12.254721641540527,33.935546875,-69.51904296875,109.43603515625
3.8374999,2.0045454502105713,-0.2621650993824005,10.952874183654785,35.82763671875,-42.41943359375,115.814208984375
3.8424999,4.095282077789307,-1.5532383918762207,8.972869873046875,31.585693359375,-8.7890625,100.006103515625
3.8474999000000003,4.649539470672607,-1.8417396545410156,8.704718589782715,32.40966796875,3.23486328125,84.28955078125
3.8524999,4.9565958976745605,-1.9141643047332764,8.831012725830078,33.843994140625,13.48876953125,69.27490234375
3.8574999,4.987720489501953,-1.6549919843673706,9.132083892822266,35.552978515625,15.9912109375,55.877685546875
3.8624999,4.793790340423584,-1.2222399711608887,9.459490776062012,33.38623046875,15.289306640625,35.0341796875
3.8674999000000003,3.3081881999969482,0.7457938194274902,9.354744911193848,6.439208984375,10.3759765625,-57.159423828125
3.8724999,3.008314371109009,0.7841010689735413,9.004592895507812,-4.2724609375,13.85498046875,-73.2421875
3.8774999,2.7994203567504883,0.7703344225883484,8.62511157989502,-16.204833984375,17.822265625,-89.599609375
3.8824999,2.7269957065582275,0.8140285611152649,8.200140953063965,-32.623291015625,24.200439453125,-106.14013671875
3.8874999000000003,2.7712883949279785,1.1234791278839111,7.807491779327393,-53.8330078125,29.571533203125,-123.687744140625
3.8924999000000002,2.935889720916748,1.4850035905838013,7.461529731750488,-78.30810546875,38.421630859375,-139.892578125
3.8974999,3.1872811317443848,1.8884265422821045,7.4752960205078125,-97.71728515625,62.286376953125,-148.834228515625
3.9024999,3.354875087738037,1.868674397468567,8.546701431274414,-90.423583984375,118.896484375,-142.27294921875
3.9074999000000004,2.7676970958709717,0.9941922426223755,10.60152530670166,-27.77099609375,187.80517578125,-118.408203125
3.9124999000000003,1.8303672075271606,-0.17477671802043915,12.720992088317871,40.58837890625,132.080078125,-105.224609375
3.9174999,-1.6196774244308472,-2.2661118507385254,13.0543851852417,-14.862060546875,62.713623046875,-47.8515625
3.9224999,-3.4123358726501465,-2.8209681510925293,11.1102933883667,-42.022705078125,37.139892578125,-0.30517578125
3.9274999000000004,-5.094262599945068,-3.023876667022705,8.634089469909668,-0.946044921875,-27.679443359375,71.35009765625
3.9324999000000003,-6.495469093322754,-3.203441858291626,6.856395244598389,15.9912109375,-80.047607421875,85.9375
3.9374999,-7.48846435546875,-2.9203274250030518,5.984307289123535,-11.383056640625,-118.194580078125,78.18603515625
3.9424999,-7.6752119064331055,-1.9877859354019165,6.795342922210693,-11.29150390625,-138.824462890625,73.30322265625
3.9474999000000004,-6.700771808624268,-0.922366201877594,8.751405715942383,15.289306640625,-107.666015625,60.1806640625
3.9524999000000003,-4.982333660125732,0.08619125932455063,11.026495933532715,12.664794921875,-99.853515625,62.56103515625
3.9574999,-2.765302896499634,0.667982280254364,12.84968090057373,15.655517578125,-124.420166015625,82.489013671875
3.9624999,-0.4926069974899292,0.6218938827514648,12.844892501831055,29.205322265625,-95.03173828125,100.2197265625
3.9674999000000004,1.3000515699386597,0.15442600846290588,11.789648056030273,35.858154296875,-57.342529296875,114.07470703125
3.9724999000000003,2.653373956680298,-0.5404910445213318,10.368688583374023,33.14208984375,-35.82763671875,116.3330078125
3.9774999,4.357447147369385,-1.7004817724227905,8.722076416015625,31.8603515625,-0.8544921875,93.44482421875
3.9824999,4.784213542938232,-1.833359956741333,8.558672904968262,30.609130859375,9.918212890625,78.155517578125
3.9874999,4.99669885635376,-1.777096152305603,8.828619003295898,30.94482421875,15.655517578125,62.1337890625
3.9924999000000003,4.920084476470947,-1.4036006927490234,9.19972038269043,31.67724609375,13.153076171875,45.745849609375
3.9974999,4.647744178771973,-0.9846154451370239,9.515754699707031,28.01513671875,15.716552734375,21.392822265625
4.0024999,4.253299236297607,-0.3842693865299225,9.783307075500488,24.90234375,14.95361328125,-8.026123046875
4.0074999,3.797802448272705,0.1346738487482071,9.743802070617676,17.7001953125,10.25390625,-30.029296875
4.0124999,3.4135329723358154,0.5159504413604736,9.587580680847168,9.58251953125,8.056640625,-48.15673828125
4.0174999,3.092111587524414,0.7026981711387634,9.28531265258789,0.91552734375,11.53564453125,-63.323974609375
4.022499900000001,2.830544948577881,0.6901286244392395,8.94533634185791,-8.60595703125,17.181396484375,-76.202392578125
4.0274999000000005,2.6886885166168213,0.6949170231819153,8.562862396240234,-20.6298828125,23.101806640625,-89.4775390625
4.0324999,2.6599581241607666,0.9235633015632629,8.177994728088379,-37.353515625,30.181884765625,-104.583740234375
4.0374999,3.157952070236206,1.8285715579986572,7.951742172241211,-89.84375,80.535888671875,-137.237548828125
4.0424999,3.0759506225585938,1.4383167028427124,9.381080627441406,-62.042236328125,143.6767578125,-122.955322265625
4.0474999,2.3259668350219727,0.34596213698387146,11.566388130187988,5.79833984375,164.55078125,-101.62353515625
4.0524999,1.2503718137741089,-0.7906851172447205,13.184868812561035,37.078857421875,94.329833984375,-96.954345703125
4.0574999,-0.44352585077285767,-1.765723705291748,13.706206321716309,10.528564453125,63.385009765625,-71.929931640625
4.062499900000001,-2.1481974124908447,-2.4576480388641357,12.367847442626953,-22.186279296875,55.084228515625,-43.365478515625
4.0674999000000005,-3.886387825012207,-2.7030537128448486,10.197504043579102,-32.2265625,17.913818359375,15.594482421875
4.0724999,-5.508459568023682,-2.912546396255493,8.083423614501953,8.9111328125,-47.91259765625,78.06396484375
4.0774999,-6.810306549072266,-2.919728994369507,6.687005519866943,8.636474609375,-91.552734375,80.780029296875
4.0824999,1.941697597503662,-0.1538274586200714,11.167754173278809,33.477783203125,-45.928955078125,111.297607421875
4.0874999,3.134010076522827,-0.9265560507774353,9.88506031036377,30.76171875,-30.70068359375,109.7412109375
4.0924999,3.9905357360839844,-1.5640122890472412,8.992621421813965,28.38134765625,-11.90185546875,99.06005859375
4.0974999,4.543596267700195,-1.8680758476257324,8.701127052307129,30.914306640625,4.57763671875,85.418701171875
4.1024999,4.836885929107666,-1.8956091403961182,8.710704803466797,30.517578125,14.129638671875,69.244384765625
4.1074999000000005,4.903325080871582,-1.6292542219161987,8.986037254333496,30.303955078125,19.500732421875,54.74853515625
4.1124999,4.733336925506592,-1.2395979166030884,9.316437721252441,30.487060546875,19.1650390625,38.75732421875
4.1174999,4.395155906677246,-0.656609833240509,9.569025993347168,27.618408203125,21.759033203125,16.845703125
4.1224999,3.9905357360839844,-0.11192893236875534,9.758766174316406,23.284912109375,19.500732421875,-9.674072265625
4.1274999,3.115454912185669,0.7469909191131592,9.536105155944824,6.2255859375,11.3525390625,-47.393798828125
4.1324999,2.759317398071289,0.8176198601722717,9.197325706481934,-2.99072265625,15.2587890625,-61.309814453125
4.1374999,2.472611904144287,0.6943184733390808,8.81784439086914,-14.22119140625,19.439697265625,-72.8759765625
4.1424999,2.3582887649536133,0.6200982332229614,8.453327178955078,-25.390625,25.87890625,-85.540771484375
4.147499900000001,2.38462495803833,0.6817489266395569,8.182184219360352,-40.069580078125,31.494140625,-101.5625
4.1524999000000005,2.5558102130889893,1.1174936294555664,8.052298545837402,-57.952880859375,35.400390625,-118.0419921875
4.1574999,2.823961019515991,1.4323312044143677,8.093000411987305,-75.714111328125,50.445556640625,-128.662109375
4.1624999,0.8367735147476196,-1.3856441974639893,13.005902290344238,38.39111328125,78.369140625,-77.57568359375
4.1674999,-6.889914035797119,-2.2457611560821533,7.092822551727295,3.204345703125,-91.85791015625,75.86669921875
4.1724999,-7.5213847160339355,-1.6711528301239014,7.261613845825195,-14.83154296875,-115.6005859375,59.844970703125
4.1774999,-7.054515361785889,-0.6141127347946167,8.69095230102539,-16.11328125,-119.32373046875,48.40087890625
4.1824999,-5.503671169281006,0.3621230125427246,10.398616790771484,-1.251220703125,-107.757568359375,46.08154296875
4.187499900000001,-3.3722331523895264,0.8702923059463501,12.037447929382324,6.34765625,-116.973876953125,64.208984375
4.1924999000000005,-0.9917980432510376,0.7631517648696899,12.52945613861084,19.04296875,-110.748291015625,83.984375
4.1974999,-0.9917980432510376,0.7631517648696899,12.52945613861084,19.04296875,-110.748291015625,83.984375
4.2024999,1.0444705486297607,0.03890577703714371,11.697470664978027,24.5361328125,-69.091796875,96.3134765625
4.2074999,2.562992811203003,-0.7805097699165344,10.507553100585938,29.815673828125,-39.85595703125,101.593017578125
4.2124999,3.959411144256592,-0.25258827209472656,9.647436141967773,25.360107421875,22.369384765625,10.68115234375
4.2174999,3.5015199184417725,0.26994624733924866,9.717466354370117,20.81298828125,18.85986328125,-10.284423828125
4.2224999,3.0436289310455322,0.5883750915527344,9.660005569458008,13.5498046875,15.80810546875,-28.656005859375
4.2274999,2.672527551651001,0.6308721303939819,9.406818389892578,4.241943359375,16.693115234375,-43.304443359375
4.2324999000000005,2.364274263381958,0.52552729845047,9.093177795410156,-4.547119140625,19.439697265625,-55.60302734375
4.2374999,2.184709072113037,0.41120412945747375,8.793304443359375,-14.190673828125,21.728515625,-68.206787109375
4.2424999,2.161365509033203,0.4596867263317108,8.559270858764648,-26.153564453125,25.69580078125,-82.45849609375
4.2474999,2.521692991256714,1.0348936319351196,8.340201377868652,-54.656982421875,37.109375,-110.77880859375
4.2524999,2.779069662094116,1.2779051065444946,8.440757751464844,-66.40625,54.3212890625,-118.011474609375
4.2574999,2.892195701599121,1.245583415031433,9.097966194152832,-58.7158203125,91.796875,-113.861083984375
4.2624999,2.563591480255127,0.47644615173339844,10.367491722106934,-24.96337890625,127.44140625,-100.677490234375
4.2674999,1.8471266031265259,-0.5776011347770691,11.834539413452148,18.341064453125,106.14013671875,-88.714599609375
4.272499900000001,0.6494272351264954,-1.599326729774475,12.643180847167969,28.533935546875,69.122314453125,-74.310302734375
4.2774999000000005,-0.8146271109580994,-2.1559786796569824,12.416330337524414,-1.983642578125,58.2275390625,-58.502197265625
4.2824999,-2.446275472640991,-2.3481132984161377,11.094132423400879,-11.16943359375,41.44287109375,-27.252197265625
4.2874999,-4.113238334655762,-2.1721394062042236,9.35773754119873,-14.190673828125,-5.4931640625,30.303955078125
4.2924999,-5.720944881439209,-2.1278467178344727,8.088212013244629,8.1787109375,-58.135986328125,75.653076171875
4.2974999,-6.869563102722168,-1.7597382068634033,7.390900611877441,-3.2958984375,-89.53857421875,69.091796875
4.3024999,-7.3418192863464355,-1.128267526626587,7.860164165496826,-21.1181640625,-112.579345703125,54.840087890625
4.3074999,-5.058349609375,0.6302735805511475,10.743980407714844,-4.486083984375,-111.297607421875,46.356201171875
4.312499900000001,-2.9287071228027344,0.9151836037635803,12.018294334411621,5.340576171875,-116.607666015625,66.131591796875
4.3174999000000005,-0.5805938839912415,0.48482584953308105,12.164938926696777,19.439697265625,-102.1728515625,84.320068359375
4.3224999,1.37906014919281,-0.32381579279899597,11.246164321899414,24.505615234375,-61.767578125,92.529296875
4.3274999,2.855085611343384,-1.2509703636169434,10.127472877502441,27.374267578125,-36.68212890625,95.8251953125
4.3324999,3.9169139862060547,-1.8830395936965942,9.207501411437988,27.28271484375,-18.096923828125,94.23828125
4.3374999,4.593874454498291,-2.212841033935547,8.862735748291016,28.045654296875,0.335693359375,85.784912109375
4.3424999,4.92188024520874,-2.118269920349121,8.908824920654297,30.487060546875,11.90185546875,72.998046875
4.3474999,4.931457042694092,-1.7298107147216797,9.154829025268555,30.82275390625,17.02880859375,56.70166015625
4.352499900000001,4.671686172485352,-1.1737574338912964,9.32302188873291,28.106689453125,21.881103515625,37.628173828125
4.3574999000000005,4.281431198120117,-0.6440402865409851,9.55705451965332,25.970458984375,23.834228515625,19.378662109375
4.3624999,3.7876269817352295,-0.0802057534456253,9.696516990661621,27.40478515625,21.820068359375,4.669189453125
4.3674999,2.892195701599121,0.5237316489219666,9.703699111938477,13.671875,13.580322265625,-36.376953125
4.3724999,2.5288755893707275,0.5482721924781799,9.371503829956055,2.593994140625,16.11328125,-48.248291015625
4.3774999,2.27209734916687,0.4297592043876648,9.042900085449219,-4.69970703125,20.416259765625,-60.11962890625
4.3824999,2.1487960815429688,0.3477577865123749,8.664017677307129,-15.716552734375,23.37646484375,-73.883056640625
4.3874999,2.204461097717285,0.4704606235027313,8.435969352722168,-29.388427734375,26.18408203125,-90.14892578125
4.3924999,2.403179883956909,0.9367313981056213,8.265382766723633,-44.3115234375,32.53173828125,-105.194091796875
4.397499900000001,2.6569652557373047,1.2000936269760132,8.186373710632324,-61.1572265625,42.388916015625,-116.69921875
4.4024999000000005,2.9281086921691895,1.5490485429763794,8.406042098999023,-69.366455078125,66.253662109375,-120.819091796875
4.4074999,2.9526493549346924,1.2563573122024536,9.331999778747559,-54.01611328125,109.7412109375,-112.884521484375
4.4124999,2.471414804458618,0.13587094843387604,10.92534065246582,-10.101318359375,132.843017578125,-95.39794921875
4.4174999,1.5592238903045654,-0.8601169586181641,12.413337707519531,34.48486328125,93.963623046875,-76.141357421875
4.4224999,0.17477671802043915,-1.9261353015899658,12.968193054199219,16.41845703125,66.986083984375,-62.80517578125
4.4274999,-6.4164605140686035,-2.1152772903442383,7.4549455642700195,6.439208984375,-76.96533203125,80.535888671875
4.4324999,-7.367557048797607,-1.7381904125213623,7.208342552185059,-10.955810546875,-104.949951171875,67.0166015625
4.437499900000001,-7.458536624908447,-0.884058952331543,8.119935035705566,-18.73779296875,-119.842529296875,53.497314453125
4.4424999000000005,-6.367978096008301,0.17238251864910126,9.79288387298584,-7.720947265625,-116.02783203125,46.142578125
4.4474999,-4.462791919708252,0.7727286219596863,11.376049041748047,-0.3662109375,-116.607666015625,52.825927734375
4.4524999,-2.1062989234924316,0.8415619134902954,12.428300857543945,13.519287109375,-118.10302734375,75.86669921875
4.4574999,0.1933317929506302,0.30705636739730835,12.038644790649414,25.604248046875,-88.92822265625,92.041015625
4.4624999,1.9967641830444336,-0.6135141849517822,10.923544883728027,27.64892578125,-51.849365234375,99.334716796875
4.4674999,3.312976598739624,-1.4293384552001953,9.730634689331055,28.900146484375,-28.167724609375,100.616455078125
4.4724999,4.231751441955566,-2.050035238265991,8.966883659362793,28.62548828125,-6.256103515625,97.869873046875
4.477499900000001,4.7584757804870605,-1.0965443849563599,9.473855972290039,28.961181640625,21.78955078125,32.318115234375
4.4824999000000005,3.8073792457580566,-0.020949264988303185,9.765948295593262,25.69580078125,19.04296875,-10.009765625
4.4874999,3.312976598739624,0.35075053572654724,9.815030097961426,19.012451171875,11.04736328125,-33.843994140625
4.4924999,2.871246337890625,0.5835866928100586,9.521739959716797,8.575439453125,11.71875,-48.797607421875
4.4974999,2.5504233837127686,0.6009446382522583,9.193734169006348,-0.48828125,15.777587890625,-60.516357421875
4.5024999,2.3295583724975586,0.5297171473503113,8.771158218383789,-9.70458984375,21.1181640625,-72.3876953125
4.5074999,2.2637176513671875,0.5213374495506287,8.423998832702637,-23.8037109375,23.956298828125,-87.2802734375
4.5124999,2.3499090671539307,0.7110779285430908,8.172607421875,-39.154052734375,27.83203125,-104.156494140625
4.5174999,2.8580782413482666,1.4676456451416016,7.97329044342041,-74.554443359375,51.8798828125,-126.739501953125
4.522499900000001,3.111265182495117,1.6603789329528809,8.537723541259766,-74.310302734375,86.7919921875,-124.664306640625
4.5274999000000005,2.9059622287750244,0.9445125460624695,9.960477828979492,-40.71044921875,141.29638671875,-109.283447265625
4.5324999,2.1978771686553955,-0.17178396880626678,11.942876815795898,20.416259765625,129.5166015625,-87.127685546875
4.5374999,0.9594763517379761,-1.3617022037506104,13.166912078857422,37.200927734375,78.7353515625,-64.788818359375
4.5424999,-0.6841431260108948,-2.1092917919158936,13.261483192443848,-2.25830078125,66.314697265625,-53.924560546875
4.5474999,-2.470217704772949,-2.433107376098633,11.82915210723877,-16.2353515625,49.86572265625,-28.228759765625
4.5524999,-4.234145641326904,-2.358887195587158,9.671378135681152,-19.59228515625,-0.06103515625,31.06689453125
4.5574999,-5.8885393142700195,-2.4223334789276123,7.90086555480957,6.2255859375,-62.3779296875,82.366943359375
4.562499900000001,-7.690774440765381,-1.5867571830749512,7.119757175445557,-16.326904296875,-118.5302734375,62.255859375
4.5674999000000005,-7.17242956161499,-0.44412440061569214,8.65743350982666,-11.016845703125,-121.09375,52.30712890625
4.5724999,-0.9995791912078857,0.7679402232170105,12.618639945983887,22.39990234375,-110.809326171875,86.395263671875
4.5774999,1.0684125423431396,-0.02454056777060032,11.73398208618164,29.60205078125,-67.93212890625,100.738525390625
4.5824999,2.585737943649292,-0.828393816947937,10.451887130737305,32.77587890625,-36.712646484375,107.574462890625
4.5874999,3.6780924797058105,-1.668160080909729,9.298480987548828,29.632568359375,-15.56396484375,108.795166015625
4.5924999,4.414309501647949,-2.1302409172058105,8.789113998413086,31.036376953125,1.251220703125,101.50146484375
4.5974999,4.843470096588135,-2.2020668983459473,8.69214916229248,31.494140625,13.641357421875,86.944580078125
4.602499900000001,4.994304656982422,-1.912368655204773,8.975862503051758,32.470703125,18.85986328125,68.328857421875
4.6074999000000005,4.884769916534424,-1.490989089012146,9.361329078674316,32.196044921875,16.78466796875,48.858642578125
4.6124999,4.550180435180664,-0.945111095905304,9.643844604492188,33.355712890625,20.32470703125,29.72412109375
4.6174999,4.10246467590332,-0.44173020124435425,9.800664901733398,28.80859375,19.22607421875,3.326416015625
4.6224999,3.6373908519744873,0.08559270948171616,9.838972091674805,22.3388671875,10.55908203125,-23.92578125
4.6274999,2.469619035720825,0.7356184720993042,8.271368026733398,-29.96826171875,26.3671875,-94.54345703125
4.6324999,2.542642116546631,0.9726444482803345,7.9864583015441895,-47.66845703125,31.67724609375,-110.77880859375
4.6374999,2.715623378753662,1.3503297567367554,7.808688640594482,-66.46728515625,40.313720703125,-125.030517578125
4.6424999,2.7096378803253174,0.5859808921813965,10.592546463012695,-25.0244140625,152.191162109375,-103.759765625
4.647499900000001,1.8495208024978638,-0.557250440120697,12.533047676086426,34.149169921875,117.218017578125,-78.277587890625
4.6524999000000005,0.4866214990615845,-1.8309657573699951,13.514071464538574,29.144287109375,76.324462890625,-61.920166015625
4.6574999,-1.236605167388916,-2.380434989929199,13.098677635192871,-7.293701171875,64.849853515625,-49.98779296875
4.6624999,-7.6985554695129395,-1.1749545335769653,7.4100542068481445,-16.510009765625,-120.2392578125,56.33544921875
4.6674999,-6.886921405792236,0.06404489278793335,9.165602684020996,-16.021728515625,-117.12646484375,46.661376953125
4.6724999,-5.080495834350586,0.9720458984375,10.982203483581543,-1.220703125,-114.654541015625,48.583984375
4.6774999,-2.8215668201446533,1.2198457717895508,12.445060729980469,8.026123046875,-123.96240234375,71.10595703125
4.6824999,-0.4279635548591614,0.6751648783683777,12.426505088806152,21.728515625,-103.45458984375,89.324951171875
4.687499900000001,1.4712369441986084,-0.28969839215278625,11.3269681930542,26.092529296875,-60.943603515625,97.808837890625
4.6924999000000005,2.89339280128479,-1.2557587623596191,10.077195167541504,29.083251953125,-34.60693359375,99.456787109375
4.6974999,3.933074951171875,-1.9536685943603516,9.063849449157715,26.91650390625,-12.5732421875,96.25244140625
4.7024999,4.660313606262207,-2.232593059539795,8.762778282165527,27.9541015625,0.3662109375,88.897705078125
4.7074999,3.420117139816284,0.2555810213088989,9.719860076904297,22.552490234375,19.47021484375,-16.204833984375
4.7124999,3.0160956382751465,0.37828385829925537,9.791686058044434,15.655517578125,11.993408203125,-39.9169921875
4.7174999,2.6431987285614014,0.4770447015762329,9.4014310836792,5.4931640625,15.716552734375,-53.680419921875
4.7224999,2.717418909072876,1.3970166444778442,7.920019149780273,-69.305419921875,40.802001953125,-127.960205078125
4.727499900000001,3.1429882049560547,1.5598224401474,9.203909873962402,-61.8896484375,120.66650390625,-119.81201171875
4.7324999000000005,2.6372132301330566,0.3411737382411957,11.018714904785156,-7.26318359375,152.008056640625,-96.5576171875
4.7374999,1.6502034664154053,-0.7966706156730652,12.685079574584961,41.748046875,98.785400390625,-77.7587890625
4.7424999,0.09277531504631042,-2.0009541511535645,13.308768272399902,15.93017578125,71.2890625,-62.3779296875
4.7474999,-1.73519766330719,-2.4648306369781494,12.60307788848877,-11.962890625,60.821533203125,-41.351318359375
4.7524999,-3.5230677127838135,-2.627037763595581,10.685321807861328,-20.01953125,24.658203125,2.44140625
4.7574999,-5.2893900871276855,-2.45285964012146,8.683769226074219,-1.89208984375,-38.055419921875,67.413330078125
4.7624999,-6.679224014282227,-2.3918075561523438,7.251438617706299,4.791259765625,-82.70263671875,83.1298828125
4.7674999,-7.605780124664307,-1.9207483530044556,6.8360443115234375,-12.14599609375,-114.471435546875,72.3876953125
4.772499900000001,-7.614160060882568,-0.9074024558067322,7.845200538635254,-16.143798828125,-126.77001953125,60.6689453125
4.7774999000000005,1.9171570539474487,-0.6290764808654785,11.017518043518066,32.196044921875,-48.980712890625,107.879638671875
4.7824999,3.226186752319336,-1.4179660081863403,9.746794700622559,32.53173828125,-25.604248046875,107.879638671875
4.7874999,4.173093795776367,-2.0039467811584473,8.953117370605469,30.45654296875,-3.5400390625,102.386474609375
4.7924999,4.808155536651611,-2.1984755992889404,8.731653213500977,32.53173828125,6.4697265625,89.263916015625
4.7974999,5.123591423034668,-2.008136749267578,8.875904083251953,32.3486328125,10.528564453125,72.265625
4.8024999,2.585139274597168,0.7601590156555176,8.249221801757812,-25.634765625,23.895263671875,-102.47802734375
4.8074999,2.6563668251037598,1.070208191871643,7.888894557952881,-47.119140625,26.611328125,-122.13134765625
4.812499900000001,2.83174204826355,1.50355863571167,7.541136741638184,-73.1201171875,32.16552734375,-140.380859375
4.8174999000000005,3.1208419799804688,1.946485996246338,7.420828342437744,-94.54345703125,51.116943359375,-151.79443359375
4.8224999,3.3423056602478027,1.9853917360305786,8.20732307434082,-95.306396484375,104.1259765625,-146.30126953125
4.8274999,2.9215245246887207,1.216254472732544,10.047266960144043,-39.520263671875,181.549072265625,-119.903564453125
4.8324999,2.076969861984253,-0.004189853090792894,12.248735427856445,38.970947265625,143.157958984375,-100.372314453125
4.8374999,0.5638344883918762,-1.1300631761550903,13.543400764465332,34.36279296875,77.63671875,-72.723388671875
4.8424999,-1.245583415031433,-1.912368655204773,13.128604888916016,-13.336181640625,64.300537109375,-43.64013671875
4.8474999,-4.830301761627197,-2.6862943172454834,8.868123054504395,-11.932373046875,-23.101806640625,70.526123046875
4.852499900000001,-6.324283599853516,-3.0795419216156006,7.016806602478027,19.500732421875,-76.934814453125,92.7734375
4.8574999000000005,-7.327454090118408,-2.959233283996582,6.034585475921631,-4.08935546875,-113.311767578125,84.320068359375
4.8624999,-7.68538761138916,-2.1697452068328857,6.622960567474365,-13.397216796875,-136.5966796875,77.850341796875
4.8674999,-6.868366241455078,-1.1456254720687866,8.534730911254883,10.284423828125,-112.36572265625,60.05859375
4.8724999,-5.2666449546813965,-0.11432313174009323,10.751761436462402,11.962890625,-95.367431640625,57.43408203125
4.8774999,-3.093308687210083,0.6248866319656372,12.701239585876465,15.472412109375,-120.635986328125,78.06396484375
4.8824999,-0.7739257216453552,0.6350619792938232,12.917316436767578,28.25927734375,-99.4873046875,96.49658203125
4.8874999,1.0959458351135254,0.2992752194404602,11.93629264831543,34.97314453125,-60.028076171875,112.4267578125
4.8924999,2.4660277366638184,-0.4183867573738098,10.509347915649414,32.958984375,-35.369873046875,119.2626953125
4.897499900000001,3.4584243297576904,-1.1019313335418701,9.284713745117188,30.2734375,-10.68115234375,111.87744140625
4.9024999000000005,4.132990837097168,-1.6053122282028198,8.637083053588867,30.670166015625,6.744384765625,97.900390625
4.9074999,4.5423994064331055,-1.0223240852355957,9.537900924682617,24.383544921875,11.77978515625,20.111083984375
4.9124999,4.210203647613525,-0.4531026780605316,9.79288387298584,20.56884765625,8.758544921875,-5.67626953125
4.9174999,3.801393747329712,0.1149216815829277,9.803058624267578,15.93017578125,7.354736328125,-25.390625
4.9224999,3.4338839054107666,0.4985924959182739,9.654618263244629,9.58251953125,8.087158203125,-40.985107421875
4.9274999,3.134010076522827,0.7116764783859253,9.3643217086792,1.03759765625,12.786865234375,-54.229736328125
4.9324999,2.8862102031707764,0.7398083209991455,9.00399398803711,-8.209228515625,19.287109375,-65.12451171875
4.937499900000001,2.7036523818969727,0.6967126727104187,8.636484146118164,-18.798828125,26.275634765625,-75.74462890625
4.9424999000000005,2.6228480339050293,0.7433996200561523,8.309675216674805,-31.494140625,33.26416015625,-89.41650390625
4.9474999,2.62823486328125,0.9882067441940308,8.04810905456543,-48.9501953125,38.63525390625,-105.52978515625
4.9524999,2.7323827743530273,1.22642982006073,7.9744873046875,-67.413330078125,46.234130859375,-118.927001953125
4.9574999,2.8419175148010254,1.2210428714752197,9.399636268615723,-56.33544921875,118.133544921875,-112.6708984375
4.9624999,2.256535053253174,0.12868833541870117,11.119271278381348,-7.87353515625,142.2119140625,-95.062255859375
4.9674999,1.3611036539077759,-0.9594763517379761,12.607866287231445,32.8369140625,93.8720703125,-85.63232421875
4.9724999,-0.04249707981944084,-2.052429437637329,13.117232322692871,22.88818359375,61.6455078125,-75.531005859375
4.977499900000001,-1.5203180313110352,-2.3726539611816406,12.254721641540527,-9.3994140625,54.656982421875,-61.187744140625
4.9824999000000005,-3.0400376319885254,-2.446275472640991,10.499771118164062,-11.932373046875,31.524658203125,-25.69580078125
4.9874999,-4.6507368087768555,-2.233790159225464,8.789712905883789,-7.26318359375,-20.08056640625,37.139892578125
4.9924999,-6.033987045288086,-2.1583728790283203,7.6752119064331055,8.575439453125,-66.436767578125,72.998046875
4.9974999,-7.084442615509033,-1.7956513166427612,7.405265808105469,-7.01904296875,-93.6279296875,63.873291015625
5.0024999,-7.250839710235596,-0.9750386476516724,8.078036308288574,-18.768310546875,-112.36572265625,51.910400390625
5.0074999,-6.338648796081543,0.11552023142576218,9.569623947143555,-15.960693359375,-114.44091796875,47.119140625
5.0124999,-4.499902248382568,0.8319851160049438,11.042656898498535,-3.814697265625,-112.030029296875,50.1708984375
5.0174999,-0.05985504388809204,0.5380968451499939,12.120047569274902,22.15576171875,-94.512939453125,85.51025390625
5.022499900000001,1.6867151260375977,-0.41539400815963745,11.092336654663086,25.604248046875,-56.09130859375,95.947265625
5.0274999000000005,2.962824583053589,-1.2647370100021362,9.958083152770996,27.16064453125,-32.958984375,99.884033203125
5.0324999,3.839700937271118,-1.9512743949890137,9.01476764678955,25.93994140625,-11.749267578125,98.114013671875
5.0374999,4.4526166915893555,-2.23199462890625,8.740033149719238,27.40478515625,6.134033203125,88.80615234375
5.0424999,4.7369279861450195,-2.1134815216064453,8.875904083251953,29.4189453125,10.1318359375,73.699951171875
5.0474999,4.7584757804870605,-1.7244237661361694,9.165003776550293,27.77099609375,12.725830078125,54.13818359375
5.0524999,4.534019470214844,-1.1881226301193237,9.435548782348633,26.55029296875,17.578125,32.3486328125
5.0574999,4.143764495849609,-0.619499683380127,9.636063575744629,24.078369140625,18.98193359375,15.625
5.062499900000001,3.688866376876831,-0.04967968538403511,9.676764488220215,21.514892578125,17.2119140625,-0.30517578125
5.0674999000000005,3.269282341003418,0.3621230125427246,9.708487510681152,16.66259765625,13.7939453125,-19.34814453125
5.0724999,2.8838160037994385,0.5764040350914001,9.553462982177734,9.796142578125,13.97705078125,-34.942626953125
5.0774999,2.6001031398773193,0.5692214369773865,9.326014518737793,1.556396484375,16.876220703125,-46.875
5.0824999,2.3762452602386475,0.4620809257030487,9.018359184265137,-6.378173828125,22.369384765625,-57.098388671875
5.0874999,2.2625205516815186,0.3818751573562622,8.73225212097168,-16.4794921875,26.092529296875,-68.05419921875
5.0924999,2.2697031497955322,0.5297171473503113,8.555081367492676,-28.01513671875,30.792236328125,-81.6650390625
5.0974999,2.3948001861572266,0.7451952695846558,8.38688850402832,-41.961669921875,36.407470703125,-95.64208984375
5.102499900000001,2.5695769786834717,1.0432734489440918,8.385092735290527,-56.304931640625,43.670654296875,-107.269287109375
5.1074999000000005,2.759916067123413,1.1504138708114624,8.653243064880371,-61.5234375,64.88037109375,-112.335205078125
5.1124999,2.7287914752960205,0.9157821536064148,9.568427085876465,-43.51806640625,105.95703125,-104.644775390625
5.1174999,2.229001760482788,0.08140286058187485,10.989984512329102,-4.2724609375,122.589111328125,-88.80615234375
5.1224999,1.456871747970581,-0.8834604024887085,12.178107261657715,22.918701171875,86.60888671875,-84.77783203125
5.1274999,0.2124854028224945,-1.6633716821670532,12.579733848571777,16.7236328125,60.302734375,-73.455810546875
5.1324999,-1.173158884048462,-2.0021512508392334,11.817779541015625,-6.500244140625,52.18505859375,-54.8095703125
5.1374999,-4.344278812408447,-1.9291280508041382,8.838793754577637,-10.25390625,-19.073486328125,32.073974609375
5.1424999,-5.880159378051758,-1.9614497423171997,7.903858184814453,4.150390625,-64.63623046875,75.3173828125
5.147499900000001,-6.887519836425781,-1.6328455209732056,7.563881874084473,-7.4462890625,-95.03173828125,67.718505859375
5.1524999000000005,-7.174823760986328,-1.0336965322494507,8.213309288024902,-19.83642578125,-113.250732421875,54.87060546875
5.1574999,-6.316502571105957,-0.050876785069704056,9.598953247070312,-15.289306640625,-113.800048828125,51.20849609375
5.1624999,-4.587290287017822,0.5428852438926697,11.065999984741211,0.9765625,-111.572265625,52.947998046875
5.1674999,-2.4384944438934326,0.7817068696022034,12.118850708007812,11.04736328125,-110.321044921875,71.77734375
5.1724999,-0.24839842319488525,0.3172317147254944,12.04463005065918,23.37646484375,-91.85791015625,90.75927734375
5.1774999,1.5394717454910278,-0.5129576921463013,11.05642318725586,26.91650390625,-57.2509765625,101.4404296875
