# Time (seconds),Accel_X,Accel_Y,Accel_Z,Gyro_X,Gyro_Y,Gyro_Z
0.0024999,0.20949265360832214,-0.023343466222286224,9.746196746826172,-0.091552734375,0.06103515625,-0.091552734375
0.0074999,0.20889410376548767,-0.01975216343998909,9.744400978088379,-0.1220703125,0.091552734375,-0.06103515625
0.012499900000000001,0.20530278980731964,-0.01735796220600605,9.747992515563965,0,-0.06103515625,0.030517578125
0.0174999,0.2017114907503128,-0.01496376097202301,9.749189376831055,-0.06103515625,0.030517578125,-0.18310546875
0.0224999,0.2017114907503128,-0.01496376097202301,9.749189376831055,-0.06103515625,0.030517578125,-0.18310546875
0.0274999,0.1999158412218094,-0.013766659423708916,9.749189376831055,-0.06103515625,-0.030517578125,-0.152587890625
0.0324999,0.20051439106464386,-0.016160860657691956,9.751583099365234,-0.06103515625,0.030517578125,-0.030517578125
0.0374999,0.20350714027881622,-0.017956512048840523,9.751583099365234,0.030517578125,-0.091552734375,-0.1220703125
0.0424999,0.2059013396501541,-0.02214636653661728,9.747393608093262,-0.06103515625,-0.030517578125,-0.274658203125
0.0474999,0.20530278980731964,-0.02513911761343479,9.746196746826172,0,-0.030517578125,-0.152587890625
0.0524999,0.20350714027881622,-0.02693476900458336,9.736021041870117,-0.06103515625,0,-0.152587890625
0.0574999,0.2017114907503128,-0.026336219161748886,9.734225273132324,0.091552734375,-0.06103515625,-0.152587890625
0.0624999,0.20051439106464386,-0.02513911761343479,9.729436874389648,0.06103515625,0,-0.213623046875
0.0674999,0.2017114907503128,-0.02513911761343479,9.731831550598145,0.030517578125,-0.1220703125,-0.06103515625
0.0724999,0.20111294090747833,-0.0293289702385664,9.73542308807373,0,0.030517578125,-0.091552734375
0.0774999,0.20051439106464386,-0.028730420395731926,9.742605209350586,-0.091552734375,0.06103515625,-0.18310546875
0.0824999,0.1999158412218094,-0.033518824726343155,9.747992515563965,-0.06103515625,0.06103515625,-0.091552734375
0.0874999,0.19931729137897491,-0.02753331884741783,9.750985145568848,0.1220703125,-0.152587890625,-0.091552734375
0.0924999,0.1999158412218094,-0.026336219161748886,9.750985145568848,-0.091552734375,0.06103515625,-0.335693359375
0.0974999,0.20111294090747833,-0.023343466222286224,9.745597839355469,-0.152587890625,0.06103515625,-0.274658203125
0.1024999,0.2017114907503128,-0.02274491637945175,9.739612579345703,-0.152587890625,-0.06103515625,-0.1220703125
0.1074999,0.2064998894929886,-0.023942016065120697,9.734824180603027,-0.030517578125,-0.091552734375,-0.152587890625
0.1124999,0.2082955539226532,-0.025737667456269264,9.73661994934082,0.030517578125,-0.06103515625,-0.1220703125
0.1174999,0.2124854028224945,-0.028131870552897453,9.739013671875,-0.091552734375,-0.030517578125,-0.18310546875
0.1224999,0.2124854028224945,-0.028730420395731926,9.743802070617676,-0.1220703125,0.06103515625,-0.213623046875
0.1274999,0.21128830313682556,-0.031124621629714966,9.747393608093262,0,-0.030517578125,-0.213623046875
0.1324999,0.20709845423698425,-0.031124621629714966,9.746196746826172,-0.1220703125,0.091552734375,-0.335693359375
0.1374999,0.20290859043598175,-0.030526071786880493,9.745597839355469,-0.1220703125,0,-0.1220703125
0.1424999,0.20051439106464386,-0.03292027488350868,9.747992515563965,-0.030517578125,-0.06103515625,-0.091552734375
0.1474999,0.19871874153614044,-0.028131870552897453,9.744999885559082,-0.1220703125,0,-0.18310546875
0.1524999,0.1999158412218094,-0.030526071786880493,9.749788284301758,-0.152587890625,-0.030517578125,-0.152587890625
0.1574999,0.20051439106464386,-0.028131870552897453,9.746196746826172,0.030517578125,0.06103515625,-0.091552734375
0.1624999,0.20470423996448517,-0.02693476900458336,9.746794700622559,-0.1220703125,0,-0.152587890625
0.1674999,0.2064998894929886,-0.028730420395731926,9.743204116821289,-0.1220703125,0,-0.152587890625
0.1724999,0.21128830313682556,-0.02693476900458336,9.740809440612793,0,0.030517578125,-0.152587890625
0.17749990000000002,0.21188685297966003,-0.02753331884741783,9.740211486816406,0.06103515625,-0.030517578125,-0.1220703125
0.1824999,0.2106897532939911,-0.026336219161748886,9.740809440612793,-0.06103515625,0.244140625,-0.1220703125
0.1874999,0.20889410376548767,-0.02274491637945175,9.746196746826172,-0.152587890625,0.06103515625,-0.152587890625
0.1924999,0.2064998894929886,-0.020350715145468712,9.748590469360352,0.152587890625,0.030517578125,-0.091552734375
0.1974999,0.20470423996448517,-0.016160860657691956,9.752182006835938,0,0.091552734375,-0.244140625
0.2024999,0.2059013396501541,-0.017956512048840523,9.749189376831055,-0.06103515625,-0.1220703125,-0.030517578125
0.20749990000000001,0.20530278980731964,-0.017956512048840523,9.744400978088379,0,0.030517578125,-0.213623046875
0.2124999,0.2059013396501541,-0.02214636653661728,9.739612579345703,-0.091552734375,0.091552734375,-0.244140625
0.2174999,0.20769700407981873,-0.025737667456269264,9.733028411865234,-0.030517578125,-0.030517578125,-0.06103515625
0.2224999,0.2064998894929886,-0.0293289702385664,9.733028411865234,0.06103515625,0.244140625,-0.152587890625
0.2274999,0.20889410376548767,-0.03172317147254944,9.733627319335938,0.06103515625,0.030517578125,-0.06103515625
0.2324999,0.2082955539226532,-0.030526071786880493,9.734225273132324,-0.091552734375,-0.1220703125,0
0.2374999,0.2124854028224945,-0.02753331884741783,9.73781681060791,-0.06103515625,-0.030517578125,-0.030517578125
0.2424999,0.21128830313682556,-0.021547814831137657,9.739612579345703,0.030517578125,-0.1220703125,0.030517578125
0.2474999,0.21308395266532898,-0.019153613597154617,9.742006301879883,-0.152587890625,-0.091552734375,-0.244140625
0.2524999,0.2106897532939911,-0.01975216343998909,9.744400978088379,-0.030517578125,-0.030517578125,-0.18310546875
0.2574999,0.20949265360832214,-0.019153613597154617,9.750386238098145,-0.06103515625,-0.06103515625,-0.18310546875
0.2624999,0.2059013396501541,-0.020350715145468712,9.75278091430664,-0.1220703125,-0.1220703125,-0.274658203125
0.2674999,0.2041056901216507,-0.017956512048840523,9.75397777557373,-0.091552734375,0.030517578125,-0.091552734375
0.2724999,0.20231004059314728,-0.015562310814857483,9.752182006835938,-0.06103515625,-0.030517578125,-0.213623046875
0.2774999,0.20530278980731964,-0.016160860657691956,9.749189376831055,0,-0.091552734375,-0.152587890625
0.2824999,0.20949265360832214,-0.015562310814857483,9.746196746826172,-0.06103515625,-0.06103515625,-0.244140625
0.28749990000000003,0.2124854028224945,-0.01735796220600605,9.746794700622559,-0.152587890625,-0.06103515625,-0.091552734375
0.2924999,0.21547815203666687,-0.016160860657691956,9.747393608093262,-0.18310546875,-0.030517578125,-0.06103515625
0.2974999,0.21428105235099792,-0.016759412363171577,9.748590469360352,-0.091552734375,0.030517578125,-0.213623046875
0.3024999,0.20949265360832214,-0.018555063754320145,9.750386238098145,-0.030517578125,0.091552734375,-0.335693359375
0.3074999,0.2041056901216507,-0.020350715145468712,9.750386238098145,-0.030517578125,0.06103515625,-0.274658203125
0.3124999,0.20051439106464386,-0.02274491637945175,9.748590469360352,-0.1220703125,-0.030517578125,-0.18310546875
0.3174999,0.1999158412218094,-0.020949264988303185,9.748590469360352,-0.091552734375,-0.1220703125,0.030517578125
0.3224999,0.20231004059314728,-0.021547814831137657,9.740809440612793,-0.091552734375,-0.030517578125,-0.091552734375
0.3274999,0.2059013396501541,-0.020949264988303185,9.739612579345703,0.030517578125,0,-0.152587890625
0.3324999,0.20530278980731964,-0.02274491637945175,9.73661994934082,0.030517578125,0.091552734375,-0.213623046875
0.3374999,0.20530278980731964,-0.02513911761343479,9.736021041870117,0.030517578125,-0.091552734375,-0.1220703125
0.3424999,0.2041056901216507,-0.028730420395731926,9.737217903137207,0.030517578125,-0.091552734375,-0.091552734375
0.34749990000000003,0.20350714027881622,-0.03411737456917763,9.734824180603027,0,-0.06103515625,-0.18310546875
0.35249990000000003,0.20290859043598175,-0.03711012750864029,9.736021041870117,-0.030517578125,-0.030517578125,-0.152587890625
0.3574999,0.20290859043598175,-0.040701430290937424,9.73542308807373,-0.06103515625,-0.091552734375,-0.091552734375
0.3624999,0.20231004059314728,-0.038307227194309235,9.73661994934082,-0.06103515625,0,-0.1220703125
0.3674999,0.20231004059314728,-0.03531447425484657,9.742006301879883,0.030517578125,-0.1220703125,-0.1220703125
0.3724999,0.20290859043598175,-0.030526071786880493,9.743802070617676,0,0,-0.1220703125
0.3774999,0.20231004059314728,-0.02454056777060032,9.749189376831055,0.030517578125,-0.06103515625,-0.1220703125
0.3824999,0.20111294090747833,-0.01975216343998909,9.752182006835938,-0.030517578125,-0.18310546875,-0.152587890625
0.3874999,0.20111294090747833,-0.01975216343998909,9.752182006835938,-0.030517578125,-0.18310546875,-0.152587890625
0.3924999,0.2017114907503128,-0.015562310814857483,9.752182006835938,-0.06103515625,-0.091552734375,-0.18310546875
0.3974999,0.19871874153614044,-0.011971008032560349,9.750985145568848,0,-0.091552734375,-0.152587890625
0.4024999,0.20051439106464386,-0.012569558806717396,9.745597839355469,0.030517578125,0.030517578125,-0.244140625
0.4074999,0.19692309200763702,-0.013168109580874443,9.741408348083496,0,-0.030517578125,-0.152587890625
0.41249990000000003,0.19692309200763702,-0.01735796220600605,9.73661994934082,-0.06103515625,0.030517578125,-0.152587890625
0.41749990000000003,0.1951274424791336,-0.020350715145468712,9.734225273132324,-0.1220703125,0.030517578125,-0.18310546875
0.4224999,0.1933317929506302,-0.02214636653661728,9.730634689331055,-0.06103515625,-0.091552734375,-0.152587890625
0.4274999,0.19393034279346466,-0.021547814831137657,9.734225273132324,0,-0.06103515625,-0.1220703125
0.4324999,0.19452889263629913,-0.020350715145468712,9.73661994934082,-0.1220703125,0.030517578125,-0.18310546875
0.4374999,0.1999158412218094,-0.021547814831137657,9.742605209350586,-0.091552734375,0.06103515625,-0.18310546875
0.4424999,0.20231004059314728,-0.02214636653661728,9.748590469360352,-0.030517578125,-0.030517578125,-0.213623046875
0.4474999,0.20769700407981873,-0.025737667456269264,9.751583099365234,0,-0.030517578125,-0.18310546875
0.4524999,0.20949265360832214,-0.025737667456269264,9.753378868103027,0.091552734375,-0.030517578125,-0.18310546875
0.4574999,0.21128830313682556,-0.025737667456269264,9.750985145568848,-0.030517578125,0,-0.213623046875
0.4624999,0.21009120345115662,-0.02513911761343479,9.748590469360352,-0.1220703125,-0.06103515625,-0.152587890625
0.4674999,0.2082955539226532,-0.02513911761343479,9.745597839355469,-0.1220703125,0,-0.1220703125
0.47249990000000003,0.20709845423698425,-0.02753331884741783,9.744999885559082,-0.091552734375,-0.030517578125,-0.213623046875
0.47749990000000003,0.2059013396501541,-0.02693476900458336,9.743204116821289,0,-0.1220703125,-0.152587890625
0.4824999,0.20530278980731964,-0.028730420395731926,9.740809440612793,0.06103515625,-0.091552734375,-0.06103515625
0.4874999,0.2059013396501541,-0.02693476900458336,9.738415718078613,-0.06103515625,0.030517578125,-0.06103515625
0.4924999,0.20350714027881622,-0.02454056777060032,9.73542308807373,-0.1220703125,0.030517578125,-0.18310546875
0.4974999,0.20470423996448517,-0.025737667456269264,9.73542308807373,0.091552734375,-0.030517578125,-0.1220703125
0.5024999,0.20530278980731964,-0.023343466222286224,9.737217903137207,0.06103515625,0.1220703125,-0.091552734375
0.5074999,0.2041056901216507,-0.023942016065120697,9.739612579345703,-0.152587890625,0.030517578125,-0.18310546875
0.5124999,0.20290859043598175,-0.02454056777060032,9.740809440612793,-0.213623046875,0.030517578125,-0.244140625
0.5174999,0.20111294090747833,-0.02513911761343479,9.743204116821289,-0.091552734375,-0.06103515625,-0.1220703125
0.5224999,0.20051439106464386,-0.026336219161748886,9.743204116821289,-0.1220703125,-0.030517578125,-0.1220703125
0.5274999,0.20051439106464386,-0.02693476900458336,9.743204116821289,-0.030517578125,0.091552734375,-0.152587890625
0.5324999,0.20290859043598175,-0.028131870552897453,9.744999885559082,-0.1220703125,0.1220703125,-0.152587890625
0.5374999,0.20470423996448517,-0.0293289702385664,9.743802070617676,-0.091552734375,0.030517578125,-0.18310546875
0.5424999,0.2082955539226532,-0.028131870552897453,9.747393608093262,0.06103515625,0,-0.18310546875
0.5474999,0.2124854028224945,-0.02992752194404602,9.747393608093262,-0.030517578125,-0.030517578125,-0.244140625
0.5524999,0.2148796021938324,-0.02753331884741783,9.750386238098145,-0.030517578125,0,-0.335693359375
0.5574999,0.21607670187950134,-0.02992752194404602,9.748590469360352,-0.091552734375,0.091552734375,-0.1220703125
0.5624999,0.21787235140800476,-0.0293289702385664,9.746794700622559,0,0.030517578125,-0.06103515625
0.5674999000000001,0.21428105235099792,-0.028730420395731926,9.746196746826172,0.06103515625,0,-0.244140625
0.5724999000000001,0.21128830313682556,-0.028131870552897453,9.744999885559082,0,-0.152587890625,-0.152587890625
0.5774999000000001,0.20470423996448517,-0.02693476900458336,9.744400978088379,-0.06103515625,-0.244140625,-0.091552734375
0.5824999,0.19931729137897491,-0.026336219161748886,9.743204116821289,-0.091552734375,0.030517578125,-0.244140625
0.5874999,0.19692309200763702,-0.025737667456269264,9.739612579345703,-0.06103515625,0.06103515625,-0.152587890625
0.5924999,0.19393034279346466,-0.02274491637945175,9.734824180603027,0.030517578125,-0.1220703125,-0.213623046875
0.5974999,0.19632454216480255,-0.02274491637945175,9.733028411865234,-0.06103515625,-0.091552734375,-0.274658203125
0.6024999,0.1951274424791336,-0.020350715145468712,9.734824180603027,-0.06103515625,-0.030517578125,-0.1220703125
0.6074999,0.19572599232196808,-0.021547814831137657,9.740809440612793,0,-0.030517578125,-0.152587890625
0.6124999,0.19812019169330597,-0.020949264988303185,9.749788284301758,0,0.1220703125,-0.091552734375
0.6174999,0.20290859043598175,-0.021547814831137657,9.757569313049316,-0.06103515625,0.152587890625,-0.06103515625
0.6224999,0.2059013396501541,-0.021547814831137657,9.761758804321289,-0.18310546875,0,-0.18310546875
0.6274999,0.21009120345115662,-0.02454056777060032,9.762955665588379,-0.030517578125,-0.06103515625,-0.152587890625
0.6324999,0.20889410376548767,-0.0293289702385664,9.755773544311523,0.18310546875,0.030517578125,0.030517578125
0.6374999,0.20530278980731964,-0.0293289702385664,9.750985145568848,-0.091552734375,0,-0.152587890625
0.6424999,0.20111294090747833,-0.031124621629714966,9.740809440612793,-0.091552734375,-0.091552734375,-0.213623046875
0.6474999,0.19931729137897491,-0.028131870552897453,9.738415718078613,-0.06103515625,-0.030517578125,-0.1220703125
0.6524999,0.20350714027881622,-0.02513911761343479,9.73542308807373,0.06103515625,-0.091552734375,-0.091552734375
0.6574999,0.20949265360832214,-0.025737667456269264,9.731831550598145,0.06103515625,0,-0.1220703125
0.6624999,0.21607670187950134,-0.023343466222286224,9.730634689331055,0,-0.091552734375,-0.06103515625
0.6674999,0.21966800093650818,-0.02454056777060032,9.725846290588379,-0.213623046875,0.06103515625,-0.030517578125
0.6724999,0.21787235140800476,-0.02214636653661728,9.728240013122559,-0.06103515625,0.030517578125,-0.06103515625
0.6774999,0.21368250250816345,-0.01975216343998909,9.731232643127441,0.030517578125,0,0
0.6824999,0.21009120345115662,-0.020350715145468712,9.73781681060791,-0.091552734375,0,-0.213623046875
0.6874999,0.2082955539226532,-0.019153613597154617,9.743802070617676,-0.18310546875,0,-0.030517578125
0.6924999000000001,0.20530278980731964,-0.02274491637945175,9.748590469360352,-0.06103515625,0,-0.030517578125
0.6974999000000001,0.20470423996448517,-0.02693476900458336,9.749788284301758,0.06103515625,-0.091552734375,-0.213623046875
0.7024999000000001,0.20470423996448517,-0.0293289702385664,9.749189376831055,-0.091552734375,0,-0.335693359375
0.7074999,0.2064998894929886,-0.030526071786880493,9.744999885559082,-0.030517578125,0,-0.18310546875
0.7124999,0.2106897532939911,-0.030526071786880493,9.740211486816406,-0.030517578125,-0.1220703125,-0.18310546875
0.7174999,0.21428105235099792,-0.02693476900458336,9.733028411865234,0.06103515625,-0.1220703125,0
0.7224999,0.21607670187950134,-0.026336219161748886,9.728838920593262,-0.030517578125,0.030517578125,-0.213623046875
0.7274999,0.21607670187950134,-0.02454056777060032,9.727043151855469,0,0.030517578125,-0.244140625
0.7324999,0.21667525172233582,-0.023343466222286224,9.728838920593262,0.091552734375,-0.091552734375,-0.06103515625
0.7374999,0.21667525172233582,-0.023942016065120697,9.73661994934082,-0.1220703125,0.030517578125,0.030517578125
0.7424999,0.21428105235099792,-0.023343466222286224,9.744999885559082,-0.06103515625,0,0
0.7474999,0.21428105235099792,-0.023942016065120697,9.75517463684082,-0.091552734375,0.030517578125,0
0.7524999,0.21428105235099792,-0.023942016065120697,9.75517463684082,-0.091552734375,0.030517578125,0
0.7574999,0.20769700407981873,-0.025737667456269264,9.761159896850586,-0.091552734375,0,-0.152587890625
0.7624999,0.2041056901216507,-0.02753331884741783,9.764153480529785,-0.06103515625,0,-0.152587890625
0.7674999,0.19572599232196808,-0.028131870552897453,9.762955665588379,-0.1220703125,-0.030517578125,-0.1220703125
0.7724999,0.19273324310779572,-0.02693476900458336,9.756970405578613,-0.030517578125,0,0.030517578125
0.7774999,0.19393034279346466,-0.02454056777060032,9.751583099365234,-0.030517578125,-0.091552734375,-0.030517578125
0.7824999,0.1999158412218094,-0.023343466222286224,9.746794700622559,-0.091552734375,0,-0.213623046875
0.7874999,0.20949265360832214,-0.020949264988303185,9.747393608093262,-0.06103515625,-0.030517578125,-0.091552734375
0.7924999,0.21547815203666687,-0.018555063754320145,9.747992515563965,-0.18310546875,0.030517578125,-0.244140625
0.7974999,0.21847090125083923,-0.015562310814857483,9.749788284301758,-0.152587890625,0.06103515625,-0.152587890625
0.8024999,0.21428105235099792,-0.016160860657691956,9.75397777557373,-0.152587890625,0,-0.1220703125
0.8074999,0.21009120345115662,-0.016160860657691956,9.754576683044434,-0.06103515625,0.030517578125,-0.18310546875
0.8124999,0.20530278980731964,-0.01975216343998909,9.758766174316406,-0.091552734375,0.091552734375,-0.152587890625
0.8174999000000001,0.20111294090747833,-0.021547814831137657,9.757569313049316,-0.091552734375,0.06103515625,-0.06103515625
0.8224999000000001,0.19871874153614044,-0.021547814831137657,9.75397777557373,-0.030517578125,-0.030517578125,-0.244140625
0.8274999000000001,0.1975216418504715,-0.023942016065120697,9.750386238098145,-0.030517578125,0,-0.244140625
0.8324999000000001,0.19692309200763702,-0.026336219161748886,9.742605209350586,-0.091552734375,0.06103515625,-0.1220703125
0.8374999,0.20231004059314728,-0.03172317147254944,9.742006301879883,-0.030517578125,-0.06103515625,-0.152587890625
0.8424999,0.20350714027881622,-0.03411737456917763,9.739612579345703,-0.1220703125,-0.091552734375,-0.213623046875
0.8474999,0.20889410376548767,-0.03651157766580582,9.740809440612793,-0.030517578125,0.030517578125,-0.091552734375
0.8524999,0.2082955539226532,-0.03292027488350868,9.743802070617676,-0.1220703125,0.213623046875,-0.030517578125
0.8574999,0.2064998894929886,-0.02693476900458336,9.746196746826172,-0.06103515625,-0.030517578125,-0.18310546875
0.8624999,0.2064998894929886,-0.021547814831137657,9.750985145568848,0,-0.06103515625,0
0.8674999,0.20769700407981873,-0.01735796220600605,9.750985145568848,-0.1220703125,-0.091552734375,-0.18310546875
0.8724999,0.20709845423698425,-0.016759412363171577,9.752182006835938,-0.213623046875,0.1220703125,-0.3662109375
0.8774999,0.2082955539226532,-0.017956512048840523,9.752182006835938,-0.06103515625,-0.030517578125,-0.274658203125
0.8824999,0.20350714027881622,-0.021547814831137657,9.750386238098145,-0.091552734375,0.030517578125,-0.152587890625
0.8874999,0.19812019169330597,-0.025737667456269264,9.749189376831055,-0.030517578125,-0.030517578125,-0.152587890625
0.8924999,0.19273324310779572,-0.028730420395731926,9.744400978088379,0.06103515625,-0.091552734375,-0.06103515625
0.8974999,0.19213469326496124,-0.031124621629714966,9.739013671875,-0.091552734375,-0.152587890625,-0.1220703125
0.9024999,0.19393034279346466,-0.031124621629714966,9.734824180603027,-0.06103515625,0.030517578125,-0.1220703125
0.9074999,0.20350714027881622,-0.028131870552897453,9.734824180603027,0,-0.06103515625,-0.18310546875
0.9124999,0.2106897532939911,-0.028131870552897453,9.73781681060791,-0.030517578125,0,-0.091552734375
0.9174999,0.2172738015651703,-0.02454056777060032,9.744400978088379,-0.1220703125,0.030517578125,-0.18310546875
0.9224999,0.21847090125083923,-0.02274491637945175,9.748590469360352,0,-0.091552734375,-0.213623046875
0.9274999,0.21308395266532898,-0.021547814831137657,9.752182006835938,0.091552734375,0,-0.06103515625
0.9324999,0.20769700407981873,-0.018555063754320145,9.75278091430664,-0.091552734375,0,-0.1220703125
0.9374999,0.20111294090747833,-0.020949264988303185,9.750985145568848,-0.18310546875,-0.091552734375,-0.152587890625
0.9424999000000001,0.19871874153614044,-0.01975216343998909,9.747992515563965,0.091552734375,-0.244140625,-0.06103515625
0.9474999000000001,0.19812019169330597,-0.020949264988303185,9.741408348083496,0.030517578125,-0.091552734375,-0.274658203125
0.9524999000000001,0.20111294090747833,-0.020949264988303185,9.738415718078613,-0.06103515625,-0.030517578125,-0.18310546875
0.9574999000000001,0.2064998894929886,-0.01975216343998909,9.733627319335938,0,-0.091552734375,-0.030517578125
0.9624999,0.20949265360832214,-0.01975216343998909,9.732429504394531,-0.152587890625,0.030517578125,-0.152587890625
0.9674999,0.2148796021938324,-0.018555063754320145,9.732429504394531,-0.030517578125,-0.030517578125,-0.30517578125
0.9724999,0.2148796021938324,-0.01735796220600605,9.733028411865234,-0.091552734375,-0.030517578125,-0.244140625
0.9774999,0.2148796021938324,-0.015562310814857483,9.73542308807373,-0.152587890625,-0.06103515625,-0.213623046875
0.9824999,0.21188685297966003,-0.017956512048840523,9.73781681060791,0.06103515625,-0.030517578125,-0.091552734375
0.9874999,0.2082955539226532,-0.019153613597154617,9.742605209350586,0.030517578125,-0.1220703125,-0.030517578125
0.9924999,0.20709845423698425,-0.025737667456269264,9.744999885559082,0,-0.18310546875,-0.06103515625
0.9974999,0.2059013396501541,-0.028131870552897453,9.749189376831055,-0.18310546875,-0.1220703125,-0.213623046875
1.0024999,0.20470423996448517,-0.03172317147254944,9.750985145568848,-0.091552734375,0.030517578125,-0.18310546875
1.0074999000000002,0.2041056901216507,-0.030526071786880493,9.75397777557373,-0.152587890625,-0.06103515625,-0.274658203125
1.0124999000000001,0.20051439106464386,-0.02753331884741783,9.75278091430664,-0.244140625,0.030517578125,-0.213623046875
1.0174999000000002,0.2017114907503128,-0.02454056777060032,9.752182006835938,0.030517578125,-0.06103515625,-0.030517578125
1.0224999000000001,0.20051439106464386,-0.021547814831137657,9.749189376831055,0,0,-0.091552734375
1.0274999,0.20290859043598175,-0.02274491637945175,9.748590469360352,-0.1220703125,-0.244140625,-0.18310546875
1.0324999000000001,0.20530278980731964,-0.023942016065120697,9.749189376831055,-0.18310546875,0.030517578125,-0.244140625
1.0374999,0.20889410376548767,-0.02454056777060032,9.752182006835938,-0.1220703125,0.06103515625,-0.213623046875
1.0424999000000001,0.2124854028224945,-0.028730420395731926,9.755773544311523,0.030517578125,0.030517578125,-0.06103515625
1.0474999,0.21547815203666687,-0.026336219161748886,9.754576683044434,-0.030517578125,-0.18310546875,-0.06103515625
1.0524999000000002,0.2148796021938324,-0.02753331884741783,9.756970405578613,-0.030517578125,-0.06103515625,-0.18310546875
1.0574999,0.2082955539226532,-0.026336219161748886,9.754576683044434,-0.152587890625,-0.06103515625,-0.213623046875
1.0624999000000002,0.2017114907503128,-0.023343466222286224,9.751583099365234,-0.152587890625,0.030517578125,-0.152587890625
1.0674999,0.19273324310779572,-0.023942016065120697,9.744999885559082,-0.1220703125,-0.06103515625,-0.152587890625
1.0724999000000002,0.1933317929506302,-0.023343466222286224,9.737217903137207,-0.06103515625,-0.091552734375,-0.1220703125
1.0774999,0.19692309200763702,-0.023343466222286224,9.732429504394531,0.030517578125,0.1220703125,-0.213623046875
1.0824999000000002,0.20470423996448517,-0.023343466222286224,9.734225273132324,-0.030517578125,0.06103515625,-0.18310546875
1.0874999,0.21128830313682556,-0.021547814831137657,9.740809440612793,0.091552734375,-0.152587890625,-0.06103515625
1.0924999000000002,0.2124854028224945,-0.016759412363171577,9.746196746826172,0.030517578125,-0.1220703125,-0.091552734375
1.0974999,0.2106897532939911,-0.01496376097202301,9.749788284301758,-0.030517578125,-0.030517578125,-0.091552734375
1.1024999000000002,0.2106897532939911,-0.01496376097202301,9.750985145568848,-0.030517578125,-0.030517578125,0
1.1074999,0.21308395266532898,-0.016759412363171577,9.748590469360352,-0.030517578125,0.030517578125,-0.18310546875
1.1124999000000002,0.2172738015651703,-0.021547814831137657,9.747393608093262,-0.030517578125,0.06103515625,-0.18310546875
1.1174999,0.2172738015651703,-0.021547814831137657,9.747393608093262,-0.030517578125,0.06103515625,-0.18310546875
1.1224999000000002,0.21847090125083923,-0.02513911761343479,9.746196746826172,0.030517578125,0,-0.1220703125
1.1274999,0.22026655077934265,-0.02693476900458336,9.746196746826172,-0.030517578125,0,-0.091552734375
1.1324999000000002,0.21547815203666687,-0.025737667456269264,9.744999885559082,-0.1220703125,-0.091552734375,-0.1220703125
1.1374999000000001,0.21128830313682556,-0.02513911761343479,9.745597839355469,-0.06103515625,-0.06103515625,-0.152587890625
1.1424999000000002,0.20709845423698425,-0.023343466222286224,9.744999885559082,-0.18310546875,-0.213623046875,-0.1220703125
1.1474999000000001,0.20470423996448517,-0.023942016065120697,9.742605209350586,-0.18310546875,0.030517578125,-0.152587890625
1.1524999000000002,0.2041056901216507,-0.023942016065120697,9.745597839355469,-0.06103515625,0.030517578125,-0.030517578125
1.1574999000000001,0.20530278980731964,-0.02513911761343479,9.746794700622559,-0.030517578125,0.091552734375,-0.030517578125
1.1624999,0.20709845423698425,-0.023942016065120697,9.750386238098145,-0.091552734375,0.06103515625,-0.274658203125
1.1674999000000001,0.20889410376548767,-0.023343466222286224,9.750985145568848,-0.091552734375,-0.030517578125,-0.274658203125
1.1724999,0.20949265360832214,-0.020949264988303185,9.751583099365234,-0.091552734375,0,-0.152587890625
1.1774999000000002,0.21009120345115662,-0.02214636653661728,9.744999885559082,-0.06103515625,-0.06103515625,-0.091552734375
1.1824999,0.20889410376548767,-0.02274491637945175,9.744400978088379,-0.152587890625,0.030517578125,-0.30517578125
1.1874999000000002,0.2106897532939911,-0.023942016065120697,9.739612579345703,-0.152587890625,0.30517578125,-0.213623046875
1.1924999,0.21009120345115662,-0.02454056777060032,9.741408348083496,-0.1220703125,-0.091552734375,-0.18310546875
1.1974999000000002,0.2124854028224945,-0.02274491637945175,9.741408348083496,-0.030517578125,0.030517578125,-0.213623046875
1.2024999,0.2124854028224945,-0.02274491637945175,9.742605209350586,-0.06103515625,-0.030517578125,-0.18310546875
1.2074999000000002,0.21428105235099792,-0.02274491637945175,9.739612579345703,-0.06103515625,-0.091552734375,-0.152587890625
1.2124999,0.21128830313682556,-0.02513911761343479,9.737217903137207,-0.274658203125,0.030517578125,-0.274658203125
1.2174999000000002,0.20949265360832214,-0.023942016065120697,9.73542308807373,0,0.030517578125,-0.244140625
1.2224999,0.20530278980731964,-0.026336219161748886,9.73661994934082,0.091552734375,0,-0.152587890625
1.2274999000000002,0.20231004059314728,-0.02513911761343479,9.739013671875,-0.06103515625,0.152587890625,-0.213623046875
1.2324999,0.19871874153614044,-0.02454056777060032,9.743204116821289,-0.06103515625,-0.06103515625,-0.18310546875
1.2374999000000002,0.20051439106464386,-0.023942016065120697,9.743204116821289,0,-0.091552734375,-0.06103515625
1.2424999,0.1999158412218094,-0.02214636653661728,9.746196746826172,0,0.091552734375,0
1.2474999000000002,0.20350714027881622,-0.02214636653661728,9.748590469360352,-0.1220703125,0.213623046875,-0.091552734375
1.2524999,0.20530278980731964,-0.023343466222286224,9.750386238098145,-0.18310546875,-0.091552734375,0.030517578125
1.2574999000000002,0.20889410376548767,-0.026336219161748886,9.751583099365234,-0.06103515625,-0.152587890625,-0.152587890625
1.2624999000000001,0.2106897532939911,-0.025737667456269264,9.749788284301758,0.030517578125,-0.091552734375,-0.1220703125
1.2674999000000002,0.21308395266532898,-0.02693476900458336,9.747992515563965,-0.091552734375,-0.030517578125,0
1.2724999000000001,0.21308395266532898,-0.02454056777060032,9.747393608093262,0.091552734375,-0.18310546875,-0.1220703125
1.2774999000000002,0.21128830313682556,-0.02454056777060032,9.747393608093262,-0.030517578125,-0.06103515625,-0.1220703125
1.2824999000000001,0.20769700407981873,-0.023942016065120697,9.749788284301758,-0.152587890625,-0.091552734375,-0.030517578125
1.2874999,0.20350714027881622,-0.02214636653661728,9.753378868103027,-0.18310546875,-0.091552734375,-0.152587890625
1.2924999000000001,0.20111294090747833,-0.017956512048840523,9.75397777557373,-0.091552734375,-0.030517578125,-0.244140625
1.2974999,0.2017114907503128,-0.018555063754320145,9.753378868103027,0,-0.091552734375,-0.274658203125
1.3024999000000002,0.20709845423698425,-0.019153613597154617,9.751583099365234,0,-0.030517578125,-0.091552734375
1.3074999,0.21188685297966003,-0.025737667456269264,9.744999885559082,0.030517578125,0.06103515625,-0.030517578125
1.3124999000000002,0.2148796021938324,-0.033518824726343155,9.744999885559082,0,0,-0.18310546875
1.3174999,0.21607670187950134,-0.038307227194309235,9.742006301879883,-0.030517578125,-0.030517578125,-0.335693359375
1.3224999000000002,0.21128830313682556,-0.04010287672281265,9.744999885559082,0.1220703125,0.030517578125,-0.06103515625
1.3274999,0.20769700407981873,-0.040701430290937424,9.748590469360352,0.091552734375,0.06103515625,-0.1220703125
1.3324999000000002,0.20111294090747833,-0.03770867735147476,9.752182006835938,-0.030517578125,-0.1220703125,-0.274658203125
1.3374999,0.19692309200763702,-0.03531447425484657,9.75637149810791,-0.1220703125,-0.030517578125,-0.213623046875
1.3424999000000002,0.1951274424791336,-0.02992752194404602,9.756970405578613,-0.030517578125,-0.152587890625,-0.030517578125
1.3474999,0.19632454216480255,-0.0293289702385664,9.75397777557373,0.030517578125,-0.06103515625,-0.213623046875
1.3524999000000002,0.1975216418504715,-0.02513911761343479,9.75517463684082,-0.091552734375,0.030517578125,-0.244140625
1.3574999,0.20290859043598175,-0.02454056777060032,9.75278091430664,-0.06103515625,0,-0.152587890625
1.3624999000000002,0.2041056901216507,-0.023343466222286224,9.751583099365234,0.091552734375,-0.18310546875,0
1.3674999,0.20889410376548767,-0.02214636653661728,9.750985145568848,0,-0.152587890625,-0.18310546875
1.3724999000000002,0.2106897532939911,-0.02214636653661728,9.747992515563965,-0.213623046875,0.091552734375,-0.18310546875
1.3774999,0.21368250250816345,-0.020949264988303185,9.745597839355469,-0.091552734375,0.1220703125,-0.06103515625
1.3824999000000002,0.21547815203666687,-0.01975216343998909,9.742006301879883,0,0.091552734375,-0.274658203125
1.3874999000000001,0.21667525172233582,-0.02214636653661728,9.740211486816406,-0.091552734375,0.030517578125,-0.335693359375
1.3924999000000002,0.21428105235099792,-0.023343466222286224,9.73781681060791,-0.030517578125,0.030517578125,-0.091552734375
1.3974999000000001,0.21188685297966003,-0.03172317147254944,9.739013671875,0,0.091552734375,-0.091552734375
1.4024999000000002,0.20470423996448517,-0.030526071786880493,9.742006301879883,-0.091552734375,-0.030517578125,-0.18310546875
1.4074999000000001,0.20111294090747833,-0.030526071786880493,9.743204116821289,0.091552734375,-0.091552734375,-0.18310546875
1.4124999,0.1951274424791336,-0.025737667456269264,9.743802070617676,0,-0.091552734375,-0.152587890625
1.4174999000000001,0.1933317929506302,-0.02274491637945175,9.742605209350586,-0.091552734375,-0.030517578125,-0.091552734375
1.4224999,0.19632454216480255,-0.023942016065120697,9.739013671875,-0.091552734375,0.06103515625,-0.18310546875
1.4274999000000002,0.20111294090747833,-0.026336219161748886,9.739612579345703,-0.091552734375,0.06103515625,-0.18310546875
1.4324999,0.2082955539226532,-0.02992752194404602,9.737217903137207,-0.1220703125,-0.06103515625,-0.274658203125
1.4374999000000002,0.2148796021938324,-0.03172317147254944,9.740809440612793,-0.030517578125,0.152587890625,-0.152587890625
1.4424999,0.2190694510936737,-0.03232172131538391,9.742006301879883,0.030517578125,0.091552734375,-0.274658203125
1.4474999000000002,0.21847090125083923,-0.03232172131538391,9.743204116821289,-0.06103515625,-0.091552734375,-0.18310546875
1.4524999,0.21667525172233582,-0.031124621629714966,9.744999885559082,0,-0.091552734375,-0.1220703125
1.4574999000000002,0.2124854028224945,-0.025737667456269264,9.743802070617676,-0.030517578125,-0.06103515625,-0.244140625
1.4624999,0.20769700407981873,-0.02454056777060032,9.743802070617676,0,-0.06103515625,-0.091552734375
1.4674999000000002,0.20530278980731964,-0.021547814831137657,9.742605209350586,-0.06103515625,0.06103515625,-0.18310546875
1.4724999,0.20530278980731964,-0.020949264988303185,9.742006301879883,-0.18310546875,0.030517578125,-0.244140625
1.4774999000000002,0.20530278980731964,-0.023343466222286224,9.743802070617676,-0.06103515625,0.030517578125,-0.274658203125
1.4824999,0.20530278980731964,-0.023343466222286224,9.743802070617676,-0.06103515625,0.030517578125,-0.274658203125
1.4874999000000002,0.20470423996448517,-0.02274491637945175,9.744999885559082,0,0.091552734375,-0.091552734375
1.4924999,0.20470423996448517,-0.023343466222286224,9.749189376831055,0,0.030517578125,-0.030517578125
1.4974999000000002,0.20470423996448517,-0.02513911761343479,9.752182006835938,-0.091552734375,0.06103515625,-0.152587890625
1.5024999,0.2082955539226532,-0.023343466222286224,9.75637149810791,-0.06103515625,-0.06103515625,-0.152587890625
1.5074999000000002,0.2082955539226532,-0.025737667456269264,9.758167266845703,0,-0.152587890625,-0.06103515625
1.5124999000000001,0.20949265360832214,-0.023343466222286224,9.761159896850586,-0.06103515625,-0.030517578125,-0.1220703125
1.5174999000000002,0.2082955539226532,-0.02454056777060032,9.7605619430542,-0.1220703125,-0.06103515625,-0.1220703125
1.5224999000000001,0.20769700407981873,-0.02214636653661728,9.75936508178711,-0.152587890625,0.030517578125,-0.213623046875
1.5274999000000002,0.20769700407981873,-0.01975216343998909,9.754576683044434,-0.091552734375,0.030517578125,-0.335693359375
1.5324999000000001,0.20769700407981873,-0.02214636653661728,9.749788284301758,0.030517578125,-0.06103515625,-0.18310546875
1.5374999000000003,0.2059013396501541,-0.020949264988303185,9.746794700622559,0.030517578125,-0.06103515625,-0.06103515625
1.5424999000000001,0.20350714027881622,-0.02274491637945175,9.743204116821289,-0.091552734375,-0.06103515625,-0.152587890625
1.5474999,0.20111294090747833,-0.02274491637945175,9.740809440612793,-0.1220703125,-0.06103515625,-0.1220703125
1.5524999000000002,0.20111294090747833,-0.020350715145468712,9.740211486816406,-0.030517578125,-0.091552734375,-0.152587890625
1.5574999,0.1999158412218094,-0.01975216343998909,9.737217903137207,-0.06103515625,0.030517578125,-0.274658203125
1.5624999000000002,0.19812019169330597,-0.016160860657691956,9.740211486816406,-0.152587890625,0.18310546875,-0.274658203125
1.5674999,0.19812019169330597,-0.015562310814857483,9.742006301879883,-0.213623046875,0.06103515625,-0.244140625
1.5724999000000002,0.1951274424791336,-0.016160860657691956,9.747393608093262,-0.1220703125,0.091552734375,-0.06103515625
1.5774999,0.19871874153614044,-0.017956512048840523,9.750985145568848,0.091552734375,0.152587890625,-0.030517578125
1.5824999000000002,0.1999158412218094,-0.020949264988303185,9.753378868103027,0.06103515625,-0.06103515625,-0.1220703125
1.5874999,0.20470423996448517,-0.02454056777060032,9.75637149810791,-0.030517578125,0.06103515625,-0.18310546875
1.5924999000000002,0.20709845423698425,-0.025737667456269264,9.755773544311523,0.06103515625,-0.030517578125,-0.152587890625
1.5974999,0.2106897532939911,-0.025737667456269264,9.754576683044434,-0.1220703125,-0.1220703125,-0.1220703125
1.6024999000000002,0.21188685297966003,-0.026336219161748886,9.750386238098145,-0.06103515625,-0.030517578125,-0.152587890625
1.6074999,0.21128830313682556,-0.02513911761343479,9.743204116821289,-0.06103515625,-0.091552734375,-0.213623046875
1.6124999000000002,0.21009120345115662,-0.025737667456269264,9.739013671875,-0.244140625,-0.06103515625,-0.244140625
1.6174999,0.20889410376548767,-0.02693476900458336,9.734225273132324,-0.06103515625,0.030517578125,-0.091552734375
1.6224999000000002,0.20889410376548767,-0.02693476900458336,9.736021041870117,-0.091552734375,0.06103515625,-0.152587890625
1.6274999,0.2082955539226532,-0.0293289702385664,9.740211486816406,-0.030517578125,0.030517578125,-0.152587890625
1.6324999000000002,0.2059013396501541,-0.0293289702385664,9.746794700622559,-0.030517578125,-0.030517578125,-0.152587890625
1.6374999000000001,0.2064998894929886,-0.02992752194404602,9.75397777557373,0,0.091552734375,-0.152587890625
1.6424999000000002,0.20470423996448517,-0.028131870552897453,9.755773544311523,-0.152587890625,0.06103515625,-0.152587890625
1.6474999000000001,0.20530278980731964,-0.028131870552897453,9.758167266845703,-0.152587890625,0.152587890625,-0.18310546875
1.6524999000000002,0.2041056901216507,-0.026336219161748886,9.755773544311523,-0.091552734375,0,-0.091552734375
1.6574999000000001,0.20111294090747833,-0.02693476900458336,9.75278091430664,-0.213623046875,-0.091552734375,-0.152587890625
1.6624999000000003,0.19692309200763702,-0.02693476900458336,9.749189376831055,-0.152587890625,-0.152587890625,-0.091552734375
1.6674999000000001,0.19632454216480255,-0.028131870552897453,9.744400978088379,-0.06103515625,-0.1220703125,-0.213623046875
1.6724999,0.19572599232196808,-0.02992752194404602,9.741408348083496,0.030517578125,0,-0.244140625
1.6774999000000002,0.19812019169330597,-0.02992752194404602,9.73781681060791,-0.030517578125,0,-0.213623046875
1.6824999,0.2017114907503128,-0.031124621629714966,9.737217903137207,-0.091552734375,0,-0.152587890625
1.6874999000000002,0.1999158412218094,-0.031124621629714966,9.73781681060791,0.1220703125,-0.091552734375,-0.1220703125
1.6924999,0.20231004059314728,-0.0293289702385664,9.740809440612793,-0.152587890625,0.030517578125,-0.244140625
1.6974999000000002,0.2017114907503128,-0.03232172131538391,9.746794700622559,-0.274658203125,0.091552734375,-0.18310546875
1.7024999,0.20470423996448517,-0.0293289702385664,9.75397777557373,-0.1220703125,0,-0.1220703125
1.7074999000000002,0.20709845423698425,-0.02992752194404602,9.758766174316406,-0.091552734375,-0.06103515625,-0.152587890625
1.7124999,0.20769700407981873,-0.02753331884741783,9.764153480529785,-0.030517578125,-0.06103515625,-0.152587890625
1.7174999000000002,0.2059013396501541,-0.02454056777060032,9.761159896850586,0.06103515625,-0.152587890625,-0.06103515625
1.7224999,0.20350714027881622,-0.02214636653661728,9.762357711791992,0,0,-0.1220703125
1.7274999000000002,0.19931729137897491,-0.02214636653661728,9.757569313049316,-0.152587890625,-0.030517578125,-0.213623046875
1.7324999,0.20290859043598175,-0.021547814831137657,9.75637149810791,-0.091552734375,0.030517578125,-0.030517578125
1.7374999000000002,0.2041056901216507,-0.023343466222286224,9.75397777557373,0.030517578125,0.030517578125,0.06103515625
1.7424999,0.2106897532939911,-0.023343466222286224,9.75278091430664,0.030517578125,-0.030517578125,-0.1220703125
1.7474999000000002,0.21547815203666687,-0.023343466222286224,9.75278091430664,0,0.030517578125,-0.152587890625
1.7524999,0.21787235140800476,-0.02214636653661728,9.752182006835938,-0.091552734375,0.06103515625,-0.30517578125
1.7574999000000002,0.21667525172233582,-0.02214636653661728,9.753378868103027,-0.06103515625,0.091552734375,-0.213623046875
1.7624999000000001,0.2148796021938324,-0.023343466222286224,9.753378868103027,-0.030517578125,-0.030517578125,-0.18310546875
1.7674999000000002,0.20949265360832214,-0.02454056777060032,9.75397777557373,0,0.06103515625,-0.1220703125
1.7724999000000001,0.20470423996448517,-0.028131870552897453,9.754576683044434,-0.1220703125,0.18310546875,-0.213623046875
1.7774999000000002,0.20111294090747833,-0.0293289702385664,9.75397777557373,-0.06103515625,-0.06103515625,-0.1220703125
1.7824999000000001,0.19812019169330597,-0.03172317147254944,9.753378868103027,-0.1220703125,-0.06103515625,0
1.7874999000000003,0.19812019169330597,-0.030526071786880493,9.750386238098145,0.091552734375,0,-0.091552734375
1.7924999000000001,0.1999158412218094,-0.031124621629714966,9.745597839355469,0,-0.030517578125,-0.18310546875
1.7974999,0.20051439106464386,-0.02992752194404602,9.740809440612793,-0.030517578125,-0.152587890625,-0.244140625
1.8024999000000002,0.20290859043598175,-0.02753331884741783,9.740809440612793,0,-0.152587890625,-0.18310546875
1.8074999,0.2041056901216507,-0.025737667456269264,9.742605209350586,0.06103515625,0,-0.274658203125
1.8124999000000002,0.2041056901216507,-0.023343466222286224,9.746794700622559,0.030517578125,-0.091552734375,-0.213623046875
1.8174999,0.20470423996448517,-0.021547814831137657,9.749189376831055,-0.213623046875,-0.06103515625,-0.152587890625
1.8224999000000002,0.20231004059314728,-0.02274491637945175,9.750386238098145,-0.213623046875,-0.06103515625,-0.091552734375
1.8274999,0.20051439106464386,-0.02513911761343479,9.749788284301758,-0.1220703125,0.18310546875,-0.18310546875
1.8324999000000002,0.20051439106464386,-0.02513911761343479,9.750386238098145,-0.1220703125,0.244140625,-0.18310546875
1.8374999,0.20111294090747833,-0.02693476900458336,9.750386238098145,-0.06103515625,0.030517578125,-0.06103515625
1.8424999000000002,0.2041056901216507,-0.02693476900458336,9.750386238098145,-0.1220703125,0,-0.091552734375
1.8474999,0.2041056901216507,-0.02693476900458336,9.750386238098145,-0.1220703125,0,-0.091552734375
1.8524999000000002,0.2082955539226532,-0.026336219161748886,9.747393608093262,-0.091552734375,0.152587890625,-0.274658203125
1.8574999,0.21308395266532898,-0.02693476900458336,9.743802070617676,-0.06103515625,-0.152587890625,-0.18310546875
1.8624999000000002,0.21547815203666687,-0.028131870552897453,9.738415718078613,0,0.06103515625,-0.091552734375
1.8674999,0.2172738015651703,-0.02992752194404602,9.73781681060791,-0.18310546875,0,-0.06103515625
1.8724999000000002,0.2172738015651703,-0.0347159244120121,9.737217903137207,-0.18310546875,-0.030517578125,-0.244140625
1.8774999,0.21428105235099792,-0.0347159244120121,9.743204116821289,0,-0.091552734375,-0.152587890625
1.8824999000000002,0.21128830313682556,-0.03531447425484657,9.746794700622559,-0.091552734375,-0.1220703125,-0.091552734375
1.8874999000000001,0.20709845423698425,-0.03411737456917763,9.750985145568848,-0.152587890625,0.06103515625,-0.152587890625
1.8924999000000002,0.2017114907503128,-0.028730420395731926,9.751583099365234,-0.06103515625,0.030517578125,-0.152587890625
1.8974999000000001,0.19931729137897491,-0.02753331884741783,9.752182006835938,0,-0.030517578125,-0.1220703125
1.9024999000000002,0.1951274424791336,-0.023343466222286224,9.75278091430664,-0.06103515625,0.030517578125,-0.18310546875
1.9074999000000001,0.19393034279346466,-0.01975216343998909,9.750386238098145,-0.091552734375,0.06103515625,-0.213623046875
1.9124999000000003,0.19273324310779572,-0.020350715145468712,9.750386238098145,-0.06103515625,0.1220703125,-0.18310546875
1.9174999000000001,0.19213469326496124,-0.017956512048840523,9.749189376831055,0,0.06103515625,-0.213623046875
1.9224999,0.19452889263629913,-0.01735796220600605,9.745597839355469,0,-0.091552734375,-0.244140625
1.9274999000000002,0.19871874153614044,-0.016160860657691956,9.744400978088379,-0.1220703125,0,-0.030517578125
1.9324999,0.20350714027881622,-0.01496376097202301,9.740211486816406,-0.030517578125,-0.091552734375,-0.1220703125
1.9374999000000002,0.20889410376548767,-0.016160860657691956,9.740809440612793,-0.030517578125,0.030517578125,-0.091552734375
1.9424999,0.21368250250816345,-0.019153613597154617,9.742006301879883,0.030517578125,-0.030517578125,-0.06103515625
1.9474999000000002,0.21368250250816345,-0.023942016065120697,9.747393608093262,-0.030517578125,-0.06103515625,-0.091552734375
1.9524999,0.21547815203666687,-0.028131870552897453,9.748590469360352,-0.030517578125,0,-0.030517578125
1.9574999000000002,0.21428105235099792,-0.03232172131538391,9.75278091430664,-0.152587890625,-0.030517578125,-0.091552734375
1.9624999,0.21547815203666687,-0.031124621629714966,9.750386238098145,-0.06103515625,-0.091552734375,-0.335693359375
1.9674999000000002,0.21368250250816345,-0.02992752194404602,9.751583099365234,-0.030517578125,0.030517578125,-0.244140625
1.9724999,0.2124854028224945,-0.02693476900458336,9.750386238098145,0.1220703125,0.030517578125,-0.091552734375
1.9774999000000002,0.2106897532939911,-0.02274491637945175,9.746794700622559,0,-0.030517578125,-0.213623046875
1.9824999,0.2106897532939911,-0.01975216343998909,9.747992515563965,-0.1220703125,0.06103515625,-0.244140625
1.9874999000000002,0.2148796021938324,-0.019153613597154617,9.743204116821289,-0.1220703125,-0.06103515625,-0.1220703125
1.9924999,0.2190694510936737,-0.01735796220600605,9.744400978088379,-0.1220703125,-0.1220703125,-0.1220703125
1.9974999000000002,0.2214636504650116,-0.018555063754320145,9.743802070617676,0.030517578125,0,-0.1220703125
2.0024999,0.22744916379451752,-0.018555063754320145,9.748590469360352,-0.06103515625,0.030517578125,-0.30517578125
2.0074999,0.22685061395168304,-0.016759412363171577,9.750386238098145,-0.152587890625,-0.06103515625,-0.274658203125
2.0124999000000003,0.22625206410884857,-0.016759412363171577,9.753378868103027,-0.1220703125,0,-0.213623046875
2.0174999000000002,0.22385786473751068,-0.01735796220600605,9.753378868103027,0,-0.091552734375,-0.1220703125
2.0224999,0.2172738015651703,-0.020949264988303185,9.751583099365234,-0.06103515625,-0.030517578125,-0.030517578125
2.0274999,0.2124854028224945,-0.02693476900458336,9.748590469360352,-0.1220703125,-0.091552734375,-0.152587890625
2.0324999000000004,0.20889410376548767,-0.03292027488350868,9.747992515563965,-0.1220703125,-0.1220703125,-0.06103515625
2.0374999000000003,0.20889410376548767,-0.03531447425484657,9.745597839355469,0,-0.06103515625,-0.152587890625
2.0424999,0.20889410376548767,-0.03890577703714371,9.744999885559082,0.030517578125,0.091552734375,-0.152587890625
2.0474999,0.2124854028224945,-0.03411737456917763,9.743802070617676,0.06103515625,-0.091552734375,-0.213623046875
2.0524999,0.21667525172233582,-0.03232172131538391,9.741408348083496,-0.06103515625,0.06103515625,-0.3662109375
2.0574999000000003,0.2190694510936737,-0.031124621629714966,9.740211486816406,0.030517578125,0.213623046875,-0.274658203125
2.0624999,0.22026655077934265,-0.028730420395731926,9.739612579345703,-0.06103515625,0.030517578125,-0.091552734375
2.0674999,0.21847090125083923,-0.03232172131538391,9.737217903137207,-0.244140625,-0.030517578125,-0.213623046875
2.0724999,0.2148796021938324,-0.03172317147254944,9.73781681060791,-0.30517578125,-0.030517578125,-0.30517578125
2.0774999000000003,0.21009120345115662,-0.033518824726343155,9.737217903137207,0,-0.030517578125,-0.091552734375
2.0824999,0.20530278980731964,-0.0293289702385664,9.740211486816406,-0.030517578125,0,-0.06103515625
2.0874999,0.20530278980731964,-0.028131870552897453,9.744999885559082,-0.06103515625,-0.1220703125,-0.18310546875
2.0924999,0.2059013396501541,-0.025737667456269264,9.748590469360352,-0.06103515625,0,-0.1220703125
2.0974999000000003,0.21009120345115662,-0.02454056777060032,9.750386238098145,-0.091552734375,0.06103515625,-0.335693359375
2.1024999,0.21368250250816345,-0.02513911761343479,9.749189376831055,-0.030517578125,-0.06103515625,-0.213623046875
2.1074999,0.2172738015651703,-0.025737667456269264,9.747992515563965,-0.152587890625,-0.030517578125,-0.091552734375
2.1124999,0.21787235140800476,-0.02454056777060032,9.748590469360352,-0.213623046875,0.1220703125,-0.244140625
2.1174999000000003,0.2190694510936737,-0.023343466222286224,9.749788284301758,-0.030517578125,-0.06103515625,-0.1220703125
2.1224999,0.2190694510936737,-0.020949264988303185,9.751583099365234,0.030517578125,0,-0.06103515625
2.1274999,0.21607670187950134,-0.01975216343998909,9.749788284301758,0.030517578125,0,-0.274658203125
2.1324999,0.2148796021938324,-0.01975216343998909,9.749788284301758,0.030517578125,-0.030517578125,-0.152587890625
2.1374999000000003,0.21128830313682556,-0.01975216343998909,9.745597839355469,-0.152587890625,0,-0.030517578125
2.1424999000000002,0.20709845423698425,-0.02274491637945175,9.747992515563965,0.06103515625,-0.06103515625,-0.1220703125
2.1474999,0.2059013396501541,-0.023942016065120697,9.747992515563965,-0.030517578125,0.030517578125,-0.30517578125
2.1524999,0.20290859043598175,-0.028730420395731926,9.746196746826172,-0.152587890625,0.091552734375,-0.213623046875
2.1574999000000004,0.20350714027881622,-0.02992752194404602,9.748590469360352,-0.06103515625,0.091552734375,-0.1220703125
2.1624999000000003,0.2017114907503128,-0.03292027488350868,9.746196746826172,0,0.06103515625,-0.152587890625
2.1674999,0.20051439106464386,-0.03172317147254944,9.750386238098145,-0.06103515625,0.030517578125,-0.18310546875
2.1724999,0.19632454216480255,-0.03172317147254944,9.751583099365234,-0.06103515625,-0.030517578125,-0.152587890625
2.1774999000000004,0.19812019169330597,-0.02992752194404602,9.752182006835938,-0.091552734375,0.030517578125,-0.18310546875
2.1824999000000003,0.20051439106464386,-0.028730420395731926,9.753378868103027,-0.1220703125,0.091552734375,-0.274658203125
2.1874999,0.20470423996448517,-0.02753331884741783,9.752182006835938,-0.06103515625,0,-0.274658203125
2.1924999,0.2082955539226532,-0.02693476900458336,9.751583099365234,0.1220703125,0.06103515625,-0.091552734375
2.1974999,0.20949265360832214,-0.023942016065120697,9.750985145568848,-0.06103515625,-0.091552734375,-0.06103515625
2.2024999000000003,0.21009120345115662,-0.020949264988303185,9.750386238098145,-0.18310546875,-0.030517578125,-0.213623046875
2.2074999,0.21128830313682556,-0.020949264988303185,9.749189376831055,-0.030517578125,0,-0.1220703125
2.2124999,0.21128830313682556,-0.020949264988303185,9.749189376831055,-0.030517578125,0,-0.1220703125
2.2174999,0.21188685297966003,-0.018555063754320145,9.750386238098145,-0.091552734375,0.030517578125,-0.213623046875
2.2224999000000003,0.2106897532939911,-0.018555063754320145,9.752182006835938,-0.1220703125,-0.030517578125,-0.18310546875
2.2274999,0.2106897532939911,-0.020350715145468712,9.749189376831055,0.06103515625,-0.06103515625,-0.1220703125
2.2324999,0.20769700407981873,-0.020350715145468712,9.748590469360352,0.030517578125,0.030517578125,-0.1220703125
2.2374999,0.20709845423698425,-0.02454056777060032,9.744400978088379,-0.091552734375,-0.091552734375,0
2.2424999000000003,0.2082955539226532,-0.028131870552897453,9.740211486816406,-0.1220703125,-0.244140625,-0.152587890625
2.2474999,0.20769700407981873,-0.0293289702385664,9.73661994934082,-0.091552734375,0,-0.18310546875
2.2524999,0.20949265360832214,-0.031124621629714966,9.733028411865234,0,0,-0.1220703125
2.2574999,0.20530278980731964,-0.028730420395731926,9.731831550598145,0.030517578125,-0.1220703125,-0.244140625
2.2624999000000003,0.20350714027881622,-0.028730420395731926,9.730035781860352,-0.030517578125,-0.091552734375,-0.18310546875
2.2674999000000002,0.2041056901216507,-0.028730420395731926,9.731232643127441,0.06103515625,0.030517578125,-0.152587890625
2.2724999,0.2041056901216507,-0.02513911761343479,9.734225273132324,-0.030517578125,0.030517578125,-0.18310546875
2.2774999,0.20709845423698425,-0.025737667456269264,9.73781681060791,-0.1220703125,-0.06103515625,-0.18310546875
2.2824999000000004,0.21009120345115662,-0.018555063754320145,9.742006301879883,0.06103515625,0.1220703125,0.030517578125
2.2874999000000003,0.21009120345115662,-0.017956512048840523,9.749788284301758,-0.1220703125,0.030517578125,0.030517578125
2.2924999,0.21128830313682556,-0.016160860657691956,9.754576683044434,0,0.091552734375,-0.213623046875
2.2974999,0.21368250250816345,-0.016160860657691956,9.758766174316406,-0.030517578125,0.06103515625,-0.18310546875
2.3024999000000004,0.2148796021938324,-0.018555063754320145,9.758766174316406,0.091552734375,0.030517578125,-0.091552734375
2.3074999000000003,0.21667525172233582,-0.020350715145468712,9.75397777557373,0,-0.091552734375,-0.030517578125
2.3124999,0.21428105235099792,-0.02214636653661728,9.749788284301758,0.030517578125,0,-0.030517578125
2.3174999,0.21188685297966003,-0.023343466222286224,9.743802070617676,-0.030517578125,-0.06103515625,-0.152587890625
2.3224999,0.2082955539226532,-0.023343466222286224,9.742006301879883,-0.06103515625,-0.1220703125,-0.274658203125
2.3274999000000003,0.20889410376548767,-0.023942016065120697,9.739612579345703,0,-0.030517578125,-0.274658203125
2.3324999,0.20769700407981873,-0.01975216343998909,9.739612579345703,0,0,-0.091552734375
2.3374999,0.2059013396501541,-0.01735796220600605,9.742006301879883,0,0.06103515625,-0.030517578125
2.3424999,0.20290859043598175,-0.013168109580874443,9.743802070617676,-0.030517578125,-0.030517578125,-0.244140625
2.3474999000000003,0.1975216418504715,-0.012569558806717396,9.747992515563965,-0.06103515625,-0.18310546875,-0.1220703125
2.3524999,0.19692309200763702,-0.014365210197865963,9.752182006835938,-0.091552734375,-0.030517578125,-0.1220703125
2.3574999,0.19871874153614044,-0.017956512048840523,9.754576683044434,0.091552734375,0.1220703125,-0.091552734375
2.3624999,0.20350714027881622,-0.021547814831137657,9.753378868103027,-0.030517578125,0.091552734375,-0.152587890625
2.3674999000000003,0.20769700407981873,-0.023343466222286224,9.753378868103027,-0.1220703125,0.091552734375,-0.244140625
2.3724999,0.21368250250816345,-0.023343466222286224,9.747393608093262,-0.1220703125,0.030517578125,-0.18310546875
2.3774999,0.21547815203666687,-0.021547814831137657,9.743204116821289,-0.18310546875,0.06103515625,-0.18310546875
2.3824999,0.2190694510936737,-0.021547814831137657,9.739013671875,-0.06103515625,0.030517578125,-0.030517578125
2.3874999000000003,0.21667525172233582,-0.018555063754320145,9.733028411865234,0,-0.030517578125,0.030517578125
2.3924999000000002,0.2148796021938324,-0.01735796220600605,9.730035781860352,0.030517578125,-0.06103515625,-0.152587890625
2.3974999,0.21128830313682556,-0.01496376097202301,9.731232643127441,-0.06103515625,0,-0.213623046875
2.4024999,0.20769700407981873,-0.010773907415568829,9.731232643127441,-0.06103515625,-0.030517578125,-0.244140625
2.4074999000000004,0.2041056901216507,-0.010175357572734356,9.73661994934082,0.06103515625,-0.06103515625,-0.1220703125
2.4124999000000003,0.20470423996448517,-0.011372458189725876,9.741408348083496,0.06103515625,-0.091552734375,-0.06103515625
2.4174999,0.20290859043598175,-0.013766659423708916,9.745597839355469,-0.091552734375,0,-0.06103515625
2.4224999,0.2064998894929886,-0.01975216343998909,9.747992515563965,0,-0.030517578125,-0.06103515625
2.4274999000000004,0.20889410376548767,-0.021547814831137657,9.747393608093262,0,0.030517578125,-0.18310546875
2.4324999000000003,0.21308395266532898,-0.02454056777060032,9.747992515563965,-0.152587890625,0.030517578125,-0.244140625
2.4374999,0.21308395266532898,-0.025737667456269264,9.743204116821289,-0.030517578125,-0.1220703125,-0.152587890625
2.4424999,0.21308395266532898,-0.02274491637945175,9.743802070617676,-0.06103515625,-0.091552734375,-0.244140625
2.4474999,0.21128830313682556,-0.023343466222286224,9.742006301879883,-0.06103515625,-0.091552734375,-0.152587890625
2.4524999000000003,0.2106897532939911,-0.021547814831137657,9.742605209350586,-0.1220703125,0.1220703125,-0.244140625
2.4574999,0.2082955539226532,-0.023343466222286224,9.743802070617676,0.1220703125,-0.1220703125,-0.274658203125
2.4624999,0.20769700407981873,-0.02693476900458336,9.747393608093262,0,0,-0.18310546875
2.4674999,0.2041056901216507,-0.028131870552897453,9.747393608093262,-0.030517578125,-0.030517578125,-0.1220703125
2.4724999000000003,0.20111294090747833,-0.030526071786880493,9.75278091430664,-0.06103515625,-0.06103515625,-0.18310546875
2.4774999,0.19812019169330597,-0.0293289702385664,9.753378868103027,-0.06103515625,-0.091552734375,-0.06103515625
2.4824999,0.19632454216480255,-0.02513911761343479,9.757569313049316,-0.18310546875,0.091552734375,-0.1220703125
2.4874999,0.19632454216480255,-0.02274491637945175,9.754576683044434,-0.091552734375,0.06103515625,-0.1220703125
2.4924999000000003,0.19931729137897491,-0.020949264988303185,9.75517463684082,0.091552734375,-0.152587890625,-0.030517578125
2.4974999,0.20111294090747833,-0.020350715145468712,9.749189376831055,0.030517578125,-0.06103515625,-0.06103515625
2.5024999,0.20290859043598175,-0.020949264988303185,9.748590469360352,-0.1220703125,0.06103515625,-0.213623046875
2.5074999,0.20290859043598175,-0.02214636653661728,9.742605209350586,0.030517578125,-0.030517578125,-0.152587890625
2.5124999000000003,0.20470423996448517,-0.02274491637945175,9.742605209350586,0.091552734375,-0.06103515625,-0.030517578125
2.5174999000000002,0.2082955539226532,-0.02274491637945175,9.740809440612793,-0.152587890625,-0.06103515625,0.030517578125
2.5224999,0.2106897532939911,-0.02274491637945175,9.742006301879883,-0.1220703125,0,-0.1220703125
2.5274999,0.21368250250816345,-0.02274491637945175,9.744400978088379,0.1220703125,0.06103515625,-0.213623046875
2.5324999000000004,0.21128830313682556,-0.020949264988303185,9.747992515563965,-0.030517578125,0.06103515625,-0.1220703125
2.5374999000000003,0.20889410376548767,-0.019153613597154617,9.747992515563965,-0.091552734375,0.030517578125,-0.152587890625
2.5424999,0.2041056901216507,-0.018555063754320145,9.75278091430664,-0.06103515625,-0.152587890625,-0.1220703125
2.5474999,0.1999158412218094,-0.01735796220600605,9.75517463684082,-0.030517578125,-0.091552734375,-0.06103515625
2.5524999000000004,0.19692309200763702,-0.017956512048840523,9.755773544311523,-0.18310546875,-0.06103515625,-0.06103515625
2.5574999000000003,0.19632454216480255,-0.016759412363171577,9.755773544311523,-0.091552734375,0,-0.1220703125
2.5624999,0.19632454216480255,-0.015562310814857483,9.752182006835938,-0.06103515625,0.1220703125,-0.091552734375
2.5674999,0.20051439106464386,-0.01735796220600605,9.747992515563965,-0.030517578125,-0.030517578125,-0.18310546875
2.5724999,0.20350714027881622,-0.016759412363171577,9.744400978088379,0.030517578125,0,-0.213623046875
2.5774999000000003,0.20350714027881622,-0.016759412363171577,9.744400978088379,0.030517578125,0,-0.213623046875
2.5824999,0.20709845423698425,-0.018555063754320145,9.744999885559082,0,-0.091552734375,-0.152587890625
2.5874999,0.20709845423698425,-0.021547814831137657,9.746794700622559,-0.1220703125,-0.030517578125,-0.1220703125
2.5924999,0.2064998894929886,-0.023942016065120697,9.750386238098145,-0.030517578125,0.091552734375,-0.030517578125
2.5974999000000003,0.20350714027881622,-0.02693476900458336,9.75397777557373,0.06103515625,0.06103515625,-0.152587890625
2.6024999,0.2017114907503128,-0.028730420395731926,9.752182006835938,0,0.030517578125,-0.152587890625
2.6074999,0.1999158412218094,-0.03172317147254944,9.752182006835938,-0.030517578125,0,-0.152587890625
2.6124999,0.19871874153614044,-0.02992752194404602,9.750386238098145,0,-0.091552734375,-0.18310546875
2.6174999000000003,0.19812019169330597,-0.0293289702385664,9.751583099365234,-0.091552734375,-0.18310546875,-0.152587890625
2.6224999,0.1999158412218094,-0.02753331884741783,9.751583099365234,0,0,-0.18310546875
2.6274999,0.2017114907503128,-0.02214636653661728,9.748590469360352,-0.030517578125,0.06103515625,-0.06103515625
2.6324999,0.2041056901216507,-0.01975216343998909,9.743204116821289,0.030517578125,0,-0.030517578125
2.6374999000000003,0.20530278980731964,-0.016759412363171577,9.738415718078613,-0.18310546875,-0.152587890625,-0.152587890625
2.6424999000000002,0.20530278980731964,-0.016160860657691956,9.733028411865234,-0.213623046875,-0.030517578125,-0.152587890625
2.6474999,0.20470423996448517,-0.01496376097202301,9.734225273132324,-0.152587890625,-0.091552734375,-0.091552734375
2.6524999,0.20470423996448517,-0.015562310814857483,9.73661994934082,-0.030517578125,0,-0.213623046875
2.6574999000000004,0.2064998894929886,-0.016759412363171577,9.743204116821289,-0.06103515625,-0.06103515625,-0.213623046875
2.6624999000000003,0.20949265360832214,-0.016160860657691956,9.750386238098145,-0.030517578125,-0.1220703125,-0.152587890625
2.6674999,0.21009120345115662,-0.020350715145468712,9.756970405578613,-0.091552734375,-0.030517578125,-0.213623046875
2.6724999,0.21128830313682556,-0.01975216343998909,9.758766174316406,-0.152587890625,0,-0.244140625
2.6774999000000004,0.20709845423698425,-0.02513911761343479,9.757569313049316,0.091552734375,-0.030517578125,-0.18310546875
2.6824999000000003,0.2059013396501541,-0.025737667456269264,9.753378868103027,0.030517578125,-0.030517578125,-0.091552734375
2.6874999,0.20231004059314728,-0.02693476900458336,9.747992515563965,-0.213623046875,0.030517578125,-0.152587890625
2.6924999,0.20111294090747833,-0.02753331884741783,9.743802070617676,-0.06103515625,0.1220703125,-0.1220703125
2.6974999,0.20111294090747833,-0.02513911761343479,9.740809440612793,0.06103515625,-0.06103515625,-0.152587890625
2.7024999000000003,0.1999158412218094,-0.026336219161748886,9.739013671875,0,-0.06103515625,-0.1220703125
2.7074999,0.1999158412218094,-0.02513911761343479,9.739612579345703,-0.030517578125,0.06103515625,-0.18310546875
2.7124999,0.20231004059314728,-0.02753331884741783,9.743802070617676,-0.06103515625,0.091552734375,-0.18310546875
2.7174999,0.20470423996448517,-0.028730420395731926,9.746794700622559,-0.030517578125,0,-0.152587890625
2.7224999000000003,0.20769700407981873,-0.028730420395731926,9.752182006835938,-0.091552734375,-0.06103515625,-0.1220703125
2.7274999,0.20709845423698425,-0.030526071786880493,9.75397777557373,-0.091552734375,-0.030517578125,-0.06103515625
2.7324999,0.20709845423698425,-0.0293289702385664,9.758167266845703,-0.1220703125,-0.06103515625,-0.213623046875
2.7374999,0.20709845423698425,-0.02992752194404602,9.755773544311523,0,0.030517578125,-0.18310546875
2.7424999000000003,0.2082955539226532,-0.030526071786880493,9.755773544311523,-0.06103515625,-0.030517578125,-0.1220703125
2.7474999,0.2106897532939911,-0.028730420395731926,9.750386238098145,-0.1220703125,-0.030517578125,-0.1220703125
2.7524999,0.21308395266532898,-0.028730420395731926,9.748590469360352,-0.030517578125,0.030517578125,-0.06103515625
2.7574999,0.21547815203666687,-0.02513911761343479,9.746196746826172,-0.091552734375,0.091552734375,-0.244140625
2.7624999000000003,0.21428105235099792,-0.02693476900458336,9.747992515563965,-0.030517578125,0.030517578125,-0.152587890625
2.7674999000000002,0.21308395266532898,-0.026336219161748886,9.749788284301758,0,-0.06103515625,-0.091552734375
2.7724999,0.20949265360832214,-0.02753331884741783,9.750985145568848,-0.091552734375,-0.06103515625,-0.06103515625
2.7774999,0.2064998894929886,-0.0293289702385664,9.749189376831055,-0.091552734375,-0.06103515625,-0.091552734375
2.7824999000000004,0.20709845423698425,-0.025737667456269264,9.747992515563965,0,-0.091552734375,-0.030517578125
2.7874999000000003,0.21009120345115662,-0.02513911761343479,9.743802070617676,0.06103515625,-0.06103515625,-0.274658203125
2.7924999,0.21308395266532898,-0.020949264988303185,9.740809440612793,-0.06103515625,-0.06103515625,-0.152587890625
2.7974999,0.21428105235099792,-0.021547814831137657,9.737217903137207,-0.091552734375,0,-0.1220703125
2.8024999000000004,0.2124854028224945,-0.021547814831137657,9.734824180603027,-0.152587890625,-0.030517578125,-0.152587890625
2.8074999000000003,0.2082955539226532,-0.02513911761343479,9.734824180603027,0,0.030517578125,-0.1220703125
2.8124999,0.2017114907503128,-0.02693476900458336,9.73542308807373,0.06103515625,-0.06103515625,-0.091552734375
2.8174999,0.20111294090747833,-0.028131870552897453,9.740809440612793,-0.1220703125,-0.091552734375,-0.152587890625
2.8224999,0.19812019169330597,-0.031124621629714966,9.742605209350586,-0.1220703125,0,-0.152587890625
2.8274999000000003,0.20051439106464386,-0.02992752194404602,9.747393608093262,-0.152587890625,0.030517578125,-0.091552734375
2.8324999,0.20051439106464386,-0.030526071786880493,9.75278091430664,-0.152587890625,-0.06103515625,-0.18310546875
2.8374999,0.20111294090747833,-0.02992752194404602,9.758167266845703,-0.091552734375,0.030517578125,-0.274658203125
2.8424999,0.20290859043598175,-0.028730420395731926,9.759963035583496,-0.091552734375,-0.1220703125,-0.213623046875
2.8474999000000003,0.2059013396501541,-0.02992752194404602,9.7605619430542,0.030517578125,0,-0.213623046875
2.8524999,0.21009120345115662,-0.0293289702385664,9.759963035583496,0.030517578125,-0.030517578125,-0.091552734375
2.8574999,0.21128830313682556,-0.031124621629714966,9.75637149810791,0.091552734375,0.06103515625,-0.1220703125
2.8624999,0.21128830313682556,-0.028131870552897453,9.75637149810791,0.06103515625,0.06103515625,-0.152587890625
2.8674999000000003,0.20769700407981873,-0.028730420395731926,9.755773544311523,-0.030517578125,0,-0.213623046875
2.8724999,0.2064998894929886,-0.02693476900458336,9.75637149810791,-0.18310546875,0.091552734375,-0.213623046875
2.8774999,0.2059013396501541,-0.023942016065120697,9.758766174316406,-0.244140625,0.030517578125,-0.091552734375
2.8824999,0.2059013396501541,-0.02513911761343479,9.759963035583496,-0.1220703125,-0.030517578125,-0.152587890625
2.8874999000000003,0.20769700407981873,-0.02513911761343479,9.7605619430542,-0.1220703125,-0.06103515625,-0.244140625
2.8924999000000002,0.20949265360832214,-0.02513911761343479,9.759963035583496,0,0.030517578125,-0.274658203125
2.8974999,0.20889410376548767,-0.028730420395731926,9.75936508178711,0.06103515625,-0.06103515625,-0.18310546875
2.9024999,0.2082955539226532,-0.02693476900458336,9.758766174316406,-0.06103515625,-0.030517578125,-0.274658203125
2.9074999000000004,0.20530278980731964,-0.0293289702385664,9.754576683044434,0.06103515625,0,-0.091552734375
2.9124999000000003,0.2059013396501541,-0.02992752194404602,9.752182006835938,0.06103515625,-0.091552734375,-0.030517578125
2.9174999,0.2041056901216507,-0.033518824726343155,9.747992515563965,-0.091552734375,-0.152587890625,-0.18310546875
2.9224999,0.2064998894929886,-0.033518824726343155,9.748590469360352,-0.152587890625,0.06103515625,-0.152587890625
2.9274999000000004,0.20709845423698425,-0.03411737456917763,9.749189376831055,-0.1220703125,-0.06103515625,-0.18310546875
2.9324999000000003,0.2106897532939911,-0.03292027488350868,9.750985145568848,-0.06103515625,0,-0.274658203125
2.9374999,0.21009120345115662,-0.02992752194404602,9.753378868103027,0,0,-0.06103515625
2.9424999,0.21009120345115662,-0.02992752194404602,9.753378868103027,0,0,-0.06103515625
2.9474999,0.21128830313682556,-0.02693476900458336,9.750386238098145,0.030517578125,0.091552734375,-0.06103515625
2.9524999000000003,0.2106897532939911,-0.02214636653661728,9.752182006835938,0,0.030517578125,0
2.9574999,0.21009120345115662,-0.01735796220600605,9.749788284301758,-0.030517578125,0,-0.030517578125
2.9624999,0.21128830313682556,-0.01496376097202301,9.750985145568848,0.030517578125,0.030517578125,-0.030517578125
2.9674999,0.20949265360832214,-0.016759412363171577,9.752182006835938,-0.152587890625,-0.030517578125,-0.1220703125
2.9724999000000003,0.2064998894929886,-0.019153613597154617,9.75397777557373,-0.091552734375,-0.1220703125,-0.152587890625
2.9774999,0.20231004059314728,-0.023343466222286224,9.754576683044434,0.030517578125,-0.030517578125,-0.06103515625
2.9824999,0.19931729137897491,-0.023942016065120697,9.75637149810791,0,-0.030517578125,-0.18310546875
2.9874999,0.19931729137897491,-0.023343466222286224,9.75517463684082,-0.06103515625,-0.06103515625,-0.152587890625
2.9924999000000003,0.20290859043598175,-0.02274491637945175,9.754576683044434,-0.18310546875,-0.152587890625,-0.18310546875
2.9974999,0.20769700407981873,-0.018555063754320145,9.751583099365234,-0.244140625,0,-0.274658203125
3.0024999,0.21188685297966003,-0.016759412363171577,9.749189376831055,0,-0.06103515625,-0.18310546875
3.0074999,0.21368250250816345,-0.016160860657691956,9.748590469360352,-0.152587890625,-0.18310546875,-0.091552734375
3.0124999000000003,0.2106897532939911,-0.014365210197865963,9.746196746826172,-0.030517578125,-0.091552734375,-0.30517578125
3.0174999000000002,0.20530278980731964,-0.017956512048840523,9.746196746826172,0.030517578125,0.030517578125,-0.213623046875
3.0224999,0.20111294090747833,-0.01975216343998909,9.747992515563965,-0.1220703125,0.091552734375,-0.244140625
3.0274999,0.19632454216480255,-0.02214636653661728,9.751583099365234,0.030517578125,-0.030517578125,-0.18310546875
3.0324999000000004,0.19692309200763702,-0.02693476900458336,9.754576683044434,0.06103515625,-0.091552734375,-0.244140625
3.0374999000000003,0.19692309200763702,-0.028730420395731926,9.758167266845703,0,0.06103515625,-0.091552734375
3.0424999,0.19871874153614044,-0.03172317147254944,9.758766174316406,-0.152587890625,0.06103515625,-0.244140625
3.0474999,0.20350714027881622,-0.02992752194404602,9.756970405578613,-0.18310546875,-0.030517578125,-0.18310546875
3.0524999000000004,0.20709845423698425,-0.02992752194404602,9.756970405578613,-0.1220703125,-0.1220703125,0
3.0574999000000003,0.2106897532939911,-0.02753331884741783,9.755773544311523,-0.030517578125,-0.030517578125,-0.18310546875
3.0624999,0.21308395266532898,-0.02454056777060032,9.754576683044434,0,-0.091552734375,-0.091552734375
3.0674999,0.21308395266532898,-0.023942016065120697,9.751583099365234,0.152587890625,-0.1220703125,-0.1220703125
3.0724999000000004,0.2124854028224945,-0.020949264988303185,9.752182006835938,0.06103515625,0,-0.06103515625
3.0774999000000003,0.20949265360832214,-0.021547814831137657,9.750985145568848,-0.06103515625,-0.152587890625,-0.274658203125
3.0824999,0.2082955539226532,-0.02214636653661728,9.750985145568848,-0.091552734375,0,-0.274658203125
3.0874999,0.20530278980731964,-0.02274491637945175,9.75397777557373,-0.091552734375,0.213623046875,-0.213623046875
3.0924999,0.20290859043598175,-0.023343466222286224,9.751583099365234,-0.1220703125,-0.030517578125,-0.1220703125
3.0974999000000003,0.20350714027881622,-0.025737667456269264,9.752182006835938,0,-0.091552734375,-0.1220703125
3.1024999,0.20350714027881622,-0.025737667456269264,9.748590469360352,-0.06103515625,-0.091552734375,-0.213623046875
3.1074999,0.20530278980731964,-0.028730420395731926,9.745597839355469,-0.213623046875,-0.091552734375,-0.18310546875
3.1124999,0.20949265360832214,-0.0293289702385664,9.744999885559082,-0.06103515625,0.091552734375,-0.213623046875
3.1174999000000003,0.2106897532939911,-0.02992752194404602,9.743204116821289,-0.091552734375,0,-0.18310546875
3.1224999,0.21188685297966003,-0.031124621629714966,9.741408348083496,-0.1220703125,-0.030517578125,-0.1220703125
3.1274999,0.21188685297966003,-0.030526071786880493,9.740809440612793,-0.1220703125,0,-0.18310546875
3.1324999,0.20889410376548767,-0.031124621629714966,9.739612579345703,-0.091552734375,-0.030517578125,-0.18310546875
3.1374999000000003,0.2106897532939911,-0.028131870552897453,9.739612579345703,-0.18310546875,0.030517578125,-0.091552734375
3.1424999000000002,0.20949265360832214,-0.028131870552897453,9.740211486816406,-0.030517578125,-0.06103515625,-0.152587890625
3.1474999,0.2106897532939911,-0.02693476900458336,9.739612579345703,-0.1220703125,0.030517578125,-0.335693359375
3.1524999,0.21009120345115662,-0.02513911761343479,9.743204116821289,-0.030517578125,-0.030517578125,-0.274658203125
3.1574999000000004,0.20889410376548767,-0.025737667456269264,9.743204116821289,0.030517578125,0.06103515625,-0.091552734375
3.1624999000000003,0.20889410376548767,-0.02513911761343479,9.747992515563965,-0.1220703125,0.030517578125,-0.1220703125
3.1674999,0.21009120345115662,-0.028131870552897453,9.747393608093262,-0.1220703125,-0.06103515625,-0.18310546875
3.1724999,0.2106897532939911,-0.031124621629714966,9.746794700622559,0.030517578125,-0.091552734375,-0.06103515625
3.1774999000000004,0.2106897532939911,-0.03770867735147476,9.745597839355469,0.030517578125,-0.091552734375,-0.030517578125
3.1824999000000003,0.20889410376548767,-0.03890577703714371,9.743802070617676,-0.030517578125,0.030517578125,-0.18310546875
3.1874999,0.2082955539226532,-0.041299980133771896,9.743802070617676,-0.030517578125,0.06103515625,-0.213623046875
3.1924999,0.20949265360832214,-0.040701430290937424,9.743802070617676,-0.06103515625,0.06103515625,-0.06103515625
3.1974999000000004,0.21128830313682556,-0.03950432687997818,9.743204116821289,0.030517578125,-0.030517578125,-0.274658203125
3.2024999000000003,0.21428105235099792,-0.03711012750864029,9.743204116821289,-0.030517578125,0,-0.18310546875
3.2074999,0.2148796021938324,-0.03531447425484657,9.741408348083496,-0.06103515625,-0.06103515625,-0.030517578125
3.2124999,0.21547815203666687,-0.03172317147254944,9.743204116821289,-0.091552734375,0.030517578125,-0.06103515625
3.2174999,0.21428105235099792,-0.02992752194404602,9.741408348083496,-0.030517578125,-0.06103515625,-0.274658203125
3.2224999000000003,0.2124854028224945,-0.02693476900458336,9.742605209350586,0.06103515625,0.06103515625,-0.244140625
3.2274999,0.2106897532939911,-0.026336219161748886,9.743802070617676,-0.091552734375,0.06103515625,-0.091552734375
3.2324999,0.2064998894929886,-0.026336219161748886,9.744999885559082,-0.1220703125,-0.06103515625,-0.1220703125
3.2374999,0.20470423996448517,-0.028131870552897453,9.749788284301758,-0.091552734375,0.030517578125,-0.1220703125
3.2424999000000003,0.20111294090747833,-0.0293289702385664,9.754576683044434,0,0.030517578125,-0.213623046875
3.2474999,0.19931729137897491,-0.03172317147254944,9.758766174316406,-0.030517578125,0.030517578125,-0.091552734375
3.2524999,0.19692309200763702,-0.03232172131538391,9.761159896850586,-0.030517578125,0,-0.244140625
3.2574999,0.19692309200763702,-0.031124621629714966,9.761758804321289,0,0.030517578125,-0.18310546875
3.2624999000000003,0.19931729137897491,-0.030526071786880493,9.758766174316406,-0.030517578125,0,-0.244140625
3.2674999000000002,0.20350714027881622,-0.026336219161748886,9.755773544311523,-0.06103515625,-0.091552734375,-0.091552734375
3.2724999,0.2082955539226532,-0.02693476900458336,9.750985145568848,-0.06103515625,-0.091552734375,-0.1220703125
3.2774999,0.20769700407981873,-0.025737667456269264,9.749189376831055,-0.06103515625,-0.030517578125,-0.152587890625
3.2824999000000004,0.20709845423698425,-0.026336219161748886,9.746196746826172,-0.18310546875,-0.030517578125,-0.152587890625
3.2874999000000003,0.2064998894929886,-0.028131870552897453,9.749189376831055,-0.06103515625,-0.06103515625,-0.152587890625
3.2924999,0.20530278980731964,-0.025737667456269264,9.749788284301758,-0.091552734375,0.030517578125,-0.152587890625
3.2974999,0.20709845423698425,-0.025737667456269264,9.75278091430664,0.030517578125,0.030517578125,-0.213623046875
3.3024999000000004,0.20769700407981873,-0.02513911761343479,9.75397777557373,0.06103515625,-0.030517578125,-0.06103515625
3.3074999000000003,0.20769700407981873,-0.02513911761343479,9.75397777557373,0.06103515625,-0.030517578125,-0.06103515625
3.3124999,0.20949265360832214,-0.02214636653661728,9.753378868103027,-0.06103515625,-0.06103515625,0
3.3174999,0.21188685297966003,-0.02214636653661728,9.750386238098145,-0.030517578125,0.1220703125,-0.18310546875
3.3224999000000004,0.21428105235099792,-0.01975216343998909,9.748590469360352,0.030517578125,-0.030517578125,-0.1220703125
3.3274999000000003,0.2172738015651703,-0.02214636653661728,9.743802070617676,-0.06103515625,0.030517578125,-0.1220703125
3.3324999,0.2172738015651703,-0.020949264988303185,9.742605209350586,-0.091552734375,0.030517578125,-0.274658203125
3.3374999,0.21787235140800476,-0.01975216343998909,9.739013671875,-0.18310546875,-0.030517578125,-0.091552734375
3.3424999,0.2172738015651703,-0.019153613597154617,9.740809440612793,-0.091552734375,-0.030517578125,-0.1220703125
3.3474999000000003,0.2148796021938324,-0.017956512048840523,9.740211486816406,0,0,-0.244140625
3.3524999,0.2148796021938324,-0.020949264988303185,9.742605209350586,-0.06103515625,-0.06103515625,-0.091552734375
3.3574999,0.21308395266532898,-0.025737667456269264,9.747393608093262,-0.030517578125,0.06103515625,-0.152587890625
3.3624999,0.2124854028224945,-0.0293289702385664,9.749788284301758,0.030517578125,0.030517578125,-0.18310546875
3.3674999000000003,0.21188685297966003,-0.03232172131538391,9.75517463684082,-0.152587890625,0,-0.18310546875
3.3724999,0.20889410376548767,-0.03232172131538391,9.756970405578613,-0.091552734375,0,-0.213623046875
3.3774999,0.20769700407981873,-0.03172317147254944,9.759963035583496,0,-0.1220703125,-0.06103515625
3.3824999,0.20530278980731964,-0.031124621629714966,9.75936508178711,0.030517578125,-0.06103515625,-0.152587890625
3.3874999000000003,0.2064998894929886,-0.03172317147254944,9.7605619430542,0,-0.06103515625,-0.152587890625
3.3924999000000002,0.2059013396501541,-0.02753331884741783,9.75637149810791,0,-0.06103515625,-0.06103515625
3.3974999,0.20889410376548767,-0.025737667456269264,9.75278091430664,0,0.06103515625,-0.06103515625
3.4024999,0.2064998894929886,-0.017956512048840523,9.747992515563965,0,-0.091552734375,-0.091552734375
3.4074999000000004,0.20709845423698425,-0.013766659423708916,9.746196746826172,0.030517578125,-0.030517578125,-0.244140625
3.4124999000000003,0.20470423996448517,-0.013168109580874443,9.744999885559082,0.030517578125,-0.06103515625,-0.152587890625
3.4174999,0.2059013396501541,-0.014365210197865963,9.746196746826172,-0.06103515625,-0.091552734375,-0.213623046875
3.4224999,0.2059013396501541,-0.021547814831137657,9.745597839355469,-0.091552734375,-0.06103515625,-0.091552734375
3.4274999000000004,0.2064998894929886,-0.028730420395731926,9.747992515563965,0.030517578125,0.1220703125,-0.18310546875
3.4324999000000003,0.2041056901216507,-0.033518824726343155,9.750386238098145,0.030517578125,-0.030517578125,-0.18310546875
3.4374999,0.20350714027881622,-0.03711012750864029,9.751583099365234,0.030517578125,-0.030517578125,-0.091552734375
3.4424999,0.20290859043598175,-0.03531447425484657,9.753378868103027,-0.091552734375,0,-0.18310546875
3.4474999000000004,0.20470423996448517,-0.03232172131538391,9.748590469360352,-0.06103515625,-0.030517578125,-0.152587890625
3.4524999000000003,0.2082955539226532,-0.02693476900458336,9.744999885559082,-0.030517578125,-0.06103515625,-0.1220703125
3.4574999,0.20949265360832214,-0.02454056777060032,9.744999885559082,-0.1220703125,-0.091552734375,-0.213623046875
3.4624999,0.21368250250816345,-0.021547814831137657,9.743802070617676,-0.091552734375,0,-0.213623046875
3.4674999,0.21547815203666687,-0.02214636653661728,9.745597839355469,0.030517578125,-0.030517578125,-0.152587890625
3.4724999000000003,0.21667525172233582,-0.02513911761343479,9.747393608093262,0.06103515625,0,-0.1220703125
3.4774999,0.2190694510936737,-0.026336219161748886,9.748590469360352,0.152587890625,0,-0.06103515625
3.4824999,0.21667525172233582,-0.02753331884741783,9.752182006835938,-0.030517578125,0,-0.152587890625
3.4874999,0.21667525172233582,-0.0293289702385664,9.755773544311523,-0.06103515625,-0.091552734375,-0.213623046875
3.4924999000000003,0.21308395266532898,-0.02992752194404602,9.758167266845703,-0.091552734375,-0.06103515625,-0.152587890625
3.4974999,0.2106897532939911,-0.03232172131538391,9.758167266845703,-0.1220703125,0,-0.18310546875
3.5024999,0.20470423996448517,-0.0347159244120121,9.75637149810791,0.030517578125,-0.06103515625,-0.1220703125
3.5074999,0.20350714027881622,-0.03172317147254944,9.755773544311523,0.091552734375,-0.1220703125,-0.213623046875
3.5124999000000003,0.20051439106464386,-0.02992752194404602,9.75397777557373,0.1220703125,-0.1220703125,-0.18310546875
3.5174999000000002,0.2041056901216507,-0.026336219161748886,9.75397777557373,-0.030517578125,-0.091552734375,-0.244140625
3.5224999,0.20709845423698425,-0.023942016065120697,9.753378868103027,0,-0.06103515625,-0.1220703125
3.5274999,0.21009120345115662,-0.023343466222286224,9.752182006835938,0.030517578125,-0.030517578125,-0.1220703125
3.5324999000000004,0.21368250250816345,-0.02513911761343479,9.750386238098145,-0.091552734375,-0.06103515625,-0.18310546875
3.5374999000000003,0.21368250250816345,-0.028131870552897453,9.751583099365234,-0.1220703125,0,-0.091552734375
3.5424999,0.21547815203666687,-0.0293289702385664,9.752182006835938,-0.091552734375,-0.030517578125,-0.091552734375
3.5474999,0.21308395266532898,-0.0293289702385664,9.754576683044434,-0.030517578125,0.091552734375,-0.213623046875
3.5524999000000004,0.21368250250816345,-0.02753331884741783,9.755773544311523,0.030517578125,-0.030517578125,-0.1220703125
3.5574999000000003,0.2106897532939911,-0.025737667456269264,9.758766174316406,-0.030517578125,-0.06103515625,-0.152587890625
3.5624999,0.20889410376548767,-0.023343466222286224,9.757569313049316,-0.030517578125,-0.030517578125,-0.1220703125
3.5674999,0.2041056901216507,-0.02693476900458336,9.75637149810791,-0.030517578125,-0.1220703125,-0.213623046875
3.5724999000000004,0.20290859043598175,-0.026336219161748886,9.75278091430664,-0.213623046875,-0.1220703125,-0.091552734375
3.5774999000000003,0.19871874153614044,-0.030526071786880493,9.747992515563965,-0.18310546875,0.06103515625,-0.06103515625
3.5824999,0.19931729137897491,-0.030526071786880493,9.742605209350586,0.06103515625,0.030517578125,-0.213623046875
3.5874999,0.1975216418504715,-0.031124621629714966,9.740809440612793,0,-0.030517578125,-0.30517578125
3.5924999,0.19871874153614044,-0.0293289702385664,9.742605209350586,-0.152587890625,0.06103515625,-0.152587890625
3.5974999000000003,0.19871874153614044,-0.025737667456269264,9.748590469360352,-0.030517578125,-0.030517578125,-0.152587890625
3.6024999,0.2017114907503128,-0.02454056777060032,9.75397777557373,-0.030517578125,0,-0.274658203125
3.6074999,0.20350714027881622,-0.02454056777060032,9.758167266845703,-0.1220703125,0,0
3.6124999,0.2017114907503128,-0.02454056777060032,9.757569313049316,0.06103515625,-0.18310546875,-0.1220703125
3.6174999000000003,0.2017114907503128,-0.02753331884741783,9.75517463684082,-0.030517578125,0.030517578125,-0.152587890625
3.6224999,0.19692309200763702,-0.028131870552897453,9.75278091430664,-0.06103515625,0.091552734375,-0.18310546875
3.6274999,0.19393034279346466,-0.02992752194404602,9.750985145568848,-0.06103515625,0.06103515625,-0.091552734375
3.6324999,0.19213469326496124,-0.03172317147254944,9.746794700622559,-0.06103515625,0.091552734375,-0.1220703125
3.6374999000000003,0.1933317929506302,-0.0347159244120121,9.742006301879883,-0.244140625,0.152587890625,-0.091552734375
3.6424999000000002,0.19632454216480255,-0.03651157766580582,9.734225273132324,-0.1220703125,-0.06103515625,-0.274658203125
3.6474999,0.2017114907503128,-0.03950432687997818,9.732429504394531,0,-0.091552734375,-0.152587890625
3.6524999,0.20709845423698425,-0.03770867735147476,9.728838920593262,0.030517578125,-0.06103515625,0.030517578125
3.6574999000000004,0.21188685297966003,-0.0347159244120121,9.732429504394531,0.06103515625,-0.030517578125,-0.152587890625
3.6624999000000003,0.21188685297966003,-0.02992752194404602,9.739612579345703,-0.06103515625,-0.06103515625,-0.274658203125
3.6674999,0.21128830313682556,-0.02513911761343479,9.746196746826172,-0.152587890625,-0.030517578125,-0.152587890625
3.6724999,0.21009120345115662,-0.021547814831137657,9.755773544311523,-0.1220703125,0.030517578125,-0.152587890625
3.6774999000000004,0.21009120345115662,-0.021547814831137657,9.755773544311523,-0.1220703125,0.030517578125,-0.152587890625
3.6824999000000003,0.20889410376548767,-0.020350715145468712,9.761159896850586,-0.1220703125,0,-0.18310546875
3.6874999,0.20889410376548767,-0.020949264988303185,9.764153480529785,-0.030517578125,0,-0.30517578125
3.6924999,0.20889410376548767,-0.021547814831137657,9.764751434326172,-0.091552734375,0,-0.18310546875
3.6974999000000004,0.20530278980731964,-0.023343466222286224,9.763554573059082,-0.091552734375,0.030517578125,-0.152587890625
3.7024999000000003,0.2059013396501541,-0.02274491637945175,9.758167266845703,-0.06103515625,0,-0.1220703125
3.7074999,0.20350714027881622,-0.023942016065120697,9.75397777557373,0.06103515625,-0.030517578125,-0.030517578125
3.7124999,0.20530278980731964,-0.02214636653661728,9.747393608093262,-0.06103515625,0.152587890625,-0.18310546875
3.7174999,0.2082955539226532,-0.01975216343998909,9.747393608093262,-0.06103515625,0,-0.274658203125
3.7224999000000003,0.20949265360832214,-0.01975216343998909,9.749189376831055,-0.06103515625,-0.030517578125,-0.030517578125
3.7274999,0.21308395266532898,-0.016759412363171577,9.753378868103027,-0.06103515625,0.06103515625,-0.091552734375
3.7324999,0.21188685297966003,-0.021547814831137657,9.75397777557373,-0.030517578125,0.1220703125,-0.18310546875
3.7374999,0.2106897532939911,-0.023942016065120697,9.752182006835938,0,0.06103515625,-0.18310546875
3.7424999000000003,0.2082955539226532,-0.028131870552897453,9.749788284301758,-0.06103515625,0.091552734375,-0.213623046875
3.7474999,0.20769700407981873,-0.030526071786880493,9.750985145568848,-0.030517578125,-0.1220703125,-0.213623046875
3.7524999,0.20709845423698425,-0.03172317147254944,9.753378868103027,-0.06103515625,-0.030517578125,-0.152587890625
3.7574999,0.2059013396501541,-0.03172317147254944,9.75517463684082,-0.06103515625,-0.06103515625,-0.091552734375
3.7624999000000003,0.20290859043598175,-0.031124621629714966,9.755773544311523,-0.1220703125,-0.030517578125,-0.18310546875
3.7674999000000002,0.1999158412218094,-0.03232172131538391,9.75397777557373,-0.091552734375,-0.06103515625,-0.1220703125
3.7724999,0.1999158412218094,-0.031124621629714966,9.752182006835938,-0.030517578125,0.030517578125,-0.244140625
3.7774999,0.20051439106464386,-0.02992752194404602,9.755773544311523,-0.091552734375,0.213623046875,-0.244140625
3.7824999000000004,0.20231004059314728,-0.02693476900458336,9.755773544311523,-0.06103515625,0.213623046875,-0.213623046875
3.7874999000000003,0.2059013396501541,-0.02513911761343479,9.7605619430542,-0.1220703125,0.06103515625,-0.18310546875
3.7924999,0.20350714027881622,-0.020949264988303185,9.7605619430542,0,0.06103515625,-0.1220703125
3.7974999,0.20530278980731964,-0.023343466222286224,9.7605619430542,-0.030517578125,-0.030517578125,0
3.8024999000000004,0.20350714027881622,-0.023343466222286224,9.759963035583496,0.1220703125,-0.091552734375,0
3.8074999000000003,0.20111294090747833,-0.02693476900458336,9.756970405578613,0.152587890625,0.030517578125,-0.06103515625
3.8124999,0.2017114907503128,-0.02753331884741783,9.75517463684082,-0.1220703125,-0.030517578125,-0.18310546875
3.8174999,0.20231004059314728,-0.030526071786880493,9.750386238098145,-0.06103515625,0.091552734375,-0.18310546875
3.8224999000000004,0.20290859043598175,-0.030526071786880493,9.748590469360352,0,0,-0.18310546875
3.8274999000000003,0.2064998894929886,-0.028730420395731926,9.747992515563965,-0.1220703125,-0.06103515625,-0.18310546875
3.8324999,0.20530278980731964,-0.02513911761343479,9.751583099365234,0.030517578125,0.030517578125,-0.152587890625
3.8374999,0.20709845423698425,-0.02214636653661728,9.756970405578613,-0.152587890625,0.030517578125,-0.030517578125
3.8424999,0.20530278980731964,-0.019153613597154617,9.761758804321289,-0.1220703125,-0.06103515625,-0.18310546875
3.8474999000000003,0.2082955539226532,-0.019153613597154617,9.763554573059082,-0.1220703125,0,-0.213623046875
3.8524999,0.20769700407981873,-0.02214636653661728,9.7605619430542,0.06103515625,0.030517578125,-0.213623046875
3.8574999,0.20889410376548767,-0.020350715145468712,9.75397777557373,0,0.030517578125,-0.335693359375
3.8624999,0.20769700407981873,-0.02274491637945175,9.747992515563965,-0.091552734375,0.030517578125,-0.213623046875
3.8674999000000003,0.20350714027881622,-0.023343466222286224,9.742605209350586,-0.030517578125,0.030517578125,-0.1220703125
3.8724999,0.20231004059314728,-0.023343466222286224,9.742006301879883,0.1220703125,-0.1220703125,-0.152587890625
3.8774999,0.1999158412218094,-0.02454056777060032,9.746196746826172,-0.030517578125,-0.030517578125,-0.18310546875
3.8824999,0.20111294090747833,-0.028131870552897453,9.746794700622559,-0.091552734375,-0.030517578125,-0.091552734375
3.8874999000000003,0.20231004059314728,-0.028730420395731926,9.749189376831055,0.06103515625,0,-0.152587890625
3.8924999000000002,0.20231004059314728,-0.03232172131538391,9.749189376831055,0.06103515625,0,-0.274658203125
3.8974999,0.20350714027881622,-0.03411737456917763,9.747393608093262,0.06103515625,0,-0.244140625
3.9024999,0.20290859043598175,-0.033518824726343155,9.747393608093262,0,0,-0.213623046875
3.9074999000000004,0.20231004059314728,-0.03411737456917763,9.749189376831055,-0.091552734375,-0.030517578125,-0.152587890625
3.9124999000000003,0.2041056901216507,-0.03232172131538391,9.747992515563965,0,-0.030517578125,-0.06103515625
3.9174999,0.20530278980731964,-0.033518824726343155,9.749189376831055,0,0.1220703125,-0.06103515625
3.9224999,0.2041056901216507,-0.02992752194404602,9.749788284301758,0.030517578125,0,-0.091552734375
3.9274999000000004,0.20290859043598175,-0.0293289702385664,9.750985145568848,-0.152587890625,0,-0.1220703125
3.9324999000000003,0.20111294090747833,-0.028730420395731926,9.750985145568848,-0.152587890625,0.1220703125,-0.244140625
3.9374999,0.19692309200763702,-0.02693476900458336,9.75278091430664,-0.1220703125,0.152587890625,-0.18310546875
3.9424999,0.19632454216480255,-0.02992752194404602,9.751583099365234,0,0.030517578125,-0.06103515625
3.9474999000000004,0.19632454216480255,-0.028131870552897453,9.750386238098145,-0.091552734375,-0.06103515625,-0.213623046875
3.9524999000000003,0.19871874153614044,-0.0293289702385664,9.749189376831055,-0.18310546875,0,-0.18310546875
3.9574999,0.1999158412218094,-0.028131870552897453,9.748590469360352,-0.213623046875,0.030517578125,-0.18310546875
3.9624999,0.20709845423698425,-0.02693476900458336,9.746196746826172,0.06103515625,0.030517578125,-0.091552734375
3.9674999000000004,0.2082955539226532,-0.02753331884741783,9.745597839355469,0,-0.1220703125,-0.091552734375
3.9724999000000003,0.2124854028224945,-0.026336219161748886,9.744400978088379,-0.06103515625,-0.1220703125,-0.152587890625
3.9774999,0.21188685297966003,-0.0293289702385664,9.744999885559082,-0.091552734375,-0.06103515625,-0.1220703125
3.9824999,0.21368250250816345,-0.03172317147254944,9.748590469360352,-0.1220703125,0.091552734375,-0.030517578125
3.9874999,0.2124854028224945,-0.033518824726343155,9.75278091430664,-0.18310546875,-0.030517578125,-0.152587890625
3.9924999000000003,0.21188685297966003,-0.03531447425484657,9.75637149810791,-0.18310546875,-0.1220703125,-0.1220703125
3.9974999,0.2124854028224945,-0.031124621629714966,9.761159896850586,-0.06103515625,-0.030517578125,-0.091552734375
4.0024999,0.2082955539226532,-0.03172317147254944,9.7605619430542,0.06103515625,0.030517578125,-0.274658203125
4.0074999,0.2059013396501541,-0.025737667456269264,9.759963035583496,0,0.091552734375,-0.213623046875
4.0124999,0.20231004059314728,-0.02513911761343479,9.755773544311523,-0.213623046875,0.1220703125,-0.091552734375
4.0174999,0.19931729137897491,-0.02454056777060032,9.752182006835938,-0.1220703125,0,-0.091552734375
4.022499900000001,0.19871874153614044,-0.023343466222286224,9.748590469360352,0.030517578125,-0.06103515625,-0.152587890625
4.0274999000000005,0.20290859043598175,-0.023343466222286224,9.749788284301758,0,0.030517578125,-0.091552734375
4.0324999,0.20530278980731964,-0.020350715145468712,9.754576683044434,-0.1220703125,0.06103515625,-0.152587890625
4.0374999,0.2106897532939911,-0.01735796220600605,9.758167266845703,0.030517578125,0,-0.030517578125
4.0424999,0.2106897532939911,-0.01735796220600605,9.758167266845703,0.030517578125,0,-0.030517578125
4.0474999,0.21128830313682556,-0.017956512048840523,9.762955665588379,-0.091552734375,0,-0.1220703125
4.0524999,0.21428105235099792,-0.02214636653661728,9.762955665588379,-0.091552734375,0,-0.1220703125
4.0574999,0.21188685297966003,-0.025737667456269264,9.764153480529785,-0.152587890625,0,-0.06103515625
4.062499900000001,0.21128830313682556,-0.030526071786880493,9.762357711791992,-0.030517578125,0.030517578125,-0.030517578125
4.0674999000000005,0.2064998894929886,-0.03292027488350868,9.761758804321289,-0.06103515625,-0.030517578125,-0.06103515625
4.0724999,0.20350714027881622,-0.03172317147254944,9.759963035583496,-0.091552734375,-0.091552734375,0.06103515625
4.0774999,0.2017114907503128,-0.02992752194404602,9.757569313049316,0,-0.091552734375,-0.213623046875
4.0824999,0.1999158412218094,-0.028131870552897453,9.755773544311523,-0.030517578125,-0.030517578125,-0.152587890625
4.0874999,0.20290859043598175,-0.020949264988303185,9.75278091430664,-0.152587890625,0.06103515625,-0.1220703125
4.0924999,0.2041056901216507,-0.01735796220600605,9.750386238098145,-0.1220703125,0.06103515625,-0.1220703125
4.0974999,0.2064998894929886,-0.012569558806717396,9.750985145568848,-0.152587890625,-0.091552734375,-0.1220703125
4.1024999,0.20889410376548767,-0.014365210197865963,9.746196746826172,-0.06103515625,-0.244140625,-0.091552734375
4.1074999000000005,0.20889410376548767,-0.018555063754320145,9.747393608093262,0,-0.1220703125,-0.1220703125
4.1124999,0.2082955539226532,-0.023343466222286224,9.746196746826172,-0.030517578125,-0.030517578125,-0.18310546875
4.1174999,0.2064998894929886,-0.028131870552897453,9.743802070617676,-0.030517578125,0.030517578125,-0.213623046875
4.1224999,0.20709845423698425,-0.02693476900458336,9.743802070617676,-0.06103515625,-0.1220703125,-0.1220703125
4.1274999,0.20709845423698425,-0.0293289702385664,9.744999885559082,-0.030517578125,-0.091552734375,-0.152587890625
4.1324999,0.2082955539226532,-0.02693476900458336,9.744400978088379,-0.091552734375,0.06103515625,-0.06103515625
4.1374999,0.20949265360832214,-0.028131870552897453,9.750386238098145,-0.030517578125,0.030517578125,-0.1220703125
4.1424999,0.21009120345115662,-0.026336219161748886,9.750985145568848,-0.06103515625,-0.091552734375,-0.091552734375
4.147499900000001,0.21188685297966003,-0.025737667456269264,9.755773544311523,-0.091552734375,-0.06103515625,-0.091552734375
4.1524999000000005,0.2106897532939911,-0.02454056777060032,9.757569313049316,-0.091552734375,0.030517578125,-0.244140625
4.1574999,0.2124854028224945,-0.02274491637945175,9.758167266845703,-0.06103515625,0.030517578125,-0.152587890625
4.1624999,0.20949265360832214,-0.023942016065120697,9.756970405578613,0,0,-0.06103515625
4.1674999,0.20889410376548767,-0.026336219161748886,9.750985145568848,-0.030517578125,0,-0.213623046875
4.1724999,0.2082955539226532,-0.028730420395731926,9.746794700622559,-0.1220703125,0.091552734375,-0.152587890625
4.1774999,0.20769700407981873,-0.03172317147254944,9.743802070617676,-0.1220703125,-0.030517578125,-0.152587890625
4.1824999,0.20949265360832214,-0.03172317147254944,9.744999885559082,-0.030517578125,-0.091552734375,-0.091552734375
4.187499900000001,0.2082955539226532,-0.028131870552897453,9.743204116821289,0,-0.091552734375,-0.1220703125
4.1924999000000005,0.2082955539226532,-0.02753331884741783,9.746794700622559,0,0.1220703125,-0.091552734375
4.1974999,0.21009120345115662,-0.023942016065120697,9.747393608093262,-0.06103515625,0.091552734375,-0.1220703125
4.2024999,0.2106897532939911,-0.02454056777060032,9.751583099365234,0.06103515625,-0.030517578125,0.030517578125
4.2074999,0.21428105235099792,-0.023942016065120697,9.753378868103027,-0.091552734375,0.06103515625,-0.18310546875
4.2124999,0.2148796021938324,-0.026336219161748886,9.758167266845703,-0.030517578125,-0.030517578125,-0.152587890625
4.2174999,0.21188685297966003,-0.025737667456269264,9.758167266845703,-0.1220703125,-0.1220703125,-0.18310546875
4.2224999,0.20889410376548767,-0.026336219161748886,9.757569313049316,-0.06103515625,-0.091552734375,0
4.2274999,0.20470423996448517,-0.023942016065120697,9.753378868103027,-0.06103515625,0.091552734375,-0.18310546875
4.2324999000000005,0.1999158412218094,-0.02214636653661728,9.747992515563965,-0.06103515625,-0.030517578125,-0.06103515625
4.2374999,0.1975216418504715,-0.020350715145468712,9.743802070617676,0.06103515625,-0.152587890625,0
4.2424999,0.1975216418504715,-0.02274491637945175,9.741408348083496,0,-0.1220703125,0.030517578125
4.2474999,0.19871874153614044,-0.02454056777060032,9.743802070617676,0.091552734375,-0.213623046875,-0.152587890625
4.2524999,0.20470423996448517,-0.026336219161748886,9.747992515563965,0,-0.06103515625,-0.152587890625
4.2574999,0.2064998894929886,-0.02753331884741783,9.75637149810791,-0.06103515625,0.1220703125,-0.244140625
4.2624999,0.2124854028224945,-0.02513911761343479,9.764153480529785,0.06103515625,0.030517578125,-0.213623046875
4.2674999,0.21547815203666687,-0.023942016065120697,9.77013874053955,0.06103515625,-0.1220703125,0
4.272499900000001,0.21847090125083923,-0.023343466222286224,9.771934509277344,0.030517578125,-0.091552734375,-0.1220703125
4.2774999000000005,0.21787235140800476,-0.02454056777060032,9.767744064331055,0.030517578125,0.030517578125,-0.244140625
4.2824999,0.21547815203666687,-0.025737667456269264,9.761159896850586,0,-0.06103515625,-0.244140625
4.2874999,0.2082955539226532,-0.0293289702385664,9.751583099365234,0.152587890625,-0.030517578125,-0.1220703125
4.2924999,0.20290859043598175,-0.03292027488350868,9.744999885559082,0.091552734375,0.030517578125,-0.213623046875
4.2974999,0.1975216418504715,-0.03651157766580582,9.739612579345703,-0.091552734375,0.030517578125,-0.18310546875
4.3024999,0.19812019169330597,-0.038307227194309235,9.73661994934082,0,-0.091552734375,-0.18310546875
4.3074999,0.1999158412218094,-0.03711012750864029,9.739612579345703,0,-0.06103515625,-0.213623046875
4.312499900000001,0.20290859043598175,-0.0347159244120121,9.743802070617676,0.030517578125,0.06103515625,-0.1220703125
4.3174999000000005,0.20530278980731964,-0.0293289702385664,9.752182006835938,0,-0.030517578125,-0.213623046875
4.3224999,0.20530278980731964,-0.02513911761343479,9.7605619430542,-0.1220703125,-0.030517578125,-0.274658203125
4.3274999,0.20350714027881622,-0.01975216343998909,9.764153480529785,0.030517578125,-0.06103515625,-0.152587890625
4.3324999,0.20111294090747833,-0.019153613597154617,9.764751434326172,0.030517578125,-0.091552734375,-0.152587890625
4.3374999,0.1999158412218094,-0.019153613597154617,9.764153480529785,0,-0.06103515625,-0.274658203125
4.3424999,0.19931729137897491,-0.02214636653661728,9.758167266845703,-0.152587890625,-0.030517578125,-0.18310546875
4.3474999,0.19871874153614044,-0.023343466222286224,9.754576683044434,-0.1220703125,0.030517578125,-0.1220703125
4.352499900000001,0.2041056901216507,-0.02513911761343479,9.749189376831055,-0.152587890625,0,-0.18310546875
4.3574999000000005,0.20470423996448517,-0.02454056777060032,9.746196746826172,0,-0.091552734375,-0.152587890625
4.3624999,0.20709845423698425,-0.02513911761343479,9.743204116821289,-0.06103515625,-0.06103515625,0
4.3674999,0.20889410376548767,-0.02693476900458336,9.743802070617676,-0.06103515625,-0.030517578125,-0.152587890625
4.3724999,0.20889410376548767,-0.028131870552897453,9.743204116821289,0,0.06103515625,-0.274658203125
4.3774999,0.21128830313682556,-0.02992752194404602,9.746196746826172,-0.030517578125,0,-0.030517578125
4.3824999,0.2106897532939911,-0.02992752194404602,9.749189376831055,0.030517578125,-0.06103515625,-0.1220703125
4.3874999,0.21009120345115662,-0.02753331884741783,9.75397777557373,-0.18310546875,-0.091552734375,-0.274658203125
4.3924999,0.2041056901216507,-0.026336219161748886,9.756970405578613,-0.091552734375,0.030517578125,-0.18310546875
4.397499900000001,0.20231004059314728,-0.02274491637945175,9.753378868103027,0.091552734375,0.030517578125,-0.030517578125
4.4024999000000005,0.19931729137897491,-0.02214636653661728,9.750985145568848,0.06103515625,0,0
4.4074999,0.19931729137897491,-0.02214636653661728,9.750985145568848,0.06103515625,0,0
4.4124999,0.1999158412218094,-0.02274491637945175,9.742605209350586,-0.091552734375,-0.030517578125,-0.152587890625
4.4174999,0.20231004059314728,-0.025737667456269264,9.740809440612793,0.030517578125,-0.06103515625,-0.1220703125
4.4224999,0.20350714027881622,-0.028131870552897453,9.737217903137207,-0.06103515625,0,-0.091552734375
4.4274999,0.20530278980731964,-0.030526071786880493,9.741408348083496,-0.030517578125,-0.030517578125,-0.335693359375
4.4324999,0.20709845423698425,-0.03292027488350868,9.744400978088379,-0.030517578125,0.091552734375,-0.213623046875
4.437499900000001,0.2082955539226532,-0.030526071786880493,9.749788284301758,0,-0.06103515625,-0.18310546875
4.4424999000000005,0.21009120345115662,-0.0293289702385664,9.75936508178711,0,-0.030517578125,-0.152587890625
4.4474999,0.20889410376548767,-0.028730420395731926,9.762357711791992,0.06103515625,0,-0.030517578125
4.4524999,0.20769700407981873,-0.02513911761343479,9.765350341796875,-0.091552734375,0.030517578125,-0.1220703125
4.4574999,0.2059013396501541,-0.028730420395731926,9.764153480529785,-0.091552734375,0.091552734375,-0.152587890625
4.4624999,0.20350714027881622,-0.028730420395731926,9.7605619430542,0.030517578125,-0.030517578125,-0.091552734375
4.4674999,0.19931729137897491,-0.033518824726343155,9.75637149810791,-0.1220703125,0.030517578125,-0.1220703125
4.4724999,0.19871874153614044,-0.03531447425484657,9.75278091430664,-0.1220703125,0.1220703125,-0.213623046875
4.477499900000001,0.1975216418504715,-0.0347159244120121,9.751583099365234,-0.1220703125,0.030517578125,0
4.4824999000000005,0.19931729137897491,-0.03292027488350868,9.750386238098145,-0.030517578125,-0.1220703125,0
4.4874999,0.20350714027881622,-0.028131870552897453,9.749788284301758,0.091552734375,-0.091552734375,-0.152587890625
4.4924999,0.20709845423698425,-0.02513911761343479,9.749788284301758,-0.030517578125,0,-0.152587890625
4.4974999,0.20709845423698425,-0.02513911761343479,9.748590469360352,-0.091552734375,0,-0.06103515625
4.5024999,0.20769700407981873,-0.025737667456269264,9.750985145568848,0.030517578125,-0.06103515625,-0.091552734375
4.5074999,0.2064998894929886,-0.030526071786880493,9.758167266845703,-0.1220703125,-0.030517578125,-0.274658203125
4.5124999,0.20709845423698425,-0.03232172131538391,9.762357711791992,-0.030517578125,-0.030517578125,-0.244140625
4.5174999,0.2059013396501541,-0.03411737456917763,9.767744064331055,-0.06103515625,-0.091552734375,-0.274658203125
4.522499900000001,0.2064998894929886,-0.030526071786880493,9.764751434326172,0.030517578125,-0.06103515625,-0.152587890625
4.5274999000000005,0.2017114907503128,-0.028730420395731926,9.759963035583496,0.06103515625,0.091552734375,-0.152587890625
4.5324999,0.20350714027881622,-0.025737667456269264,9.75278091430664,-0.091552734375,0.030517578125,-0.1220703125
4.5374999,0.2041056901216507,-0.02454056777060032,9.747992515563965,-0.091552734375,-0.06103515625,-0.1220703125
4.5424999,0.2082955539226532,-0.023942016065120697,9.745597839355469,-0.152587890625,-0.030517578125,-0.18310546875
4.5474999,0.21128830313682556,-0.020350715145468712,9.743204116821289,-0.06103515625,-0.06103515625,-0.18310546875
4.5524999,0.2148796021938324,-0.020350715145468712,9.744999885559082,0.06103515625,0,-0.030517578125
4.5574999,0.2148796021938324,-0.016160860657691956,9.746196746826172,-0.06103515625,0.030517578125,-0.030517578125
4.562499900000001,0.21607670187950134,-0.017956512048840523,9.749788284301758,-0.091552734375,-0.091552734375,-0.18310546875
4.5674999000000005,0.21368250250816345,-0.017956512048840523,9.75278091430664,-0.1220703125,-0.152587890625,-0.1220703125
4.5724999,0.2106897532939911,-0.020949264988303185,9.75517463684082,-0.152587890625,0.091552734375,-0.030517578125
4.5774999,0.20769700407981873,-0.023942016065120697,9.752182006835938,-0.152587890625,0.06103515625,-0.091552734375
4.5824999,0.20530278980731964,-0.023942016065120697,9.749788284301758,-0.030517578125,0,-0.1220703125
4.5874999,0.20709845423698425,-0.025737667456269264,9.744999885559082,0.152587890625,-0.030517578125,-0.213623046875
4.5924999,0.20530278980731964,-0.026336219161748886,9.743204116821289,0,0.091552734375,-0.244140625
4.5974999,0.20769700407981873,-0.0293289702385664,9.742006301879883,-0.091552734375,0.06103515625,-0.152587890625
4.602499900000001,0.20769700407981873,-0.02992752194404602,9.745597839355469,0.1220703125,-0.091552734375,-0.1220703125
4.6074999000000005,0.20949265360832214,-0.030526071786880493,9.747992515563965,0.030517578125,-0.030517578125,-0.1220703125
4.6124999,0.21368250250816345,-0.02992752194404602,9.753378868103027,-0.030517578125,0.091552734375,-0.213623046875
4.6174999,0.21128830313682556,-0.02693476900458336,9.754576683044434,0,0.18310546875,-0.18310546875
4.6224999,0.20889410376548767,-0.02513911761343479,9.75637149810791,-0.06103515625,0.1220703125,-0.18310546875
4.6274999,0.20709845423698425,-0.02214636653661728,9.755773544311523,0,0.030517578125,-0.091552734375
4.6324999,0.20530278980731964,-0.017956512048840523,9.756970405578613,0.030517578125,0,-0.030517578125
4.6374999,0.20709845423698425,-0.019153613597154617,9.758766174316406,0.06103515625,0.06103515625,0
4.6424999,0.20769700407981873,-0.016160860657691956,9.758766174316406,0.091552734375,0.06103515625,-0.06103515625
4.647499900000001,0.21009120345115662,-0.02274491637945175,9.757569313049316,0.06103515625,-0.030517578125,-0.030517578125
4.6524999000000005,0.20889410376548767,-0.02454056777060032,9.75278091430664,0,-0.030517578125,-0.30517578125
4.6574999,0.2106897532939911,-0.03172317147254944,9.750386238098145,-0.06103515625,-0.152587890625,-0.274658203125
4.6624999,0.21128830313682556,-0.033518824726343155,9.744400978088379,-0.06103515625,-0.06103515625,-0.152587890625
4.6674999,0.21188685297966003,-0.0347159244120121,9.744999885559082,0.030517578125,0,-0.152587890625
4.6724999,0.21368250250816345,-0.03411737456917763,9.744400978088379,0.1220703125,-0.030517578125,-0.18310546875
4.6774999,0.21428105235099792,-0.031124621629714966,9.749788284301758,-0.06103515625,0.1220703125,-0.18310546875
4.6824999,0.21607670187950134,-0.0293289702385664,9.75637149810791,-0.06103515625,0.152587890625,-0.06103515625
4.687499900000001,0.2148796021938324,-0.026336219161748886,9.759963035583496,0.06103515625,0.06103515625,-0.152587890625
4.6924999000000005,0.21428105235099792,-0.023942016065120697,9.7605619430542,-0.030517578125,0.030517578125,-0.274658203125
4.6974999,0.20889410376548767,-0.023343466222286224,9.75517463684082,-0.091552734375,-0.091552734375,-0.091552734375
4.7024999,0.2041056901216507,-0.023343466222286224,9.752182006835938,-0.152587890625,-0.030517578125,-0.213623046875
4.7074999,0.19871874153614044,-0.028131870552897453,9.747393608093262,-0.091552734375,0.06103515625,-0.1220703125
4.7124999,0.19931729137897491,-0.028730420395731926,9.745597839355469,-0.06103515625,0.030517578125,-0.152587890625
4.7174999,0.1975216418504715,-0.033518824726343155,9.744400978088379,-0.091552734375,0.1220703125,-0.244140625
4.7224999,0.2017114907503128,-0.03292027488350868,9.743204116821289,-0.06103515625,-0.06103515625,-0.3662109375
4.727499900000001,0.20470423996448517,-0.03411737456917763,9.742605209350586,-0.091552734375,-0.1220703125,-0.30517578125
4.7324999000000005,0.20530278980731964,-0.03232172131538391,9.743204116821289,-0.091552734375,0,-0.18310546875
4.7374999,0.2106897532939911,-0.03172317147254944,9.744400978088379,-0.152587890625,-0.030517578125,-0.091552734375
4.7424999,0.21009120345115662,-0.02992752194404602,9.745597839355469,-0.18310546875,0.091552734375,-0.152587890625
4.7474999,0.20949265360832214,-0.02693476900458336,9.744999885559082,-0.091552734375,0,-0.244140625
4.7524999,0.20709845423698425,-0.025737667456269264,9.743204116821289,0,-0.06103515625,-0.244140625
4.7574999,0.20231004059314728,-0.02214636653661728,9.742006301879883,0.030517578125,0.06103515625,-0.1220703125
4.7624999,0.1999158412218094,-0.021547814831137657,9.741408348083496,-0.06103515625,-0.06103515625,-0.091552734375
4.7674999,0.19632454216480255,-0.019153613597154617,9.740809440612793,-0.091552734375,-0.1220703125,-0.06103515625
4.772499900000001,0.19632454216480255,-0.019153613597154617,9.740809440612793,-0.091552734375,-0.1220703125,-0.06103515625
4.7774999000000005,0.1951274424791336,-0.017956512048840523,9.739013671875,0,-0.030517578125,-0.3662109375
4.7824999,0.1933317929506302,-0.018555063754320145,9.738415718078613,-0.030517578125,0,-0.335693359375
4.7874999,0.19572599232196808,-0.01735796220600605,9.734824180603027,-0.06103515625,0.06103515625,-0.18310546875
4.7924999,0.19931729137897491,-0.01975216343998909,9.739013671875,0,-0.06103515625,-0.06103515625
4.7974999,0.20470423996448517,-0.018555063754320145,9.739612579345703,0.030517578125,-0.18310546875,-0.1220703125
4.8024999,0.2106897532939911,-0.018555063754320145,9.744999885559082,-0.06103515625,0,-0.244140625
4.8074999,0.21308395266532898,-0.01735796220600605,9.749189376831055,-0.335693359375,0.030517578125,-0.244140625
4.812499900000001,0.21428105235099792,-0.01735796220600605,9.75397777557373,-0.030517578125,-0.06103515625,-0.18310546875
4.8174999000000005,0.2148796021938324,-0.018555063754320145,9.759963035583496,0.030517578125,-0.06103515625,-0.091552734375
4.8224999,0.21188685297966003,-0.020350715145468712,9.759963035583496,-0.091552734375,0.06103515625,-0.1220703125
4.8274999,0.21128830313682556,-0.023343466222286224,9.758167266845703,0.06103515625,0,-0.091552734375
4.8324999,0.20709845423698425,-0.02513911761343479,9.750985145568848,-0.091552734375,0.030517578125,-0.213623046875
4.8374999,0.20769700407981873,-0.028131870552897453,9.746196746826172,-0.213623046875,0.06103515625,-0.1220703125
4.8424999,0.20470423996448517,-0.0293289702385664,9.741408348083496,0.030517578125,0.030517578125,-0.030517578125
4.8474999,0.20350714027881622,-0.0293289702385664,9.739612579345703,0.030517578125,-0.030517578125,-0.091552734375
4.852499900000001,0.2041056901216507,-0.02454056777060032,9.742006301879883,-0.030517578125,-0.06103515625,-0.1220703125
4.8574999000000005,0.20350714027881622,-0.01975216343998909,9.739013671875,-0.152587890625,0,-0.091552734375
4.8624999,0.2082955539226532,-0.016759412363171577,9.740809440612793,-0.06103515625,-0.030517578125,-0.06103515625
4.8674999,0.20949265360832214,-0.016160860657691956,9.740809440612793,-0.1220703125,0,-0.091552734375
4.8724999,0.21368250250816345,-0.019153613597154617,9.741408348083496,-0.152587890625,-0.152587890625,-0.18310546875
4.8774999,0.21188685297966003,-0.02274491637945175,9.743204116821289,0,0.030517578125,-0.18310546875
4.8824999,0.2106897532939911,-0.026336219161748886,9.745597839355469,-0.18310546875,0,-0.18310546875
4.8874999,0.20769700407981873,-0.02992752194404602,9.746794700622559,-0.030517578125,-0.091552734375,-0.18310546875
4.8924999,0.20530278980731964,-0.03411737456917763,9.743802070617676,0.030517578125,-0.213623046875,-0.1220703125
4.897499900000001,0.20231004059314728,-0.03531447425484657,9.746794700622559,-0.152587890625,0.06103515625,-0.091552734375
4.9024999000000005,0.20231004059314728,-0.03651157766580582,9.746794700622559,-0.030517578125,0.030517578125,-0.213623046875
4.9074999,0.2017114907503128,-0.033518824726343155,9.750386238098145,-0.091552734375,-0.030517578125,-0.152587890625
4.9124999,0.20470423996448517,-0.02992752194404602,9.75397777557373,-0.091552734375,0.152587890625,-0.152587890625
4.9174999,0.20530278980731964,-0.02753331884741783,9.756970405578613,0.091552734375,0.1220703125,-0.30517578125
4.9224999,0.21009120345115662,-0.021547814831137657,9.755773544311523,-0.1220703125,0.213623046875,-0.335693359375
4.9274999,0.21128830313682556,-0.019153613597154617,9.75517463684082,-0.030517578125,0.030517578125,-0.18310546875
4.9324999,0.2124854028224945,-0.017956512048840523,9.753378868103027,-0.152587890625,0.06103515625,-0.152587890625
4.937499900000001,0.2106897532939911,-0.01975216343998909,9.750386238098145,-0.030517578125,-0.091552734375,-0.152587890625
4.9424999000000005,0.2082955539226532,-0.02513911761343479,9.750985145568848,0,0.030517578125,-0.1220703125
4.9474999,0.20530278980731964,-0.028730420395731926,9.749189376831055,-0.18310546875,0.030517578125,-0.1220703125
4.9524999,0.20530278980731964,-0.028730420395731926,9.749189376831055,-0.06103515625,0.030517578125,-0.274658203125
4.9574999,0.2064998894929886,-0.025737667456269264,9.751583099365234,-0.030517578125,0.06103515625,-0.1220703125
4.9624999,0.20889410376548767,-0.021547814831137657,9.752182006835938,-0.091552734375,0.06103515625,-0.152587890625
4.9674999,0.2124854028224945,-0.020949264988303185,9.75278091430664,-0.1220703125,-0.1220703125,-0.152587890625
4.9724999,0.21188685297966003,-0.020350715145468712,9.750985145568848,-0.06103515625,-0.030517578125,-0.091552734375
4.977499900000001,0.21308395266532898,-0.020949264988303185,9.747393608093262,0.030517578125,0.030517578125,-0.152587890625
4.9824999000000005,0.21368250250816345,-0.021547814831137657,9.746196746826172,0.030517578125,0.244140625,-0.30517578125
4.9874999,0.21308395266532898,-0.023343466222286224,9.744400978088379,-0.091552734375,0.030517578125,-0.30517578125
4.9924999,0.21428105235099792,-0.023942016065120697,9.743204116821289,0.06103515625,-0.030517578125,-0.030517578125
4.9974999,0.21547815203666687,-0.025737667456269264,9.742605209350586,-0.091552734375,0.091552734375,0
5.0024999,0.21428105235099792,-0.026336219161748886,9.73542308807373,-0.1220703125,0.030517578125,-0.091552734375
5.0074999,0.21308395266532898,-0.025737667456269264,9.739013671875,0,-0.091552734375,-0.213623046875
5.0124999,0.21128830313682556,-0.026336219161748886,9.739013671875,-0.06103515625,0.030517578125,-0.030517578125
5.0174999,0.2064998894929886,-0.025737667456269264,9.744999885559082,-0.06103515625,0.18310546875,-0.244140625
5.022499900000001,0.2041056901216507,-0.026336219161748886,9.749788284301758,-0.06103515625,-0.06103515625,0.030517578125
5.0274999000000005,0.1999158412218094,-0.02693476900458336,9.750386238098145,-0.1220703125,0.18310546875,-0.1220703125
5.0324999,0.2017114907503128,-0.028131870552897453,9.751583099365234,-0.213623046875,0.06103515625,-0.152587890625
5.0374999,0.20350714027881622,-0.02693476900458336,9.750386238098145,-0.06103515625,0.06103515625,-0.18310546875
5.0424999,0.2082955539226532,-0.026336219161748886,9.752182006835938,0.030517578125,0.030517578125,-0.213623046875
5.0474999,0.21188685297966003,-0.02214636653661728,9.749788284301758,0,-0.06103515625,-0.244140625
5.0524999,0.21188685297966003,-0.021547814831137657,9.751583099365234,-0.030517578125,-0.06103515625,-0.152587890625
5.0574999,0.2124854028224945,-0.021547814831137657,9.750386238098145,-0.152587890625,0,-0.030517578125
5.062499900000001,0.21188685297966003,-0.02274491637945175,9.750985145568848,-0.1220703125,0.06103515625,-0.030517578125
5.0674999000000005,0.21308395266532898,-0.02454056777060032,9.752182006835938,-0.030517578125,-0.1220703125,-0.06103515625
5.0724999,0.21547815203666687,-0.023942016065120697,9.75278091430664,-0.06103515625,-0.1220703125,-0.1220703125
5.0774999,0.21428105235099792,-0.023942016065120697,9.75278091430664,-0.06103515625,-0.06103515625,-0.091552734375
5.0824999,0.21308395266532898,-0.025737667456269264,9.756970405578613,0.06103515625,-0.030517578125,-0.091552734375
5.0874999,0.20889410376548767,-0.023343466222286224,9.758167266845703,-0.06103515625,0.06103515625,-0.152587890625
5.0924999,0.2064998894929886,-0.02214636653661728,9.761159896850586,-0.18310546875,0.06103515625,-0.1220703125
5.0974999,0.20350714027881622,-0.018555063754320145,9.764153480529785,-0.152587890625,0.030517578125,-0.030517578125
5.102499900000001,0.20290859043598175,-0.015562310814857483,9.761758804321289,-0.06103515625,0.091552734375,-0.152587890625
5.1074999000000005,0.20051439106464386,-0.017956512048840523,9.758167266845703,0,0.1220703125,-0.152587890625
5.1124999,0.2017114907503128,-0.021547814831137657,9.754576683044434,0,0.091552734375,-0.18310546875
5.1174999,0.20231004059314728,-0.02513911761343479,9.748590469360352,0,-0.030517578125,-0.091552734375
5.1224999,0.20470423996448517,-0.028131870552897453,9.743802070617676,0,0,-0.213623046875
5.1274999,0.2059013396501541,-0.0293289702385664,9.741408348083496,0.091552734375,0,-0.244140625
5.1324999,0.2017114907503128,-0.028730420395731926,9.739612579345703,-0.18310546875,0.091552734375,-0.18310546875
5.1374999,0.2017114907503128,-0.028730420395731926,9.739612579345703,-0.18310546875,0.091552734375,-0.18310546875
5.1424999,0.1999158412218094,-0.02693476900458336,9.740809440612793,-0.1220703125,0.152587890625,-0.213623046875
5.147499900000001,0.19632454216480255,-0.02513911761343479,9.742605209350586,-0.030517578125,0.030517578125,-0.18310546875
5.1524999000000005,0.1975216418504715,-0.021547814831137657,9.744400978088379,-0.06103515625,0.030517578125,-0.213623046875
5.1574999,0.20111294090747833,-0.02214636653661728,9.746196746826172,-0.18310546875,0.1220703125,-0.152587890625
5.1624999,0.2041056901216507,-0.02274491637945175,9.750386238098145,-0.030517578125,0.06103515625,-0.274658203125
5.1674999,0.2059013396501541,-0.023343466222286224,9.758167266845703,0.030517578125,-0.030517578125,-0.244140625
5.1724999,0.20709845423698425,-0.02274491637945175,9.761758804321289,-0.091552734375,0.030517578125,-0.244140625
5.1774999,0.20769700407981873,-0.02274491637945175,9.765948295593262,-0.06103515625,0.06103515625,-0.18310546875
5.1824999,0.20889410376548767,-0.02214636653661728,9.761758804321289,0,0,-0.213623046875
5.187499900000001,0.20949265360832214,-0.023343466222286224,9.755773544311523,-0.1220703125,0.06103515625,-0.244140625
5.1924999000000005,0.2064998894929886,-0.02454056777060032,9.749788284301758,0.091552734375,0,-0.18310546875
5.1974999,0.20709845423698425,-0.02753331884741783,9.747393608093262,0.030517578125,-0.091552734375,-0.152587890625
5.2024999,0.20290859043598175,-0.028730420395731926,9.744999885559082,0,-0.030517578125,-0.18310546875
5.2074999,0.20231004059314728,-0.03292027488350868,9.746196746826172,-0.1220703125,-0.030517578125,-0.091552734375
5.2124999,0.2041056901216507,-0.033518824726343155,9.746196746826172,-0.030517578125,-0.18310546875,-0.1220703125
5.2174999,0.2041056901216507,-0.03232172131538391,9.743802070617676,0,-0.06103515625,-0.06103515625
5.2224999,0.20350714027881622,-0.02693476900458336,9.739612579345703,0.06103515625,-0.091552734375,-0.06103515625
5.227499900000001,0.20350714027881622,-0.020949264988303185,9.732429504394531,0,-0.091552734375,-0.1220703125
5.2324999000000005,0.20470423996448517,-0.016759412363171577,9.731831550598145,-0.06103515625,0.030517578125,-0.213623046875
5.2374999,0.2059013396501541,-0.013766659423708916,9.729436874389648,-0.244140625,0.06103515625,-0.274658203125
5.2424999,0.2082955539226532,-0.012569558806717396,9.734824180603027,-0.1220703125,0.06103515625,-0.244140625
5.2474999,0.2082955539226532,-0.01735796220600605,9.740211486816406,0.030517578125,-0.091552734375,0
5.2524999,0.20769700407981873,-0.018555063754320145,9.743204116821289,-0.06103515625,-0.1220703125,-0.244140625
5.2574999,0.20290859043598175,-0.02454056777060032,9.744400978088379,0,0.06103515625,-0.244140625
5.2624999,0.20231004059314728,-0.02693476900458336,9.742605209350586,-0.06103515625,-0.030517578125,-0.18310546875
5.2674999,0.20051439106464386,-0.028730420395731926,9.742605209350586,0.030517578125,-0.091552734375,0.030517578125
5.272499900000001,0.19931729137897491,-0.0293289702385664,9.73781681060791,0.06103515625,0,0
5.2774999000000005,0.20051439106464386,-0.02693476900458336,9.741408348083496,-0.06103515625,0,-0.274658203125
5.2824999,0.19871874153614044,-0.0293289702385664,9.741408348083496,-0.213623046875,0,-0.213623046875
5.2874999,0.20051439106464386,-0.0293289702385664,9.747992515563965,-0.030517578125,0,-0.091552734375
