# Time (seconds),Accel_X,Accel_Y,Accel_Z,Gyro_X,Gyro_Y,Gyro_Z
0.0024999,0.39624038338661194,-0.2968810200691223,9.535507202148438,-5.523681640625,0.1220703125,-0.42724609375
0.0074999,0.39624038338661194,-0.2968810200691223,9.535507202148438,-5.523681640625,0.1220703125,-0.42724609375
0.012499900000000001,0.5764040350914001,-0.29867666959762573,9.776124000549316,5.31005859375,0.3662109375,-2.3193359375
0.0174999,0.3579331636428833,-0.3274070918560028,9.838373184204102,-0.1220703125,-0.152587890625,2.044677734375
0.0224999,0.44831427931785583,-0.32620999217033386,9.46487808227539,-5.157470703125,0.06103515625,-0.8544921875
0.0274999,0.272938996553421,-0.2819172441959381,9.917980194091797,-1.15966796875,-0.1220703125,2.13623046875
0.0324999,0.39863458275794983,-0.26336219906806946,9.604938507080078,-4.2724609375,0.1220703125,-1.0986328125
0.0374999,0.47584760189056396,-0.2783259451389313,9.996390342712402,5.767822265625,0.18310546875,-1.708984375
0.0424999,0.2406172752380371,-0.2579752206802368,9.921571731567383,-2.227783203125,-0.091552734375,2.105712890625
0.0474999,0.47884035110473633,-0.27413609623908997,9.561244010925293,-3.72314453125,0.42724609375,-1.434326171875
0.0524999,0.5135562419891357,-0.3357867896556854,9.914389610290527,6.103515625,0.152587890625,-1.3427734375
0.0574999,0.31124621629714966,-0.31842881441116333,9.741408348083496,-3.23486328125,-0.152587890625,2.105712890625
0.0624999,0.5404910445213318,-0.30705636739730835,9.492411613464355,-2.410888671875,0.274658203125,-1.708984375
0.0674999,0.45908817648887634,-0.35075053572654724,9.90241813659668,5.950927734375,0,-0.885009765625
0.0724999,0.26096799969673157,-0.262763649225235,9.755773544311523,-3.90625,-0.3662109375,1.983642578125
0.0774999,0.5009866952896118,-0.2645592987537384,9.603142738342285,-1.708984375,0.274658203125,-2.044677734375
0.0824999,0.3968389332294464,-0.28969839215278625,9.995792388916016,5.584716796875,-0.030517578125,-0.3662109375
0.0874999,0.5398924946784973,-0.2819172441959381,9.616909980773926,-0.30517578125,0.274658203125,-2.288818359375
0.0924999,0.4321534037590027,-0.31124621629714966,9.971251487731934,5.645751953125,-0.091552734375,-0.030517578125
0.0974999,0.3315969407558441,-0.28131869435310364,9.668983459472656,-5.096435546875,-0.274658203125,1.495361328125
0.1024999,0.5051765441894531,-0.2579752206802368,9.600749015808105,0.579833984375,0.274658203125,-2.532958984375
0.1074999,0.365115761756897,-0.25977087020874023,9.986215591430664,4.913330078125,-0.18310546875,0.48828125
0.1124999,0.2585737705230713,-0.1975216418504715,9.680954933166504,-5.767822265625,-0.30517578125,1.312255859375
0.1174999,0.4423287510871887,-0.19452889263629913,9.702502250671387,1.861572265625,0.18310546875,-2.62451171875
0.1224999,0.3381809890270233,-0.2513911724090576,10.017938613891602,4.0283203125,-0.274658203125,0.67138671875
0.1274999,0.29807811975479126,-0.22026655077934265,9.624092102050781,-5.55419921875,-0.396728515625,0.91552734375
0.1324999,0.5129576921463013,-0.28371289372444153,9.649829864501953,2.86865234375,0.213623046875,-2.62451171875
0.1374999,0.39624038338661194,-0.3034650683403015,9.913790702819824,3.23486328125,-0.1220703125,1.03759765625
0.1424999,0.345363587141037,-0.28311434388160706,9.529520988464355,-6.072998046875,-0.213623046875,0.6103515625
0.1474999,0.32680854201316833,-0.28550854325294495,9.983222961425781,2.166748046875,-0.1220703125,1.495361328125
0.1524999,0.33099839091300964,-0.2669534981250763,9.607931137084961,-5.7373046875,-0.06103515625,0.1220703125
0.1574999,0.5237316489219666,-0.30526071786880493,9.855731010437012,4.669189453125,0.3662109375,-2.38037109375
0.1624999,0.3166331648826599,-0.2669534981250763,10.000580787658691,1.0986328125,-0.42724609375,1.739501953125
0.1674999,0.4118026793003082,-0.27473464608192444,9.57860279083252,-5.2490234375,-0.06103515625,-0.457763671875
0.1724999,0.5722141861915588,-0.3519476354122162,9.831191062927246,5.126953125,0.244140625,-2.044677734375
0.17749990000000002,0.33758243918418884,-0.2902969419956207,9.891045570373535,-0.030517578125,-0.152587890625,1.89208984375
0.1824999,0.4357447028160095,-0.2777273952960968,9.526528358459473,-4.730224609375,0.091552734375,-0.8544921875
0.1874999,0.52552729845047,-0.3274070918560028,9.910199165344238,5.79833984375,0.335693359375,-1.922607421875
0.1924999,0.25498247146606445,-0.22685061395168304,9.956287384033203,-1.40380859375,-0.091552734375,2.105712890625
0.1974999,0.4165911078453064,-0.23762452602386475,9.63067626953125,-4.08935546875,0.213623046875,-1.251220703125
0.2024999,0.2651578485965729,-0.2603694200515747,9.921571731567383,-2.3193359375,-0.213623046875,1.953125
0.20749990000000001,0.5063736438751221,-0.29388827085494995,9.602544784545898,-3.265380859375,0.30517578125,-1.678466796875
0.2124999,0.49559974670410156,-0.365115761756897,9.976638793945312,6.072998046875,0.1220703125,-1.0986328125
0.2174999,0.28730419278144836,-0.28730419278144836,9.81024169921875,-3.47900390625,-0.1220703125,2.105712890625
0.2224999,0.518943190574646,-0.3058592677116394,9.59057331085205,-2.13623046875,0.244140625,-2.01416015625
0.2274999,0.424970805644989,-0.333991140127182,9.99459457397461,6.072998046875,0.213623046875,-0.67138671875
0.2324999,0.2687491476535797,-0.2454056739807129,9.803657531738281,-4.302978515625,0,2.01416015625
0.2374999,0.5171475410461426,-0.2717418968677521,9.642048835754395,-1.15966796875,0.457763671875,-2.288818359375
0.2424999,0.46567222476005554,-0.23163901269435883,9.661202430725098,1.129150390625,0.54931640625,-2.655029296875
0.2474999,0.3363853394985199,-0.24361002445220947,10.038887977600098,4.39453125,-0.1220703125,0.54931640625
0.2524999,0.26815059781074524,-0.17896658182144165,9.700108528137207,-5.828857421875,-0.06103515625,1.0986328125
0.2574999,0.47824180126190186,-0.2106897532939911,9.713275909423828,1.953125,0.6103515625,-2.685546875
0.2624999,0.38546648621559143,-0.26815059781074524,9.977835655212402,3.662109375,-0.091552734375,0.946044921875
0.2674999,0.3411737382411957,-0.25977087020874023,9.561842918395996,-6.072998046875,0,0.823974609375
0.2724999,0.5446808934211731,-0.3292027413845062,9.636063575744629,3.41796875,0.518798828125,-2.593994140625
0.2774999,0.37469255924224854,-0.314238965511322,9.925163269042969,2.62451171875,0,1.40380859375
0.2824999,0.33518823981285095,-0.28311434388160706,9.564835548400879,-6.04248046875,0.030517578125,0.42724609375
0.28749990000000003,0.5141547918319702,-0.3082534670829773,9.78869342803955,3.84521484375,0.48828125,-2.50244140625
0.2924999,0.3058592677116394,-0.25977087020874023,10.026318550109863,1.3427734375,-0.213623046875,1.556396484375
0.2974999,0.3531447649002075,-0.2579752206802368,9.601346969604492,-5.67626953125,0.152587890625,-0.152587890625
0.3024999,0.3423708379268646,-0.29149407148361206,9.90361499786377,0.54931640625,-0.30517578125,1.8310546875
0.3074999,0.44532153010368347,-0.2902969419956207,9.494206428527832,-5.2490234375,0.1220703125,-0.335693359375
0.3124999,0.5674257874488831,-0.3579331636428833,9.81143856048584,5.401611328125,0.1220703125,-2.0751953125
0.3174999,0.3016694188117981,-0.25737667083740234,9.891644477844238,-0.732421875,-0.3662109375,1.89208984375
0.3224999,0.40222588181495667,-0.2513911724090576,9.563039779663086,-4.57763671875,0.18310546875,-0.946044921875
0.3274999,0.4770447015762329,-0.3190273642539978,9.97484302520752,5.828857421875,0.06103515625,-1.64794921875
0.3324999,0.22385786473751068,-0.23044191300868988,9.967061996459961,-1.64794921875,-0.518798828125,2.044677734375
0.3374999,0.43754035234451294,-0.2693476974964142,9.623494148254395,-3.631591796875,-0.06103515625,-1.52587890625
0.3424999,0.4985924959182739,-0.3345896899700165,10.004770278930664,6.103515625,0.06103515625,-1.312255859375
0.34749990000000003,0.29209262132644653,-0.2759317457675934,9.84495735168457,-2.9296875,-0.396728515625,2.105712890625
0.35249990000000003,0.5380968451499939,-0.2932897210121155,9.559449195861816,-2.9296875,-0.091552734375,-1.8310546875
0.3574999,0.4854243993759155,-0.34835633635520935,9.959878921508789,6.28662109375,0,-1.15966796875
0.3624999,0.5123591423034668,-0.2885012924671173,9.627084732055664,-1.495361328125,0.244140625,-2.166748046875
0.3674999,0.4058171808719635,-0.29388827085494995,10.014945983886719,5.889892578125,0.1220703125,-0.762939453125
0.3724999,0.2687491476535797,-0.2298433631658554,9.798270225524902,-4.5166015625,-0.30517578125,1.8310546875
0.3774999,0.5129576921463013,-0.2585737705230713,9.612719535827637,-0.701904296875,0.030517578125,-2.197265625
0.3824999,0.4082113802433014,-0.2825157940387726,9.976638793945312,5.55419921875,-0.18310546875,-0.30517578125
0.3874999,0.3124433159828186,-0.2711433470249176,9.66299819946289,-5.096435546875,-0.48828125,1.617431640625
0.3924999,0.5009866952896118,-0.28072014451026917,9.585186958312988,0.640869140625,0.06103515625,-2.349853515625
0.3974999,0.36092591285705566,-0.2861070930957794,9.955090522766113,4.852294921875,-0.18310546875,0.152587890625
0.4024999,0.4423287510871887,-0.2172738015651703,9.688735961914062,1.5869140625,0.091552734375,-2.50244140625
0.4074999,0.34596213698387146,-0.243011474609375,10.04188060760498,4.180908203125,-0.274658203125,0.579833984375
0.41249990000000003,0.3034650683403015,-0.2148796021938324,9.6618013381958,-5.950927734375,-0.274658203125,0.8544921875
0.41749990000000003,0.35254621505737305,-0.29807811975479126,9.515754699707031,-6.011962890625,-0.244140625,0.518798828125
0.4224999,0.5404910445213318,-0.3232172429561615,9.660603523254395,3.692626953125,0.244140625,-2.5634765625
0.4274999,0.3363853394985199,-0.2663549482822418,9.96825885772705,2.166748046875,-0.30517578125,1.373291015625
0.4324999,0.3250128924846649,-0.2621650993824005,9.603142738342285,-5.79833984375,-0.152587890625,0.091552734375
0.4374999,0.5171475410461426,-0.2992752194404602,9.849146842956543,4.608154296875,0.30517578125,-2.532958984375
0.4424999,0.3076549172401428,-0.25677812099456787,9.999981880187988,1.312255859375,-0.396728515625,1.5869140625
0.4474999,0.3998316824436188,-0.27473464608192444,9.551069259643555,-5.37109375,-0.091552734375,-0.244140625
0.4524999,0.5722141861915588,-0.3363853394985199,9.77791976928711,5.340576171875,0.335693359375,-2.166748046875
0.4574999,0.34656068682670593,-0.2693476974964142,9.825803756713867,-0.213623046875,-0.3662109375,1.739501953125
0.4624999,0.4387374520301819,-0.27413609623908997,9.450512886047363,-4.94384765625,-0.091552734375,-0.823974609375
0.4674999,0.5285200476646423,-0.32381579279899597,9.832387924194336,5.9814453125,0.1220703125,-1.922607421875
0.47249990000000003,0.25079262256622314,-0.25438392162323,9.905410766601562,-2.44140625,-0.457763671875,2.227783203125
0.47749990000000003,0.4985924959182739,-0.30885201692581177,9.583989143371582,-3.326416015625,0,-1.5869140625
0.4824999,0.5327098965644836,-0.333991140127182,9.556455612182617,-2.105712890625,0.244140625,-1.89208984375
0.4874999,0.4357447028160095,-0.3082534670829773,9.9586820602417,6.16455078125,0,-0.91552734375
0.4924999,0.25977087020874023,-0.243011474609375,9.784503936767578,-4.2724609375,-0.30517578125,2.0751953125
0.4974999,0.4944026470184326,-0.27712884545326233,9.61331844329834,-1.251220703125,0.213623046875,-2.197265625
0.5024999,0.4010287821292877,-0.24779987335205078,9.9586820602417,5.767822265625,-0.1220703125,-0.396728515625
0.5074999,0.29807811975479126,-0.27054479718208313,9.671976089477539,-5.035400390625,-0.48828125,1.77001953125
0.5124999,0.414795458316803,-0.27054479718208313,9.88386344909668,5.340576171875,-0.18310546875,0
0.5174999,0.30705636739730835,-0.27712884545326233,9.608530044555664,-5.584716796875,-0.30517578125,1.434326171875
0.5224999,0.4800374507904053,-0.25438392162323,9.601945877075195,1.28173828125,0.3662109375,-2.50244140625
0.5274999,0.34356793761253357,-0.20470423996448517,10.007762908935547,4.45556640625,-0.335693359375,0.518798828125
0.5324999,0.2687491476535797,-0.21847090125083923,9.676166534423828,-5.950927734375,-0.42724609375,1.007080078125
0.5374999,0.46088382601737976,-0.23942017555236816,9.66419506072998,2.532958984375,0.06103515625,-2.44140625
0.5424999,0.3669114112854004,-0.22864626348018646,9.944316864013672,3.692626953125,-0.244140625,0.91552734375
0.5474999,0.32202014327049255,-0.2849099934101105,9.513360023498535,-6.28662109375,-0.152587890625,0.762939453125
0.5524999,0.5273229479789734,-0.31364041566848755,9.592967987060547,3.41796875,0.30517578125,-2.38037109375
0.5574999,0.3734954595565796,-0.2645592987537384,9.907805442810059,2.5634765625,-0.42724609375,1.312255859375
0.5624999,0.3423708379268646,-0.3148375153541565,9.545681953430176,-6.16455078125,0.030517578125,0.244140625
0.5674999000000001,0.5327098965644836,-0.284311443567276,9.791686058044434,4.33349609375,0.244140625,-2.44140625
0.5724999000000001,0.3693056106567383,-0.2849099934101105,9.615114212036133,-5.950927734375,-0.06103515625,-0.06103515625
0.5774999000000001,0.5566518902778625,-0.26096799969673157,9.847949981689453,5.157470703125,0.274658203125,-2.25830078125
0.5824999,0.33937808871269226,-0.2801215946674347,9.925761222839355,-0.091552734375,-0.457763671875,1.922607421875
0.5874999,0.43694180250167847,-0.3232172429561615,9.496601104736328,-5.096435546875,0,-0.762939453125
0.5924999,0.5554547905921936,-0.30945056676864624,9.827000617980957,5.767822265625,0.274658203125,-1.922607421875
0.5974999,0.29149407148361206,-0.2968810200691223,9.876082420349121,-0.946044921875,-0.3662109375,2.288818359375
0.6024999,0.29149407148361206,-0.2968810200691223,9.876082420349121,-0.946044921875,-0.3662109375,2.288818359375
0.6074999,0.3974374830722809,-0.27712884545326233,9.543886184692383,-4.45556640625,0.213623046875,-1.068115234375
0.6124999,0.4752490520477295,-0.2555810213088989,9.956886291503906,6.011962890625,0.274658203125,-1.739501953125
0.6174999,0.22505496442317963,-0.25977087020874023,9.913790702819824,-2.197265625,-0.244140625,2.288818359375
0.6224999,0.44352585077285767,-0.3058592677116394,9.57979965209961,-3.509521484375,0,-1.495361328125
0.6274999,0.49799394607543945,-0.31603461503982544,9.946710586547852,6.2255859375,0.30517578125,-1.556396484375
0.6324999,0.5327098965644836,-0.345363587141037,9.53969669342041,-2.777099609375,0.18310546875,-1.678466796875
0.6374999,0.4812345504760742,-0.3034650683403015,9.947908401489258,5.950927734375,0.18310546875,-1.129150390625
0.6424999,0.5093663930892944,-0.2687491476535797,9.618106842041016,-1.52587890625,0.48828125,-2.13623046875
0.6474999,0.5093663930892944,-0.2687491476535797,9.618106842041016,-1.52587890625,0.48828125,-2.13623046875
0.6524999,0.4100070297718048,-0.2555810213088989,9.961674690246582,5.828857421875,0.091552734375,-0.6103515625
0.6574999,0.2783259451389313,-0.25318682193756104,9.715670585632324,-4.69970703125,-0.244140625,1.983642578125
0.6624999,0.5303156971931458,-0.2519897222518921,9.537302017211914,-0.42724609375,0.42724609375,-2.25830078125
0.6674999,0.42197805643081665,-0.28730419278144836,9.86351203918457,5.37109375,-0.06103515625,-0.335693359375
0.6724999,0.32381579279899597,-0.2735375463962555,9.578003883361816,-5.37109375,-0.42724609375,1.678466796875
0.6774999,0.5045779943466187,-0.24779987335205078,9.526528358459473,0.457763671875,0.213623046875,-2.349853515625
0.6824999,0.3585317134857178,-0.2861070930957794,9.928754806518555,4.669189453125,-0.152587890625,0.1220703125
0.6874999,0.25737667083740234,-0.21667525172233582,9.661202430725098,-5.706787109375,-0.30517578125,1.190185546875
0.6924999000000001,0.3405751883983612,-0.2783259451389313,10.030508041381836,3.662109375,-0.091552734375,0.701904296875
0.6974999000000001,0.3405751883983612,-0.2783259451389313,10.030508041381836,3.662109375,-0.091552734375,0.701904296875
0.7024999000000001,0.29867666959762573,-0.2454056739807129,9.64923095703125,-5.889892578125,-0.091552734375,0.885009765625
0.7074999,0.507570743560791,-0.29209262132644653,9.645041465759277,2.74658203125,0.396728515625,-2.44140625
0.7124999,0.395043283700943,-0.3130418658256531,9.898826599121094,3.143310546875,-0.244140625,0.9765625
0.7174999,0.33997663855552673,-0.28730419278144836,9.501389503479004,-6.134033203125,-0.213623046875,0.3662109375
0.7224999,0.5291185975074768,-0.32441434264183044,9.64803409576416,3.60107421875,0.18310546875,-2.5634765625
0.7274999,0.3321954905986786,-0.27413609623908997,9.954492568969727,2.105712890625,-0.213623046875,1.3427734375
0.7324999,0.33039984107017517,-0.25737667083740234,9.586383819580078,-5.828857421875,-0.152587890625,0.091552734375
0.7374999,0.524330198764801,-0.29867666959762573,9.832986831665039,4.57763671875,0.335693359375,-2.410888671875
0.7424999,0.322618693113327,-0.25737667083740234,9.995193481445312,0.946044921875,-0.244140625,1.556396484375
0.7474999,0.41120412945747375,-0.2693476974964142,9.566631317138672,-5.462646484375,0,-0.152587890625
0.7524999,0.43275195360183716,-0.2717418968677521,9.497797966003418,-5.0048828125,0.06103515625,-0.91552734375
0.7574999,0.5207388401031494,-0.33758243918418884,9.882665634155273,5.79833984375,0.06103515625,-2.044677734375
0.7624999,0.24361002445220947,-0.23283611238002777,9.939528465270996,-1.068115234375,-0.48828125,2.0751953125
0.7674999,0.3968389332294464,-0.25737667083740234,9.618705749511719,-3.997802734375,0.030517578125,-1.129150390625
0.7724999,0.47165772318840027,-0.32202014327049255,10.032901763916016,6.16455078125,0.18310546875,-1.434326171875
0.7774999,0.2495955228805542,-0.25977087020874023,9.934141159057617,-2.3193359375,-0.54931640625,2.166748046875
0.7824999,0.5003881454467773,-0.3016694188117981,9.611522674560547,-3.2958984375,0.1220703125,-1.708984375
0.7874999,0.5039794445037842,-0.3555389642715454,9.974244117736816,6.072998046875,0.091552734375,-1.220703125
0.7924999,0.30286651849746704,-0.2968810200691223,9.79408073425293,-3.204345703125,-0.54931640625,1.983642578125
0.7974999,0.5297171473503113,-0.3064578175544739,9.55585765838623,-2.197265625,0.06103515625,-2.01416015625
0.8024999,0.4321534037590027,-0.32381579279899597,9.959878921508789,6.195068359375,0,-0.79345703125
0.8074999,0.5051765441894531,-0.25977087020874023,9.611522674560547,-1.251220703125,0.213623046875,-2.3193359375
0.8124999,0.4058171808719635,-0.2579752206802368,9.967659950256348,5.706787109375,-0.213623046875,-0.244140625
0.8174999000000001,0.3058592677116394,-0.2454056739807129,9.700108528137207,-4.974365234375,-0.457763671875,1.861572265625
0.8224999000000001,0.5249287486076355,-0.3016694188117981,9.552266120910645,0,0.30517578125,-2.655029296875
0.8274999000000001,0.4040215313434601,-0.2992752194404602,9.916184425354004,5.37109375,-0.06103515625,-0.091552734375
0.8324999000000001,0.2968810200691223,-0.28790274262428284,9.630077362060547,-5.340576171875,-0.244140625,1.800537109375
0.8374999,0.46567222476005554,-0.2621650993824005,9.622296333312988,1.251220703125,0.091552734375,-2.532958984375
0.8424999,0.3429693877696991,-0.24181437492370605,10.015543937683105,4.669189453125,-0.152587890625,0.396728515625
0.8474999,0.2621650993824005,-0.20709845423698425,9.691728591918945,-5.92041015625,-0.06103515625,1.46484375
0.8524999,0.4692635238170624,-0.24779987335205078,9.683348655700684,2.227783203125,0.274658203125,-2.655029296875
0.8574999,0.3770867586135864,-0.25318682193756104,9.956886291503906,3.753662109375,-0.48828125,0.79345703125
0.8624999,0.3357867896556854,-0.27653029561042786,9.533112525939941,-6.04248046875,-0.274658203125,0.823974609375
0.8674999,0.3130418658256531,-0.2106897532939911,10.002376556396484,1.678466796875,-0.335693359375,1.28173828125
0.8724999,0.3579331636428833,-0.2454056739807129,9.592967987060547,-5.7373046875,-0.030517578125,-0.06103515625
0.8774999,0.5590460896492004,-0.2950853705406189,9.836577415466309,5.18798828125,0.244140625,-2.13623046875
0.8824999,0.35254621505737305,-0.2693476974964142,9.904812812805176,0.213623046875,-0.1220703125,1.77001953125
0.8874999,0.4531026780605316,-0.31842881441116333,9.480440139770508,-5.2490234375,0.06103515625,-0.67138671875
0.8924999,0.5716156363487244,-0.35673606395721436,9.793481826782227,5.645751953125,0.18310546875,-2.105712890625
0.8974999,0.3058592677116394,-0.2825157940387726,9.870695114135742,-0.67138671875,-0.30517578125,1.922607421875
0.9024999,0.4034229815006256,-0.30286651849746704,9.539097785949707,-4.608154296875,0.152587890625,-0.91552734375
0.9074999,0.4812345504760742,-0.2908954918384552,9.971251487731934,6.072998046875,0.091552734375,-1.708984375
0.9124999,0.28969839215278625,-0.3058592677116394,9.80904483795166,-2.86865234375,-0.30517578125,2.0751953125
0.9174999,0.5327098965644836,-0.3423708379268646,9.534309387207031,-2.655029296875,0.18310546875,-1.64794921875
0.9224999,0.48482584953308105,-0.27413609623908997,9.95090103149414,6.2255859375,0.030517578125,-0.9765625
0.9274999,0.2801215946674347,-0.2849099934101105,9.783905029296875,-4.058837890625,-0.42724609375,2.01416015625
0.9324999,0.5093663930892944,-0.29568392038345337,9.61451530456543,-1.3427734375,0.18310546875,-2.105712890625
0.9374999,0.4118026793003082,-0.20231004059314728,9.976638793945312,5.9814453125,-0.030517578125,-0.640869140625
0.9424999000000001,0.2861070930957794,-0.2825157940387726,9.740809440612793,-5.06591796875,-0.3662109375,1.708984375
0.9474999000000001,0.5404910445213318,-0.28371289372444153,9.55705451965332,-0.48828125,0.30517578125,-2.38037109375
0.9524999000000001,0.4411316514015198,-0.26396074891090393,9.923966407775879,5.645751953125,-0.06103515625,-0.1220703125
0.9574999000000001,0.3387795388698578,-0.3423708379268646,9.643245697021484,-5.18798828125,-0.152587890625,1.556396484375
0.9624999,0.5219359993934631,-0.27892449498176575,9.661202430725098,3.814697265625,0.3662109375,-2.532958984375
0.9674999,0.3256114423274994,-0.2669534981250763,9.967659950256348,1.922607421875,-0.1220703125,1.251220703125
0.9724999,0.3076549172401428,-0.28072014451026917,9.597756385803223,-5.859375,-0.030517578125,0.213623046875
0.9774999,0.5069721937179565,-0.24660277366638184,9.834183692932129,4.638671875,0.42724609375,-2.593994140625
0.9824999,0.4010287821292877,-0.2861070930957794,9.515155792236328,-5.4931640625,0.091552734375,-0.091552734375
0.9874999,0.5829881429672241,-0.32202014327049255,9.744999885559082,5.340576171875,0.48828125,-2.044677734375
0.9924999,0.363918662071228,-0.3232172429561615,9.79527759552002,-0.152587890625,-0.274658203125,1.77001953125
0.9974999,0.4513070285320282,-0.3166331648826599,9.415796279907227,-4.852294921875,0.06103515625,-0.518798828125
1.0024999,0.5428852438926697,-0.3363853394985199,9.794678688049316,5.859375,0.213623046875,-1.89208984375
1.0074999000000002,0.26815059781074524,-0.26096799969673157,9.868300437927246,-1.03759765625,-0.274658203125,1.861572265625
1.0124999000000001,0.395043283700943,-0.24121582508087158,9.560646057128906,-3.997802734375,0,-1.0986328125
1.0174999000000002,0.4686649739742279,-0.28730419278144836,9.99220085144043,6.072998046875,0.18310546875,-1.5869140625
1.0224999000000001,0.2388216257095337,-0.24480712413787842,9.921571731567383,-2.105712890625,-0.213623046875,1.953125
1.0274999,0.47465047240257263,-0.2651578485965729,9.586981773376465,-3.509521484375,0.274658203125,-1.46484375
1.0324999000000001,0.5147533416748047,-0.345363587141037,9.96945571899414,6.04248046875,0.30517578125,-1.007080078125
1.0374999,0.31543606519699097,-0.292691171169281,9.80904483795166,-3.173828125,0.06103515625,2.01416015625
1.0424999000000001,0.40282443165779114,-0.27473464608192444,10.035296440124512,5.92041015625,-0.152587890625,-0.457763671875
1.0474999,0.28790274262428284,-0.23702596127986908,9.78989028930664,-4.57763671875,-0.3662109375,1.617431640625
1.0524999000000002,0.535702645778656,-0.2777273952960968,9.600749015808105,-0.30517578125,0.213623046875,-2.38037109375
1.0574999,0.42676645517349243,-0.2908954918384552,9.948506355285645,5.523681640625,0,-0.244140625
1.0624999000000002,0.3321954905986786,-0.2783259451389313,9.650428771972656,-5.18798828125,-0.18310546875,1.617431640625
1.0674999,0.5051765441894531,-0.2795230448246002,9.589975357055664,0.42724609375,0.30517578125,-2.349853515625
1.0724999000000002,0.3669114112854004,-0.2777273952960968,9.985616683959961,4.8828125,0,0.274658203125
1.0774999,0.262763649225235,-0.23163901269435883,9.695918083190918,-5.828857421875,-0.06103515625,1.434326171875
1.0824999000000002,0.4471171796321869,-0.21547815203666687,9.717466354370117,1.89208984375,0.48828125,-2.8076171875
1.0874999,0.2974795699119568,-0.20949265360832214,9.648633003234863,-5.9814453125,-0.152587890625,1.03759765625
1.0924999000000002,0.5081692934036255,-0.2801215946674347,9.635464668273926,2.50244140625,0.152587890625,-2.44140625
1.0974999,0.3902548849582672,-0.28371289372444153,9.891644477844238,3.173828125,-0.30517578125,0.91552734375
1.1024999000000002,0.3387795388698578,-0.30705636739730835,9.489418029785156,-5.950927734375,-0.1220703125,0.640869140625
1.1074999,0.5291185975074768,-0.3363853394985199,9.640851974487305,3.753662109375,0.091552734375,-2.5634765625
1.1124999000000002,0.3405751883983612,-0.2759317457675934,9.961075782775879,2.166748046875,-0.244140625,1.28173828125
1.1174999,0.3256114423274994,-0.2753331959247589,9.592369079589844,-6.04248046875,-0.030517578125,0.274658203125
1.1224999000000002,0.5231330990791321,-0.28131869435310364,9.844358444213867,4.57763671875,0.3662109375,-2.410888671875
1.1274999,0.3166331648826599,-0.2406172752380371,9.996989250183105,0.9765625,-0.152587890625,1.251220703125
1.1324999000000002,0.40521863102912903,-0.2711433470249176,9.549273490905762,-5.67626953125,0.1220703125,-0.3662109375
1.1374999000000001,0.5847837924957275,-0.3363853394985199,9.77791976928711,5.31005859375,0.518798828125,-2.01416015625
1.1424999000000002,0.3663128614425659,-0.28790274262428284,9.824606895446777,-0.152587890625,-0.06103515625,1.800537109375
1.1474999000000001,0.45669397711753845,-0.30286651849746704,9.434351921081543,-5.279541015625,0.213623046875,-0.8544921875
1.1524999000000002,0.5500678420066833,-0.32620999217033386,9.805453300476074,5.767822265625,0.335693359375,-2.01416015625
1.1574999000000001,0.2735375463962555,-0.23044191300868988,9.8784761428833,-1.251220703125,-0.3662109375,2.0751953125
1.1624999,0.4106055796146393,-0.26396074891090393,9.564835548400879,-4.21142578125,-0.030517578125,-1.15966796875
1.1674999000000001,0.4866214990615845,-0.29388827085494995,9.988011360168457,6.134033203125,0.1220703125,-1.708984375
1.1724999,0.25917232036590576,-0.25977087020874023,9.915586471557617,-2.044677734375,-0.48828125,2.0751953125
1.1774999000000002,0.4920084476470947,-0.3321954905986786,9.581595420837402,-3.448486328125,0.1220703125,-1.495361328125
1.1824999,0.517746090888977,-0.322618693113327,9.93354320526123,6.2255859375,0.18310546875,-1.251220703125
1.1874999000000002,0.3082534670829773,-0.3166331648826599,9.765350341796875,-3.326416015625,-0.274658203125,2.105712890625
1.1924999,0.5380968451499939,-0.345363587141037,9.527127265930176,-2.349853515625,0.335693359375,-1.922607421875
1.1974999000000002,0.4554968774318695,-0.28072014451026917,9.927556991577148,6.134033203125,0.274658203125,-0.9765625
1.2024999,0.4554968774318695,-0.28072014451026917,9.927556991577148,6.134033203125,0.274658203125,-0.9765625
1.2074999000000002,0.2579752206802368,-0.2717418968677521,9.785101890563965,-3.96728515625,-0.1220703125,2.01416015625
1.2124999,0.3884592354297638,-0.20709845423698425,9.995193481445312,5.950927734375,0.18310546875,-0.518798828125
1.2174999000000002,0.3884592354297638,-0.20709845423698425,9.995193481445312,5.950927734375,0.18310546875,-0.518798828125
1.2224999,0.2795230448246002,-0.2693476974964142,9.744999885559082,-5.218505859375,-0.1220703125,1.861572265625
1.2274999000000002,0.5309142470359802,-0.2950853705406189,9.573814392089844,-0.244140625,0.396728515625,-2.3193359375
1.2324999,0.43275195360183716,-0.2322375625371933,9.946112632751465,5.279541015625,-0.152587890625,0.1220703125
1.2374999000000002,0.3321954905986786,-0.32860419154167175,9.651625633239746,-5.523681640625,-0.30517578125,1.556396484375
1.2424999,0.5153518915176392,-0.262763649225235,9.619303703308105,1.0986328125,0.335693359375,-2.532958984375
1.2474999000000002,0.3711012601852417,-0.228047713637352,10.021530151367188,4.7607421875,-0.091552734375,0.42724609375
1.2524999,0.27473464608192444,-0.243011474609375,9.704896926879883,-5.92041015625,-0.030517578125,1.129150390625
1.2574999000000002,0.4537012279033661,-0.1885433793067932,9.709086418151855,2.01416015625,0.335693359375,-2.685546875
1.2624999000000001,0.3531447649002075,-0.21607670187950134,10.014945983886719,3.72314453125,-0.244140625,0.823974609375
1.2674999000000002,0.3058592677116394,-0.26096799969673157,9.59835433959961,-5.767822265625,-0.18310546875,0.8544921875
1.2724999000000001,0.517746090888977,-0.28131869435310364,9.618106842041016,3.11279296875,0.42724609375,-2.62451171875
1.2774999000000002,0.3471592366695404,-0.32202014327049255,9.501988410949707,-6.28662109375,-0.06103515625,0.518798828125
1.2824999000000001,0.33099839091300964,-0.2579752206802368,9.985616683959961,1.8310546875,-0.274658203125,1.617431640625
1.2874999,0.322618693113327,-0.25977087020874023,9.619303703308105,-5.55419921875,-0.274658203125,0.18310546875
1.2924999000000001,0.5147533416748047,-0.2555810213088989,9.847352027893066,4.791259765625,0.091552734375,-2.471923828125
1.2974999,0.30945056676864624,-0.25917232036590576,9.965864181518555,1.190185546875,-0.335693359375,1.556396484375
1.3024999000000002,0.3974374830722809,-0.262763649225235,9.514557838439941,-5.37109375,0.06103515625,-0.274658203125
1.3074999,0.5704185366630554,-0.3274070918560028,9.73542308807373,5.157470703125,0.274658203125,-2.227783203125
1.3124999000000002,0.345363587141037,-0.29568392038345337,9.785700798034668,-0.06103515625,-0.1220703125,1.922607421875
1.3174999,0.43335050344467163,-0.3016694188117981,9.423578262329102,-4.913330078125,0.244140625,-0.640869140625
1.3224999000000002,0.5273229479789734,-0.3447650372982025,9.801262855529785,5.615234375,0.30517578125,-1.983642578125
1.3274999,0.46567222476005554,-0.2902969419956207,10.00716495513916,6.011962890625,0.1220703125,-1.64794921875
1.3324999000000002,0.23403321206569672,-0.24241292476654053,9.922170639038086,-2.197265625,-0.396728515625,2.044677734375
1.3374999,0.48303020000457764,-0.3064578175544739,9.603142738342285,-3.41796875,0.091552734375,-1.5869140625
1.3424999000000002,0.5099649429321289,-0.33937808871269226,9.938331604003906,6.40869140625,0.152587890625,-1.251220703125
1.3474999,0.3130418658256531,-0.32202014327049255,9.779715538024902,-2.838134765625,-0.274658203125,2.0751953125
1.3524999000000002,0.536899745464325,-0.33997663855552673,9.527127265930176,-2.38037109375,0.274658203125,-1.861572265625
1.3574999,0.45908817648887634,-0.2992752194404602,9.929352760314941,6.2255859375,0.30517578125,-0.946044921875
1.3624999000000002,0.2645592987537384,-0.25019407272338867,9.767744064331055,-4.33349609375,-0.18310546875,2.166748046875
1.3674999,0.49559974670410156,-0.2801215946674347,9.598953247070312,-1.46484375,0.213623046875,-1.983642578125
1.3724999000000002,0.39803603291511536,-0.23163901269435883,9.961075782775879,5.79833984375,0.091552734375,-0.6103515625
1.3774999,0.28311434388160706,-0.2669534981250763,9.706692695617676,-4.852294921875,-0.335693359375,1.77001953125
1.3824999000000002,0.3256114423274994,-0.3172317147254944,9.623494148254395,-5.584716796875,-0.30517578125,1.556396484375
1.3874999000000001,0.5057750940322876,-0.28371289372444153,9.59476375579834,0.91552734375,0.30517578125,-2.349853515625
1.3924999000000002,0.36571431159973145,-0.21667525172233582,10.019734382629395,4.69970703125,-0.06103515625,0.1220703125
1.3974999000000001,0.27473464608192444,-0.24420857429504395,9.720458984375,-5.92041015625,0,1.190185546875
1.4024999000000002,0.46327802538871765,-0.19572599232196808,9.728240013122559,2.01416015625,0.48828125,-2.44140625
1.4074999000000001,0.3693056106567383,-0.19393034279346466,10.047865867614746,3.84521484375,-0.030517578125,0.6103515625
1.4124999,0.3190273642539978,-0.2603694200515747,9.618106842041016,-6.16455078125,-0.274658203125,1.068115234375
1.4174999000000001,0.5225345492362976,-0.25438392162323,9.630077362060547,2.8076171875,0.244140625,-2.532958984375
1.4224999,0.3908534348011017,-0.29209262132644653,9.888052940368652,2.74658203125,-0.335693359375,1.03759765625
1.4274999000000002,0.33279404044151306,-0.32860419154167175,9.496002197265625,-5.889892578125,-0.213623046875,0.67138671875
1.4324999,0.5141547918319702,-0.3034650683403015,9.677961349487305,3.936767578125,0.274658203125,-2.593994140625
1.4374999000000002,0.32202014327049255,-0.24480712413787842,9.967061996459961,0.8544921875,-0.1220703125,1.77001953125
1.4424999,0.4082113802433014,-0.25977087020874023,9.519346237182617,-5.67626953125,0.244140625,-0.152587890625
1.4474999000000002,0.5871779918670654,-0.33937808871269226,9.733627319335938,5.126953125,0.3662109375,-2.166748046875
1.4524999,0.36092591285705566,-0.3208230137825012,9.795876502990723,0.18310546875,-0.18310546875,1.8310546875
1.4574999000000002,0.43993455171585083,-0.3082534670829773,9.425971984863281,-4.974365234375,0.1220703125,-0.48828125
1.4624999,0.5410895943641663,-0.3579331636428833,9.801861763000488,5.55419921875,0.152587890625,-1.861572265625
1.4674999000000002,0.26096799969673157,-0.25258827209472656,9.896432876586914,-1.28173828125,-0.274658203125,2.044677734375
1.4724999,0.39145198464393616,-0.24839842319488525,9.584588050842285,-4.150390625,-0.030517578125,-1.0986328125
1.4774999000000002,0.4800374507904053,-0.30885201692581177,10.010157585144043,6.072998046875,0.030517578125,-1.708984375
1.4824999,0.24660277366638184,-0.2537853717803955,9.968857765197754,-1.708984375,-0.30517578125,2.044677734375
1.4874999000000002,0.3064578175544739,-0.2885012924671173,9.820416450500488,-3.35693359375,-0.335693359375,2.166748046875
1.4924999,0.5309142470359802,-0.3058592677116394,9.553462982177734,-2.899169921875,0.18310546875,-1.708984375
1.4974999000000002,0.45010992884635925,-0.3250128924846649,9.947309494018555,5.889892578125,0.18310546875,-0.885009765625
1.5024999,0.2555810213088989,-0.2513911724090576,9.782109260559082,-3.90625,-0.30517578125,2.01416015625
1.5074999000000002,0.48961424827575684,-0.2819172441959381,9.62947940826416,-1.556396484375,0.244140625,-2.13623046875
1.5124999000000001,0.39803603291511536,-0.2777273952960968,9.999981880187988,5.9814453125,0.152587890625,-0.48828125
1.5174999000000002,0.28790274262428284,-0.2561795711517334,9.761159896850586,-4.82177734375,-0.518798828125,1.8310546875
1.5224999000000001,0.5410895943641663,-0.29807811975479126,9.584588050842285,-0.457763671875,0.213623046875,-2.349853515625
1.5274999000000002,0.436343252658844,-0.2861070930957794,9.922170639038086,5.4931640625,-0.091552734375,-0.06103515625
1.5324999000000001,0.3357867896556854,-0.29568392038345337,9.618106842041016,-5.18798828125,-0.3662109375,1.434326171875
1.5374999000000003,0.5135562419891357,-0.2861070930957794,9.560646057128906,0.762939453125,0.213623046875,-2.532958984375
1.5424999000000001,0.34596213698387146,-0.21188685297966003,10.023923873901367,3.997802734375,-0.030517578125,0.701904296875
1.5474999,0.29867666959762573,-0.2298433631658554,9.625288963317871,-6.16455078125,0,1.068115234375
1.5524999000000002,0.5153518915176392,-0.3016694188117981,9.630077362060547,2.716064453125,0.579833984375,-2.50244140625
1.5574999,0.3992331326007843,-0.27892449498176575,9.892841339111328,2.960205078125,-0.244140625,0.946044921875
1.5624999000000002,0.35015198588371277,-0.3076549172401428,9.486425399780273,-6.34765625,-0.030517578125,0.48828125
1.5674999,0.535702645778656,-0.30466216802597046,9.643245697021484,3.96728515625,0.244140625,-2.5634765625
1.5724999000000002,0.3315969407558441,-0.23283611238002777,9.945513725280762,2.044677734375,-0.335693359375,1.556396484375
1.5774999,0.32620999217033386,-0.2579752206802368,9.566631317138672,-5.859375,-0.213623046875,0.091552734375
1.5824999000000002,0.5165489912033081,-0.25498247146606445,9.818022727966309,4.974365234375,0.091552734375,-2.349853515625
1.5874999,0.3148375153541565,-0.23163901269435883,9.956886291503906,0.9765625,-0.30517578125,1.77001953125
1.5924999000000002,0.3513490855693817,-0.2968810200691223,9.838972091674805,-0.152587890625,-0.213623046875,1.922607421875
1.5974999,0.44532153010368347,-0.31842881441116333,9.475052833557129,-4.94384765625,0.18310546875,-0.67138671875
1.6024999000000002,0.5392939448356628,-0.3076549172401428,9.8784761428833,5.950927734375,0.152587890625,-1.953125
1.6074999,0.2651578485965729,-0.24121582508087158,9.929352760314941,-1.190185546875,-0.457763671875,2.166748046875
1.6124999000000002,0.4118026793003082,-0.2783259451389313,9.608530044555664,-4.0283203125,0.030517578125,-1.220703125
1.6174999,0.4884171485900879,-0.24660277366638184,9.99220085144043,6.195068359375,0.213623046875,-1.708984375
1.6224999000000002,0.262763649225235,-0.2801215946674347,9.90361499786377,-2.532958984375,-0.30517578125,2.13623046875
1.6274999,0.49320554733276367,-0.33997663855552673,9.563039779663086,-3.11279296875,0.06103515625,-1.64794921875
1.6324999000000002,0.5165489912033081,-0.30466216802597046,9.943120002746582,6.256103515625,0.244140625,-1.434326171875
1.6374999000000001,0.3010708689689636,-0.3579331636428833,9.782109260559082,-3.5400390625,-0.274658203125,2.0751953125
1.6424999000000002,0.5321113467216492,-0.3148375153541565,9.573814392089844,-2.227783203125,0.213623046875,-1.708984375
1.6474999000000001,0.49799394607543945,-0.24361002445220947,9.606135368347168,-1.251220703125,0.06103515625,-1.953125
1.6524999000000002,0.40222588181495667,-0.22685061395168304,9.909601211547852,5.889892578125,-0.091552734375,-0.48828125
1.6574999000000001,0.2932897210121155,-0.26336219906806946,9.640851974487305,-4.69970703125,-0.48828125,1.77001953125
1.6624999000000003,0.5273229479789734,-0.2759317457675934,9.49121379852295,-0.06103515625,0.1220703125,-2.3193359375
1.6674999000000001,0.41958385705947876,-0.2968810200691223,9.85034465789795,5.31005859375,-0.030517578125,-0.1220703125
1.6724999,0.3106476664543152,-0.29209262132644653,9.577404975891113,-5.31005859375,-0.30517578125,1.678466796875
1.6774999000000002,0.48482584953308105,-0.24480712413787842,9.573814392089844,0.67138671875,0.6103515625,-2.471923828125
1.6824999,0.34656068682670593,-0.26994624733924866,10.06043529510498,3.90625,-0.091552734375,0.732421875
1.6874999000000002,0.304063618183136,-0.23163901269435883,9.655217170715332,-5.9814453125,-0.274658203125,1.03759765625
1.6924999,0.5201402902603149,-0.31184476613998413,9.658209800720215,2.685546875,0.274658203125,-2.593994140625
1.6974999000000002,0.39624038338661194,-0.30885201692581177,9.910199165344238,2.9296875,-0.091552734375,1.0986328125
1.7024999,0.35015198588371277,-0.3106476664543152,9.513958930969238,-6.103515625,-0.091552734375,0.579833984375
1.7074999000000002,0.5327098965644836,-0.33698388934135437,9.674968719482422,3.96728515625,0.396728515625,-2.5634765625
1.7124999,0.32860419154167175,-0.27234044671058655,9.965864181518555,2.105712890625,-0.244140625,1.28173828125
1.7174999000000002,0.333991140127182,-0.25917232036590576,9.587580680847168,-5.584716796875,0.030517578125,0.1220703125
1.7224999,0.5273229479789734,-0.2783259451389313,9.834781646728516,4.638671875,0.335693359375,-2.471923828125
1.7274999000000002,0.32680854201316833,-0.22924481332302094,9.974244117736816,0.9765625,-0.30517578125,1.5869140625
1.7324999,0.41539400815963745,-0.25977087020874023,9.53969669342041,-5.43212890625,-0.030517578125,-0.091552734375
1.7374999000000002,0.5770025849342346,-0.3387795388698578,9.782708168029785,5.43212890625,0.152587890625,-2.38037109375
1.7424999,0.33279404044151306,-0.28131869435310364,9.835380554199219,-0.06103515625,-0.42724609375,1.739501953125
1.7474999000000002,0.42676645517349243,-0.2890998423099518,9.470863342285156,-4.791259765625,0.18310546875,-0.54931640625
1.7524999,0.40521863102912903,-0.2555810213088989,9.605537414550781,-4.150390625,0.274658203125,-1.15966796875
1.7574999000000002,0.4878185987472534,-0.29149407148361206,10.005967140197754,6.072998046875,0.274658203125,-1.434326171875
1.7624999000000001,0.27653029561042786,-0.2753331959247589,9.9000244140625,-2.5634765625,-0.152587890625,1.861572265625
1.7674999000000002,0.5231330990791321,-0.3274070918560028,9.57860279083252,-3.387451171875,0.3662109375,-1.617431640625
1.7724999000000001,0.5231330990791321,-0.34596213698387146,9.93474006652832,6.134033203125,0.1220703125,-1.0986328125
1.7774999000000002,0.31364041566848755,-0.3106476664543152,9.768941879272461,-3.72314453125,-0.48828125,2.01416015625
1.7824999000000001,0.5339069962501526,-0.3345896899700165,9.53849983215332,-2.3193359375,0.152587890625,-1.708984375
1.7874999000000003,0.43933600187301636,-0.2885012924671173,9.941922187805176,6.072998046875,-0.030517578125,-0.67138671875
1.7924999000000001,0.2645592987537384,-0.25677812099456787,9.75936508178711,-4.2724609375,-0.30517578125,1.800537109375
1.7974999,0.5045779943466187,-0.28730419278144836,9.594164848327637,-1.068115234375,0.30517578125,-2.288818359375
1.8024999000000002,0.41120412945747375,-0.22086510062217712,9.940725326538086,5.92041015625,0.030517578125,-0.335693359375
1.8074999,0.5416881442070007,-0.3010708689689636,9.516951560974121,-0.030517578125,0.213623046875,-2.25830078125
1.8124999000000002,0.4207809567451477,-0.24121582508087158,9.8970308303833,5.126953125,0,-0.030517578125
1.8174999,0.3106476664543152,-0.30226796865463257,9.618106842041016,-5.55419921875,-0.18310546875,1.434326171875
1.8224999000000002,0.47465047240257263,-0.2603694200515747,9.618106842041016,1.28173828125,0.3662109375,-2.50244140625
1.8274999,0.3423708379268646,-0.20051439106464386,10.026318550109863,4.486083984375,0.06103515625,0.3662109375
1.8324999000000002,0.2579752206802368,-0.22685061395168304,9.68813705444336,-6.072998046875,-0.1220703125,1.220703125
1.8374999,0.45669397711753845,-0.19871874153614044,9.686341285705566,2.288818359375,0.3662109375,-2.471923828125
1.8424999000000002,0.3429693877696991,-0.23104046285152435,9.601346969604492,-5.859375,0,-0.1220703125
1.8474999,0.5392939448356628,-0.24181437492370605,9.813833236694336,4.974365234375,0.274658203125,-2.227783203125
1.8524999000000002,0.33937808871269226,-0.26156654953956604,9.884461402893066,0.579833984375,-0.335693359375,1.861572265625
1.8574999,0.4339490532875061,-0.29149407148361206,9.451709747314453,-5.279541015625,0.030517578125,-0.579833984375
1.8624999000000002,0.5764040350914001,-0.3447650372982025,9.727641105651855,5.43212890625,0.213623046875,-2.105712890625
1.8674999,0.32620999217033386,-0.3064578175544739,9.806051254272461,-0.6103515625,-0.213623046875,1.89208984375
1.8724999000000002,0.4165911078453064,-0.28730419278144836,9.479243278503418,-4.7607421875,0.3662109375,-0.91552734375
1.8774999,0.4926069974899292,-0.31364041566848755,9.912593841552734,5.79833984375,0.48828125,-1.77001953125
1.8824999000000002,0.2298433631658554,-0.2406172752380371,9.948506355285645,-1.708984375,-0.091552734375,2.105712890625
1.8874999000000001,0.27413609623908997,-0.28311434388160706,9.88506031036377,-2.50244140625,-0.518798828125,2.0751953125
1.8924999000000002,0.27413609623908997,-0.28311434388160706,9.88506031036377,-2.50244140625,-0.518798828125,2.0751953125
1.8974999000000001,0.524330198764801,-0.3058592677116394,9.575011253356934,-3.0517578125,0.1220703125,-1.495361328125
1.9024999000000002,0.5099649429321289,-0.3513490855693817,9.959280967712402,6.16455078125,-0.030517578125,-1.03759765625
1.9074999000000001,0.3010708689689636,-0.2825157940387726,9.795876502990723,-3.387451171875,-0.335693359375,2.01416015625
1.9124999000000003,0.5219359993934631,-0.284311443567276,9.601945877075195,-2.13623046875,0.1220703125,-1.983642578125
1.9174999000000001,0.42018240690231323,-0.29149407148361206,10.006566047668457,5.9814453125,0,-0.79345703125
1.9224999,0.5003881454467773,-0.2735375463962555,9.642048835754395,-0.9765625,0.42724609375,-2.227783203125
1.9274999000000002,0.40701428055763245,-0.2711433470249176,9.989806175231934,5.584716796875,0.18310546875,-0.244140625
1.9324999,0.30466216802597046,-0.2735375463962555,9.707290649414062,-5.18798828125,-0.152587890625,1.5869140625
1.9374999000000002,0.5297171473503113,-0.30226796865463257,9.568427085876465,0.091552734375,0.48828125,-2.38037109375
1.9424999,0.3992331326007843,-0.24600422382354736,9.929951667785645,3.662109375,-0.091552734375,0.823974609375
1.9474999000000002,0.3585317134857178,-0.2944868206977844,9.505578994750977,-6.195068359375,-0.152587890625,0.79345703125
1.9524999,0.5596446394920349,-0.33339259028434753,9.577404975891113,3.387451171875,0.274658203125,-2.74658203125
1.9574999000000002,0.39145198464393616,-0.28730419278144836,9.875483512878418,2.74658203125,-0.18310546875,1.190185546875
1.9624999,0.33997663855552673,-0.31364041566848755,9.515155792236328,-5.950927734375,-0.213623046875,0.396728515625
1.9674999000000002,0.5201402902603149,-0.2867056429386139,9.755773544311523,4.241943359375,0.213623046875,-2.655029296875
1.9724999,0.30705636739730835,-0.2214636504650116,10.005369186401367,1.64794921875,-0.18310546875,1.617431640625
1.9774999000000002,0.5494692921638489,-0.262763649225235,9.828198432922363,4.974365234375,0.244140625,-2.593994140625
1.9824999,0.3477577865123749,-0.24779987335205078,9.915586471557617,0.274658203125,-0.152587890625,1.800537109375
1.9874999000000002,0.4495113790035248,-0.314238965511322,9.48343276977539,-5.279541015625,0.152587890625,-0.396728515625
1.9924999,0.5752069354057312,-0.3363853394985199,9.785700798034668,5.37109375,0.30517578125,-2.166748046875
1.9974999000000002,0.31603461503982544,-0.2950853705406189,9.864110946655273,-0.732421875,-0.274658203125,1.861572265625
2.0024999,0.4016273319721222,-0.3250128924846649,9.534309387207031,-4.547119140625,0.213623046875,-0.579833984375
2.0074999,0.4794389009475708,-0.2801215946674347,9.954492568969727,6.134033203125,0.091552734375,-1.678466796875
2.0124999000000003,0.22026655077934265,-0.26336219906806946,9.955689430236816,-2.0751953125,-0.3662109375,1.953125
2.0174999000000002,0.4124012291431427,-0.30526071786880493,9.61212158203125,-3.570556640625,0.06103515625,-1.129150390625
2.0224999,0.49320554733276367,-0.26575639843940735,9.989806175231934,6.195068359375,0.091552734375,-1.3427734375
2.0274999,0.28550854325294495,-0.33518823981285095,9.85034465789795,-3.0517578125,-0.42724609375,1.983642578125
2.0324999000000004,0.5374982953071594,-0.33099839091300964,9.557653427124023,-2.838134765625,0.274658203125,-1.678466796875
2.0374999000000003,0.26575639843940735,-0.24660277366638184,9.762357711791992,-4.57763671875,-0.396728515625,1.89208984375
2.0424999,0.5123591423034668,-0.25917232036590576,9.548674583435059,-0.67138671875,0.06103515625,-2.410888671875
2.0474999,0.4231751561164856,-0.24899697303771973,9.864110946655273,5.7373046875,-0.030517578125,-0.30517578125
2.0524999,0.3172317147254944,-0.29209262132644653,9.570821762084961,-5.035400390625,-0.244140625,1.800537109375
2.0574999000000003,0.524330198764801,-0.27473464608192444,9.48343276977539,0.152587890625,0.30517578125,-2.410888671875
2.0624999,0.3884592354297638,-0.2861070930957794,9.870096206665039,4.94384765625,0.18310546875,0.06103515625
2.0674999,0.2759317457675934,-0.2495955228805542,9.624691009521484,-5.645751953125,0.030517578125,1.40380859375
2.0724999,0.4471171796321869,-0.19812019169330597,9.673771858215332,1.068115234375,0.48828125,-2.532958984375
2.0774999000000003,0.3315969407558441,-0.2388216257095337,10.06462574005127,4.119873046875,0.152587890625,0.6103515625
2.0824999,0.3770867586135864,-0.2849099934101105,9.901819229125977,2.532958984375,-0.244140625,1.312255859375
2.0874999,0.3411737382411957,-0.28072014451026917,9.531915664672852,-6.04248046875,-0.030517578125,0.244140625
2.0924999,0.5195417404174805,-0.28790274262428284,9.77013874053955,4.39453125,0.3662109375,-2.5634765625
2.0974999000000003,0.3064578175544739,-0.23163901269435883,9.995792388916016,1.556396484375,-0.213623046875,1.495361328125
2.1024999,0.3663128614425659,-0.25498247146606445,9.579200744628906,-5.67626953125,0.091552734375,-0.06103515625
2.1074999,0.558447539806366,-0.3124433159828186,9.81143856048584,4.94384765625,0.213623046875,-2.38037109375
2.1124999,0.34656068682670593,-0.2795230448246002,9.873687744140625,0.244140625,-0.3662109375,1.739501953125
2.1174999000000003,0.44173020124435425,-0.29807811975479126,9.457695007324219,-5.0048828125,-0.06103515625,-0.457763671875
2.1224999,0.2783259451389313,-0.2495955228805542,9.86231517791748,-0.885009765625,-0.335693359375,1.64794921875
2.1274999,0.3884592354297638,-0.2645592987537384,9.542689323425293,-4.364013671875,0,-0.91552734375
2.1324999,0.46746787428855896,-0.284311443567276,9.973047256469727,6.317138671875,0.030517578125,-1.861572265625
2.1374999000000003,0.2232593148946762,-0.23702596127986908,9.9401273727417,-1.983642578125,-0.42724609375,2.13623046875
2.1424999000000002,0.4489128291606903,-0.304063618183136,9.59476375579834,-3.41796875,-0.06103515625,-1.3427734375
2.1474999,0.5003881454467773,-0.3196259140968323,9.962871551513672,6.317138671875,-0.030517578125,-1.52587890625
2.1524999,0.2974795699119568,-0.31364041566848755,9.803058624267578,-3.021240234375,-0.3662109375,1.953125
2.1574999000000004,0.5333084464073181,-0.3447650372982025,9.541492462158203,-2.593994140625,0.06103515625,-1.8310546875
2.1624999000000003,0.5045779943466187,-0.27473464608192444,9.626486778259277,-1.373291015625,0.244140625,-2.0751953125
2.1674999,0.4040215313434601,-0.2059013396501541,9.978434562683105,5.889892578125,0.06103515625,-0.518798828125
2.1724999,0.52552729845047,-0.29568392038345337,9.532513618469238,-0.3662109375,0.457763671875,-2.471923828125
2.1774999000000004,0.42018240690231323,-0.24361002445220947,9.9000244140625,5.462646484375,0.030517578125,-0.274658203125
2.1824999000000003,0.3208230137825012,-0.32620999217033386,9.605537414550781,-5.43212890625,-0.274658203125,1.800537109375
2.1874999,0.5039794445037842,-0.2902969419956207,9.57321548461914,1.068115234375,0.335693359375,-2.5634765625
2.1924999,0.36332011222839355,-0.21009120345115662,9.985616683959961,4.608154296875,-0.06103515625,0.335693359375
2.1974999,0.262763649225235,-0.2579752206802368,9.683348655700684,-6.103515625,0.06103515625,1.373291015625
2.2024999000000003,0.444722980260849,-0.17477671802043915,9.702502250671387,1.89208984375,0.42724609375,-2.74658203125
2.2074999,0.34416648745536804,-0.21547815203666687,10.020931243896484,3.90625,-0.244140625,0.701904296875
2.2124999,0.29568392038345337,-0.25318682193756104,9.601945877075195,-6.072998046875,-0.030517578125,1.190185546875
2.2174999,0.50876784324646,-0.2783259451389313,9.61331844329834,3.082275390625,0.335693359375,-2.62451171875
2.2224999000000003,0.3884592354297638,-0.2998737692832947,9.877279281616211,2.86865234375,-0.1220703125,0.8544921875
2.2274999,0.33937808871269226,-0.32860419154167175,9.48762321472168,-6.072998046875,-0.1220703125,0.732421875
2.2324999,0.3274070918560028,-0.28371289372444153,9.952696800231934,0.9765625,-0.030517578125,1.556396484375
2.2374999,0.41778820753097534,-0.28371289372444153,9.516353607177734,-5.462646484375,0.396728515625,-0.18310546875
2.2424999000000003,0.5877765417098999,-0.34356793761253357,9.764751434326172,5.18798828125,0.48828125,-2.105712890625
2.2474999,0.3471592366695404,-0.28790274262428284,9.849146842956543,-0.396728515625,-0.091552734375,1.922607421875
2.2524999,0.43754035234451294,-0.2711433470249176,9.513360023498535,-4.913330078125,0.213623046875,-0.640869140625
2.2574999,0.517746090888977,-0.31842881441116333,9.907206535339355,5.584716796875,0.18310546875,-1.8310546875
2.2624999000000003,0.24181437492370605,-0.22266076505184174,9.967659950256348,-1.190185546875,-0.3662109375,1.953125
2.2674999000000002,0.395043283700943,-0.22086510062217712,9.633668899536133,-4.058837890625,0.18310546875,-0.9765625
2.2724999,0.47465047240257263,-0.29568392038345337,10.029311180114746,6.011962890625,0.213623046875,-1.495361328125
2.2774999,0.5069721937179565,-0.2950853705406189,9.602544784545898,-3.265380859375,0.06103515625,-1.373291015625
2.2824999000000004,0.5135562419891357,-0.36092591285705566,9.97364616394043,6.2255859375,0.152587890625,-1.15966796875
2.2874999000000003,0.3076549172401428,-0.3010708689689636,9.81024169921875,-3.265380859375,-0.213623046875,2.044677734375
2.2924999,0.536899745464325,-0.30885201692581177,9.599552154541016,-2.349853515625,0.18310546875,-1.8310546875
2.2974999,0.4405331015586853,-0.3256114423274994,10.012551307678223,6.072998046875,0.213623046875,-0.701904296875
2.3024999000000004,0.2687491476535797,-0.2346317619085312,9.828198432922363,-4.150390625,-0.42724609375,1.953125
2.3074999000000003,0.5093663930892944,-0.2645592987537384,9.659406661987305,-1.28173828125,0.06103515625,-2.227783203125
2.3124999,0.406415730714798,-0.26815059781074524,10.010157585144043,5.645751953125,-0.030517578125,-0.42724609375
2.3174999,0.30945056676864624,-0.25079262256622314,9.734824180603027,-4.730224609375,-0.30517578125,1.89208984375
2.3224999,0.2579752206802368,-0.17836803197860718,9.706093788146973,-6.072998046875,-0.06103515625,1.190185546875
2.3274999000000003,0.46148237586021423,-0.22026655077934265,9.703699111938477,2.197265625,0.335693359375,-2.593994140625
2.3324999,0.3693056106567383,-0.24420857429504395,9.968857765197754,3.7841796875,-0.274658203125,0.946044921875
2.3374999,0.3274070918560028,-0.262763649225235,9.537302017211914,-6.04248046875,-0.274658203125,0.9765625
2.3424999,0.3274070918560028,-0.262763649225235,9.537302017211914,-6.04248046875,-0.274658203125,0.9765625
2.3474999000000003,0.5321113467216492,-0.32860419154167175,9.591172218322754,3.326416015625,0.213623046875,-2.62451171875
2.3524999,0.3728969097137451,-0.2735375463962555,9.884461402893066,2.62451171875,-0.213623046875,1.15966796875
2.3574999,0.33039984107017517,-0.292691171169281,9.513958930969238,-6.16455078125,-0.091552734375,0.457763671875
2.3624999,0.5183446407318115,-0.28969839215278625,9.755773544311523,4.180908203125,0.244140625,-2.471923828125
2.3674999000000003,0.30705636739730835,-0.23702596127986908,10.005369186401367,1.617431640625,-0.18310546875,1.434326171875
2.3724999,0.34356793761253357,-0.2753331959247589,9.894637107849121,0.244140625,-0.30517578125,1.77001953125
2.3774999,0.34356793761253357,-0.2753331959247589,9.894637107849121,0.244140625,-0.30517578125,1.77001953125
2.3824999,0.444722980260849,-0.30705636739730835,9.459490776062012,-5.43212890625,0.030517578125,-0.457763671875
2.3874999000000003,0.5656301379203796,-0.34416648745536804,9.75278091430664,5.645751953125,0.091552734375,-2.01416015625
2.3924999000000002,0.30226796865463257,-0.26156654953956604,9.837176322937012,-1.068115234375,-0.244140625,1.861572265625
2.3974999,0.4010287821292877,-0.29209262132644653,9.50737476348877,-4.486083984375,0.213623046875,-1.068115234375
2.4024999,0.2890998423099518,-0.2992752194404602,9.818621635437012,-3.0517578125,-0.244140625,2.13623046875
2.4074999000000004,0.5267243981361389,-0.33937808871269226,9.55705451965332,-2.655029296875,0.18310546875,-1.52587890625
2.4124999000000003,0.27234044671058655,-0.2902969419956207,9.786897659301758,-4.119873046875,-0.335693359375,2.0751953125
2.4174999,0.50876784324646,-0.3064578175544739,9.605537414550781,-1.434326171875,0.30517578125,-1.861572265625
2.4224999,0.4124012291431427,-0.2232593148946762,9.964069366455078,5.79833984375,0.30517578125,-0.701904296875
2.4274999000000004,0.2867056429386139,-0.27473464608192444,9.713275909423828,-4.94384765625,-0.06103515625,1.861572265625
2.4324999000000003,0.5363011956214905,-0.3076549172401428,9.546280860900879,-0.274658203125,0.213623046875,-2.25830078125
2.4374999,0.4273650050163269,-0.23762452602386475,9.930550575256348,5.340576171875,0.030517578125,-0.18310546875
2.4424999,0.32860419154167175,-0.3513490855693817,9.648633003234863,-5.279541015625,-0.274658203125,1.495361328125
2.4474999,0.5093663930892944,-0.2663549482822418,9.619902610778809,1.190185546875,0.244140625,-2.288818359375
2.4524999000000003,0.3669114112854004,-0.24001872539520264,10.02452278137207,4.69970703125,-0.244140625,0.396728515625
2.4574999,0.2717418968677521,-0.23582886159420013,9.701305389404297,-5.889892578125,-0.42724609375,1.0986328125
2.4624999,0.4602852761745453,-0.18555063009262085,9.700108528137207,2.105712890625,0.396728515625,-2.655029296875
2.4674999,0.3597288131713867,-0.19812019169330597,9.995792388916016,3.753662109375,-0.1220703125,0.91552734375
2.4724999000000003,0.5339069962501526,-0.2783259451389313,9.59177017211914,3.143310546875,0.274658203125,-2.655029296875
2.4774999,0.40222588181495667,-0.28969839215278625,9.876680374145508,3.0517578125,-0.18310546875,1.190185546875
2.4824999,0.3519476354122162,-0.3381809890270233,9.494805335998535,-6.16455078125,-0.06103515625,0.42724609375
2.4874999,0.5279214978218079,-0.28072014451026917,9.711481094360352,4.119873046875,0.152587890625,-2.410888671875
2.4924999000000003,0.3166331648826599,-0.25917232036590576,9.995193481445312,1.800537109375,-0.396728515625,1.708984375
2.4974999,0.3250128924846649,-0.27413609623908997,9.610923767089844,-5.859375,-0.213623046875,0.030517578125
2.5024999,0.5153518915176392,-0.24241292476654053,9.847352027893066,4.852294921875,0.091552734375,-2.50244140625
2.5074999,0.3214215636253357,-0.26994624733924866,9.955090522766113,0.701904296875,-0.244140625,1.89208984375
2.5124999000000003,0.41718965768814087,-0.3034650683403015,9.50857162475586,-5.43212890625,-0.244140625,-0.30517578125
2.5174999000000002,0.5829881429672241,-0.30885201692581177,9.771934509277344,5.55419921875,0.244140625,-2.197265625
2.5224999,0.3363853394985199,-0.30945056676864624,9.836577415466309,-0.6103515625,-0.18310546875,2.01416015625
2.5274999,0.43275195360183716,-0.3166331648826599,9.485827445983887,-4.669189453125,0.152587890625,-0.946044921875
2.5324999000000004,0.2663549482822418,-0.3274070918560028,9.870695114135742,-2.74658203125,-0.335693359375,2.105712890625
2.5374999000000003,0.5141547918319702,-0.3495534360408783,9.572616577148438,-2.777099609375,0.06103515625,-1.556396484375
2.5424999,0.5117605924606323,-0.3381809890270233,9.958083152770996,6.256103515625,0.06103515625,-1.312255859375
2.5474999,0.2968810200691223,-0.3423708379268646,9.79527759552002,-3.60107421875,-0.274658203125,2.105712890625
2.5524999000000004,0.5261258482933044,-0.30526071786880493,9.609128952026367,-1.953125,0.18310546875,-1.922607421875
2.5574999000000003,0.4255693554878235,-0.2621650993824005,9.986215591430664,5.950927734375,0.091552734375,-1.068115234375
2.5624999,0.2585737705230713,-0.24480712413787842,9.77672290802002,-4.302978515625,-0.274658203125,1.8310546875
2.5674999,0.5057750940322876,-0.2388216257095337,9.587580680847168,-0.823974609375,0,-2.13623046875
2.5724999,0.406415730714798,-0.2645592987537384,9.898228645324707,5.767822265625,-0.18310546875,-0.335693359375
2.5774999000000003,0.30047231912612915,-0.26156654953956604,9.623494148254395,-5.767822265625,-0.18310546875,1.434326171875
2.5824999,0.4644751250743866,-0.23403321206569672,9.661202430725098,1.0986328125,0.396728515625,-2.44140625
2.5874999,0.33937808871269226,-0.25917232036590576,10.055048942565918,4.45556640625,-0.06103515625,0.54931640625
2.5924999,0.26994624733924866,-0.2148796021938324,9.728838920593262,-5.79833984375,-0.030517578125,1.03759765625
2.5974999000000003,0.48243165016174316,-0.2561795711517334,9.710882186889648,2.349853515625,0.579833984375,-2.62451171875
2.6024999,0.39564183354377747,-0.2825157940387726,9.965864181518555,3.509521484375,0.06103515625,0.946044921875
2.6074999,0.35254621505737305,-0.2819172441959381,9.529520988464355,-6.2255859375,0.06103515625,0.701904296875
2.6124999,0.5500678420066833,-0.333991140127182,9.591172218322754,3.143310546875,0.48828125,-2.655029296875
2.6174999000000003,0.3734954595565796,-0.2902969419956207,9.890447616577148,2.471923828125,-0.091552734375,1.434326171875
2.6224999,0.32620999217033386,-0.2950853705406189,9.530718803405762,-5.9814453125,-0.06103515625,0.274658203125
2.6274999,0.3531447649002075,-0.23163901269435883,9.602544784545898,-5.950927734375,0.06103515625,0
2.6324999,0.558447539806366,-0.2861070930957794,9.831789016723633,4.974365234375,0.213623046875,-2.3193359375
2.6374999000000003,0.3555389642715454,-0.2513911724090576,9.896432876586914,0.335693359375,-0.152587890625,1.89208984375
2.6424999000000002,0.4602852761745453,-0.29149407148361206,9.46607494354248,-5.126953125,0.396728515625,-0.518798828125
2.6474999,0.5758054852485657,-0.35913026332855225,9.767146110534668,5.645751953125,0.396728515625,-2.105712890625
2.6524999,0.30226796865463257,-0.26755204796791077,9.840767860412598,-0.762939453125,-0.091552734375,1.922607421875
2.6574999000000004,0.40282443165779114,-0.2717418968677521,9.506776809692383,-4.608154296875,0.335693359375,-0.823974609375
2.6624999000000003,0.4728548228740692,-0.30945056676864624,9.947309494018555,5.79833984375,0.244140625,-1.617431640625
2.6674999,0.22505496442317963,-0.23283611238002777,9.931148529052734,-2.166748046875,-0.30517578125,2.0751953125
2.6724999,0.44592007994651794,-0.31124621629714966,9.604938507080078,-3.72314453125,0.091552734375,-1.3427734375
2.6774999000000004,0.4985924959182739,-0.3471592366695404,9.986215591430664,6.103515625,0.274658203125,-1.373291015625
2.6824999000000003,0.5303156971931458,-0.3555389642715454,9.549872398376465,-2.74658203125,0.42724609375,-1.77001953125
2.6874999,0.4668693244457245,-0.3208230137825012,9.9401273727417,6.16455078125,0.396728515625,-0.8544921875
2.6924999,0.2663549482822418,-0.26994624733924866,9.782109260559082,-3.96728515625,-0.1220703125,1.953125
2.6974999,0.4967968463897705,-0.2861070930957794,9.609128952026367,-1.708984375,0.396728515625,-1.922607421875
2.7024999000000003,0.39564183354377747,-0.23702596127986908,9.9772367477417,5.889892578125,0.274658203125,-0.6103515625
2.7074999,0.27054479718208313,-0.25019407272338867,9.73542308807373,-4.852294921875,-0.091552734375,1.8310546875
2.7124999,0.5165489912033081,-0.2950853705406189,9.550470352172852,-0.579833984375,0.42724609375,-2.288818359375
2.7174999,0.41778820753097534,-0.2472013235092163,9.903017044067383,5.523681640625,0,-0.06103515625
2.7224999000000003,0.5159504413604736,-0.28790274262428284,9.555258750915527,0.762939453125,0.3662109375,-2.593994140625
2.7274999,0.3800795078277588,-0.22625206410884857,9.9586820602417,4.82177734375,-0.152587890625,0.3662109375
2.7324999,0.2908954918384552,-0.24121582508087158,9.666589736938477,-5.7373046875,-0.274658203125,1.373291015625
2.7374999,0.33039984107017517,-0.23702596127986908,9.592369079589844,-6.256103515625,0.06103515625,1.0986328125
2.7424999000000003,0.5374982953071594,-0.272938996553421,9.605537414550781,3.082275390625,0.396728515625,-2.62451171875
2.7474999,0.39384618401527405,-0.25438392162323,9.874286651611328,2.99072265625,-0.30517578125,1.007080078125
2.7524999,0.33758243918418884,-0.3274070918560028,9.487024307250977,-6.04248046875,-0.152587890625,0.457763671875
2.7574999,0.5159504413604736,-0.28311434388160706,9.682151794433594,4.180908203125,0.18310546875,-2.5634765625
2.7624999000000003,0.314238965511322,-0.24241292476654053,9.97065258026123,1.861572265625,-0.335693359375,1.40380859375
2.7674999000000002,0.32680854201316833,-0.2759317457675934,9.57441234588623,-5.828857421875,-0.18310546875,0.091552734375
2.7724999,0.5285200476646423,-0.22385786473751068,9.812037467956543,5.035400390625,0.1220703125,-2.410888671875
2.7774999,0.33339259028434753,-0.272938996553421,9.919178009033203,0.457763671875,-0.152587890625,1.708984375
2.7824999000000004,0.4279635548591614,-0.29807811975479126,9.478046417236328,-5.279541015625,-0.030517578125,-0.396728515625
2.7874999000000003,0.5889736413955688,-0.3321954905986786,9.752182006835938,5.523681640625,0.3662109375,-2.13623046875
2.7924999,0.23762452602386475,-0.2454056739807129,9.943717956542969,-1.617431640625,-0.457763671875,2.0751953125
2.7974999,0.39863458275794983,-0.25079262256622314,9.609726905822754,-3.997802734375,0,-1.190185546875
2.8024999000000004,0.5141547918319702,-0.3100491166114807,9.529520988464355,-3.0517578125,0.18310546875,-1.52587890625
2.8074999000000003,0.5045779943466187,-0.35494041442871094,9.8970308303833,6.16455078125,0.030517578125,-1.007080078125
2.8124999,0.29867666959762573,-0.29807811975479126,9.731232643127441,-3.5400390625,-0.335693359375,1.953125
2.8174999,0.5267243981361389,-0.2753331959247589,9.536105155944824,-2.105712890625,0.18310546875,-2.0751953125
2.8224999,0.41958385705947876,-0.3106476664543152,9.953893661499023,5.859375,0.030517578125,-0.732421875
2.8274999000000003,0.322618693113327,-0.27712884545326233,9.739013671875,-5.126953125,-0.42724609375,1.739501953125
2.8324999,0.5363011956214905,-0.28550854325294495,9.624691009521484,0.1220703125,0.30517578125,-2.471923828125
2.8374999,0.39803603291511536,-0.2902969419956207,9.967659950256348,5.096435546875,-0.091552734375,0.18310546875
2.8424999,0.29209262132644653,-0.2603694200515747,9.674370765686035,-5.67626953125,-0.06103515625,1.495361328125
2.8474999000000003,0.45190557837486267,-0.23163901269435883,9.66539192199707,1.220703125,0.3662109375,-2.5634765625
2.8524999,0.33339259028434753,-0.24660277366638184,10.039485931396484,4.21142578125,-0.06103515625,0.579833984375
2.8574999,0.26994624733924866,-0.2041056901216507,9.692925453186035,-6.011962890625,-0.152587890625,1.220703125
2.8624999,0.4854243993759155,-0.2585737705230713,9.685144424438477,2.288818359375,0.42724609375,-2.532958984375
2.8674999000000003,0.39863458275794983,-0.272938996553421,9.939528465270996,3.326416015625,-0.152587890625,0.823974609375
2.8724999,0.35913026332855225,-0.28969839215278625,9.510966300964355,-6.256103515625,-0.06103515625,0.732421875
2.8774999,0.3758896589279175,-0.2777273952960968,9.900622367858887,2.44140625,-0.030517578125,1.0986328125
2.8824999,0.3381809890270233,-0.2759317457675934,9.532513618469238,-6.195068359375,0.18310546875,0.457763671875
2.8874999000000003,0.5207388401031494,-0.28131869435310364,9.785700798034668,4.302978515625,0.396728515625,-2.349853515625
2.8924999000000002,0.30945056676864624,-0.22625206410884857,10.002376556396484,1.28173828125,-0.152587890625,1.46484375
2.8974999,0.37648820877075195,-0.26096799969673157,9.57860279083252,-5.615234375,0.152587890625,-0.274658203125
2.9024999,0.5662286877632141,-0.3250128924846649,9.81024169921875,5.157470703125,0.335693359375,-2.227783203125
2.9074999000000004,0.3489548861980438,-0.2908954918384552,9.86231517791748,0.274658203125,-0.18310546875,1.8310546875
2.9124999000000003,0.44592007994651794,-0.30047231912612915,9.442132949829102,-5.06591796875,-0.030517578125,-0.732421875
2.9174999,0.5536591410636902,-0.33937808871269226,9.783905029296875,5.79833984375,0.244140625,-1.953125
2.9224999,0.2795230448246002,-0.23343466222286224,9.853935241699219,-1.251220703125,-0.274658203125,1.983642578125
2.9274999000000004,0.40701428055763245,-0.2561795711517334,9.537302017211914,-4.486083984375,-0.030517578125,-1.0986328125
2.9324999000000003,0.40701428055763245,-0.2561795711517334,9.537302017211914,-4.486083984375,-0.030517578125,-1.0986328125
2.9374999,0.5159504413604736,-0.314238965511322,9.929352760314941,6.28662109375,0.091552734375,-1.251220703125
2.9424999,0.5159504413604736,-0.314238965511322,9.929352760314941,6.28662109375,0.091552734375,-1.251220703125
2.9474999,0.3076549172401428,-0.30047231912612915,9.752182006835938,-3.265380859375,-0.457763671875,2.105712890625
2.9524999000000003,0.5416881442070007,-0.33997663855552673,9.526528358459473,-2.44140625,0.091552734375,-1.953125
2.9574999,0.456095427274704,-0.2861070930957794,9.932345390319824,6.317138671875,-0.06103515625,-1.007080078125
2.9624999,0.5081692934036255,-0.2992752194404602,9.598953247070312,-1.312255859375,0.213623046875,-2.25830078125
2.9674999,0.5081692934036255,-0.2992752194404602,9.598953247070312,-1.312255859375,0.213623046875,-2.25830078125
2.9724999000000003,0.40940847992897034,-0.22206220030784607,9.950302124023438,5.79833984375,-0.091552734375,-0.67138671875
2.9774999,0.3058592677116394,-0.28730419278144836,9.692327499389648,-5.096435546875,-0.18310546875,1.89208984375
2.9824999,0.5410895943641663,-0.33518823981285095,9.537302017211914,-0.091552734375,0.42724609375,-2.532958984375
2.9874999,0.42676645517349243,-0.27054479718208313,9.921571731567383,5.31005859375,-0.06103515625,-0.152587890625
2.9924999000000003,0.4967968463897705,-0.2711433470249176,9.625887870788574,1.190185546875,0.396728515625,-2.532958984375
2.9974999,0.35733461380004883,-0.18914192914962769,10.019734382629395,4.425048828125,-0.244140625,0.3662109375
3.0024999,0.27473464608192444,-0.23822307586669922,9.68274974822998,-6.103515625,-0.152587890625,1.251220703125
3.0074999,0.4668693244457245,-0.1759738177061081,9.677363395690918,2.50244140625,0.3662109375,-2.685546875
3.0124999000000003,0.36810851097106934,-0.2388216257095337,9.960477828979492,3.47900390625,-0.335693359375,0.79345703125
3.0174999000000002,0.3232172429561615,-0.284311443567276,9.545681953430176,-6.011962890625,-0.152587890625,0.91552734375
3.0224999,0.5309142470359802,-0.3100491166114807,9.610325813293457,3.41796875,0.274658203125,-2.62451171875
3.0274999,0.3842693865299225,-0.30945056676864624,9.914987564086914,2.532958984375,-0.18310546875,1.129150390625
3.0324999000000004,0.3447650372982025,-0.3280056416988373,9.536704063415527,-6.134033203125,0,0.518798828125
3.0374999000000003,0.5261258482933044,-0.2801215946674347,9.767744064331055,4.39453125,0.54931640625,-2.227783203125
3.0424999,0.34177228808403015,-0.27473464608192444,9.870096206665039,0.48828125,-0.274658203125,1.89208984375
3.0474999,0.436343252658844,-0.29388827085494995,9.442731857299805,-5.37109375,-0.1220703125,-0.54931640625
3.0524999000000004,0.5632359385490417,-0.3405751883983612,9.742605209350586,5.523681640625,0.274658203125,-1.953125
3.0574999000000003,0.29867666959762573,-0.2795230448246002,9.815030097961426,-0.823974609375,-0.091552734375,1.922607421875
3.0624999,0.39803603291511536,-0.27234044671058655,9.48462963104248,-4.608154296875,0.152587890625,-1.0986328125
3.0674999,0.4800374507904053,-0.3106476664543152,9.914389610290527,5.92041015625,0.30517578125,-1.77001953125
3.0724999000000004,0.23104046285152435,-0.24181437492370605,9.922768592834473,-1.46484375,-0.30517578125,2.01416015625
3.0774999000000003,0.4423287510871887,-0.27653029561042786,9.59596061706543,-3.692626953125,0.152587890625,-1.3427734375
3.0824999,0.50876784324646,-0.32202014327049255,9.996390342712402,6.256103515625,0.274658203125,-1.52587890625
3.0874999,0.29807811975479126,-0.2890998423099518,9.839570045471191,-2.960205078125,-0.18310546875,2.166748046875
3.0924999,0.5410895943641663,-0.3315969407558441,9.573814392089844,-2.86865234375,0.244140625,-1.617431640625
3.0974999000000003,0.48722004890441895,-0.3315969407558441,9.95329475402832,6.16455078125,0.091552734375,-1.03759765625
3.1024999,0.27413609623908997,-0.24121582508087158,9.749189376831055,-4.8828125,-0.30517578125,2.044677734375
3.1074999,0.5291185975074768,-0.2819172441959381,9.551667213439941,-0.579833984375,0.3662109375,-2.288818359375
3.1124999,0.43694180250167847,-0.2495955228805542,9.8970308303833,5.67626953125,0.06103515625,-0.152587890625
3.1174999000000003,0.34177228808403015,-0.3064578175544739,9.599552154541016,-5.340576171875,-0.244140625,1.617431640625
3.1224999,0.45429977774620056,-0.22445641458034515,9.668384552001953,1.8310546875,0.18310546875,-2.777099609375
3.1274999,0.345363587141037,-0.19393034279346466,10.011953353881836,4.0283203125,-0.244140625,0.732421875
3.1324999,0.2974795699119568,-0.24839842319488525,9.610325813293457,-6.134033203125,-0.244140625,0.9765625
3.1374999000000003,0.395043283700943,-0.2687491476535797,9.892841339111328,3.2958984375,-0.213623046875,1.129150390625
3.1424999000000002,0.3423708379268646,-0.3381809890270233,9.48882007598877,-6.256103515625,-0.06103515625,0.6103515625
3.1474999,0.5345055460929871,-0.28550854325294495,9.672574996948242,4.150390625,0.3662109375,-2.471923828125
3.1524999,0.3381809890270233,-0.26755204796791077,9.97065258026123,1.617431640625,-0.091552734375,1.46484375
3.1574999000000004,0.3315969407558441,-0.2753331959247589,9.587580680847168,-5.79833984375,0.1220703125,0.18310546875
3.1624999000000003,0.5267243981361389,-0.2346317619085312,9.832986831665039,4.669189453125,0.244140625,-2.410888671875
3.1674999,0.3172317147254944,-0.26755204796791077,9.970054626464844,0.6103515625,-0.152587890625,1.5869140625
3.1724999,0.4034229815006256,-0.28311434388160706,9.521739959716797,-5.340576171875,0.244140625,-0.244140625
3.1774999000000004,0.5650315880775452,-0.32860419154167175,9.7791166305542,5.31005859375,0.457763671875,-2.13623046875
3.1824999000000003,0.3345896899700165,-0.32441434264183044,9.834781646728516,-0.457763671875,-0.213623046875,1.77001953125
3.1874999,0.4291606545448303,-0.3106476664543152,9.461286544799805,-4.94384765625,-0.030517578125,-0.79345703125
3.1924999,0.517746090888977,-0.32860419154167175,9.869498252868652,5.67626953125,0.30517578125,-1.89208984375
3.1974999000000004,0.2555810213088989,-0.27413609623908997,9.869498252868652,-2.44140625,-0.091552734375,2.13623046875
3.2024999000000003,0.49559974670410156,-0.2998737692832947,9.553462982177734,-3.265380859375,0.396728515625,-1.46484375
3.2074999,0.49140989780426025,-0.345363587141037,9.931148529052734,6.134033203125,0.213623046875,-1.15966796875
3.2124999,0.2849099934101105,-0.2974795699119568,9.768342971801758,-3.509521484375,-0.42724609375,2.13623046875
3.2174999,0.5135562419891357,-0.30047231912612915,9.576807022094727,-2.197265625,0.30517578125,-1.922607421875
3.2224999000000003,0.4207809567451477,-0.292691171169281,9.989208221435547,6.072998046875,0.06103515625,-0.946044921875
3.2274999,0.26396074891090393,-0.23044191300868988,9.804255485534668,-4.39453125,-0.274658203125,1.953125
3.2324999,0.5105634927749634,-0.26994624733924866,9.637859344482422,-1.129150390625,0.335693359375,-2.349853515625
3.2374999,0.42377370595932007,-0.25258827209472656,9.970054626464844,5.828857421875,0.244140625,-0.18310546875
3.2424999000000003,0.3208230137825012,-0.272938996553421,9.673771858215332,-5.06591796875,-0.1220703125,1.77001953125
3.2474999,0.284311443567276,-0.27054479718208313,9.624092102050781,-5.462646484375,-0.3662109375,1.495361328125
3.2524999,0.45489832758903503,-0.24839842319488525,9.61571216583252,1.312255859375,0.091552734375,-2.593994140625
3.2574999,0.3345896899700165,-0.2124854028224945,10.01075553894043,4.7607421875,-0.42724609375,0.457763671875
3.2624999000000003,0.27413609623908997,-0.20889410376548767,9.665990829467773,-6.04248046875,-0.42724609375,1.129150390625
3.2674999000000002,0.4908113479614258,-0.24001872539520264,9.655217170715332,2.471923828125,0.244140625,-2.899169921875
3.2724999,0.4010287821292877,-0.23702596127986908,9.923367500305176,3.60107421875,-0.274658203125,0.732421875
3.2774999,0.35913026332855225,-0.29388827085494995,9.497797966003418,-6.04248046875,-0.091552734375,0.8544921875
3.2824999000000004,0.5213374495506287,-0.25737667083740234,9.807249069213867,4.57763671875,0.244140625,-2.471923828125
3.2874999000000003,0.578798234462738,-0.2849099934101105,9.800664901733398,5.279541015625,0.30517578125,-2.3193359375
3.2924999,0.3669114112854004,-0.28550854325294495,9.872490882873535,-0.030517578125,-0.213623046875,1.708984375
3.2974999,0.4602852761745453,-0.3387795388698578,9.468469619750977,-5.18798828125,0.213623046875,-0.640869140625
3.3024999000000004,0.5632359385490417,-0.322618693113327,9.82879638671875,5.7373046875,0.42724609375,-2.01416015625
3.3074999000000003,0.2849099934101105,-0.27653029561042786,9.907206535339355,-1.220703125,-0.335693359375,2.01416015625
3.3124999,0.3974374830722809,-0.2932897210121155,9.59057331085205,-4.2724609375,0.030517578125,-1.03759765625
3.3174999,0.47225627303123474,-0.23582886159420013,10.004770278930664,6.16455078125,0.213623046875,-1.64794921875
3.3224999000000004,0.22864626348018646,-0.2717418968677521,9.938331604003906,-2.3193359375,-0.42724609375,2.0751953125
3.3274999000000003,0.4572925269603729,-0.3076549172401428,9.584588050842285,-3.387451171875,0.18310546875,-1.52587890625
3.3324999,0.5003881454467773,-0.292691171169281,9.956287384033203,6.195068359375,0.18310546875,-1.220703125
3.3374999,0.2885012924671173,-0.3495534360408783,9.785101890563965,-3.35693359375,-0.3662109375,2.0751953125
3.3424999,0.414795458316803,-0.24361002445220947,9.951498985290527,5.92041015625,0.152587890625,-0.457763671875
3.3474999000000003,0.30526071786880493,-0.2753331959247589,9.68274974822998,-4.8828125,-0.30517578125,1.708984375
3.3524999,0.5398924946784973,-0.28072014451026917,9.512762069702148,-0.3662109375,0.152587890625,-2.288818359375
3.3574999,0.43035775423049927,-0.2717418968677521,9.856928825378418,5.462646484375,-0.06103515625,0.1220703125
3.3624999,0.4944026470184326,-0.23702596127986908,9.557653427124023,1.007080078125,0.30517578125,-2.593994140625
3.3674999000000003,0.3585317134857178,-0.2472013235092163,9.967061996459961,4.69970703125,0,0.396728515625
3.3724999,0.26994624733924866,-0.20111294090747833,9.701904296875,-5.79833984375,-0.1220703125,1.220703125
3.3774999,0.3687070608139038,-0.25677812099456787,10.06582260131836,3.997802734375,-0.244140625,0.8544921875
3.3824999,0.3214215636253357,-0.23343466222286224,9.654019355773926,-5.9814453125,-0.274658203125,0.91552734375
3.3874999000000003,0.5392939448356628,-0.32202014327049255,9.668384552001953,3.11279296875,0.1220703125,-2.777099609375
3.3924999000000002,0.4010287821292877,-0.31543606519699097,9.915586471557617,2.838134765625,-0.091552734375,1.190185546875
3.3974999,0.35075053572654724,-0.31124621629714966,9.519944190979004,-5.79833984375,-0.18310546875,0.6103515625
3.4024999,0.5315127968788147,-0.3124433159828186,9.701305389404297,4.180908203125,0.335693359375,-2.5634765625
3.4074999000000004,0.31184476613998413,-0.25019407272338867,9.987412452697754,1.739501953125,0,1.52587890625
3.4124999000000003,0.33279404044151306,-0.24660277366638184,9.594164848327637,-5.859375,-0.091552734375,-0.091552734375
3.4174999,0.5237316489219666,-0.2819172441959381,9.85034465789795,4.8828125,0.1220703125,-2.44140625
3.4224999,0.31842881441116333,-0.25438392162323,9.967659950256348,0.762939453125,-0.3662109375,1.64794921875
3.4274999000000004,0.41718965768814087,-0.28131869435310364,9.535507202148438,-5.31005859375,-0.213623046875,-0.42724609375
3.4324999000000003,0.5656301379203796,-0.3429693877696991,9.806650161743164,5.401611328125,0.152587890625,-2.197265625
3.4374999,0.41718965768814087,-0.2717418968677521,9.487024307250977,-4.8828125,0.030517578125,-0.823974609375
3.4424999,0.49799394607543945,-0.30047231912612915,9.906009674072266,5.950927734375,0.30517578125,-1.922607421875
3.4474999000000004,0.23582886159420013,-0.22445641458034515,9.924564361572266,-1.52587890625,-0.335693359375,2.227783203125
3.4524999000000003,0.42856210470199585,-0.2753331959247589,9.609726905822754,-4.058837890625,0.18310546875,-1.190185546875
3.4574999,0.4926069974899292,-0.31124621629714966,10.005369186401367,6.072998046875,0.213623046875,-1.678466796875
3.4624999,0.28371289372444153,-0.29568392038345337,9.85034465789795,-2.8076171875,-0.213623046875,2.105712890625
3.4674999,0.5273229479789734,-0.3405751883983612,9.561842918395996,-2.899169921875,0.335693359375,-1.46484375
3.4724999000000003,0.4908113479614258,-0.3381809890270233,9.928754806518555,6.2255859375,0.18310546875,-1.220703125
3.4774999,0.2861070930957794,-0.30047231912612915,9.769539833068848,-3.84521484375,-0.30517578125,1.953125
3.4824999,0.5051765441894531,-0.3166331648826599,9.589975357055664,-1.89208984375,0.244140625,-1.861572265625
3.4874999,0.4034229815006256,-0.2561795711517334,9.966463088989258,5.950927734375,-0.06103515625,-0.457763671875
3.4924999000000003,0.2621650993824005,-0.2472013235092163,9.749788284301758,-4.69970703125,-0.244140625,1.89208984375
3.4974999,0.4207809567451477,-0.243011474609375,9.904812812805176,5.767822265625,0.06103515625,-0.030517578125
3.5024999,0.3256114423274994,-0.304063618183136,9.61212158203125,-5.401611328125,-0.152587890625,1.64794921875
3.5074999,0.5225345492362976,-0.2968810200691223,9.53969669342041,0.518798828125,0.30517578125,-2.471923828125
3.5124999000000003,0.5225345492362976,-0.2968810200691223,9.53969669342041,0.518798828125,0.30517578125,-2.471923828125
3.5174999000000002,0.37828385829925537,-0.22206220030784607,9.952696800231934,4.913330078125,-0.18310546875,0.396728515625
3.5224999,0.4465186297893524,-0.2064998894929886,9.692327499389648,1.556396484375,0.54931640625,-2.655029296875
3.5274999,0.4465186297893524,-0.2064998894929886,9.692327499389648,1.556396484375,0.54931640625,-2.655029296875
3.5324999000000004,0.3429693877696991,-0.18914192914962769,10.046669006347656,3.997802734375,0.091552734375,0.48828125
3.5374999000000003,0.2849099934101105,-0.23283611238002777,9.639056205749512,-6.195068359375,-0.06103515625,1.251220703125
3.5424999,0.5015852451324463,-0.2621650993824005,9.643844604492188,3.021240234375,0.3662109375,-2.5634765625
3.5474999,0.38905778527259827,-0.2537853717803955,9.911396026611328,3.021240234375,0,0.91552734375
3.5524999000000004,0.33997663855552673,-0.33758243918418884,9.510367393493652,-6.072998046875,-0.152587890625,0.579833984375
3.5574999000000003,0.32441434264183044,-0.30466216802597046,9.607333183288574,-5.859375,-0.091552734375,0.152587890625
3.5624999,0.517746090888977,-0.2454056739807129,9.853337287902832,4.8828125,0.30517578125,-2.471923828125
3.5674999,0.314238965511322,-0.28311434388160706,9.992799758911133,0.946044921875,-0.152587890625,1.64794921875
3.5724999000000004,0.3998316824436188,-0.28131869435310364,9.543288230895996,-5.523681640625,0.213623046875,-0.18310546875
3.5774999000000003,0.5734112858772278,-0.30526071786880493,9.783905029296875,5.157470703125,0.213623046875,-2.3193359375
3.5824999,0.35075053572654724,-0.3082534670829773,9.829395294189453,-0.335693359375,-0.274658203125,1.8310546875
3.5874999,0.4429273009300232,-0.2825157940387726,9.448118209838867,-4.852294921875,0.152587890625,-0.701904296875
3.5924999,0.5345055460929871,-0.3190273642539978,9.824606895446777,5.828857421875,0.3662109375,-2.01416015625
3.5974999000000003,0.26396074891090393,-0.2513911724090576,9.88386344909668,-1.068115234375,-0.152587890625,1.8310546875
3.6024999,0.3124433159828186,-0.3058592677116394,9.824007987976074,-3.082275390625,-0.06103515625,2.105712890625
3.6074999,0.5452794432640076,-0.3064578175544739,9.601945877075195,-2.44140625,0.3662109375,-1.861572265625
3.6124999,0.45908817648887634,-0.32860419154167175,10.023923873901367,6.072998046875,0.152587890625,-0.823974609375
3.6174999000000003,0.272938996553421,-0.23822307586669922,9.84495735168457,-4.241943359375,-0.213623046875,1.89208984375
3.6224999,0.5159504413604736,-0.24480712413787842,9.662399291992188,-1.434326171875,0.3662109375,-2.227783203125
3.6274999,0.4082113802433014,-0.2585737705230713,10.017339706420898,5.828857421875,0.335693359375,-0.3662109375
3.6324999,0.30945056676864624,-0.2322375625371933,9.758766174316406,-4.791259765625,-0.06103515625,1.922607421875
3.6374999000000003,0.535702645778656,-0.27234044671058655,9.59835433959961,-0.335693359375,0.335693359375,-2.25830078125
3.6424999000000002,0.41718965768814087,-0.2968810200691223,9.960477828979492,5.126953125,-0.030517578125,-0.091552734375
3.6474999,0.30705636739730835,-0.272938996553421,9.656414031982422,-5.462646484375,-0.335693359375,1.617431640625
3.6524999,0.25438392162323,-0.19931729137897491,9.692327499389648,-5.828857421875,-0.1220703125,1.28173828125
3.6574999000000004,0.45429977774620056,-0.228047713637352,9.713874816894531,2.01416015625,0.42724609375,-2.655029296875
3.6624999000000003,0.375291109085083,-0.272938996553421,10.002376556396484,3.7841796875,-0.152587890625,0.946044921875
3.6674999,0.3381809890270233,-0.2585737705230713,9.589975357055664,-6.011962890625,0.030517578125,0.762939453125
3.6724999,0.5542576909065247,-0.3256114423274994,9.619902610778809,2.960205078125,0.579833984375,-2.593994140625
3.6774999000000004,0.406415730714798,-0.2998737692832947,9.894038200378418,2.777099609375,-0.030517578125,1.373291015625
3.6824999000000003,0.3621230125427246,-0.284311443567276,9.5223388671875,-6.04248046875,0,0.244140625
3.6874999,0.5386953949928284,-0.2950853705406189,9.734225273132324,4.2724609375,0.396728515625,-2.410888671875
3.6924999,0.3208230137825012,-0.23822307586669922,9.999981880187988,1.5869140625,-0.213623046875,1.678466796875
3.6974999000000004,0.34656068682670593,-0.24480712413787842,9.619902610778809,-5.767822265625,0.06103515625,-0.274658203125
3.7024999000000003,0.5404910445213318,-0.2974795699119568,9.840168952941895,4.7607421875,0.42724609375,-2.227783203125
3.7074999,0.3172317147254944,-0.2669534981250763,9.851541519165039,-0.701904296875,-0.091552734375,2.166748046875
3.7124999,0.4141969084739685,-0.2693476974964142,9.518747329711914,-4.7607421875,0.3662109375,-1.15966796875
3.7174999,0.4866214990615845,-0.3100491166114807,9.9371337890625,6.04248046875,0.18310546875,-1.89208984375
3.7224999000000003,0.2232593148946762,-0.22266076505184174,9.953893661499023,-1.678466796875,-0.335693359375,2.227783203125
3.7274999,0.42197805643081665,-0.2663549482822418,9.619902610778809,-3.875732421875,0.06103515625,-1.46484375
3.7324999,0.48482584953308105,-0.33339259028434753,10.002974510192871,6.2255859375,0,-1.52587890625
3.7374999,0.27653029561042786,-0.2950853705406189,9.840767860412598,-2.716064453125,-0.335693359375,2.166748046875
3.7424999000000003,0.5291185975074768,-0.3345896899700165,9.546878814697266,-2.685546875,0.18310546875,-1.800537109375
3.7474999,0.4818331003189087,-0.3471592366695404,9.923966407775879,6.256103515625,0.06103515625,-1.15966796875
3.7524999,0.2819172441959381,-0.27712884545326233,9.761159896850586,-3.662109375,-0.42724609375,2.044677734375
3.7574999,0.5171475410461426,-0.2890998423099518,9.573814392089844,-0.48828125,0.18310546875,-2.197265625
3.7624999000000003,0.424970805644989,-0.2579752206802368,9.917980194091797,5.523681640625,0.06103515625,-0.030517578125
3.7674999000000002,0.3321954905986786,-0.2861070930957794,9.59596061706543,-5.462646484375,-0.18310546875,1.52587890625
3.7724999,0.5213374495506287,-0.2687491476535797,9.525930404663086,0.54931640625,0.518798828125,-2.410888671875
3.7774999,0.38067805767059326,-0.22385786473751068,9.909002304077148,4.791259765625,-0.06103515625,0.42724609375
3.7824999000000004,0.2759317457675934,-0.2190694510936737,9.624691009521484,-5.9814453125,-0.091552734375,1.129150390625
3.7874999000000003,0.4554968774318695,-0.22685061395168304,9.65222454071045,1.800537109375,0.579833984375,-2.471923828125
3.7924999,0.3519476354122162,-0.22385786473751068,9.987412452697754,3.997802734375,0.06103515625,0.823974609375
3.7974999,0.3064578175544739,-0.26096799969673157,9.586981773376465,-6.103515625,0.030517578125,0.762939453125
3.8024999000000004,0.5171475410461426,-0.3034650683403015,9.59835433959961,2.960205078125,0.335693359375,-2.62451171875
3.8074999000000003,0.34177228808403015,-0.31184476613998413,9.4822359085083,-6.256103515625,-0.18310546875,0.335693359375
3.8124999,0.5267243981361389,-0.3064578175544739,9.671378135681152,4.21142578125,0.30517578125,-2.471923828125
3.8174999,0.33039984107017517,-0.23942017555236816,9.972448348999023,2.01416015625,-0.3662109375,1.708984375
3.8224999000000004,0.345363587141037,-0.25977087020874023,9.588777542114258,-5.950927734375,-0.06103515625,0
3.8274999000000003,0.5488707423210144,-0.25917232036590576,9.82999324798584,4.852294921875,0.3662109375,-2.349853515625
3.8324999,0.34596213698387146,-0.23582886159420013,9.943717956542969,0.640869140625,-0.244140625,2.044677734375
3.8374999,0.43754035234451294,-0.3034650683403015,9.493608474731445,-5.584716796875,0.030517578125,-0.457763671875
3.8424999,0.5877765417098999,-0.3256114423274994,9.758766174316406,5.43212890625,0.3662109375,-2.288818359375
3.8474999000000003,0.33339259028434753,-0.2974795699119568,9.841365814208984,-0.54931640625,-0.06103515625,2.01416015625
3.8524999,0.4273650050163269,-0.3190273642539978,9.485827445983887,-4.7607421875,0.091552734375,-0.9765625
3.8574999,0.5111620426177979,-0.26994624733924866,9.91977596282959,5.9814453125,0.091552734375,-2.01416015625
3.8624999,0.24839842319488525,-0.2454056739807129,9.944316864013672,-1.8310546875,-0.30517578125,2.13623046875
3.8674999000000003,0.497395396232605,-0.25498247146606445,9.999981880187988,6.34765625,0.213623046875,-1.5869140625
3.8724999,0.27653029561042786,-0.33339259028434753,9.86111831665039,-3.021240234375,-0.30517578125,2.044677734375
3.8774999,0.5219359993934631,-0.33339259028434753,9.575011253356934,-2.716064453125,0.30517578125,-1.64794921875
3.8824999,0.4908113479614258,-0.3058592677116394,9.96825885772705,6.195068359375,0.42724609375,-1.068115234375
3.8874999000000003,0.2825157940387726,-0.3130418658256531,9.806051254272461,-4.0283203125,-0.091552734375,2.0751953125
3.8924999000000002,0.5027823448181152,-0.2819172441959381,9.633668899536133,-1.922607421875,0.274658203125,-1.983642578125
3.8974999,0.40462008118629456,-0.24420857429504395,9.992799758911133,5.859375,0.244140625,-0.67138671875
3.9024999,0.26096799969673157,-0.2519897222518921,9.753378868103027,-4.57763671875,-0.3662109375,1.800537109375
3.9074999000000004,0.5159504413604736,-0.2621650993824005,9.554061889648438,-0.6103515625,0.152587890625,-2.166748046875
3.9124999000000003,0.42856210470199585,-0.25677812099456787,9.875483512878418,5.340576171875,0.18310546875,-0.1220703125
3.9174999,0.33279404044151306,-0.2890998423099518,9.571419715881348,-5.340576171875,-0.213623046875,1.678466796875
3.9224999,0.2777273952960968,-0.23283611238002777,9.63187313079834,-5.523681640625,-0.30517578125,1.129150390625
3.9274999000000004,0.4471171796321869,-0.19692309200763702,9.679159164428711,1.708984375,0.244140625,-2.62451171875
3.9324999000000003,0.3405751883983612,-0.24241292476654053,10.04307746887207,4.241943359375,-0.335693359375,1.007080078125
3.9374999,0.28550854325294495,-0.19692309200763702,9.685144424438477,-6.195068359375,-0.335693359375,1.03759765625
3.9424999,0.49559974670410156,-0.26396074891090393,9.708487510681152,2.50244140625,0.244140625,-2.655029296875
3.9474999000000004,0.3794809579849243,-0.3034650683403015,9.970054626464844,3.23486328125,-0.244140625,1.0986328125
3.9524999000000003,0.33039984107017517,-0.2944868206977844,9.568427085876465,-6.072998046875,0,0.518798828125
3.9574999,0.5273229479789734,-0.33339259028434753,9.712079048156738,3.753662109375,0.54931640625,-2.655029296875
3.9624999,0.33518823981285095,-0.28131869435310364,9.999981880187988,1.922607421875,-0.06103515625,1.678466796875
3.9674999000000004,0.33758243918418884,-0.25917232036590576,9.61451530456543,-5.9814453125,0,0.091552734375
3.9724999000000003,0.5303156971931458,-0.2861070930957794,9.854534149169922,4.486083984375,0.457763671875,-2.38037109375
3.9774999,0.40701428055763245,-0.2669534981250763,9.556455612182617,-5.279541015625,-0.091552734375,-0.396728515625
3.9824999,0.569819986820221,-0.3387795388698578,9.799467086791992,5.462646484375,0,-2.227783203125
3.9874999,0.3315969407558441,-0.27712884545326233,9.86231517791748,-0.18310546875,-0.335693359375,2.13623046875
3.9924999000000003,0.43095630407333374,-0.2621650993824005,9.496002197265625,-4.82177734375,-0.1220703125,-0.885009765625
3.9974999,0.5141547918319702,-0.3100491166114807,9.891644477844238,5.79833984375,0.213623046875,-1.983642578125
4.0024999,0.24001872539520264,-0.21607670187950134,9.935338973999023,-1.40380859375,-0.335693359375,2.166748046875
4.0074999,0.40701428055763245,-0.24181437492370605,9.609128952026367,-4.0283203125,0.091552734375,-1.312255859375
4.0124999,0.48063600063323975,-0.322618693113327,10.014347076416016,6.011962890625,0.244140625,-1.708984375
4.0174999,0.262763649225235,-0.2783259451389313,9.8970308303833,-2.5634765625,-0.1220703125,2.166748046875
4.022499900000001,0.5237316489219666,-0.31124621629714966,9.592967987060547,-3.2958984375,0.244140625,-1.5869140625
4.0274999000000005,0.5045779943466187,-0.36332011222839355,9.976638793945312,6.134033203125,0.213623046875,-1.220703125
4.0324999,0.30047231912612915,-0.28072014451026917,9.789292335510254,-3.570556640625,-0.1220703125,2.288818359375
4.0374999,0.41958385705947876,-0.29867666959762573,9.990405082702637,5.859375,0,-0.8544921875
4.0424999,0.2693476974964142,-0.22864626348018646,9.792284965515137,-4.241943359375,-0.396728515625,1.922607421875
4.0474999,0.5219359993934631,-0.2651578485965729,9.62947940826416,-0.79345703125,0.18310546875,-2.227783203125
4.0524999,0.42377370595932007,-0.27712884545326233,9.98681354522705,5.645751953125,-0.091552734375,-0.213623046875
4.0574999,0.3315969407558441,-0.2669534981250763,9.689932823181152,-5.279541015625,-0.3662109375,1.77001953125
4.062499900000001,0.5339069962501526,-0.27413609623908997,9.585186958312988,0.42724609375,0.3662109375,-2.44140625
4.0674999000000005,0.3878606855869293,-0.272938996553421,9.949105262756348,4.913330078125,-0.06103515625,0.335693359375
4.0724999,0.28371289372444153,-0.22685061395168304,9.661202430725098,-5.828857421875,0,1.3427734375
4.0774999,0.45250412821769714,-0.21308395266532898,9.672574996948242,1.3427734375,0.30517578125,-2.62451171875
4.0824999,0.3489548861980438,-0.28371289372444153,9.50857162475586,-6.28662109375,-0.274658203125,0.54931640625
4.0874999,0.5446808934211731,-0.3214215636253357,9.657012939453125,3.570556640625,0.396728515625,-2.655029296875
4.0924999,0.3489548861980438,-0.26994624733924866,9.960477828979492,1.983642578125,-0.1220703125,1.40380859375
4.0974999,0.34835633635520935,-0.2669534981250763,9.582792282104492,-5.79833984375,0,0.244140625
4.1024999,0.5440823435783386,-0.2950853705406189,9.85034465789795,4.69970703125,0.274658203125,-2.349853515625
4.1074999000000005,0.33758243918418884,-0.24779987335205078,10.003573417663574,0.946044921875,-0.335693359375,1.708984375
4.1124999,0.424970805644989,-0.27054479718208313,9.5624418258667,-5.55419921875,-0.18310546875,-0.3662109375
4.1174999,0.5889736413955688,-0.3411737382411957,9.812037467956543,5.340576171875,0.274658203125,-2.13623046875
4.1224999,0.34416648745536804,-0.27892449498176575,9.852140426635742,-0.518798828125,-0.18310546875,1.77001953125
4.1274999,0.34416648745536804,-0.27892449498176575,9.852140426635742,-0.518798828125,-0.18310546875,1.77001953125
4.1324999,0.43933600187301636,-0.2849099934101105,9.475651741027832,-4.69970703125,0.213623046875,-0.732421875
4.1374999,0.5207388401031494,-0.32441434264183044,9.883264541625977,5.859375,0.3662109375,-1.983642578125
4.1424999,0.2621650993824005,-0.2795230448246002,9.869498252868652,-2.593994140625,-0.640869140625,2.044677734375
4.147499900000001,0.5105634927749634,-0.32620999217033386,9.577404975891113,-2.9296875,0.152587890625,-1.434326171875
4.1524999000000005,0.47225627303123474,-0.34177228808403015,9.951498985290527,6.195068359375,0.1220703125,-1.251220703125
4.1574999,0.2753331959247589,-0.27892449498176575,9.784503936767578,-4.0283203125,-0.152587890625,1.922607421875
4.1624999,0.2645592987537384,-0.2472013235092163,9.767146110534668,-4.608154296875,-0.42724609375,1.800537109375
4.1674999,0.5063736438751221,-0.30047231912612915,9.579200744628906,-0.54931640625,0.274658203125,-2.01416015625
4.1724999,0.41359832882881165,-0.2663549482822418,9.917980194091797,5.401611328125,-0.152587890625,-0.213623046875
4.1774999,0.3148375153541565,-0.3010708689689636,9.61331844329834,-5.67626953125,-0.244140625,1.3427734375
4.1824999,0.4572925269603729,-0.22924481332302094,9.673172950744629,2.01416015625,0.6103515625,-2.716064453125
4.187499900000001,0.3585317134857178,-0.2082955539226532,9.988609313964844,3.814697265625,0.1220703125,0.823974609375
4.1924999000000005,0.3076549172401428,-0.24779987335205078,9.563638687133789,-6.16455078125,-0.1220703125,1.007080078125
4.1974999,0.5213374495506287,-0.28550854325294495,9.586383819580078,3.23486328125,0.213623046875,-2.655029296875
4.2024999,0.38127660751342773,-0.24600422382354736,9.8784761428833,2.838134765625,-0.335693359375,1.312255859375
4.2074999,0.3363853394985199,-0.29628247022628784,9.497797966003418,-6.16455078125,-0.3662109375,0.54931640625
4.2124999,0.5303156971931458,-0.27653029561042786,9.728240013122559,4.180908203125,0.30517578125,-2.532958984375
4.2174999,0.31842881441116333,-0.2364274114370346,9.989208221435547,1.495361328125,-0.274658203125,1.46484375
4.2224999,0.35913026332855225,-0.272938996553421,9.585784912109375,-5.828857421875,-0.091552734375,0.06103515625
4.2274999,0.5536591410636902,-0.2801215946674347,9.824606895446777,5.31005859375,0.48828125,-2.166748046875
4.2324999000000005,0.29568392038345337,-0.27473464608192444,9.909601211547852,-0.8544921875,-0.42724609375,1.953125
4.2374999,0.40462008118629456,-0.30047231912612915,9.57860279083252,-4.302978515625,0.091552734375,-1.03759765625
4.2424999,0.49619829654693604,-0.30705636739730835,9.943120002746582,6.28662109375,0.030517578125,-1.40380859375
4.2474999,0.28311434388160706,-0.3645172119140625,9.773131370544434,-3.35693359375,-0.396728515625,2.166748046875
4.2524999,0.5213374495506287,-0.33518823981285095,9.551069259643555,-2.197265625,0.18310546875,-1.77001953125
4.2574999,0.4471171796321869,-0.28072014451026917,9.964069366455078,6.103515625,0.30517578125,-0.762939453125
4.2624999,0.2669534981250763,-0.27234044671058655,9.780313491821289,-4.425048828125,-0.18310546875,2.13623046875
4.2674999,0.3190273642539978,-0.30705636739730835,9.677961349487305,-5.06591796875,-0.30517578125,1.89208984375
4.272499900000001,0.5410895943641663,-0.292691171169281,9.53969669342041,0.244140625,0.274658203125,-2.74658203125
4.2774999000000005,0.4159925580024719,-0.24181437492370605,9.9401273727417,5.035400390625,0,0.18310546875
4.2824999,0.3064578175544739,-0.29209262132644653,9.650428771972656,-5.767822265625,-0.274658203125,1.739501953125
4.2874999,0.4776432514190674,-0.2124854028224945,9.66958236694336,1.495361328125,0.213623046875,-2.716064453125
4.2924999,0.3429693877696991,-0.20290859043598175,10.04846477508545,4.364013671875,-0.1220703125,0.54931640625
4.2974999,0.272938996553421,-0.23582886159420013,9.689932823181152,-6.011962890625,0,1.3427734375
4.3024999,0.47824180126190186,-0.23523031175136566,9.668983459472656,2.5634765625,0.335693359375,-2.74658203125
4.3074999,0.3776853084564209,-0.26336219906806946,9.93593692779541,3.082275390625,-0.1220703125,0.885009765625
4.312499900000001,0.33099839091300964,-0.3172317147254944,9.506776809692383,-6.256103515625,0.091552734375,0.823974609375
4.3174999000000005,0.5279214978218079,-0.292691171169281,9.640253067016602,3.7841796875,0.3662109375,-2.593994140625
4.3224999,0.3166331648826599,-0.2890998423099518,9.573814392089844,-5.7373046875,-0.1220703125,0.335693359375
4.3274999,0.5123591423034668,-0.23163901269435883,9.827000617980957,4.730224609375,0.3662109375,-2.50244140625
4.3324999,0.30705636739730835,-0.24899697303771973,9.988609313964844,0.67138671875,-0.244140625,1.556396484375
4.3374999,0.39624038338661194,-0.28072014451026917,9.5408935546875,-5.645751953125,0.1220703125,-0.152587890625
4.3424999,0.5710170865058899,-0.29388827085494995,9.79408073425293,5.43212890625,0.274658203125,-2.166748046875
4.3474999,0.345363587141037,-0.31842881441116333,9.856329917907715,-0.274658203125,-0.396728515625,1.800537109375
4.352499900000001,0.43335050344467163,-0.3315969407558441,9.4822359085083,-4.7607421875,-0.06103515625,-0.640869140625
4.3574999000000005,0.5267243981361389,-0.2932897210121155,9.885659217834473,5.9814453125,0.152587890625,-1.89208984375
4.3624999,0.25498247146606445,-0.27413609623908997,9.928155899047852,-1.708984375,-0.457763671875,2.13623046875
4.3674999,0.41120412945747375,-0.27413609623908997,9.601346969604492,-4.119873046875,0.18310546875,-1.0986328125
4.3724999,0.49320554733276367,-0.2579752206802368,10.000580787658691,6.072998046875,0.274658203125,-1.40380859375
4.3774999,0.2669534981250763,-0.3016694188117981,9.883264541625977,-2.655029296875,-0.213623046875,2.197265625
4.3824999,0.5333084464073181,-0.29628247022628784,9.59177017211914,-1.922607421875,0.274658203125,-1.953125
4.3874999,0.4321534037590027,-0.2825157940387726,9.968857765197754,5.92041015625,0.30517578125,-0.79345703125
4.3924999,0.2759317457675934,-0.24420857429504395,9.77672290802002,-4.45556640625,0.030517578125,1.953125
4.397499900000001,0.5201402902603149,-0.24899697303771973,9.589376449584961,-0.91552734375,0.3662109375,-2.25830078125
4.4024999000000005,0.32441434264183044,-0.284311443567276,9.658807754516602,-5.126953125,-0.42724609375,1.556396484375
4.4074999,0.5297171473503113,-0.2849099934101105,9.567828178405762,0.518798828125,0.091552734375,-2.410888671875
4.4124999,0.39205053448677063,-0.292691171169281,9.956287384033203,5.096435546875,-0.091552734375,0.091552734375
4.4174999,0.28969839215278625,-0.23044191300868988,9.668983459472656,-5.859375,-0.152587890625,1.312255859375
4.4224999,0.3471592366695404,-0.23762452602386475,10.040084838867188,4.119873046875,-0.06103515625,0.54931640625
4.4274999,0.28790274262428284,-0.21547815203666687,9.666589736938477,-6.134033203125,0.06103515625,0.91552734375
4.4324999,0.49559974670410156,-0.28311434388160706,9.651625633239746,2.716064453125,0.244140625,-2.532958984375
4.437499900000001,0.38127660751342773,-0.29149407148361206,9.907805442810059,3.326416015625,-0.274658203125,1.007080078125
4.4424999000000005,0.33339259028434753,-0.2932897210121155,9.498396873474121,-6.103515625,-0.335693359375,0.48828125
4.4474999,0.5267243981361389,-0.32202014327049255,9.646238327026367,3.631591796875,0.274658203125,-2.50244140625
4.4524999,0.3357867896556854,-0.2717418968677521,9.965266227722168,2.01416015625,-0.213623046875,1.40380859375
4.4574999,0.3363853394985199,-0.2753331959247589,9.591172218322754,-5.79833984375,-0.030517578125,0.213623046875
4.4624999,0.5392939448356628,-0.30885201692581177,9.85034465789795,4.82177734375,0.3662109375,-2.655029296875
4.4674999,0.33698388934135437,-0.26755204796791077,9.987412452697754,1.068115234375,-0.152587890625,1.5869140625
4.4724999,0.43095630407333374,-0.2795230448246002,9.544485092163086,-5.31005859375,0,-0.274658203125
4.477499900000001,0.5937620401382446,-0.3345896899700165,9.793481826782227,5.2490234375,0.48828125,-2.13623046875
4.4824999000000005,0.43275195360183716,-0.2711433470249176,9.48462963104248,-4.8828125,0.091552734375,-0.885009765625
4.4874999,0.5063736438751221,-0.31184476613998413,9.90241813659668,6.011962890625,0.06103515625,-1.8310546875
4.4924999,0.23283611238002777,-0.2298433631658554,9.922170639038086,-1.40380859375,-0.579833984375,1.983642578125
4.4974999,0.4183867573738098,-0.26755204796791077,9.595361709594727,-4.058837890625,0.030517578125,-1.40380859375
4.5024999,0.4800374507904053,-0.31603461503982544,9.991601943969727,6.072998046875,0.244140625,-1.373291015625
4.5074999,0.26815059781074524,-0.2849099934101105,9.830592155456543,-3.082275390625,-0.335693359375,2.044677734375
4.5124999,0.5249287486076355,-0.3280056416988373,9.553462982177734,-2.899169921875,0.152587890625,-1.739501953125
4.5174999,0.4866214990615845,-0.3429693877696991,9.926360130310059,6.439208984375,0.091552734375,-1.068115234375
4.522499900000001,0.29388827085494995,-0.28550854325294495,9.765948295593262,-3.692626953125,-0.335693359375,2.105712890625
4.5274999000000005,0.5261258482933044,-0.30286651849746704,9.585784912109375,-1.861572265625,0.30517578125,-2.044677734375
4.5324999,0.4183867573738098,-0.262763649225235,9.965864181518555,5.859375,0.06103515625,-0.732421875
4.5374999,0.2861070930957794,-0.243011474609375,9.741408348083496,-4.94384765625,0.1220703125,1.953125
4.5424999,0.4100070297718048,-0.26096799969673157,9.909002304077148,5.615234375,-0.30517578125,-0.335693359375
4.5474999,0.3076549172401428,-0.29628247022628784,9.604938507080078,-5.615234375,-0.42724609375,1.556396484375
4.5524999,0.49140989780426025,-0.28131869435310364,9.547477722167969,0.67138671875,0.3662109375,-2.25830078125
4.5574999,0.3597288131713867,-0.21787235140800476,9.950302124023438,4.547119140625,-0.1220703125,0.18310546875
4.562499900000001,0.3627215623855591,-0.20889410376548767,9.965266227722168,3.997802734375,-0.1220703125,0.9765625
4.5674999000000005,0.31364041566848755,-0.2669534981250763,9.549872398376465,-6.134033203125,-0.18310546875,0.701904296875
4.5724999,0.5225345492362976,-0.29867666959762573,9.606734275817871,3.326416015625,0.457763671875,-2.50244140625
4.5774999,0.3770867586135864,-0.2735375463962555,9.91738224029541,2.593994140625,-0.152587890625,1.373291015625
4.5824999,0.33997663855552673,-0.32022446393966675,9.525930404663086,-6.04248046875,-0.244140625,0.244140625
4.5874999,0.5309142470359802,-0.2801215946674347,9.762357711791992,4.45556640625,0.1220703125,-2.410888671875
4.5924999,0.37169981002807617,-0.2801215946674347,9.572616577148438,-5.859375,-0.152587890625,-0.30517578125
4.5974999,0.5656301379203796,-0.2687491476535797,9.824007987976074,5.157470703125,0.335693359375,-2.288818359375
4.602499900000001,0.353743314743042,-0.29209262132644653,9.904213905334473,0.06103515625,-0.244140625,1.89208984375
4.6074999000000005,0.4507084786891937,-0.33698388934135437,9.498994827270508,-5.0048828125,0,-0.457763671875
4.6124999,0.5620388388633728,-0.31364041566848755,9.852738380432129,5.92041015625,0.396728515625,-1.922607421875
4.6174999,0.2890998423099518,-0.30885201692581177,9.913191795349121,-1.0986328125,-0.213623046875,1.983642578125
4.6224999,0.3998316824436188,-0.28550854325294495,9.583391189575195,-4.57763671875,0,-1.03759765625
4.6274999,0.47465047240257263,-0.2735375463962555,9.992799758911133,5.9814453125,0.213623046875,-1.64794921875
4.6324999,0.23283611238002777,-0.27712884545326233,9.905410766601562,-2.410888671875,-0.3662109375,1.983642578125
4.6374999,0.46567222476005554,-0.29209262132644653,9.567828178405762,-3.265380859375,0.091552734375,-1.373291015625
4.6424999,0.5027823448181152,-0.33099839091300964,9.916184425354004,6.195068359375,0.091552734375,-1.190185546875
4.647499900000001,0.3016694188117981,-0.3298012912273407,9.747992515563965,-3.143310546875,-0.640869140625,1.953125
4.6524999000000005,0.4578910768032074,-0.31603461503982544,9.937732696533203,5.9814453125,0.213623046875,-0.885009765625
4.6574999,0.27712884545326233,-0.24001872539520264,9.768941879272461,-4.39453125,-0.06103515625,1.77001953125
4.6624999,0.5147533416748047,-0.24600422382354736,9.618106842041016,-1.3427734375,0.3662109375,-2.197265625
4.6674999,0.40701428055763245,-0.26994624733924866,9.989806175231934,6.011962890625,-0.091552734375,-0.335693359375
4.6724999,0.30885201692581177,-0.2519897222518921,9.742605209350586,-4.791259765625,-0.54931640625,1.617431640625
4.6774999,0.5392939448356628,-0.284311443567276,9.619902610778809,-0.091552734375,0.213623046875,-2.50244140625
4.6824999,0.4124012291431427,-0.29149407148361206,9.983222961425781,5.126953125,0,0.30517578125
4.687499900000001,0.314238965511322,-0.2687491476535797,9.690531730651855,-5.706787109375,-0.091552734375,1.495361328125
4.6924999000000005,0.4800374507904053,-0.2322375625371933,9.672574996948242,1.220703125,0.30517578125,-2.777099609375
4.6974999,0.3489548861980438,-0.25258827209472656,10.043676376342773,4.486083984375,0,0.518798828125
4.7024999,0.2753331959247589,-0.20290859043598175,9.690531730651855,-5.767822265625,-0.244140625,1.190185546875
4.7074999,0.48063600063323975,-0.23523031175136566,9.685144424438477,2.25830078125,0.396728515625,-2.777099609375
4.7124999,0.5273229479789734,-0.31783026456832886,9.630077362060547,3.5400390625,0.213623046875,-2.471923828125
4.7174999,0.5273229479789734,-0.31783026456832886,9.630077362060547,3.5400390625,0.213623046875,-2.471923828125
4.7224999,0.3489548861980438,-0.28969839215278625,9.938331604003906,2.349853515625,-0.30517578125,1.434326171875
4.727499900000001,0.32441434264183044,-0.2801215946674347,9.567828178405762,-5.767822265625,-0.30517578125,0.152587890625
4.7324999000000005,0.5213374495506287,-0.30286651849746704,9.819219589233398,4.486083984375,0.213623046875,-2.25830078125
4.7374999,0.31842881441116333,-0.26815059781074524,10.022727012634277,1.0986328125,-0.244140625,1.64794921875
4.7424999,0.40462008118629456,-0.2735375463962555,9.593565940856934,-5.645751953125,0.30517578125,-0.274658203125
4.7474999,0.5817909836769104,-0.34416648745536804,9.836577415466309,5.31005859375,0.3662109375,-2.25830078125
4.7524999,0.35254621505737305,-0.2968810200691223,9.894038200378418,-0.091552734375,0,2.01416015625
4.7574999,0.4411316514015198,-0.28131869435310364,9.50857162475586,-4.7607421875,0.06103515625,-0.54931640625
4.7624999,0.5309142470359802,-0.3363853394985199,9.882067680358887,5.523681640625,0.274658203125,-1.983642578125
4.7674999,0.4770447015762329,-0.3274070918560028,10.020931243896484,6.16455078125,0.06103515625,-1.5869140625
4.772499900000001,0.25438392162323,-0.2717418968677521,9.909002304077148,-2.13623046875,-0.396728515625,2.166748046875
4.7774999000000005,0.5129576921463013,-0.30286651849746704,9.610923767089844,-3.2958984375,-0.030517578125,-1.64794921875
4.7824999,0.5051765441894531,-0.35733461380004883,9.996390342712402,6.103515625,0.213623046875,-1.3427734375
4.7874999,0.30047231912612915,-0.28969839215278625,9.819219589233398,-3.5400390625,-0.152587890625,2.227783203125
4.7924999,0.5285200476646423,-0.292691171169281,9.61331844329834,-1.983642578125,0.48828125,-1.922607421875
4.7974999,0.42018240690231323,-0.3082534670829773,10.005967140197754,6.103515625,0.030517578125,-0.823974609375
4.8024999,0.26336219906806946,-0.23343466222286224,9.801262855529785,-4.364013671875,-0.335693359375,1.953125
4.8074999,0.5093663930892944,-0.26396074891090393,9.62947940826416,-1.03759765625,0.030517578125,-2.288818359375
4.812499900000001,0.4040215313434601,-0.28730419278144836,9.990405082702637,5.462646484375,-0.152587890625,-0.42724609375
4.8174999000000005,0.314238965511322,-0.26755204796791077,9.700108528137207,-5.18798828125,-0.091552734375,1.8310546875
4.8224999,0.3711012601852417,-0.2759317457675934,9.978434562683105,5.096435546875,-0.152587890625,0.091552734375
4.8274999,0.27413609623908997,-0.22685061395168304,9.68155288696289,-5.523681640625,-0.335693359375,1.220703125
4.8324999,0.4531026780605316,-0.2064998894929886,9.697115898132324,1.495361328125,0.335693359375,-2.471923828125
4.8374999,0.3489548861980438,-0.23762452602386475,10.04188060760498,3.997802734375,-0.091552734375,0.823974609375
4.8424999,0.2998737692832947,-0.2041056901216507,9.660603523254395,-6.317138671875,0,0.91552734375
4.8474999,0.5129576921463013,-0.26994624733924866,9.679159164428711,2.74658203125,0.213623046875,-2.62451171875
4.852499900000001,0.38965633511543274,-0.29807811975479126,9.942521095275879,3.2958984375,-0.1220703125,0.946044921875
4.8574999000000005,0.3381809890270233,-0.28969839215278625,9.546280860900879,-5.79833984375,-0.244140625,0.579833984375
4.8624999,0.5297171473503113,-0.3250128924846649,9.704896926879883,3.90625,0.213623046875,-2.44140625
4.8674999,0.32860419154167175,-0.27712884545326233,9.989208221435547,1.708984375,-0.30517578125,1.40380859375
4.8724999,0.3471592366695404,-0.26336219906806946,9.59476375579834,-5.92041015625,0.244140625,0.1220703125
4.8774999,0.5518634915351868,-0.3082534670829773,9.84256362915039,4.791259765625,0.274658203125,-2.3193359375
4.8824999,0.2214636504650116,-0.22505496442317963,9.951498985290527,-1.617431640625,-0.457763671875,2.01416015625
4.8874999,0.4297592043876648,-0.2693476974964142,9.625288963317871,-3.875732421875,-0.1220703125,-1.40380859375
4.8924999,0.49140989780426025,-0.34177228808403015,10.020931243896484,6.04248046875,0.274658203125,-1.3427734375
4.897499900000001,0.284311443567276,-0.292691171169281,9.862914085388184,-2.86865234375,-0.213623046875,2.13623046875
4.9024999000000005,0.5327098965644836,-0.29867666959762573,9.583989143371582,-2.8076171875,0.213623046875,-1.5869140625
4.9074999,0.47824180126190186,-0.3405751883983612,9.982624053955078,6.072998046875,0.1220703125,-0.91552734375
4.9124999,0.27892449498176575,-0.25677812099456787,9.797672271728516,-3.631591796875,-0.42724609375,2.01416015625
4.9174999,0.40940847992897034,-0.28969839215278625,10.000580787658691,5.859375,0.1220703125,-0.579833984375
4.9224999,0.2944868206977844,-0.2472013235092163,9.756970405578613,-4.913330078125,-0.274658203125,1.77001953125
4.9274999,0.5345055460929871,-0.27234044671058655,9.595361709594727,-0.213623046875,0.396728515625,-2.25830078125
4.9324999,0.4207809567451477,-0.29568392038345337,9.94970417022705,5.37109375,0.06103515625,-0.06103515625
4.937499900000001,0.3256114423274994,-0.272938996553421,9.652822494506836,-5.401611328125,-0.335693359375,1.46484375
4.9424999000000005,0.4991910457611084,-0.2561795711517334,9.621099472045898,0.885009765625,0.396728515625,-2.44140625
4.9474999,0.36152446269989014,-0.2663549482822418,10.019734382629395,4.7607421875,0,0.3662109375
4.9524999,0.27712884545326233,-0.21128830313682556,9.70429801940918,-5.950927734375,0,1.190185546875
4.9574999,0.4668693244457245,-0.2232593148946762,9.717466354370117,2.105712890625,0.396728515625,-2.86865234375
4.9624999,0.31783026456832886,-0.24899697303771973,9.577404975891113,-5.950927734375,-0.335693359375,0.762939453125
4.9674999,0.5225345492362976,-0.3076549172401428,9.75278091430664,4.2724609375,0.18310546875,-2.62451171875
4.9724999,0.31783026456832886,-0.25917232036590576,10.005967140197754,1.52587890625,-0.213623046875,1.678466796875
4.977499900000001,0.3758896589279175,-0.26156654953956604,9.59476375579834,-5.645751953125,-0.091552734375,-0.1220703125
4.9824999000000005,0.5680243372917175,-0.3100491166114807,9.838373184204102,4.8828125,0.244140625,-2.471923828125
4.9874999,0.3495534360408783,-0.2795230448246002,9.915586471557617,-0.091552734375,-0.42724609375,1.739501953125
4.9924999,0.44592007994651794,-0.27054479718208313,9.50737476348877,-5.126953125,0.274658203125,-0.518798828125
4.9974999,0.5512649416923523,-0.3387795388698578,9.848548889160156,5.828857421875,0.091552734375,-2.105712890625
5.0024999,0.27712884545326233,-0.24779987335205078,9.917980194091797,-0.885009765625,-0.274658203125,1.89208984375
5.0074999,0.406415730714798,-0.24839842319488525,9.586383819580078,-4.302978515625,0.06103515625,-0.8544921875
5.0124999,0.48303020000457764,-0.3166331648826599,10.014945983886719,5.950927734375,0.335693359375,-1.708984375
5.0174999,0.4926069974899292,-0.30226796865463257,9.619902610778809,-3.326416015625,-0.030517578125,-1.40380859375
5.022499900000001,0.5111620426177979,-0.3687070608139038,9.999382972717285,6.378173828125,0.1220703125,-1.129150390625
5.0274999000000005,0.30526071786880493,-0.30945056676864624,9.822811126708984,-3.143310546875,-0.518798828125,2.0751953125
5.0324999,0.5410895943641663,-0.31184476613998413,9.593565940856934,-2.38037109375,0.152587890625,-1.800537109375
5.0374999,0.44532153010368347,-0.32381579279899597,10.000580787658691,5.950927734375,0.06103515625,-0.762939453125
5.0424999,0.2777273952960968,-0.24241292476654053,9.800065994262695,-4.364013671875,-0.335693359375,1.922607421875
5.0474999,0.5213374495506287,-0.26994624733924866,9.622296333312988,-0.91552734375,0.213623046875,-2.197265625
5.0524999,0.4183867573738098,-0.28371289372444153,9.977835655212402,5.7373046875,0.152587890625,-0.335693359375
5.0574999,0.3172317147254944,-0.27054479718208313,9.684545516967773,-5.18798828125,-0.213623046875,1.708984375
5.062499900000001,0.524330198764801,-0.27473464608192444,9.571419715881348,0.213623046875,0.54931640625,-2.3193359375
5.0674999000000005,0.3818751573562622,-0.2825157940387726,9.946710586547852,5.035400390625,0.030517578125,0.18310546875
5.0724999,0.27892449498176575,-0.23942017555236816,9.67077922821045,-5.4931640625,-0.213623046875,1.3427734375
5.0774999,0.2663549482822418,-0.21009120345115662,9.695918083190918,-6.103515625,-0.091552734375,0.9765625
5.0824999,0.4794389009475708,-0.27712884545326233,9.697115898132324,2.593994140625,0.3662109375,-2.50244140625
5.0874999,0.3770867586135864,-0.2885012924671173,9.940725326538086,3.143310546875,-0.213623046875,1.0986328125
5.0924999,0.3363853394985199,-0.2890998423099518,9.530119895935059,-6.134033203125,-0.06103515625,0.518798828125
5.0974999,0.5333084464073181,-0.3256114423274994,9.664793968200684,3.60107421875,0.579833984375,-2.5634765625
5.102499900000001,0.33698388934135437,-0.29209262132644653,9.968857765197754,2.166748046875,-0.152587890625,1.373291015625
5.1074999000000005,0.3381809890270233,-0.272938996553421,9.593565940856934,-5.79833984375,0.030517578125,-0.1220703125
5.1124999,0.5309142470359802,-0.3064578175544739,9.852738380432129,4.69970703125,0.244140625,-2.227783203125
5.1174999,0.32441434264183044,-0.2687491476535797,9.992799758911133,0.8544921875,-0.335693359375,1.800537109375
5.1224999,0.569819986820221,-0.34416648745536804,9.804854393005371,5.4931640625,0.3662109375,-2.227783203125
5.1274999,0.5021837949752808,-0.31783026456832886,9.930550575256348,5.79833984375,0.274658203125,-1.77001953125
5.1324999,0.24001872539520264,-0.22086510062217712,9.961674690246582,-1.8310546875,-0.244140625,2.105712890625
5.1374999,0.4357447028160095,-0.2561795711517334,9.635464668273926,-3.90625,0.244140625,-1.52587890625
5.1424999,0.4991910457611084,-0.33039984107017517,10.035895347595215,6.317138671875,0.152587890625,-1.52587890625
5.147499900000001,0.28550854325294495,-0.28790274262428284,9.87967300415039,-2.62451171875,-0.3662109375,2.105712890625
5.1524999000000005,0.5363011956214905,-0.3034650683403015,9.589376449584961,-2.685546875,0.335693359375,-1.617431640625
5.1574999,0.4812345504760742,-0.345363587141037,9.981427192687988,6.28662109375,0.030517578125,-1.03759765625
5.1624999,0.28311434388160706,-0.25019407272338867,9.78869342803955,-3.875732421875,-0.06103515625,2.13623046875
5.1674999,0.518943190574646,-0.262763649225235,9.61212158203125,-1.556396484375,0.244140625,-1.983642578125
5.1724999,0.4118026793003082,-0.2801215946674347,9.993996620178223,5.828857421875,0.030517578125,-0.701904296875
5.1774999,0.2932897210121155,-0.24660277366638184,9.761159896850586,-4.791259765625,-0.213623046875,1.8310546875
5.1824999,0.30705636739730835,-0.27234044671058655,9.672574996948242,-5.340576171875,-0.3662109375,1.52587890625
5.187499900000001,0.4794389009475708,-0.2406172752380371,9.639056205749512,0.823974609375,0.67138671875,-2.410888671875
5.1924999000000005,0.33997663855552673,-0.25318682193756104,10.032901763916016,4.39453125,-0.06103515625,0.274658203125
5.1974999,0.25917232036590576,-0.19812019169330597,9.699509620666504,-5.828857421875,-0.396728515625,0.9765625
5.2024999,0.4554968774318695,-0.22924481332302094,9.706692695617676,2.3193359375,0.396728515625,-2.50244140625
5.2074999,0.36332011222839355,-0.2825157940387726,9.980828285217285,3.5400390625,0.030517578125,0.8544921875
5.2124999,0.3190273642539978,-0.2651578485965729,9.560047149658203,-6.195068359375,-0.06103515625,0.6103515625
5.2174999,0.5267243981361389,-0.31603461503982544,9.634267807006836,3.448486328125,0.213623046875,-2.44140625
5.2224999,0.3597288131713867,-0.28969839215278625,9.924564361572266,2.62451171875,-0.3662109375,1.3427734375
5.227499900000001,0.3280056416988373,-0.26396074891090393,9.551667213439941,-6.134033203125,0.152587890625,0.18310546875
5.2324999000000005,0.5183446407318115,-0.2974795699119568,9.79647445678711,4.5166015625,0.244140625,-2.3193359375
5.2374999,0.38127660751342773,-0.27473464608192444,9.589975357055664,-5.645751953125,0.06103515625,-0.1220703125
5.2424999,0.5620388388633728,-0.34656068682670593,9.844358444213867,5.218505859375,0.335693359375,-1.922607421875
5.2474999,0.34177228808403015,-0.30047231912612915,9.905410766601562,-0.1220703125,-0.213623046875,1.678466796875
5.2524999,0.43993455171585083,-0.2849099934101105,9.530119895935059,-4.852294921875,-0.091552734375,-0.79345703125
5.2574999,0.5345055460929871,-0.33039984107017517,9.894038200378418,5.79833984375,0.3662109375,-1.800537109375
5.2624999,0.25677812099456787,-0.228047713637352,9.938929557800293,-1.434326171875,-0.152587890625,2.0751953125
5.2674999,0.41359832882881165,-0.23762452602386475,9.59835433959961,-3.936767578125,-0.091552734375,-1.40380859375
