# Time (seconds),Accel_X,Accel_Y,Accel_Z,Gyro_X,Gyro_Y,Gyro_Z
0.0024999,0.6745663285255432,-0.5009866952896118,9.818022727966309,-5.67626953125,-0.3662109375,0.67138671875
0.0074999,0.6739677786827087,-0.5578489899635315,9.606135368347168,0.213623046875,1.251220703125,-2.838134765625
0.012499900000000001,0.7003039717674255,-0.45429977774620056,9.815628051757812,4.974365234375,-0.8544921875,1.77001953125
0.0174999,0.6841431260108948,-0.46148237586021423,9.70549488067627,-7.080078125,0.274658203125,-0.6103515625
0.0224999,0.7140706777572632,-0.4572925269603729,9.569025993347168,3.11279296875,0.701904296875,-1.922607421875
0.0274999,0.6853402256965637,-0.49380409717559814,9.676166534423828,-6.4697265625,0.274658203125,-1.64794921875
0.0324999,0.7140706777572632,-0.5422866940498352,9.694721221923828,5.767822265625,0.30517578125,-1.52587890625
0.0374999,0.6883329749107361,-0.5422866940498352,9.958083152770996,0.030517578125,-1.190185546875,2.349853515625
0.0424999,0.7547720670700073,-0.618302583694458,9.758167266845703,-5.31005859375,0.885009765625,-2.044677734375
0.0474999,0.7350199222564697,-0.6003460884094238,9.813234329223633,6.591796875,0.1220703125,-0.42724609375
0.0524999,0.7308300733566284,-0.5776011347770691,9.952696800231934,-2.716064453125,-1.007080078125,1.8310546875
0.0574999,0.7236474752426147,-0.5871779918670654,9.6618013381958,-3.265380859375,1.251220703125,-2.593994140625
0.0624999,0.6877344250679016,-0.5722141861915588,9.82999324798584,6.622314453125,-0.18310546875,0.640869140625
0.0674999,0.690727174282074,-0.5267243981361389,9.893440246582031,-4.638671875,-0.67138671875,1.03759765625
0.0724999,0.6817489266395569,-0.5434837937355042,9.637859344482422,-0.91552734375,1.251220703125,-2.86865234375
0.0774999,0.6901286244392395,-0.49799394607543945,9.859322547912598,5.767822265625,-0.42724609375,1.678466796875
0.0824999,0.7254431247711182,-0.45489832758903503,9.800664901733398,4.5166015625,-1.068115234375,2.0751953125
0.0874999,0.7218518257141113,-0.47405192255973816,9.728240013122559,-6.622314453125,-0.091552734375,-0.42724609375
0.0924999,0.7380126714706421,-0.48602294921875,9.605537414550781,3.96728515625,0.762939453125,-2.3193359375
0.0974999,0.6997054219245911,-0.46627077460289,9.892841339111328,2.44140625,-1.220703125,2.044677734375
0.1024999,0.6955155730247498,-0.4944026470184326,9.706692695617676,-6.4697265625,0.54931640625,-1.251220703125
0.1074999,0.718859076499939,-0.5303156971931458,9.718663215637207,5.462646484375,0.67138671875,-1.3427734375
0.1124999,0.6991068720817566,-0.5153518915176392,9.937732696533203,0.1220703125,-1.03759765625,2.25830078125
0.1174999,0.750582218170166,-0.5889736413955688,9.764751434326172,-5.279541015625,0.79345703125,-2.197265625
0.1224999,0.7224503755569458,-0.5979518890380859,9.774328231811523,6.16455078125,0.244140625,-0.42724609375
0.1274999,0.7128735780715942,-0.5530605912208557,9.967659950256348,-1.77001953125,-0.91552734375,1.922607421875
0.1324999,0.7350199222564697,-0.5919663906097412,9.670180320739746,-4.119873046875,1.068115234375,-2.593994140625
0.1374999,0.6853402256965637,-0.5428852438926697,9.624691009521484,-2.3193359375,1.068115234375,-2.777099609375
0.1424999,0.6823474764823914,-0.5452794432640076,9.80904483795166,6.378173828125,-0.48828125,0.885009765625
0.1474999,0.6799532771110535,-0.49559974670410156,9.788095474243164,-5.157470703125,-0.457763671875,0.946044921875
0.1524999,0.6799532771110535,-0.49559974670410156,9.788095474243164,-5.157470703125,-0.457763671875,0.946044921875
0.1574999,0.6721721291542053,-0.5321113467216492,9.557653427124023,0.18310546875,1.0986328125,-2.86865234375
0.1624999,0.6560112833976746,-0.4710591733455658,9.725247383117676,-6.16455078125,-0.335693359375,0.213623046875
0.1674999,0.6560112833976746,-0.4710591733455658,9.725247383117676,-6.16455078125,-0.335693359375,0.213623046875
0.1724999,0.690727174282074,-0.5051765441894531,9.610923767089844,1.983642578125,1.068115234375,-2.5634765625
0.17749990000000002,0.7260416746139526,-0.45429977774620056,9.818022727966309,4.33349609375,-0.91552734375,1.922607421875
0.1824999,0.71766197681427,-0.45489832758903503,9.722254753112793,-6.4697265625,0.091552734375,-0.274658203125
0.1874999,0.7380126714706421,-0.4596867263317108,9.609128952026367,3.41796875,0.6103515625,-2.01416015625
0.1924999,0.6805518269538879,-0.5476736426353455,9.964667320251465,-0.946044921875,-0.6103515625,2.288818359375
0.1974999,0.7236474752426147,-0.6141127347946167,9.761758804321289,-4.730224609375,1.190185546875,-2.0751953125
0.2024999,0.702099621295929,-0.6027402877807617,9.833584785461426,6.256103515625,0.1220703125,-0.640869140625
0.20749990000000001,0.7032967209815979,-0.5662286877632141,9.9772367477417,-2.349853515625,-0.885009765625,1.77001953125
0.2124999,0.7380126714706421,-0.5889736413955688,9.715670585632324,-3.2958984375,1.129150390625,-2.227783203125
0.2174999,0.6811503767967224,-0.5345055460929871,9.812037467956543,6.40869140625,-0.213623046875,0.091552734375
0.2224999,0.6973112225532532,-0.48722004890441895,9.915586471557617,-3.631591796875,-0.885009765625,1.373291015625
0.2274999,0.6901286244392395,-0.5404910445213318,9.605537414550781,-0.885009765625,1.03759765625,-2.8076171875
0.2324999,0.6865373253822327,-0.5147533416748047,9.798869132995605,5.67626953125,-0.640869140625,1.373291015625
0.2374999,0.6751648783683777,-0.4812345504760742,9.747992515563965,-5.523681640625,-0.30517578125,0.640869140625
0.2424999,0.6649895310401917,-0.5039794445037842,9.586981773376465,0.213623046875,0.91552734375,-2.716064453125
0.2474999,0.6745663285255432,-0.4902127981185913,9.82759952545166,5.126953125,-0.67138671875,1.800537109375
0.2524999,0.6649895310401917,-0.4866214990615845,9.748590469360352,-6.072998046875,-0.213623046875,0.244140625
0.2574999,0.7092822790145874,-0.5213374495506287,9.626486778259277,1.708984375,0.8544921875,-2.410888671875
0.2624999,0.7422025203704834,-0.4991910457611084,9.830592155456543,4.21142578125,-0.79345703125,1.89208984375
0.2674999,0.7344213724136353,-0.5057750940322876,9.733627319335938,-6.195068359375,0,-0.274658203125
0.2724999,0.7697358727455139,-0.536899745464325,9.628880500793457,2.960205078125,1.068115234375,-2.0751953125
0.2774999,0.690727174282074,-0.569819986820221,9.738415718078613,-6.16455078125,0.152587890625,-1.312255859375
0.2824999,0.7272387742996216,-0.5674257874488831,9.762955665588379,4.913330078125,0.42724609375,-1.64794921875
0.28749990000000003,0.7308300733566284,-0.536899745464325,9.95748519897461,0.91552734375,-1.28173828125,2.166748046875
0.2924999,0.751779317855835,-0.5452794432640076,9.768342971801758,-5.79833984375,0.30517578125,-1.5869140625
0.2974999,0.7487865686416626,-0.5614402890205383,9.798270225524902,5.4931640625,0.213623046875,-1.129150390625
0.3024999,0.707486629486084,-0.5045779943466187,9.959280967712402,-0.3662109375,-0.79345703125,2.197265625
0.3074999,0.7194576263427734,-0.558447539806366,9.755773544311523,-5.18798828125,0.79345703125,-2.01416015625
0.3124999,0.702099621295929,-0.557250440120697,9.766547203063965,5.889892578125,0.213623046875,-0.67138671875
0.3174999,0.6937199234962463,-0.5165489912033081,9.940725326538086,-1.007080078125,-0.885009765625,2.105712890625
0.3224999,0.7134721279144287,-0.5578489899635315,9.72165584564209,5.9814453125,0.213623046875,-0.457763671875
0.3274999,0.7230489253997803,-0.5237316489219666,9.881468772888184,-2.197265625,-0.8544921875,1.89208984375
0.3324999,0.7547720670700073,-0.5680243372917175,9.641449928283691,-3.72314453125,0.91552734375,-2.25830078125
0.3374999,0.6913257241249084,-0.5261258482933044,9.762357711791992,6.2255859375,-0.30517578125,-0.152587890625
0.3424999,0.6949170231819153,-0.49619829654693604,9.905410766601562,-3.021240234375,-0.79345703125,1.5869140625
0.34749990000000003,0.6913257241249084,-0.535702645778656,9.696516990661621,-2.9296875,1.007080078125,-2.5634765625
0.35249990000000003,0.6512228846549988,-0.5129576921463013,9.84495735168457,6.28662109375,-0.396728515625,0.213623046875
0.3574999,0.6685808300971985,-0.4991910457611084,9.924564361572266,-3.570556640625,-0.701904296875,1.5869140625
0.3624999,0.679354727268219,-0.5446808934211731,9.708487510681152,-2.471923828125,0.946044921875,-2.655029296875
0.3674999,0.6859387755393982,-0.5530605912208557,9.865307807922363,5.9814453125,-0.48828125,0.54931640625
0.3724999,0.7050924301147461,-0.5261258482933044,9.8599214553833,-4.33349609375,-0.701904296875,1.129150390625
0.3774999,0.7200561761856079,-0.5644330382347107,9.625288963317871,-1.5869140625,0.91552734375,-2.74658203125
0.3824999,0.6326677799224854,-0.4800374507904053,9.82759952545166,-5.645751953125,-0.152587890625,0.396728515625
0.3874999,0.628477931022644,-0.7086837291717529,9.296685218811035,-1.800537109375,0.6103515625,-0.30517578125
0.3924999,0.24001872539520264,-2.2828712463378906,8.454524993896484,1.77001953125,-1.708984375,33.38623046875
0.3974999,-0.2603694200515747,-3.620033025741577,7.2113356590271,-20.8740234375,-6.28662109375,128.2958984375
0.4024999,-2.1805191040039062,-6.508637428283691,6.5511345863342285,56.33544921875,-29.937744140625,278.01513671875
0.4074999,-3.648763418197632,-4.711789131164551,7.48726749420166,138.916015625,33.87451171875,251.983642578125
0.41249990000000003,-3.4973301887512207,-2.0410568714141846,8.823830604553223,181.243896484375,-19.53125,283.8134765625
0.41749990000000003,-2.7545289993286133,0.03531447425484657,9.057863235473633,232.5439453125,-20.355224609375,289.642333984375
0.4224999,-1.5783774852752686,2.3253684043884277,9.442731857299805,135.68115234375,-41.80908203125,222.625732421875
0.4274999,0.07302315533161163,4.377797603607178,9.106945037841797,111.724853515625,-98.44970703125,181.732177734375
0.4324999,1.6729484796524048,5.559935092926025,8.183979988098145,140.31982421875,-115.081787109375,165.283203125
0.4374999,3.0328550338745117,5.8616042137146,7.160458564758301,140.31982421875,-91.827392578125,141.17431640625
0.4424999,4.23893404006958,5.499481201171875,6.610989570617676,80.841064453125,-74.70703125,127.01416015625
0.4474999,5.210381507873535,4.7590742111206055,6.621164798736572,67.413330078125,-61.09619140625,123.077392578125
0.4524999,5.850231647491455,3.8977603912353516,6.8156938552856445,83.1298828125,-36.1328125,106.781005859375
0.4574999,6.021417140960693,3.0310592651367188,6.723516941070557,45.8984375,-14.801025390625,81.573486328125
0.4624999,6.0405707359313965,2.294243812561035,6.779181957244873,9.368896484375,-2.9296875,64.697265625
0.4674999,5.578489780426025,1.7591396570205688,6.937798023223877,-10.040283203125,3.23486328125,19.683837890625
0.47249990000000003,5.190629482269287,1.7729063034057617,6.998251438140869,-58.441162109375,-3.47900390625,-4.638671875
0.47749990000000003,4.899733543395996,2.1086931228637695,7.371148586273193,-58.746337890625,7.26318359375,-23.406982421875
0.4824999,4.602254390716553,2.427720546722412,7.550713539123535,-64.361572265625,27.34375,-47.79052734375
0.4874999,4.329315185546875,2.608482837677002,7.5016326904296875,-107.452392578125,36.407470703125,-66.925048828125
0.4924999,4.126406669616699,2.7126305103302,7.688380241394043,-117.67578125,32.470703125,-73.577880859375
0.4974999,3.8558619022369385,2.695871114730835,7.48726749420166,-117.73681640625,47.760009765625,-89.17236328125
0.5024999,3.4165258407592773,2.6144683361053467,7.202357292175293,-163.26904296875,50.689697265625,-110.870361328125
0.5074999,3.114856481552124,2.4857800006866455,7.073668956756592,-191.314697265625,50.262451171875,-121.673583984375
0.5124999,2.9203274250030518,2.2894554138183594,7.146692276000977,-183.135986328125,72.57080078125,-129.45556640625
0.5174999,2.6868927478790283,1.8590975999832153,7.199963092803955,-209.869384765625,90.02685546875,-136.53564453125
0.5224999,2.4001872539520264,0.8780734539031982,8.632294654846191,-216.61376953125,106.201171875,-118.7744140625
0.5274999,-0.20470423996448517,-3.9175124168395996,12.863447189331055,70.9228515625,78.30810546875,-31.1279296875
0.5324999,-1.932719349861145,-6.400898456573486,13.481151580810547,43.0908203125,47.271728515625,-29.632568359375
0.5374999,-3.1872811317443848,-7.502829551696777,12.232575416564941,64.208984375,19.073486328125,-44.3115234375
0.5424999,-3.5446155071258545,-6.997653007507324,9.30925464630127,91.552734375,-7.476806640625,-78.4912109375
0.5474999,-3.1717185974121094,-5.515642166137695,6.311714172363281,32.318115234375,-32.623291015625,-90.301513671875
0.5524999,-2.4139537811279297,-3.4590229988098145,4.689642429351807,-27.191162109375,-38.26904296875,-70.86181640625
0.5574999,-1.5041571855545044,-1.3539210557937622,4.668094635009766,-48.52294921875,-23.162841796875,-74.3408203125
0.5624999,-0.6805518269538879,0.608127236366272,5.919663906097412,-72.08251953125,-13.275146484375,-66.314697265625
0.5674999000000001,-0.0694318488240242,1.977012038230896,8.519766807556152,-26.123046875,-1.678466796875,-27.03857421875
0.5724999000000001,0.22864626348018646,2.431311845779419,10.852317810058594,6.072998046875,8.880615234375,-3.60107421875
0.5774999000000001,0.14065934717655182,2.0434510707855225,12.499528884887695,-14.58740234375,-10.009765625,15.411376953125
0.5824999,-0.19213469326496124,0.9810241460800171,12.896965980529785,11.23046875,-23.681640625,20.32470703125
0.5874999,-0.6625953316688538,-1.0348936319351196,10.184335708618164,-27.008056640625,-34.210205078125,-5.2490234375
0.5924999,-0.32620999217033386,-1.4437036514282227,9.330204010009766,2.9296875,-30.426025390625,5.18798828125
0.5974999,0.28131869435310364,-1.3455413579940796,8.87291145324707,-13.214111328125,-20.56884765625,-7.781982421875
0.6024999,0.9923965930938721,-1.070208191871643,9.439739227294922,-14.0380859375,-22.216796875,3.90625
0.6074999,1.7417817115783691,-0.8762778043746948,9.757569313049316,15.80810546875,-1.46484375,9.490966796875
0.6124999,2.094327926635742,-0.6440402865409851,9.797073364257812,-11.505126953125,1.190185546875,-4.21142578125
0.6174999,2.3127987384796143,-0.7841010689735413,10.025120735168457,2.86865234375,4.425048828125,3.631591796875
0.6224999,2.2170307636260986,-0.7038952708244324,9.683947563171387,13.458251953125,20.5078125,-1.46484375
0.6274999,1.8543092012405396,-0.6548141837120056,9.673172950744629,-14.007568359375,10.101318359375,-8.48388671875
0.6324999,1.5101426839828491,-0.6997054219245911,9.93474006652832,16.876220703125,18.73779296875,6.53076171875
0.6374999,0.9804255962371826,-0.5351040959358215,9.716269493103027,8.48388671875,21.240234375,-1.89208984375
0.6424999,0.4507084786891937,-0.5506663918495178,9.91738224029541,-9.735107421875,1.28173828125,-3.265380859375
0.6474999,-0.22744916379451752,-0.2885012924671173,9.589975357055664,-8.1787109375,0.274658203125,-7.38525390625
0.6524999,-0.28550854325294495,-0.243011474609375,9.84376049041748,-6.2255859375,-12.02392578125,3.0517578125
0.6574999,-0.1364694982767105,-0.13168109953403473,9.666589736938477,12.786865234375,1.708984375,4.425048828125
0.6624999,-0.02454056777060032,-0.07781155407428741,9.625288963317871,-21.697998046875,-15.533447265625,-5.37109375
0.6674999,0.3561375141143799,-0.28790274262428284,9.913191795349121,5.06591796875,-10.7421875,7.568359375
0.6724999,0.5973533391952515,-0.33518823981285095,9.568427085876465,-0.6103515625,-1.617431640625,-2.532958984375
0.6774999,0.7781155705451965,-0.5512649416923523,9.832986831665039,-17.822265625,-16.937255859375,-2.044677734375
0.6824999,1.0618284940719604,-0.7709329724311829,9.874884605407715,16.510009765625,2.0751953125,4.69970703125
0.6874999,1.0678139925003052,-0.7284358739852905,9.645041465759277,-12.969970703125,-2.960205078125,-7.8125
0.6924999000000001,1.1988965272903442,-0.8900445103645325,10.030508041381836,2.197265625,-4.486083984375,3.753662109375
0.6974999000000001,1.2084733247756958,-0.7535749673843384,9.653421401977539,11.5966796875,11.444091796875,-1.251220703125
0.7024999000000001,1.0360907316207886,-0.6751648783683777,9.795876502990723,-16.265869140625,-4.45556640625,-4.302978515625
0.7074999,0.6637924313545227,-0.37409400939941406,9.674968719482422,13.73291015625,11.810302734375,0.06103515625
0.7124999,0.5063736438751221,-0.3357867896556854,9.791088104248047,-18.06640625,-5.92041015625,-4.0283203125
0.7174999,0.6027402877807617,-0.4686649739742279,9.900622367858887,16.937255859375,3.96728515625,6.8359375
0.7224999,0.5327098965644836,-0.3932476341724396,9.561244010925293,-8.697509765625,3.11279296875,-6.77490234375
0.7274999,0.5889736413955688,-0.5057750940322876,9.979631423950195,-2.044677734375,-7.14111328125,4.302978515625
0.7324999,0.6715735793113708,-0.48602294921875,9.652822494506836,11.627197265625,8.575439453125,-1.64794921875
0.7374999,0.5961562395095825,-0.4507084786891937,9.797672271728516,-18.035888671875,-7.87353515625,-3.47900390625
0.7424999,0.7380126714706421,-0.568622887134552,9.889249801635742,17.9443359375,3.0517578125,5.462646484375
0.7474999,0.6506243348121643,-0.4489128291606903,9.593565940856934,-13.0615234375,-0.18310546875,-7.62939453125
0.7524999,0.7092822790145874,-0.5668272376060486,10.01075553894043,3.570556640625,-6.500244140625,5.523681640625
0.7574999,0.606930136680603,-0.43514615297317505,9.635464668273926,-18.310546875,-4.730224609375,-5.79833984375
0.7624999,0.7481880187988281,-0.5476736426353455,9.926959037780762,12.847900390625,-1.434326171875,6.805419921875
0.7674999,0.761954665184021,-0.46746787428855896,9.516353607177734,-5.67626953125,4.302978515625,-6.28662109375
0.7724999,0.8068459630012512,-0.536899745464325,9.983222961425781,-2.86865234375,-6.072998046875,4.5166015625
0.7774999,0.9277531504631042,-0.5536591410636902,9.633668899536133,11.5966796875,9.70458984375,-1.953125
0.7824999,0.7924807667732239,-0.50876784324646,9.870695114135742,-15.838623046875,-4.913330078125,-1.15966796875
0.7874999,0.9163807034492493,-0.5746083855628967,9.857526779174805,19.561767578125,6.988525390625,3.662109375
0.7924999,0.7044938206672668,-0.4734533727169037,9.618106842041016,-16.2353515625,0.579833984375,-6.134033203125
0.7974999,0.7296329736709595,-0.5626373887062073,9.984419822692871,12.939453125,-0.274658203125,6.4697265625
0.8024999,0.6314706802368164,-0.46986207365989685,9.589975357055664,8.636474609375,6.103515625,-3.509521484375
0.8074999,0.6314706802368164,-0.46986207365989685,9.589975357055664,8.636474609375,6.103515625,-3.509521484375
0.8124999,0.5117605924606323,-0.4118026793003082,9.9371337890625,-14.862060546875,-8.880615234375,0.518798828125
0.8174999000000001,0.6189011335372925,-0.45848962664604187,9.788095474243164,16.693115234375,3.2958984375,1.40380859375
0.8224999000000001,0.5147533416748047,-0.3998316824436188,9.740211486816406,-18.890380859375,-5.859375,-4.180908203125
0.8274999000000001,0.6685808300971985,-0.5009866952896118,9.946112632751465,16.05224609375,-0.91552734375,5.37109375
0.8324999000000001,0.6649895310401917,-0.4273650050163269,9.537900924682617,-13.458251953125,0.244140625,-6.744384765625
0.8374999,0.7661445140838623,-0.5315127968788147,9.995792388916016,7.50732421875,-4.058837890625,6.500244140625
0.8424999,0.8271966576576233,-0.5141547918319702,9.535507202148438,-1.678466796875,5.828857421875,-6.591796875
0.8474999,0.7954735159873962,-0.5386953949928284,10.029311180114746,-3.662109375,-5.340576171875,4.852294921875
0.8524999,0.861314058303833,-0.5740098357200623,9.635464668273926,10.040283203125,8.30078125,-3.7841796875
0.8574999,0.7493851184844971,-0.5009866952896118,9.962273597717285,-13.12255859375,-4.547119140625,1.495361328125
0.8624999,0.6189011335372925,-0.47824180126190186,9.775525093078613,-17.4560546875,-2.8076171875,-2.197265625
0.8674999,0.7110779285430908,-0.5231330990791321,9.865307807922363,17.76123046875,2.838134765625,3.631591796875
0.8724999,0.5524620413780212,-0.4411316514015198,9.587580680847168,-16.082763671875,-0.3662109375,-5.523681640625
0.8774999,0.6548141837120056,-0.4908113479614258,9.974244117736816,13.427734375,-1.40380859375,5.828857421875
0.8824999,0.6416460275650024,-0.4315548539161682,9.501988410949707,-10.284423828125,2.01416015625,-6.65283203125
0.8874999,0.6584054827690125,-0.5111620426177979,10.017938613891602,5.9814453125,-4.974365234375,6.591796875
0.8924999,0.727837324142456,-0.4985924959182739,9.527127265930176,-2.685546875,3.90625,-6.8359375
0.8974999,0.6925228238105774,-0.5123591423034668,10.012551307678223,-1.953125,-6.805419921875,5.7373046875
0.9024999,0.7661445140838623,-0.5380968451499939,9.566631317138672,5.157470703125,5.126953125,-5.55419921875
0.9074999,0.7242460250854492,-0.45190557837486267,9.96945571899414,-8.880615234375,-6.4697265625,3.936767578125
0.9124999,0.7996633648872375,-0.5398924946784973,9.607931137084961,11.138916015625,5.55419921875,-3.2958984375
0.9174999,0.7326257228851318,-0.4118026793003082,9.86889934539795,-13.61083984375,-5.096435546875,1.5869140625
0.9224999,0.7200561761856079,-0.45908817648887634,9.806051254272461,-15.869140625,-3.60107421875,-0.91552734375
0.9274999,0.8104372620582581,-0.5530605912208557,9.780912399291992,16.693115234375,3.84521484375,1.52587890625
0.9324999,0.6248866319656372,-0.49320554733276367,9.714473724365234,-16.082763671875,-1.800537109375,-2.838134765625
0.9374999,0.7655459642410278,-0.5027823448181152,9.836577415466309,16.021728515625,1.953125,3.448486328125
0.9424999000000001,0.5835866928100586,-0.4944026470184326,9.567828178405762,-15.0146484375,-0.274658203125,-4.608154296875
0.9474999000000001,0.7416039705276489,-0.47584760189056396,9.889848709106445,14.16015625,0.244140625,4.94384765625
0.9524999000000001,0.6542156338691711,-0.5261258482933044,9.52353572845459,-12.908935546875,1.129150390625,-5.645751953125
0.9574999000000001,0.7356184720993042,-0.49978959560394287,9.962871551513672,11.566162109375,-1.5869140625,5.7373046875
0.9624999,0.718859076499939,-0.4991910457611084,10.032901763916016,9.063720703125,-3.11279296875,6.378173828125
0.9674999,0.7308300733566284,-0.524330198764801,9.556455612182617,-7.87353515625,2.899169921875,-6.988525390625
0.9724999,0.7709329724311829,-0.5129576921463013,9.57441234588623,-5.615234375,3.5400390625,-7.14111328125
0.9774999,0.7338228225708008,-0.48482584953308105,10.0765962600708,4.241943359375,-4.425048828125,6.28662109375
0.9824999,0.7769184708595276,-0.5195417404174805,9.529520988464355,-3.41796875,3.997802734375,-6.866455078125
0.9874999,0.7236474752426147,-0.48722004890441895,10.02691650390625,2.44140625,-4.45556640625,6.317138671875
0.9924999,0.7631517648696899,-0.5297171473503113,9.493608474731445,-1.77001953125,4.57763671875,-6.7138671875
0.9974999,0.71766197681427,-0.4908113479614258,10.014347076416016,1.068115234375,-4.425048828125,6.16455078125
1.0024999,0.7631517648696899,-0.5542576909065247,9.495404243469238,-0.3662109375,4.974365234375,-6.40869140625
1.0074999000000002,0.7050924301147461,-0.5039794445037842,10.030508041381836,0.18310546875,-4.21142578125,5.859375
1.0124999000000001,0.750582218170166,-0.5668272376060486,9.492411613464355,0.457763671875,5.035400390625,-6.28662109375
1.0174999000000002,0.6715735793113708,-0.4967968463897705,10.023324966430664,-0.244140625,-4.45556640625,5.767822265625
1.0224999000000001,0.7248445749282837,-0.5566518902778625,9.48882007598877,0.518798828125,4.7607421875,-6.04248046875
1.0274999,0.6476315855979919,-0.48243165016174316,10.022128105163574,-0.6103515625,-4.486083984375,5.7373046875
1.0324999000000001,0.7463923692703247,-0.5464765429496765,9.557653427124023,-1.007080078125,3.90625,-6.28662109375
1.0374999,0.7032967209815979,-0.5027823448181152,10.08318042755127,1.3427734375,-4.33349609375,5.706787109375
1.0424999000000001,0.7116764783859253,-0.47884035110473633,10.017339706420898,4.638671875,-3.265380859375,6.011962890625
1.0474999,0.7428010702133179,-0.49619829654693604,9.487024307250977,-5.096435546875,3.570556640625,-6.439208984375
1.0524999000000002,0.706289529800415,-0.4602852761745453,9.97484302520752,6.378173828125,-2.74658203125,6.04248046875
1.0574999,0.7410054206848145,-0.47165772318840027,9.475052833557129,-7.2021484375,3.0517578125,-6.195068359375
1.0624999000000002,0.7206547260284424,-0.4686649739742279,9.510367393493652,-9.063720703125,2.01416015625,-5.889892578125
1.0674999,0.7158663272857666,-0.4495113790035248,9.911396026611328,9.857177734375,-1.617431640625,5.2490234375
1.0724999000000002,0.6602011322975159,-0.4991910457611084,9.525331497192383,-10.68115234375,1.15966796875,-5.37109375
1.0774999,0.707486629486084,-0.4692635238170624,9.84615421295166,11.566162109375,-1.03759765625,4.241943359375
1.0824999000000002,0.595557689666748,-0.5303156971931458,9.62828254699707,-11.871337890625,0.18310546875,-4.302978515625
1.0874999,0.7182605266571045,-0.49380409717559814,9.856928825378418,12.176513671875,-0.06103515625,3.204345703125
1.0924999000000002,0.5973533391952515,-0.5704185366630554,9.821015357971191,-12.664794921875,-0.79345703125,-2.99072265625
1.0974999,0.7595604658126831,-0.5297171473503113,9.86111831665039,12.14599609375,1.28173828125,1.52587890625
1.1024999000000002,0.707486629486084,-0.5632359385490417,9.88625717163086,-11.627197265625,-1.739501953125,-1.28173828125
1.1074999,0.8122329115867615,-0.5279214978218079,9.738415718078613,11.474609375,1.678466796875,-0.213623046875
1.1124999000000002,0.7374141216278076,-0.44352585077285767,9.889249801635742,-10.3759765625,-2.38037109375,0.518798828125
1.1174999,0.800261914730072,-0.4884171485900879,9.617507934570312,8.72802734375,2.899169921875,-2.044677734375
1.1224999000000002,0.645237386226654,-0.4124012291431427,9.947309494018555,-3.021240234375,-3.11279296875,3.90625
1.1274999,0.7439981698989868,-0.547075092792511,9.5624418258667,0.762939453125,3.23486328125,-5.126953125
1.1324999000000002,0.6733692288398743,-0.507570743560791,10.037092208862305,1.953125,-2.960205078125,5.035400390625
1.1374999000000001,0.7296329736709595,-0.5722141861915588,9.565434455871582,-3.936767578125,2.86865234375,-5.7373046875
1.1424999000000002,0.7015010714530945,-0.5153518915176392,10.045472145080566,6.561279296875,-2.0751953125,5.18798828125
1.1474999000000001,0.6973112225532532,-0.5171475410461426,9.561842918395996,-8.453369140625,1.861572265625,-5.18798828125
1.1524999000000002,0.6871358752250671,-0.4578910768032074,9.903017044067383,9.8876953125,-1.03759765625,4.21142578125
1.1574999000000001,0.6147112846374512,-0.497395396232605,9.648633003234863,-11.23046875,0.3662109375,-4.150390625
1.1624999,0.707486629486084,-0.47824180126190186,9.80904483795166,11.29150390625,0.518798828125,2.410888671875
1.1674999000000001,0.6667851805686951,-0.5291185975074768,9.825204849243164,-11.077880859375,-1.373291015625,-1.800537109375
1.1724999,0.7823054194450378,-0.5237316489219666,9.754576683044434,11.138916015625,1.495361328125,0.030517578125
1.1774999000000002,0.8026561141014099,-0.497395396232605,9.612719535827637,6.927490234375,2.685546875,-2.44140625
1.1824999,0.6703764796257019,-0.40940847992897034,9.909002304077148,-4.364013671875,-2.838134765625,3.173828125
1.1874999000000002,0.7529764175415039,-0.5093663930892944,9.54209041595459,1.3427734375,2.655029296875,-4.669189453125
1.1924999,0.6613982319831848,-0.46746787428855896,9.987412452697754,2.197265625,-2.655029296875,4.425048828125
1.1974999000000002,0.7374141216278076,-0.536899745464325,9.568427085876465,-4.486083984375,2.105712890625,-5.31005859375
1.2024999,0.7116764783859253,-0.48901569843292236,9.983222961425781,7.6904296875,-1.77001953125,4.638671875
1.2074999000000002,0.6835445761680603,-0.524330198764801,9.639654159545898,-9.521484375,0.8544921875,-4.486083984375
1.2124999,0.7374141216278076,-0.4944026470184326,9.84376049041748,10.6201171875,0.06103515625,2.960205078125
1.2174999000000002,0.6637924313545227,-0.5548562407493591,9.786299705505371,-11.260986328125,-0.79345703125,-2.13623046875
1.2224999,0.7475894689559937,-0.5596446394920349,9.72285270690918,10.19287109375,1.678466796875,0.274658203125
1.2274999000000002,0.6973112225532532,-0.5135562419891357,9.906607627868652,-8.819580078125,-2.288818359375,0.762939453125
1.2324999,0.7655459642410278,-0.5446808934211731,9.61451530456543,5.92041015625,2.655029296875,-2.8076171875
1.2374999000000002,-1.8495208024978638,-4.264073371887207,5.807136058807373,115.53955078125,-4.425048828125,280.57861328125
1.2424999,-1.8519150018692017,-5.418676853179932,5.179256916046143,164.24560546875,42.8466796875,263.763427734375
1.2474999000000002,-2.3732523918151855,-2.9053637981414795,5.508459568023682,230.682373046875,-11.871337890625,292.510986328125
1.2524999,-1.3988122940063477,-1.7531541585922241,5.692812919616699,376.8310546875,-17.333984375,330.413818359375
1.2574999000000002,-1.0432734489440918,0.12030863761901855,6.056731700897217,430.084228515625,-67.68798828125,316.741943359375
1.2624999000000001,-0.0975637212395668,1.0133458375930786,6.802525520324707,430.084228515625,-141.265869140625,265.7470703125
1.2674999000000002,0.6218938827514648,0.9594763517379761,7.239467620849609,441.619873046875,-167.1142578125,205.169677734375
1.2724999000000001,2.181716203689575,-0.05267243832349777,6.551733016967773,386.41357421875,-163.26904296875,139.984130859375
1.2774999000000002,2.93888258934021,-0.36092591285705566,5.355829238891602,335.723876953125,-168.670654296875,107.48291015625
1.2824999000000001,3.6804866790771484,0.22924481332302094,3.9211037158966064,294.189453125,-166.748046875,80.13916015625
1.2874999,4.311957359313965,0.9780313968658447,2.7455508708953857,260.833740234375,-156.768798828125,66.986083984375
1.2924999000000001,4.8039655685424805,2.121262788772583,2.3062148094177246,248.748779296875,-141.571044921875,59.783935546875
1.2974999,5.22175407409668,3.3716344833374023,2.6162638664245605,225.250244140625,-126.8310546875,49.86572265625
1.3024999000000002,5.558737754821777,4.654926776885986,3.535637378692627,187.347412109375,-115.692138671875,33.355712890625
1.3074999,5.880757808685303,5.960963726043701,4.51067590713501,149.932861328125,-107.818603515625,23.01025390625
1.3124999000000002,6.010643482208252,7.041945934295654,5.6640825271606445,142.791748046875,-87.21923828125,12.481689453125
1.3174999,6.247070789337158,7.5417351722717285,6.179434776306152,141.387939453125,-47.66845703125,-14.923095703125
1.3224999000000002,5.974730491638184,7.517194747924805,6.480505466461182,110.7177734375,-48.065185546875,-16.021728515625
1.3274999,5.541978359222412,7.218518257141113,6.2416839599609375,73.30322265625,-50.537109375,-23.92578125
1.3324999000000002,4.197634220123291,6.798934459686279,5.376778602600098,20.172119140625,-34.759521484375,-42.90771484375
1.3374999,3.8277299404144287,6.878541469573975,5.197213172912598,-4.638671875,-19.439697265625,-43.8232421875
1.3424999000000002,3.685275077819824,6.839635848999023,5.278017520904541,-31.036376953125,-13.73291015625,-47.4853515625
1.3474999,3.639785051345825,7.046135425567627,5.462969779968262,-58.7158203125,-13.031005859375,-55.267333984375
1.3524999000000002,3.58292293548584,7.028179168701172,5.637746334075928,-82.794189453125,-6.65283203125,-55.72509765625
1.3574999,3.5182793140411377,7.051522731781006,5.825092792510986,-97.5341796875,6.683349609375,-50.506591796875
1.3624999000000002,3.403956174850464,6.94079065322876,5.893327713012695,-119.720458984375,16.54052734375,-49.102783203125
1.3674999,3.292027235031128,6.646902561187744,5.937021732330322,-150.421142578125,18.06640625,-53.3447265625
1.3724999000000002,3.1878795623779297,6.287772178649902,5.924452304840088,-171.630859375,22.64404296875,-53.253173828125
1.3774999,3.140594005584717,5.925649166107178,6.073491096496582,-181.70166015625,36.651611328125,-47.30224609375
1.3824999000000002,3.1423897743225098,5.620388507843018,6.192004203796387,-197.235107421875,48.309326171875,-44.37255859375
1.3874999000000001,3.1423897743225098,5.620388507843018,6.192004203796387,-197.235107421875,48.309326171875,-44.37255859375
1.3924999000000002,3.4554316997528076,3.5045127868652344,6.490082263946533,-284.11865234375,92.559814453125,-56.15234375
1.3974999000000001,3.469796895980835,2.982576847076416,6.515820026397705,-300.567626953125,94.268798828125,-62.469482421875
1.4024999000000002,3.3913867473602295,2.5677812099456787,6.591835975646973,-299.957275390625,105.987548828125,-64.849853515625
1.4074999000000001,3.310582399368286,2.100912094116211,6.6810197830200195,-312.07275390625,121.490478515625,-73.42529296875
1.4124999,3.2812533378601074,1.6214730739593506,6.800729751586914,-338.470458984375,124.603271484375,-88.43994140625
1.4174999000000001,3.246537446975708,1.1701661348342896,6.898892402648926,-348.419189453125,128.387451171875,-96.00830078125
1.4224999,3.221997022628784,0.7080851793289185,6.959345817565918,-342.59033203125,143.890380859375,-98.358154296875
1.4274999000000002,3.1226375102996826,0.31184476613998413,6.91265869140625,-357.879638671875,155.76171875,-108.3984375
1.4324999,2.936488389968872,-0.16819266974925995,6.918644428253174,-388.18359375,154.47998046875,-120.4833984375
1.4374999000000002,0.7571662664413452,-4.124012470245361,9.743204116821289,-163.9404296875,182.830810546875,-86.517333984375
1.4424999,-0.7098808288574219,-6.86597204208374,11.326369285583496,112.4267578125,77.423095703125,-48.828125
1.4474999000000002,-2.8365304470062256,-9.407417297363281,11.413758277893066,66.0400390625,42.1142578125,-48.675537109375
1.4524999,-3.861248731613159,-9.97065258026123,9.317035675048828,96.19140625,8.23974609375,-72.32666015625
1.4574999000000002,-3.8391025066375732,-8.251616477966309,5.610811710357666,150.634765625,-31.768798828125,-107.818603515625
1.4624999,-3.0795419216156006,-5.728725910186768,2.7515363693237305,126.46484375,-61.767578125,-127.0751953125
1.4674999000000002,-2.0638017654418945,-3.2375593185424805,1.8555063009262085,25.360107421875,-68.7255859375,-103.851318359375
1.4724999,-1.1791443824768066,-1.1982979774475098,2.4833858013153076,-67.596435546875,-34.881591796875,-85.693359375
1.4774999000000002,-0.4040215313434601,0.17477671802043915,3.845686435699463,-126.434326171875,-9.21630859375,-93.963623046875
1.4824999,0.026336219161748886,1.1929110288619995,4.809951305389404,-152.191162109375,0.8544921875,-83.099365234375
1.4874999000000002,0.28131869435310364,1.8148049116134644,6.353612899780273,-108.0322265625,22.52197265625,-56.854248046875
1.4924999,0.25917232036590576,1.522712230682373,8.568249702453613,-36.651611328125,43.15185546875,-38.0859375
1.4974999000000002,-0.760757565498352,-0.6476315855979919,13.15733528137207,14.617919921875,-18.37158203125,34.515380859375
1.5024999,-1.4532804489135742,-1.9488801956176758,13.255497932434082,39.154052734375,-31.707763671875,13.671875
1.5074999000000002,-1.8411411046981812,-2.802412986755371,11.165359497070312,21.78955078125,-34.7900390625,-13.48876953125
1.5124999000000001,-1.766920804977417,-2.8221652507781982,8.522160530090332,-1.64794921875,-30.70068359375,-5.31005859375
1.5174999000000002,-1.0965443849563599,-2.29484224319458,7.005434036254883,1.220703125,-17.39501953125,-3.60107421875
1.5224999000000001,-0.11611878126859665,-1.2617442607879639,6.7259111404418945,-31.1279296875,-7.781982421875,-7.537841796875
1.5274999000000002,1.028908133506775,-0.22206220030784607,8.176198959350586,-23.651123046875,-14.739990234375,11.016845703125
1.5324999000000001,1.9596540927886963,0.48243165016174316,9.727043151855469,11.29150390625,-6.622314453125,11.505126953125
1.5374999000000003,2.4343044757843018,0.669179379940033,10.666767120361328,-14.129638671875,-4.5166015625,-3.0517578125
1.5424999000000001,2.474407434463501,0.18734627962112427,10.934319496154785,-4.8828125,-1.495361328125,5.37109375
1.5474999,2.2415714263916016,-0.456095427274704,10.508749961853027,18.12744140625,10.528564453125,4.0283203125
1.5524999000000002,1.8237831592559814,-0.9175778031349182,9.816226959228516,-10.467529296875,9.674072265625,-13.427734375
1.5574999,1.1540051698684692,-1.1743559837341309,9.728240013122559,20.08056640625,16.11328125,6.805419921875
1.5624999000000002,0.761954665184021,-0.8571242094039917,9.639654159545898,-8.97216796875,5.67626953125,-8.697509765625
1.5674999,0.46507367491722107,-0.6590040326118469,9.828198432922363,2.471923828125,1.312255859375,-1.40380859375
1.5724999000000002,0.23822307586669922,-0.31184476613998413,9.652822494506836,9.735107421875,6.072998046875,2.5634765625
1.5774999,0.06643909960985184,-0.12509703636169434,9.661202430725098,-17.27294921875,-8.392333984375,-9.58251953125
1.5824999000000002,0.19931729137897491,-0.2232593148946762,9.925163269042969,3.0517578125,-5.340576171875,5.37109375
1.5874999,0.30466216802597046,-0.23343466222286224,9.733627319335938,7.659912109375,0.48828125,7.415771484375
1.5924999000000002,0.5171475410461426,-0.39624038338661194,9.727641105651855,-17.608642578125,-10.772705078125,-8.636474609375
1.5974999,0.8068459630012512,-0.6554127335548401,9.87967300415039,7.62939453125,-3.326416015625,4.425048828125
1.6024999000000002,1.1264718770980835,-0.7350199222564697,9.746196746826172,-14.83154296875,-6.16455078125,-8.026123046875
1.6074999,1.2282254695892334,-0.7936778664588928,9.906607627868652,14.373779296875,5.79833984375,6.34765625
1.6124999000000002,1.048660397529602,-0.6877344250679016,9.816825866699219,-11.8408203125,-3.662109375,-5.889892578125
1.6174999,1.048660397529602,-0.6877344250679016,9.816825866699219,-11.8408203125,-3.662109375,-5.889892578125
1.6224999000000002,0.9546879529953003,-0.6027402877807617,9.830592155456543,16.9677734375,8.270263671875,7.232666015625
1.6274999,0.7236474752426147,-0.43694180250167847,9.602544784545898,-9.063720703125,0.30517578125,-5.157470703125
1.6324999000000002,0.6404489278793335,-0.5069721937179565,9.893440246582031,-4.608154296875,-5.584716796875,-1.5869140625
1.6374999000000001,0.619499683380127,-0.45908817648887634,9.765948295593262,15.7470703125,5.859375,5.828857421875
1.6424999000000002,0.5440823435783386,-0.39863458275794983,9.68274974822998,-17.39501953125,-6.9580078125,-7.720947265625
1.6474999000000001,0.7152677774429321,-0.5997475385665894,9.967061996459961,5.462646484375,-3.143310546875,3.204345703125
1.6524999000000002,0.7721300721168518,-0.4950011968612671,9.662399291992188,8.026123046875,6.011962890625,1.556396484375
1.6574999000000001,0.8427590131759644,-0.5590460896492004,9.743204116821289,-18.218994140625,-7.75146484375,-5.767822265625
1.6624999000000003,0.9576807022094727,-0.6536170840263367,9.88625717163086,16.78466796875,4.39453125,6.77490234375
1.6674999000000001,0.8888474106788635,-0.4944026470184326,9.558850288391113,-5.06591796875,3.387451171875,-4.8828125
1.6724999,0.8637082576751709,-0.6099228858947754,9.886856079101562,-8.514404296875,-6.103515625,-1.220703125
1.6774999000000002,0.7966706156730652,-0.6141127347946167,9.985017776489258,8.087158203125,-1.64794921875,4.913330078125
1.6824999,0.7499836683273315,-0.4423287510871887,9.644442558288574,5.645751953125,7.110595703125,-2.01416015625
1.6874999000000002,0.6829460263252258,-0.5321113467216492,9.825204849243164,-16.937255859375,-8.209228515625,-3.082275390625
1.6924999,0.7769184708595276,-0.6171054840087891,9.886856079101562,19.4091796875,4.669189453125,6.103515625
1.6974999000000002,0.7038952708244324,-0.49978959560394287,9.604938507080078,-13.641357421875,-0.152587890625,-6.988525390625
1.7024999,0.8056488633155823,-0.6613982319831848,9.978434562683105,1.28173828125,-5.706787109375,4.08935546875
1.7074999000000002,0.839766263961792,-0.5422866940498352,9.671378135681152,11.16943359375,7.6904296875,-0.640869140625
1.7124999,0.8134300112724304,-0.5380968451499939,9.755773544311523,-18.890380859375,-6.805419921875,-3.96728515625
1.7174999000000002,0.8960300087928772,-0.6368576288223267,9.896432876586914,19.04296875,3.35693359375,6.04248046875
1.7224999,0.8403648138046265,-0.4902127981185913,9.555258750915527,-11.566162109375,2.349853515625,-6.805419921875
1.7274999000000002,0.8577227592468262,-0.6206967830657959,9.960477828979492,0.152587890625,-5.279541015625,4.2724609375
1.7324999,0.8325836658477783,-0.6015431880950928,9.84256362915039,19.4091796875,2.685546875,5.31005859375
1.7374999000000002,0.7487865686416626,-0.47405192255973816,9.528923034667969,-14.190673828125,1.068115234375,-7.14111328125
1.7424999,0.7846996188163757,-0.6123170852661133,9.998186111450195,4.2724609375,-4.8828125,5.67626953125
1.7474999000000002,0.823006808757782,-0.48602294921875,9.625288963317871,6.378173828125,6.072998046875,-3.387451171875
1.7524999,0.761954665184021,-0.5392939448356628,9.87967300415039,-15.533447265625,-6.28662109375,-0.42724609375
1.7574999000000002,0.8529343605041504,-0.5895721912384033,9.816825866699219,19.439697265625,3.814697265625,3.35693359375
1.7624999000000001,0.8259995579719543,-0.6518214344978333,9.930550575256348,12.87841796875,-2.25830078125,6.439208984375
1.7674999000000002,0.7978677153587341,-0.5309142470359802,9.512762069702148,-3.7841796875,4.669189453125,-6.34765625
1.7724999000000001,0.7978677153587341,-0.6015431880950928,9.926959037780762,-5.55419921875,-5.43212890625,3.5400390625
1.7774999000000002,0.8427590131759644,-0.579995334148407,9.691728591918945,13.946533203125,5.401611328125,-1.190185546875
1.7824999000000001,0.8493430614471436,-0.6087257862091064,9.923966407775879,19.47021484375,1.64794921875,4.5166015625
1.7874999000000003,0.768538773059845,-0.48901569843292236,9.580398559570312,-16.4794921875,0.946044921875,-6.65283203125
1.7924999000000001,0.8080430626869202,-0.6147112846374512,10.013748168945312,10.009765625,-3.021240234375,6.103515625
1.7974999,0.8188169598579407,-0.5237316489219666,9.556455612182617,-1.861572265625,4.2724609375,-6.16455078125
1.8024999000000002,0.7745242714881897,-0.5835866928100586,9.94970417022705,-6.34765625,-4.608154296875,3.814697265625
1.8074999,0.8343793153762817,-0.5859808921813965,9.692925453186035,13.702392578125,4.119873046875,-2.044677734375
1.8124999000000002,0.7757213711738586,-0.5554547905921936,9.78869342803955,-18.00537109375,-2.99072265625,-1.15966796875
1.8174999,0.8750807046890259,-0.6123170852661133,9.84376049041748,19.71435546875,1.52587890625,3.082275390625
1.8224999000000002,0.8092401623725891,-0.5261258482933044,9.57321548461914,-18.24951171875,0.30517578125,-5.340576171875
1.8274999,0.8493430614471436,-0.6302735805511475,10.002376556396484,14.312744140625,-1.617431640625,6.011962890625
1.8324999000000002,0.8242039084434509,-0.50876784324646,9.495404243469238,-8.514404296875,2.8076171875,-6.89697265625
1.8374999,0.7595604658126831,-0.5303156971931458,9.72165584564209,-18.096923828125,-2.105712890625,-0.946044921875
1.8424999000000002,0.8242039084434509,-0.5919663906097412,9.829395294189453,19.134521484375,0.885009765625,2.25830078125
1.8474999,0.7559691667556763,-0.5291185975074768,9.583989143371582,-18.12744140625,-0.091552734375,-4.638671875
1.8524999000000002,0.8056488633155823,-0.5919663906097412,9.964667320251465,15.777587890625,-1.03759765625,5.279541015625
1.8574999,0.7727286219596863,-0.48303020000457764,9.492411613464355,-12.054443359375,1.495361328125,-6.561279296875
1.8624999000000002,0.7829039692878723,-0.6003460884094238,10.042478561401367,7.720947265625,-2.593994140625,6.561279296875
1.8674999,0.8343793153762817,-0.5051765441894531,9.539097785949707,-2.716064453125,2.777099609375,-6.683349609375
1.8724999000000002,0.8020575642585754,-0.5793967843055725,10.038887977600098,-2.01416015625,-3.021240234375,5.706787109375
1.8774999,0.8661024570465088,-0.5578489899635315,9.602544784545898,6.683349609375,3.11279296875,-5.279541015625
1.8824999000000002,0.8565256595611572,-0.5841852426528931,9.661202430725098,13.458251953125,2.74658203125,-2.899169921875
1.8874999000000001,0.8044517636299133,-0.5171475410461426,9.774927139282227,-15.44189453125,-2.105712890625,0.885009765625
1.8924999000000002,0.8361749649047852,-0.6105214357376099,9.781511306762695,16.998291015625,1.922607421875,-0.18310546875
1.8974999000000001,0.7649474143981934,-0.5620388388633728,9.728838920593262,-17.63916015625,-1.312255859375,-1.77001953125
1.9024999000000002,0.8032546639442444,-0.6039373874664307,9.909601211547852,17.4560546875,0.732421875,2.38037109375
1.9074999000000001,0.6889315247535706,-0.5404910445213318,9.639056205749512,-16.7236328125,-0.06103515625,-3.936767578125
1.9124999000000003,0.7727286219596863,-0.5542576909065247,9.970054626464844,15.350341796875,-0.244140625,4.45556640625
1.9174999000000001,0.7032967209815979,-0.47824180126190186,9.537900924682617,-13.641357421875,0.6103515625,-5.767822265625
1.9224999,0.8140285611152649,-0.5889736413955688,10.061633110046387,7.720947265625,-1.861572265625,6.378173828125
1.9274999000000002,0.8571242094039917,-0.5398924946784973,9.543886184692383,-5.43212890625,2.01416015625,-6.65283203125
1.9324999,0.8720879554748535,-0.5847837924957275,9.552865028381348,-1.312255859375,2.410888671875,-6.8359375
1.9374999000000002,0.8110358119010925,-0.5979518890380859,9.983222961425781,-0.457763671875,-2.532958984375,6.317138671875
1.9424999,0.8415619134902954,-0.568622887134552,9.533711433410645,2.166748046875,2.44140625,-6.28662109375
1.9474999000000002,0.7805097699165344,-0.5279214978218079,9.922170639038086,-3.753662109375,-2.655029296875,5.37109375
1.9524999,0.8331822156906128,-0.5440823435783386,9.588777542114258,5.18798828125,2.38037109375,-5.767822265625
1.9574999000000002,0.7769184708595276,-0.4794389009475708,9.914987564086914,-6.317138671875,-2.593994140625,4.8828125
1.9624999,0.8349778652191162,-0.5656301379203796,9.64564037322998,7.293701171875,2.655029296875,-4.82177734375
1.9674999000000002,0.7835025191307068,-0.48303020000457764,9.888651847839355,-7.99560546875,-2.410888671875,4.119873046875
1.9724999,0.8445546627044678,-0.6075286865234375,9.645041465759277,8.880615234375,2.716064453125,-4.180908203125
1.9774999000000002,0.7793126702308655,-0.497395396232605,9.837775230407715,-9.429931640625,-2.532958984375,3.41796875
1.9824999,0.8319851160049438,-0.6260837316513062,9.64923095703125,9.857177734375,2.410888671875,-3.692626953125
1.9874999000000002,0.7679402232170105,-0.4985924959182739,9.822212219238281,-10.25390625,-2.288818359375,2.960205078125
1.9924999,0.7553706169128418,-0.49320554733276367,9.834183692932129,-10.80322265625,-2.349853515625,2.777099609375
1.9974999000000002,0.8170213103294373,-0.6153098344802856,9.704896926879883,10.6201171875,2.197265625,-3.265380859375
2.0024999,0.8343793153762817,-0.6177040338516235,9.716269493103027,10.55908203125,2.105712890625,-2.8076171875
2.0074999,0.7942764163017273,-0.4985924959182739,9.854534149169922,-10.406494140625,-2.13623046875,2.50244140625
2.0124999000000003,0.8553285598754883,-0.6189011335372925,9.710882186889648,10.101318359375,2.105712890625,-3.143310546875
2.0174999000000002,0.8020575642585754,-0.48722004890441895,9.864709854125977,-9.796142578125,-2.044677734375,2.593994140625
2.0224999,0.8583213090896606,-0.6135141849517822,9.694721221923828,9.307861328125,2.197265625,-3.41796875
2.0274999,0.7882909178733826,-0.48303020000457764,9.874286651611328,-9.33837890625,-2.105712890625,3.0517578125
2.0324999000000004,0.7882909178733826,-0.48303020000457764,9.874286651611328,-9.33837890625,-2.105712890625,3.0517578125
2.0374999000000003,0.8415619134902954,-0.6165069341659546,9.68813705444336,8.636474609375,2.01416015625,-3.814697265625
2.0424999,0.7667431235313416,-0.4794389009475708,9.88386344909668,-7.8125,-2.25830078125,3.47900390625
2.0474999,0.8319851160049438,-0.5943605899810791,9.646238327026367,5.4931640625,2.166748046875,-4.7607421875
2.0524999,0.7332242727279663,-0.5111620426177979,9.92097282409668,-4.425048828125,-2.197265625,4.638671875
2.0574999000000003,0.7655459642410278,-0.645237386226654,9.516951560974121,2.74658203125,2.0751953125,-5.06591796875
2.0624999,0.2579752206802368,-1.049857497215271,9.282320022583008,-2.716064453125,-4.94384765625,17.51708984375
2.0674999,-0.7559691667556763,-2.676118850708008,8.123526573181152,19.59228515625,-5.157470703125,53.253173828125
2.0724999,-1.9548656940460205,-3.575740337371826,8.612542152404785,47.66845703125,-9.8876953125,165.069580078125
2.0774999000000003,-3.113060712814331,-4.888959884643555,8.459911346435547,144.500732421875,37.811279296875,176.239013671875
2.0824999,-4.294000625610352,-5.019443988800049,9.085396766662598,142.7001953125,26.397705078125,166.259765625
2.0874999,-3.5930981636047363,-3.9181110858917236,9.971251487731934,234.06982421875,4.69970703125,246.734619140625
2.0924999,-3.136404275894165,-2.3959972858428955,8.884882926940918,293.182373046875,8.544921875,239.1357421875
2.0974999000000003,-1.8519150018692017,-0.3429693877696991,8.422203063964844,259.46044921875,-66.40625,208.3740234375
2.1024999,0.24420857429504395,2.2212207317352295,7.262810707092285,271.42333984375,-110.77880859375,131.439208984375
2.1074999,0.9205705523490906,2.4594438076019287,6.682217121124268,209.381103515625,-120.30029296875,113.800048828125
2.1124999,1.8339585065841675,2.409165382385254,6.345831394195557,159.24072265625,-138.61083984375,95.367431640625
2.1174999000000003,2.6821043491363525,2.5234885215759277,5.621585369110107,169.12841796875,-125.6103515625,75.25634765625
2.1224999,3.511695384979248,2.721010208129883,5.04099178314209,145.416259765625,-96.527099609375,60.577392578125
2.1274999,4.223970413208008,3.1423897743225098,4.87758731842041,94.268798828125,-84.136962890625,51.239013671875
2.1324999,4.8494553565979,3.598485231399536,5.145139217376709,66.0400390625,-74.89013671875,42.755126953125
2.1374999000000003,5.41987419128418,4.004900932312012,5.790975570678711,65.36865234375,-51.57470703125,34.027099609375
2.1424999000000002,5.672462463378906,4.4041337966918945,6.291962146759033,47.088623046875,-32.1044921875,25.115966796875
2.1474999,5.808931827545166,4.534019470214844,6.8144965171813965,14.190673828125,-16.326904296875,5.4931640625
2.1524999,5.715558052062988,4.378396511077881,7.032967567443848,-3.814697265625,4.730224609375,-7.720947265625
2.1574999000000004,5.273229122161865,4.174290657043457,7.0808515548706055,-11.962890625,12.298583984375,-6.04248046875
2.1624999000000003,3.116652011871338,4.189853191375732,6.6630635261535645,-140.68603515625,40.71044921875,-66.314697265625
2.1674999,3.001131772994995,3.97916316986084,6.666654586791992,-169.219970703125,39.459228515625,-75.74462890625
2.1724999,2.9526493549346924,3.7020344734191895,6.7247138023376465,-175.35400390625,54.931640625,-79.77294921875
2.1774999000000004,2.8778305053710938,3.4117374420166016,6.694786548614502,-196.22802734375,68.511962890625,-86.578369140625
2.1824999000000003,2.8862102031707764,3.0795419216156006,6.746262073516846,-234.2529296875,68.511962890625,-96.37451171875
2.1874999,2.9532477855682373,2.6671407222747803,6.828861713409424,-243.621826171875,77.056884765625,-97.686767578125
2.1924999,2.9957449436187744,2.3337481021881104,6.928221225738525,-244.354248046875,95.916748046875,-97.47314453125
2.1974999,2.849100112915039,1.935113549232483,6.740874767303467,-283.203125,102.020263671875,-103.33251953125
2.2024999000000003,2.718616008758545,1.5622166395187378,6.883928298950195,-307.891845703125,104.583740234375,-104.949951171875
2.2074999,-1.8584990501403809,-8.617929458618164,12.204442977905273,87.127685546875,30.029296875,-19.47021484375
2.2124999,-3.207631826400757,-9.832986831665039,10.696096420288086,115.692138671875,4.21142578125,-70.831298828125
2.2174999,-3.5745432376861572,-8.898649215698242,7.5674729347229,115.72265625,-25.787353515625,-116.241455078125
2.2224999000000003,-3.1022868156433105,-6.661866188049316,4.84287166595459,54.8095703125,-39.0625,-109.161376953125
2.2274999,-2.1942858695983887,-4.198831081390381,3.4614171981811523,-21.026611328125,-33.3251953125,-94.573974609375
2.2324999,-1.1336544752120972,-1.9823989868164062,3.2387564182281494,-95.15380859375,-27.008056640625,-98.175048828125
2.2374999,-0.2495955228805542,0.004788403399288654,3.776853084564209,-117.706298828125,-24.993896484375,-82.51953125
2.2424999000000003,0.40521863102912903,1.6603789329528809,5.631761074066162,-67.962646484375,8.148193359375,-61.248779296875
2.2474999,0.8565256595611572,2.4468741416931152,8.415019989013672,-30.609130859375,43.792724609375,-32.928466796875
2.2524999,0.7422025203704834,2.539649486541748,11.651382446289062,0.732421875,21.270751953125,24.444580078125
2.2574999,-1.4185645580291748,-1.103128433227539,11.59332275390625,-8.209228515625,-26.458740234375,-2.655029296875
2.2624999000000003,-1.7166426181793213,-1.9405004978179932,9.345766067504883,7.9345703125,-28.86962890625,-3.35693359375
2.2674999000000002,-1.3551181554794312,-1.9919757843017578,7.81108283996582,-20.44677734375,-29.84619140625,-16.387939453125
2.2724999,-0.39624038338661194,-1.5544354915618896,8.191761016845703,-24.871826171875,-29.9072265625,2.50244140625
2.2774999,0.851138710975647,-0.9289502501487732,9.148244857788086,13.12255859375,-11.962890625,13.12255859375
2.2824999000000004,1.8070237636566162,-0.33997663855552673,9.971251487731934,-8.544921875,-12.298583984375,4.608154296875
2.2874999000000003,2.4378957748413086,-0.3106476664543152,10.465055465698242,-0.18310546875,-9.429931640625,9.33837890625
2.2924999,2.5917234420776367,-0.3944447338581085,10.055048942565918,14.58740234375,12.02392578125,2.9296875
2.2974999,2.3798365592956543,-0.5009866952896118,9.706692695617676,-14.923095703125,6.591796875,-7.843017578125
2.3024999000000004,2.1493945121765137,-0.7242460250854492,9.824007987976074,7.080078125,11.810302734375,3.96728515625
2.3074999000000003,1.6813281774520874,-0.6141127347946167,9.66958236694336,11.474609375,19.683837890625,1.03759765625
2.3124999,0.7098808288574219,-0.6859387755393982,9.928155899047852,14.6484375,11.138916015625,5.126953125
2.3174999,0.243011474609375,-0.5153518915176392,9.627683639526367,1.77001953125,6.561279296875,-3.60107421875
2.3224999,0.6045359373092651,-0.3531447649002075,9.749189376831055,11.627197265625,0.640869140625,7.049560546875
2.3274999000000003,0.8720879554748535,-0.4297592043876648,9.668983459472656,-16.387939453125,-7.171630859375,-5.401611328125
2.3324999,1.2515689134597778,-0.7577648162841797,9.953893661499023,5.706787109375,-1.190185546875,3.204345703125
2.3374999,1.3425486087799072,-0.7296329736709595,9.636063575744629,8.209228515625,7.62939453125,1.678466796875
2.3424999,1.3407529592514038,-0.8122329115867615,9.727043151855469,-14.5263671875,-2.9296875,-6.53076171875
2.3474999000000003,1.3084312677383423,-0.8074445128440857,9.862914085388184,16.845703125,10.040283203125,5.126953125
2.3524999,0.8708908557891846,-0.5728127360343933,9.905410766601562,-6.2255859375,-1.739501953125,-1.556396484375
2.3574999,0.7140706777572632,-0.45250412821769714,9.774927139282227,16.632080078125,9.70458984375,4.08935546875
2.3624999,0.4537012279033661,-0.3208230137825012,9.68274974822998,-17.08984375,-5.462646484375,-7.4462890625
2.3674999000000003,0.4878185987472534,-0.49380409717559814,10.015543937683105,7.171630859375,-2.44140625,4.0283203125
2.3724999,0.4572925269603729,-0.3447650372982025,9.683947563171387,3.96728515625,3.082275390625,-1.007080078125
2.3774999,0.48243165016174316,-0.4818331003189087,9.873687744140625,-16.021728515625,-11.566162109375,-2.74658203125
2.3824999,0.7134721279144287,-0.5913678407669067,9.896432876586914,17.4560546875,4.0283203125,5.859375
2.3874999000000003,0.7332242727279663,-0.5027823448181152,9.61212158203125,-13.427734375,-3.41796875,-5.92041015625
2.3924999000000002,0.9630676507949829,-0.6889315247535706,9.9586820602417,1.617431640625,-4.302978515625,3.5400390625
2.3974999,1.0480618476867676,-0.5734112858772278,9.630077362060547,10.284423828125,8.6669921875,-0.1220703125
2.4024999,1.0708067417144775,-0.6602011322975159,9.838972091674805,18.402099609375,7.049560546875,5.2490234375
2.4074999000000004,0.9169792532920837,-0.5003881454467773,9.528324127197266,-10.833740234375,2.166748046875,-6.744384765625
2.4124999000000003,0.8924387097358704,-0.6200982332229614,9.944915771484375,0.732421875,-2.8076171875,3.570556640625
2.4174999,0.8319851160049438,-0.5045779943466187,9.631275177001953,10.80322265625,8.7890625,-0.79345703125
2.4224999,0.6554127335548401,-0.5033808946609497,9.764153480529785,-17.608642578125,-7.904052734375,-2.86865234375
2.4274999000000004,0.7386112213134766,-0.5781996846199036,9.883264541625977,18.218994140625,4.0283203125,5.2490234375
2.4324999000000003,0.6021417379379272,-0.44173020124435425,9.579200744628906,-13.458251953125,-1.556396484375,-6.134033203125
2.4374999,0.7218518257141113,-0.5907692909240723,10.020931243896484,3.509521484375,-5.67626953125,5.55419921875
2.4424999,0.7763199210166931,-0.47165772318840027,9.610923767089844,5.92041015625,5.4931640625,-2.62451171875
2.4474999,0.7565677165985107,-0.5548562407493591,9.88625717163086,-14.801025390625,-9.3994140625,-0.67138671875
2.4524999000000003,0.8966285586357117,-0.5997475385665894,9.792284965515137,18.035888671875,5.55419921875,3.41796875
2.4574999,0.8361749649047852,-0.5321113467216492,9.604938507080078,-16.998291015625,-2.197265625,-5.645751953125
2.4624999,0.9271546006202698,-0.6602011322975159,9.92097282409668,12.3291015625,-0.152587890625,6.04248046875
2.4674999,0.889445960521698,-0.524330198764801,9.503783226013184,-3.265380859375,4.57763671875,-5.9814453125
2.4724999000000003,0.8457517623901367,-0.5943605899810791,9.925761222839355,-5.859375,-5.92041015625,2.716064453125
2.4774999,0.8523358106613159,-0.5422866940498352,9.690531730651855,13.7939453125,8.331298828125,-0.885009765625
2.4824999,0.707486629486084,-0.47644615173339844,9.577404975891113,-15.44189453125,-0.640869140625,-6.500244140625
2.4874999,0.7990648150444031,-0.6075286865234375,9.998186111450195,8.6669921875,-2.38037109375,5.828857421875
2.4924999000000003,0.8086416125297546,-0.5051765441894531,9.542689323425293,-1.312255859375,4.425048828125,-5.645751953125
2.4974999,0.7757213711738586,-0.558447539806366,9.96945571899414,-6.9580078125,-6.744384765625,3.41796875
2.5024999,0.8708908557891846,-0.578798234462738,9.679757118225098,13.397216796875,6.561279296875,-1.434326171875
2.5074999,0.7649474143981934,-0.5494692921638489,9.818621635437012,-17.51708984375,-5.9814453125,-1.312255859375
2.5124999000000003,0.9127894043922424,-0.6254851818084717,9.821614265441895,18.585205078125,3.7841796875,3.387451171875
2.5174999000000002,0.7715315222740173,-0.5273229479789734,9.575610160827637,-17.08984375,-1.5869140625,-5.79833984375
2.5224999,0.8463503122329712,-0.6248866319656372,9.999382972717285,13.092041015625,-0.732421875,5.950927734375
2.5274999,0.7906851172447205,-0.5081692934036255,9.627683639526367,5.79833984375,5.889892578125,-4.82177734375
2.5324999000000004,0.7260416746139526,-0.4908113479614258,9.991601943969727,-11.322021484375,-6.34765625,2.38037109375
2.5374999000000003,0.7835025191307068,-0.5446808934211731,9.728838920593262,15.44189453125,5.950927734375,-0.8544921875
2.5424999,0.6775590777397156,-0.47884035110473633,9.806051254272461,-17.791748046875,-4.94384765625,-1.46484375
2.5474999,0.811634361743927,-0.5596446394920349,9.843161582946777,18.12744140625,2.899169921875,3.11279296875
2.5524999000000004,0.706289529800415,-0.4950011968612671,9.598953247070312,-17.059326171875,-1.708984375,-4.94384765625
2.5574999000000003,0.8194155097007751,-0.5889736413955688,9.948506355285645,14.129638671875,-0.42724609375,5.55419921875
2.5624999,0.7930793166160583,-0.49799394607543945,9.4822359085083,-10.31494140625,2.0751953125,-6.591796875
2.5674999,0.8236053586006165,-0.6045359373092651,10.007762908935547,5.950927734375,-3.387451171875,6.256103515625
2.5724999,0.8744821548461914,-0.5374982953071594,9.531915664672852,-1.251220703125,4.730224609375,-6.500244140625
2.5774999000000003,0.8248024582862854,-0.5728127360343933,10.013150215148926,-3.41796875,-5.401611328125,5.157470703125
2.5824999,0.7864952683448792,-0.507570743560791,9.926959037780762,-11.1083984375,-5.2490234375,2.838134765625
2.5874999,0.8319851160049438,-0.5608417391777039,9.692925453186035,14.129638671875,5.0048828125,-1.922607421875
2.5924999,0.7356184720993042,-0.48602294921875,9.819219589233398,-16.05224609375,-4.608154296875,0.091552734375
2.5974999000000003,0.8242039084434509,-0.5608417391777039,9.789292335510254,16.90673828125,3.753662109375,0.8544921875
2.6024999,0.6955155730247498,-0.5183446407318115,9.727641105651855,-16.845703125,-2.899169921875,-2.685546875
2.6074999,0.829590916633606,-0.5596446394920349,9.871891975402832,16.4794921875,1.678466796875,3.47900390625
2.6124999,0.7003039717674255,-0.5033808946609497,9.540295600891113,-15.472412109375,-1.03759765625,-4.974365234375
2.6174999000000003,0.8487445116043091,-0.5530605912208557,9.906009674072266,13.580322265625,-0.213623046875,5.096435546875
2.6224999,0.8086416125297546,-0.5063736438751221,9.439739227294922,-11.871337890625,1.46484375,-6.317138671875
2.6274999,0.8738836050033569,-0.5961562395095825,9.99220085144043,10.009765625,-1.40380859375,6.256103515625
2.6324999,0.8732850551605225,-0.5632359385490417,9.513360023498535,-7.568359375,2.62451171875,-6.805419921875
2.6374999000000003,0.8427590131759644,-0.6422445774078369,10.08437728881836,5.462646484375,-3.448486328125,6.439208984375
2.6424999000000002,0.7876923680305481,-0.5997475385665894,10.08318042755127,0.91552734375,-4.119873046875,6.256103515625
2.6474999,0.8254010081291199,-0.5728127360343933,9.575610160827637,1.220703125,4.2724609375,-6.34765625
2.6524999,0.7667431235313416,-0.5123591423034668,10.004171371459961,-3.021240234375,-5.096435546875,5.584716796875
2.6574999000000004,0.8373720645904541,-0.5512649416923523,9.566631317138672,4.39453125,4.974365234375,-5.55419921875
2.6624999000000003,0.7691373229026794,-0.4638765752315521,9.947908401489258,-5.92041015625,-4.638671875,4.730224609375
2.6674999,0.8487445116043091,-0.5692214369773865,9.582193374633789,7.32421875,4.82177734375,-4.69970703125
2.6724999,0.8487445116043091,-0.5692214369773865,9.582193374633789,7.32421875,4.82177734375,-4.69970703125
2.6774999000000004,0.761954665184021,-0.4596867263317108,9.896432876586914,-8.36181640625,-5.035400390625,3.7841796875
2.6824999000000003,0.8421604633331299,-0.6009446382522583,9.585186958312988,9.1552734375,4.82177734375,-3.875732421875
2.6874999,0.7410054206848145,-0.4668693244457245,9.855731010437012,-9.735107421875,-4.21142578125,2.99072265625
2.6924999,0.8349778652191162,-0.6039373874664307,9.62828254699707,10.589599609375,4.425048828125,-2.960205078125
2.6974999,0.7547720670700073,-0.46746787428855896,9.873687744140625,-11.199951171875,-4.364013671875,2.0751953125
2.7024999000000003,0.8607155084609985,-0.6362590789794922,9.700108528137207,11.932373046875,3.936767578125,-1.953125
2.7074999,0.7577648162841797,-0.5111620426177979,9.86889934539795,-12.176513671875,-4.0283203125,1.129150390625
2.7124999,0.8337807655334473,-0.6368576288223267,9.693524360656738,12.14599609375,3.448486328125,-1.434326171875
2.7174999,0.7344213724136353,-0.5093663930892944,9.87967300415039,-12.26806640625,-3.72314453125,1.007080078125
2.7224999000000003,0.7541735172271729,-0.5039794445037842,9.891045570373535,-11.993408203125,-3.143310546875,0.946044921875
2.7274999,0.7541735172271729,-0.5039794445037842,9.891045570373535,-11.993408203125,-3.143310546875,0.946044921875
2.7324999,0.8493430614471436,-0.6189011335372925,9.723451614379883,11.90185546875,3.387451171875,-1.556396484375
2.7374999,0.7703344225883484,-0.5021837949752808,9.861717224121094,-11.566162109375,-2.86865234375,0.9765625
2.7424999000000003,0.8595184087753296,-0.6129156351089478,9.6803560256958,11.627197265625,3.662109375,-1.800537109375
2.7474999,0.7589619159698486,-0.4920084476470947,9.840168952941895,-11.04736328125,-3.2958984375,1.46484375
2.7524999,0.8690952062606812,-0.5722141861915588,9.606734275817871,4.364013671875,3.60107421875,-4.608154296875
2.7574999,0.7511807680130005,-0.5165489912033081,9.979631423950195,-3.23486328125,-3.72314453125,4.669189453125
2.7624999000000003,0.8684966564178467,-0.5871779918670654,9.564237594604492,1.77001953125,3.72314453125,-5.43212890625
2.7674999000000002,0.7936778664588928,-0.5746083855628967,10.053253173828125,-0.1220703125,-2.5634765625,5.2490234375
2.7724999,0.8541314601898193,-0.5895721912384033,9.55466079711914,-0.9765625,2.960205078125,-5.889892578125
2.7774999,0.7769184708595276,-0.5219359993934631,9.984419822692871,6.011962890625,-2.0751953125,5.4931640625
2.7824999000000004,0.7769184708595276,-0.5219359993934631,9.984419822692871,6.011962890625,-2.0751953125,5.4931640625
2.7874999000000003,0.7948749661445618,-0.48961424827575684,9.502586364746094,-7.537841796875,1.434326171875,-5.67626953125
2.7924999,0.7846996188163757,-0.4908113479614258,9.956886291503906,8.514404296875,-1.861572265625,5.0048828125
2.7974999,0.7667431235313416,-0.5105634927749634,9.534309387207031,-10.009765625,1.40380859375,-5.18798828125
2.8024999000000004,0.7326257228851318,-0.5883750915527344,9.61571216583252,-11.77978515625,-0.030517578125,-3.631591796875
2.8074999000000003,0.8379706144332886,-0.586579442024231,9.835979461669922,12.14599609375,0.457763671875,2.38037109375
2.8124999,0.7661445140838623,-0.6524199843406677,9.791686058044434,-12.0849609375,-0.8544921875,-2.0751953125
2.8174999,0.8559271097183228,-0.6440402865409851,9.859322547912598,11.41357421875,1.190185546875,0.732421875
2.8224999,0.7960720658302307,-0.5859808921813965,9.895833969116211,-10.772705078125,-1.922607421875,0.091552734375
2.8274999000000003,0.8750807046890259,-0.5937620401382446,9.715670585632324,9.490966796875,2.105712890625,-1.64794921875
2.8324999,0.8702923059463501,-0.50876784324646,9.568427085876465,5.92041015625,2.9296875,-3.753662109375
2.8374999,0.7595604658126831,-0.43754035234451294,9.943717956542969,-3.2958984375,-2.99072265625,3.875732421875
2.8424999,0.8559271097183228,-0.52552729845047,9.545681953430176,0.91552734375,2.50244140625,-5.18798828125
2.8474999000000003,0.7649474143981934,-0.5069721937179565,10.023923873901367,2.227783203125,-2.655029296875,4.82177734375
2.8524999,0.8200140595436096,-0.5554547905921936,9.570222854614258,-4.7607421875,1.861572265625,-5.401611328125
2.8574999,0.7948749661445618,-0.5327098965644836,9.99339771270752,7.01904296875,-1.556396484375,4.638671875
2.8624999,0.7751228213310242,-0.5506663918495178,9.586383819580078,-9.124755859375,1.0986328125,-4.852294921875
2.8674999000000003,0.8236053586006165,-0.5309142470359802,9.834781646728516,10.894775390625,-0.091552734375,3.692626953125
2.8724999,0.7433996200561523,-0.5901707410812378,9.677961349487305,-11.383056640625,-0.48828125,-3.082275390625
2.8774999,0.8140285611152649,-0.5638344883918762,9.746794700622559,10.955810546875,0.79345703125,1.129150390625
2.8824999,0.8206126093864441,-0.5650315880775452,9.688735961914062,9.124755859375,1.739501953125,-1.312255859375
2.8874999000000003,0.7248445749282837,-0.6661866307258606,9.209297180175781,3.23486328125,2.25830078125,-2.44140625
2.8924999000000002,0.31783026456832886,-1.1174936294555664,9.235034942626953,5.401611328125,-5.523681640625,27.374267578125
2.8974999,-0.33339259028434753,-2.699462413787842,7.931990146636963,33.75244140625,6.103515625,56.7626953125
2.9024999,-1.2372037172317505,-3.5057098865509033,8.87829875946045,53.192138671875,16.082763671875,144.04296875
2.9074999000000004,-2.2457611560821533,-5.2684407234191895,8.051700592041016,95.672607421875,57.861328125,153.106689453125
2.9124999000000003,-3.3476924896240234,-5.898714542388916,9.579200744628906,84.686279296875,35.82763671875,200.3173828125
2.9174999,-3.492541790008545,-5.3360772132873535,10.243592262268066,164.48974609375,44.189453125,253.509521484375
2.9224999,-3.838503837585449,-3.9701850414276123,10.075399398803711,184.87548828125,28.50341796875,211.029052734375
2.9274999000000004,-3.8163576126098633,-1.9267338514328003,10.305841445922852,208.1298828125,-39.794921875,227.264404296875
2.9324999000000003,-2.979583978652954,0.40462008118629456,10.535085678100586,247.894287109375,-54.62646484375,255.2490234375
2.9374999,-2.4019827842712402,1.4173674583435059,10.575188636779785,300.811767578125,-70.098876953125,231.903076171875
2.9424999,-1.2623428106307983,2.1254525184631348,10.887632369995117,316.802978515625,-128.997802734375,194.366455078125
2.9474999,0.9774328470230103,1.478419542312622,9.026140213012695,272.003173828125,-161.773681640625,116.39404296875
2.9524999000000003,1.9381062984466553,0.8786720037460327,7.422623634338379,265.533447265625,-150.93994140625,89.324951171875
2.9574999,2.9735984802246094,0.5590460896492004,6.1530985832214355,242.156982421875,-145.32470703125,75.958251953125
2.9624999,3.9031472206115723,0.6141127347946167,5.146934986114502,202.63671875,-145.111083984375,65.460205078125
2.9674999,4.666299343109131,1.2952631711959839,4.580107688903809,170.34912109375,-134.063720703125,52.154541015625
2.9724999000000003,5.193023681640625,2.3930046558380127,4.32991361618042,151.3671875,-112.3046875,37.04833984375
2.9774999,5.563526153564453,3.6176388263702393,4.638167381286621,128.875732421875,-93.719482421875,30.94482421875
2.9824999,5.826888561248779,4.74231481552124,5.1780595779418945,107.666015625,-74.8291015625,29.266357421875
2.9874999,6.031592845916748,5.574898719787598,6.084265232086182,95.489501953125,-44.403076171875,15.625
2.9924999000000003,6.035183906555176,5.931634902954102,6.481103897094727,70.61767578125,-19.927978515625,-7.354736328125
2.9974999,5.538985729217529,6.044162273406982,6.5948286056518555,38.87939453125,-30.975341796875,-11.993408203125
3.0024999,4.929661273956299,5.832873821258545,6.365583896636963,8.514404296875,-27.435302734375,-21.636962890625
3.0074999,3.7888240814208984,5.598840713500977,5.979518890380859,-37.9638671875,-6.16455078125,-39.794921875
3.0124999000000003,3.6565444469451904,5.537788391113281,6.072892665863037,-62.07275390625,1.251220703125,-47.36328125
3.0174999000000002,3.671508312225342,5.590460777282715,6.203376770019531,-87.188720703125,6.53076171875,-56.488037109375
3.0224999,3.623624324798584,5.5359930992126465,6.276998519897461,-113.311767578125,15.07568359375,-57.525634765625
3.0274999,3.5476083755493164,5.309142112731934,6.28896951675415,-131.103515625,29.632568359375,-56.2744140625
3.0324999000000004,3.5218706130981445,5.151124954223633,6.4200520515441895,-147.94921875,43.02978515625,-56.671142578125
3.0374999000000003,3.400364875793457,4.862623691558838,6.428431510925293,-172.576904296875,50.506591796875,-62.713623046875
3.0424999,3.4129345417022705,4.632181644439697,6.524798393249512,-199.21875,53.253173828125,-73.944091796875
3.0474999,3.2573113441467285,4.2760443687438965,6.477512836456299,-222.198486328125,58.929443359375,-77.45361328125
3.0524999000000004,3.1699230670928955,3.840898036956787,6.462548732757568,-235.321044921875,71.6552734375,-75.3173828125
3.0574999000000003,3.098097085952759,3.399167776107788,6.5481414794921875,-248.565673828125,85.3271484375,-75.8056640625
3.0624999,3.0202853679656982,3.022679567337036,6.615777969360352,-271.820068359375,92.803955078125,-83.3740234375
3.0674999,2.669534921646118,1.8088194131851196,6.576273441314697,-317.138671875,116.8212890625,-92.254638671875
3.0724999000000004,2.6156654357910156,1.2653355598449707,6.600813865661621,-331.573486328125,130.096435546875,-95.703125
3.0774999000000003,2.5917234420776367,0.7116764783859253,6.916848659515381,-356.8115234375,133.514404296875,-105.499267578125
3.0824999,2.518101692199707,-1.127070426940918,8.511985778808594,-341.217041015625,162.872314453125,-101.37939453125
3.0874999,1.3646949529647827,-4.282628059387207,10.679336547851562,-60.638427734375,193.267822265625,-62.255859375
3.0924999,0.25977087020874023,-7.310694694519043,12.064980506896973,138.97705078125,78.643798828125,-40.069580078125
3.0974999000000003,-1.4173674583435059,-9.758167266845703,12.040440559387207,90.789794921875,34.97314453125,-67.596435546875
3.1024999,-2.473210334777832,-9.913790702819824,9.527127265930176,92.46826171875,5.126953125,-104.461669921875
3.1074999,-2.757521867752075,-7.979874134063721,5.783194065093994,101.37939453125,-25.57373046875,-115.997314453125
3.1124999,-2.425326347351074,-5.43723201751709,3.341108560562134,82.244873046875,-49.713134765625,-114.715576171875
3.1174999000000003,-1.8519150018692017,-2.911349296569824,2.469619035720825,-8.9111328125,-46.783447265625,-114.227294921875
3.1224999,-0.09816227108240128,1.8728642463684082,8.202534675598145,-25.08544921875,47.943115234375,-46.600341796875
3.1274999,-0.32860419154167175,1.4047977924346924,11.232397079467773,1.800537109375,28.50341796875,10.650634765625
3.1324999,-0.7356184720993042,0.3010708689689636,13.135787963867188,12.63427734375,-14.007568359375,42.755126953125
3.1374999000000003,-1.436521053314209,-0.9714473485946655,13.248913764953613,34.24072265625,-32.2265625,24.200439453125
3.1424999000000002,-1.886630892753601,-1.8022353649139404,11.333552360534668,24.47509765625,-36.346435546875,-5.9814453125
3.1474999,-1.96683669090271,-2.0458452701568604,8.747814178466797,-18.6767578125,-35.7666015625,-8.514404296875
3.1524999,-1.4305355548858643,-1.7950527667999268,7.326855659484863,-15.68603515625,-26.885986328125,1.617431640625
3.1574999000000004,-0.35015198588371277,-1.0516531467437744,7.3681559562683105,-7.904052734375,-16.876220703125,-2.5634765625
3.1624999000000003,0.8086416125297546,-0.3256114423274994,8.38688850402832,-27.252197265625,-22.491455078125,-3.60107421875
3.1674999,1.9141643047332764,0.07541735470294952,9.913191795349121,-4.5166015625,-17.730712890625,10.986328125
3.1724999,2.4833858013153076,-0.9558850526809692,10.201094627380371,-5.706787109375,1.739501953125,-6.683349609375
3.1774999000000004,2.1535844802856445,-1.1647791862487793,9.923367500305176,11.871337890625,13.00048828125,5.462646484375
3.1824999000000003,1.768117904663086,-1.0791864395141602,9.703699111938477,7.232666015625,16.845703125,-0.885009765625
3.1874999,1.324592113494873,-0.8816647529602051,9.753378868103027,-4.08935546875,7.50732421875,-11.3525390625
3.1924999,0.8690952062606812,-0.5758054852485657,9.767146110534668,5.2490234375,10.986328125,3.35693359375
3.1974999000000004,0.4016273319721222,-0.37409400939941406,9.671976089477539,6.134033203125,8.97216796875,6.317138671875
3.2024999000000003,0.046088382601737976,-0.28790274262428284,9.84615421295166,7.598876953125,-1.52587890625,15.56396484375
3.2074999,0.24001872539520264,-0.39863458275794983,9.800664901733398,-4.669189453125,-7.9345703125,-5.035400390625
3.2124999,0.6111199855804443,-0.557250440120697,9.853935241699219,-9.735107421875,-11.3525390625,-9.918212890625
3.2174999,1.291671872138977,-0.7224503755569458,9.75517463684082,-10.19287109375,-3.692626953125,-13.73291015625
3.2224999000000003,1.30543851852417,-0.74040687084198,9.799467086791992,7.8125,5.828857421875,7.4462890625
3.2274999,1.1994950771331787,-0.6500257849693298,9.624092102050781,5.615234375,8.48388671875,6.317138671875
3.2324999,1.072602391242981,-0.6572083830833435,9.696516990661621,-9.58251953125,-1.3427734375,-13.763427734375
3.2374999,0.8870517015457153,-0.6512228846549988,9.828198432922363,5.92041015625,3.0517578125,3.60107421875
3.2424999000000003,0.6823474764823914,-0.5536591410636902,9.709086418151855,6.40869140625,5.584716796875,7.720947265625
3.2474999,0.5841852426528931,-0.5279214978218079,9.763554573059082,-11.1083984375,-5.706787109375,-12.969970703125
3.2524999,0.5835866928100586,-0.5392939448356628,9.91977596282959,3.204345703125,-2.105712890625,2.50244140625
3.2574999,0.5716156363487244,-0.4537012279033661,9.762357711791992,6.439208984375,2.532958984375,9.613037109375
3.2624999000000003,0.6763619780540466,-0.46148237586021423,9.743204116821289,-12.3291015625,-7.14111328125,-12.054443359375
3.2674999000000002,0.8379706144332886,-0.5716156363487244,9.890447616577148,3.0517578125,-2.227783203125,1.28173828125
3.2724999,1.0007762908935547,-0.5913678407669067,9.68574333190918,-11.65771484375,-4.180908203125,-11.260986328125
3.2774999,1.062427043914795,-0.6787561774253845,9.854534149169922,5.401611328125,1.312255859375,1.861572265625
3.2824999000000004,0.9487023949623108,-0.5805938839912415,9.712079048156738,-11.962890625,-3.448486328125,-11.322021484375
3.2874999000000003,0.8702923059463501,-0.6242880821228027,9.875483512878418,7.6904296875,2.471923828125,3.692626953125
3.2924999,0.8702923059463501,-0.6242880821228027,9.875483512878418,7.6904296875,2.471923828125,3.692626953125
3.2974999,0.7338228225708008,-0.5009866952896118,9.687539100646973,4.425048828125,4.82177734375,5.279541015625
3.3024999000000004,0.7098808288574219,-0.5728127360343933,9.782109260559082,-12.75634765625,-5.706787109375,-10.528564453125
3.3074999000000003,0.7254431247711182,-0.6272808313369751,9.93593692779541,10.55908203125,2.197265625,6.34765625
3.3124999,0.6817489266395569,-0.49559974670410156,9.68694019317627,-0.18310546875,1.46484375,1.678466796875
3.3174999,0.7930793166160583,-0.6159083843231201,9.847949981689453,-11.41357421875,-7.01904296875,-8.72802734375
3.3224999000000004,0.8481459617614746,-0.5752069354057312,9.87967300415039,13.458251953125,3.997802734375,8.636474609375
3.3274999000000003,0.9241618514060974,-0.5680243372917175,9.810839653015137,-6.195068359375,-4.791259765625,-5.37109375
3.3324999,0.9133879542350769,-0.5321113467216492,9.75397777557373,14.434814453125,6.988525390625,8.453369140625
3.3374999,0.8373720645904541,-0.4902127981185913,9.62828254699707,-12.02392578125,-2.288818359375,-6.256103515625
3.3424999,0.9187749028205872,-0.6488286852836609,9.95329475402832,2.0751953125,-1.46484375,-0.457763671875
3.3474999000000003,0.829590916633606,-0.518943190574646,9.716867446899414,10.467529296875,7.01904296875,5.4931640625
3.3524999,0.8176198601722717,-0.5069721937179565,9.718064308166504,-16.082763671875,-6.34765625,-7.9345703125
3.3574999,0.8535329103469849,-0.6057330369949341,9.915586471557617,11.199951171875,1.953125,4.730224609375
3.3624999,0.7655459642410278,-0.4507084786891937,9.617507934570312,0.54931640625,3.509521484375,0.06103515625
3.3674999000000003,0.7589619159698486,-0.5925649404525757,9.84615421295166,-12.847900390625,-7.598876953125,-4.974365234375
3.3724999,0.7954735159873962,-0.6332663297653198,9.880870819091797,17.333984375,6.317138671875,7.080078125
3.3774999,0.7212532758712769,-0.5267243981361389,9.632472038269043,-11.77978515625,-2.044677734375,-5.401611328125
3.3824999,0.8289923667907715,-0.6667851805686951,9.971251487731934,-0.335693359375,-4.302978515625,0.91552734375
3.3874999000000003,0.7823054194450378,-0.4770447015762329,9.621099472045898,-17.88330078125,-4.058837890625,-6.561279296875
3.3924999000000002,0.8565256595611572,-0.6530185341835022,9.940725326538086,9.796142578125,-1.40380859375,5.37109375
3.3974999,0.8325836658477783,-0.4800374507904053,9.547477722167969,2.349853515625,6.4697265625,-3.082275390625
3.4024999,0.8146271109580994,-0.6200982332229614,9.845556259155273,-13.275146484375,-8.11767578125,-1.52587890625
3.4074999000000004,0.871489405632019,-0.6015431880950928,9.781511306762695,18.768310546875,6.7138671875,4.486083984375
3.4124999000000003,0.7984662652015686,-0.507570743560791,9.608530044555664,-17.120361328125,-2.13623046875,-6.4697265625
3.4174999,0.8690952062606812,-0.6542156338691711,9.983222961425781,9.063720703125,-2.532958984375,5.7373046875
3.4224999,0.812831461429596,-0.5991489887237549,9.900622367858887,-12.725830078125,-7.38525390625,-0.54931640625
3.4274999000000004,0.812831461429596,-0.5991489887237549,9.900622367858887,-12.725830078125,-7.38525390625,-0.54931640625
3.4324999000000003,0.8487445116043091,-0.5829881429672241,9.77133560180664,18.24951171875,6.011962890625,3.47900390625
3.4374999,0.7733271718025208,-0.5063736438751221,9.636661529541016,-18.24951171875,-2.593994140625,-6.072998046875
3.4424999,0.8134300112724304,-0.4908113479614258,9.551069259643555,-3.35693359375,4.852294921875,-5.18798828125
3.4474999000000004,0.8164227604866028,-0.6254851818084717,9.929951667785645,-7.2021484375,-6.4697265625,2.166748046875
3.4524999000000003,0.8589198589324951,-0.5578489899635315,9.73542308807373,15.167236328125,6.439208984375,0.30517578125
3.4574999,0.7733271718025208,-0.5404910445213318,9.715670585632324,-18.98193359375,-4.058837890625,-4.08935546875
3.4624999,0.8661024570465088,-0.606930136680603,9.931148529052734,17.88330078125,1.556396484375,5.584716796875
3.4674999,0.7823054194450378,-0.4704606235027313,9.52114200592041,-12.542724609375,2.349853515625,-6.256103515625
3.4724999000000003,0.8415619134902954,-0.6165069341659546,10.016142845153809,3.84521484375,-4.33349609375,5.18798828125
3.4774999,0.8188169598579407,-0.49140989780426025,9.589376449584961,5.157470703125,6.04248046875,-3.96728515625
3.4824999,0.7978677153587341,-0.585382342338562,9.924564361572266,-13.0615234375,-5.584716796875,0.48828125
3.4874999,0.8194155097007751,-0.5895721912384033,9.774927139282227,18.218994140625,4.0283203125,1.800537109375
3.4924999000000003,0.7398083209991455,-0.5392939448356628,9.673172950744629,-19.439697265625,-2.197265625,-4.45556640625
3.4974999,0.8188169598579407,-0.6476315855979919,9.961674690246582,16.693115234375,-0.701904296875,5.462646484375
3.5024999,0.7721300721168518,-0.4944026470184326,9.518148422241211,-11.1083984375,2.349853515625,-6.378173828125
3.5074999,0.8403648138046265,-0.6117185354232788,10.042478561401367,3.448486328125,-4.058837890625,5.37109375
3.5124999000000003,0.861314058303833,-0.507570743560791,9.588777542114258,4.638671875,4.57763671875,-4.486083984375
3.5174999000000002,0.8696937561035156,-0.5524620413780212,9.907805442810059,-11.627197265625,-4.425048828125,1.89208984375
3.5224999,0.9175778031349182,-0.5668272376060486,9.734824180603027,16.876220703125,3.7841796875,-0.06103515625
3.5274999,0.8092401623725891,-0.5267243981361389,9.688735961914062,-19.287109375,-2.0751953125,-2.593994140625
3.5324999000000004,0.8810662031173706,-0.5925649404525757,9.901819229125977,19.012451171875,0.946044921875,4.08935546875
3.5374999000000003,0.7613561153411865,-0.49320554733276367,9.516951560974121,-15.869140625,1.220703125,-5.79833984375
3.5424999,0.8026561141014099,-0.5452794432640076,9.64803409576416,8.056640625,3.753662109375,-4.33349609375
3.5474999,0.7709329724311829,-0.5321113467216492,9.862914085388184,-13.36669921875,-3.631591796875,2.13623046875
3.5524999000000004,0.8319851160049438,-0.5907692909240723,9.718663215637207,16.7236328125,2.86865234375,-0.732421875
3.5574999000000003,0.7954735159873962,-0.5279214978218079,9.6803560256958,-18.6767578125,-2.105712890625,-1.64794921875
3.5624999,0.8732850551605225,-0.6117185354232788,9.84256362915039,18.798828125,0.946044921875,2.838134765625
3.5674999,0.7942764163017273,-0.5333084464073181,9.54209041595459,-17.364501953125,0,-4.57763671875
3.5724999000000004,0.8445546627044678,-0.6045359373092651,9.984419822692871,14.83154296875,-0.9765625,5.401611328125
3.5774999000000003,0.800261914730072,-0.5099649429321289,9.458892822265625,-10.80322265625,1.89208984375,-6.439208984375
3.5824999,0.8337807655334473,-0.6063315868377686,10.074202537536621,6.7138671875,-2.532958984375,6.195068359375
3.5874999,0.862511157989502,-0.5374982953071594,9.541492462158203,-2.0751953125,3.35693359375,-6.591796875
3.5924999,0.8661024570465088,-0.5841852426528931,9.648633003234863,6.53076171875,3.35693359375,-5.31005859375
3.5974999000000003,0.7775170207023621,-0.5171475410461426,9.927556991577148,-10.1318359375,-3.143310546875,3.570556640625
3.6024999,0.7751228213310242,-0.47405192255973816,9.785101890563965,-15.07568359375,-2.716064453125,1.28173828125
3.6074999,0.8577227592468262,-0.5823895931243896,9.752182006835938,16.571044921875,1.983642578125,-0.48828125
3.6124999,0.8254010081291199,-0.5069721937179565,9.701305389404297,-17.27294921875,-1.800537109375,-1.220703125
3.6174999000000003,0.9020155072212219,-0.5931634902954102,9.84495735168457,17.242431640625,1.220703125,1.8310546875
3.6224999,0.7942764163017273,-0.5560533404350281,9.639056205749512,-16.815185546875,-0.6103515625,-3.5400390625
3.6274999,0.871489405632019,-0.5835866928100586,9.923367500305176,15.9912109375,0.091552734375,3.84521484375
3.6324999,0.7667431235313416,-0.5237316489219666,9.509170532226562,-14.404296875,0.42724609375,-5.18798828125
3.6374999000000003,0.8391677141189575,-0.5542576909065247,9.955689430236816,13.18359375,-0.732421875,5.2490234375
3.6424999000000002,0.8373720645904541,-0.5093663930892944,9.46607494354248,-11.383056640625,1.28173828125,-6.011962890625
3.6474999,0.8786720037460327,-0.5488707423210144,9.514557838439941,-7.75146484375,1.8310546875,-6.77490234375
3.6524999,0.8738836050033569,-0.5752069354057312,10.06462574005127,5.950927734375,-2.044677734375,6.40869140625
3.6574999000000004,0.8696937561035156,-0.5746083855628967,9.541492462158203,-4.241943359375,2.44140625,-6.805419921875
3.6624999000000003,0.8451532125473022,-0.5859808921813965,10.083779335021973,2.593994140625,-2.5634765625,6.134033203125
3.6674999,0.8583213090896606,-0.5805938839912415,9.564835548400879,-0.8544921875,2.685546875,-6.622314453125
3.6724999,0.7948749661445618,-0.5752069354057312,10.047865867614746,-0.457763671875,-2.5634765625,5.92041015625
3.6774999000000004,0.8349778652191162,-0.5704185366630554,9.57441234588623,1.64794921875,2.777099609375,-6.256103515625
3.6824999000000003,0.7733271718025208,-0.5267243981361389,9.892242431640625,-4.669189453125,-2.8076171875,5.035400390625
3.6874999,0.8661024570465088,-0.5770025849342346,9.551667213439941,5.31005859375,2.655029296875,-5.401611328125
3.6924999,0.767341673374176,-0.5057750940322876,9.876082420349121,-5.950927734375,-2.8076171875,4.82177734375
3.6974999000000004,0.7667431235313416,-0.47465047240257263,9.90361499786377,-6.77490234375,-2.74658203125,4.364013671875
3.7024999000000003,0.8900445103645325,-0.5476736426353455,9.675567626953125,7.01904296875,2.5634765625,-4.852294921875
3.7074999,0.7811083197593689,-0.45250412821769714,9.911396026611328,-7.232666015625,-2.62451171875,4.0283203125
3.7124999,0.9032126069068909,-0.5374982953071594,9.678560256958008,7.110595703125,2.62451171875,-4.57763671875
3.7174999,0.788889467716217,-0.45908817648887634,9.884461402893066,-7.14111328125,-2.532958984375,4.119873046875
3.7224999000000003,0.900818407535553,-0.5596446394920349,9.658209800720215,6.9580078125,2.5634765625,-4.547119140625
3.7274999,0.7751228213310242,-0.49978959560394287,9.870096206665039,-6.8359375,-2.532958984375,4.08935546875
3.7324999,0.8822633028030396,-0.6075286865234375,9.637859344482422,6.4697265625,2.62451171875,-4.82177734375
3.7374999,0.7487865686416626,-0.5602431893348694,9.88386344909668,-6.378173828125,-2.410888671875,4.21142578125
3.7424999000000003,0.8481459617614746,-0.6619967818260193,9.620500564575195,4.791259765625,2.838134765625,-5.401611328125
3.7474999,0.7338228225708008,-0.6236895322799683,9.908403396606445,-6.011962890625,-1.953125,3.47900390625
3.7524999,0.839766263961792,-0.7098808288574219,9.646238327026367,4.39453125,2.960205078125,-5.706787109375
3.7574999,-1.7052701711654663,-4.138976097106934,10.841544151306152,177.886962890625,-26.336669921875,79.864501953125
3.7624999000000003,-1.9261353015899658,-5.51624059677124,10.833763122558594,350.860595703125,-28.50341796875,103.08837890625
3.7674999000000002,-1.0301052331924438,-5.971138954162598,10.742782592773438,485.260009765625,-60.36376953125,113.128662109375
3.7724999,-0.42437225580215454,-6.935403823852539,10.075998306274414,601.593017578125,-109.2529296875,112.85400390625
3.7774999,1.4389152526855469,-7.186196327209473,9.903017044067383,728.240966796875,-126.312255859375,27.16064453125
3.7824999000000004,2.2242133617401123,-6.292560577392578,8.457517623901367,725.03662109375,-147.979736328125,-61.492919921875
3.7874999000000003,3.6146459579467773,-4.334702014923096,7.377732753753662,646.30126953125,-178.131103515625,-79.986572265625
3.7924999,4.306570529937744,-1.2258312702178955,5.236119270324707,551.666259765625,-182.464599609375,-69.488525390625
3.7974999,4.428674697875977,1.7178397178649902,3.095702886581421,532.65380859375,-167.633056640625,-61.614990234375
3.8024999000000004,1.4544775485992432,6.485293865203857,0.27413609623908997,312.6220703125,-79.9560546875,51.45263671875
3.8074999000000003,1.0001777410507202,6.294356346130371,0.5692214369773865,278.6865234375,-72.296142578125,65.643310546875
3.8124999,0.7128735780715942,6.001665115356445,0.8451532125473022,230.804443359375,-75.592041015625,79.9560546875
3.8174999,0.5602431893348694,5.551555156707764,1.016338586807251,174.31640625,-77.7587890625,99.91455078125
3.8224999000000004,0.5069721937179565,5.125985622406006,1.149815320968628,125.640869140625,-74.127197265625,124.3896484375
3.8274999000000003,0.46806642413139343,4.711789131164551,1.1180921792984009,95.0927734375,-65.5517578125,141.54052734375
3.8324999,0.39145198464393616,4.4292731285095215,1.0013748407363892,67.87109375,-59.87548828125,144.012451171875
3.8374999,0.2992752194404602,4.344278812408447,0.7978677153587341,24.932861328125,-57.586669921875,139.556884765625
3.8424999,0.1322796493768692,4.438849925994873,0.7487865686416626,-25.238037109375,-58.074951171875,140.472412109375
3.8474999000000003,-0.11791443079710007,4.9601874351501465,0.8852560520172119,-89.53857421875,-33.14208984375,112.030029296875
3.8524999,-0.16400282084941864,5.351040840148926,1.1641805171966553,-124.3896484375,-17.669677734375,87.066650390625
3.8574999,-0.05626374110579491,6.038775444030762,1.3940238952636719,-173.40087890625,3.84521484375,63.53759765625
3.8624999,0.8032546639442444,7.700351238250732,2.2846670150756836,-202.81982421875,24.5361328125,42.510986328125
3.8674999000000003,3.381211280822754,10.180744171142578,4.69682502746582,-177.154541015625,19.439697265625,21.087646484375
3.8724999,6.441000938415527,13.223774909973145,7.73207426071167,-146.728515625,-29.998779296875,11.5966796875
3.8774999,9.208099365234375,15.040374755859375,10.721235275268555,-105.28564453125,-76.873779296875,4.974365234375
3.8824999,10.341753959655762,14.84704303741455,12.030863761901855,-112.9150390625,-26.30615234375,5.31005859375
3.8874999000000003,9.072827339172363,12.398972511291504,10.849325180053711,-123.53515625,42.999267578125,6.40869140625
3.8924999000000002,6.368576526641846,8.596980094909668,7.905653953552246,-109.7412109375,79.16259765625,-19.195556640625
3.8974999,3.5697548389434814,4.799177169799805,4.671087741851807,-124.298095703125,88.043212890625,-51.7578125
3.9024999,1.371279001235962,1.8962076902389526,2.0177135467529297,-159.1796875,77.81982421875,-62.347412109375
3.9074999000000004,0.5159504413604736,-0.8595184087753296,0.6524199843406677,-215.972900390625,27.7099609375,-57.403564453125
3.9124999000000003,1.8974047899246216,0.36750996112823486,2.4600422382354736,-273.98681640625,3.41796875,-39.794921875
3.9174999,3.7014358043670654,2.740163803100586,5.207987308502197,-316.10107421875,-9.063720703125,-8.30078125
3.9224999,5.559336185455322,5.061941146850586,7.988852500915527,-317.535400390625,7.171630859375,-0.06103515625
3.9274999000000004,6.951564788818359,7.4770917892456055,10.105326652526855,-294.0673828125,32.16552734375,-12.939453125
3.9324999000000003,7.544129371643066,8.09778881072998,10.686519622802734,-281.890869140625,53.28369140625,-5.0048828125
3.9374999,7.382521152496338,7.5201873779296875,10.129268646240234,-259.1552734375,81.72607421875,16.265869140625
3.9424999,6.6576762199401855,5.482123374938965,8.672995567321777,-250.91552734375,112.9150390625,26.7333984375
3.9474999000000004,5.65151309967041,3.3063924312591553,7.090428352355957,-275.299072265625,132.8125,26.55029296875
3.9524999000000003,4.683058738708496,1.3006501197814941,5.990890979766846,-287.689208984375,141.082763671875,28.472900390625
3.9574999,2.8574798107147217,0.9056068062782288,7.158064365386963,-319.671630859375,148.37646484375,-17.4560546875
3.9624999,2.8574798107147217,0.9056068062782288,7.158064365386963,-319.671630859375,148.37646484375,-17.4560546875
3.9674999000000004,2.5749640464782715,1.2832920551300049,7.520786285400391,-314.666748046875,152.34375,-29.11376953125
3.9724999000000003,2.298433542251587,1.4299370050430298,7.556699275970459,-348.5107421875,147.88818359375,-43.853759765625
3.9774999,2.0596120357513428,1.2749123573303223,7.404068946838379,-373.809814453125,138.7939453125,-50.323486328125
3.9824999,1.8632874488830566,0.9319429993629456,7.267599105834961,-362.3046875,144.22607421875,-51.20849609375
3.9874999,1.987187385559082,0.12749123573303223,8.002020835876465,-368.2861328125,165.740966796875,-53.924560546875
3.9924999000000003,2.6431987285614014,-2.3942017555236816,9.910798072814941,-282.89794921875,280.517578125,-34.515380859375
3.9974999,2.425326347351074,-5.719149112701416,12.715604782104492,43.8232421875,289.947509765625,-39.398193359375
4.0024999,-2.1559786796569824,-6.280589580535889,6.066308498382568,32.440185546875,-50.201416015625,-67.474365234375
4.0074999,-2.565387010574341,-3.3273417949676514,2.388216257095337,43.9453125,-84.5947265625,-81.35986328125
4.0124999,-2.500145196914673,-1.0085574388504028,0.2890998423099518,13.885498046875,-106.87255859375,-72.44873046875
4.0174999,-2.1727380752563477,0.23762452602386475,0.6506243348121643,-6.4697265625,-77.178955078125,-39.9169921875
4.022499900000001,-1.578976035118103,0.43754035234451294,3.3734302520751953,-42.083740234375,16.41845703125,-19.989013671875
4.0274999000000005,-0.8864531517028809,-0.18136078119277954,7.5201873779296875,-90.6982421875,111.053466796875,6.134033203125
4.0324999,-0.4034229815006256,-1.6047136783599854,12.34869384765625,-22.4609375,89.508056640625,27.03857421875
4.0374999,-0.2968810200691223,-2.911947727203369,15.538369178771973,32.8369140625,11.627197265625,13.092041015625
4.0424999,-0.5464765429496765,-4.034828186035156,16.35658836364746,-8.30078125,-2.0751953125,8.758544921875
4.0474999,-1.2258312702178955,-4.228160381317139,14.611812591552734,-2.38037109375,-5.523681640625,23.590087890625
4.0524999,-1.9704279899597168,-3.642179250717163,11.425728797912598,36.224365234375,-26.9775390625,9.58251953125
4.0574999,-2.252943754196167,-2.627636432647705,8.412027359008789,14.190673828125,-35.7666015625,-6.195068359375
4.062499900000001,1.3455413579940796,0.262763649225235,10.447098731994629,1.678466796875,-26.123046875,2.655029296875
4.0674999000000005,2.2804770469665527,0.4034229815006256,10.992378234863281,20.263671875,-22.76611328125,3.082275390625
4.0724999,2.8437130451202393,0.3908534348011017,10.540472984313965,-16.05224609375,-12.176513671875,-1.89208984375
4.0774999,2.9328970909118652,0.14604631066322327,10.003573417663574,-1.251220703125,-0.823974609375,7.62939453125
4.0824999,2.6569652557373047,-0.29209262132644653,9.196727752685547,-24.169921875,14.801025390625,-5.096435546875
4.0874999,2.297835111618042,-0.6721721291542053,9.44991397857666,6.622314453125,15.594482421875,6.439208984375
4.0924999,1.866280198097229,-0.7936778664588928,9.498994827270508,10.528564453125,15.0146484375,-3.5400390625
4.0974999,1.3437457084655762,-0.9696516990661621,9.52473258972168,-21.3623046875,16.7236328125,-2.86865234375
4.1024999,0.7637503147125244,-1.0881646871566772,9.775525093078613,16.998291015625,9.185791015625,6.744384765625
4.1074999000000005,-0.060453593730926514,-0.8517372608184814,10.095749855041504,21.3623046875,-7.4462890625,5.126953125
4.1124999,-0.060453593730926514,-0.8517372608184814,10.095749855041504,21.3623046875,-7.4462890625,5.126953125
4.1174999,0.061052143573760986,-0.6063315868377686,9.870695114135742,-9.979248046875,-7.080078125,-7.080078125
4.1224999,0.36332011222839355,-0.6548141837120056,9.97603988647461,-10.772705078125,-5.859375,3.90625
4.1274999,0.6727706789970398,-0.6129156351089478,9.962273597717285,22.0947265625,-10.101318359375,2.471923828125
4.1324999,1.070208191871643,-0.535702645778656,9.657012939453125,-19.83642578125,-3.11279296875,-5.645751953125
4.1374999,1.3060370683670044,-0.7098808288574219,9.75517463684082,2.777099609375,-1.15966796875,6.195068359375
4.1424999,1.5143325328826904,-0.6709750294685364,9.633070945739746,15.838623046875,-1.739501953125,-3.082275390625
4.147499900000001,1.581370234489441,-0.7158663272857666,9.442731857299805,-22.88818359375,6.40869140625,-2.410888671875
4.1524999000000005,1.489791989326477,-0.838569164276123,9.743802070617676,17.425537109375,3.265380859375,5.615234375
4.1574999,1.3563152551651,-0.7044938206672668,9.588179588317871,-0.42724609375,3.631591796875,-7.659912109375
4.1624999,1.1797429323196411,-0.7410054206848145,9.754576683044434,-14.58740234375,7.26318359375,2.44140625
4.1674999,0.8535329103469849,-0.5602431893348694,9.703699111938477,-18.341064453125,2.685546875,-6.500244140625
4.1724999,0.6937199234962463,-0.6697779297828674,9.915586471557617,3.753662109375,-0.42724609375,6.4697265625
4.1774999,0.6847416758537292,-0.6009446382522583,9.780912399291992,11.077880859375,-4.913330078125,-4.913330078125
4.1824999,0.7146692276000977,-0.6272808313369751,9.686341285705566,-21.514892578125,0.9765625,0.091552734375
4.187499900000001,0.7751228213310242,-0.767341673374176,9.90122127532959,20.99609375,-5.523681640625,4.82177734375
4.1924999000000005,0.8930372595787048,-0.6709750294685364,9.602544784545898,-10.55908203125,-2.105712890625,-7.476806640625
4.1974999,1.015141487121582,-0.8062474131584167,9.776124000549316,-4.45556640625,1.708984375,5.523681640625
4.2024999,1.1091139316558838,-0.7541735172271729,9.740211486816406,17.4560546875,-3.936767578125,-3.35693359375
4.2074999,1.183334231376648,-0.6943184733390808,9.554061889648438,-21.54541015625,4.058837890625,-2.01416015625
4.2124999,1.2084733247756958,-0.788889467716217,9.86231517791748,17.9443359375,-0.06103515625,4.82177734375
4.2174999,1.1869255304336548,-0.6440402865409851,9.564237594604492,-7.049560546875,0.8544921875,-7.38525390625
4.2224999,1.14742112159729,-0.7332242727279663,9.77133560180664,-5.767822265625,4.486083984375,6.04248046875
4.2274999,0.884058952331543,-0.6973112225532532,9.783307075500488,12.725830078125,-4.791259765625,-4.45556640625
4.2324999000000005,0.9684545993804932,-0.6871358752250671,9.695918083190918,-19.287109375,2.25830078125,0.518798828125
4.2374999,0.9409212470054626,-0.7781155705451965,9.898228645324707,20.263671875,-3.021240234375,2.44140625
4.2424999,1.082777738571167,-0.702099621295929,9.730634689331055,-11.993408203125,3.936767578125,4.0283203125
4.2474999,1.0660183429718018,-0.6925228238105774,9.810839653015137,18.096923828125,-2.74658203125,-1.800537109375
4.2524999,1.035492181777954,-0.6171054840087891,9.565434455871582,-19.6533203125,2.5634765625,-1.953125
4.2574999,0.970848798751831,-0.702099621295929,9.858723640441895,17.2119140625,-0.6103515625,4.180908203125
4.2624999,0.9756371974945068,-0.6189011335372925,9.544485092163086,-11.04736328125,-0.67138671875,-6.439208984375
4.2674999,0.9343371987342834,-0.727837324142456,9.88745403289795,2.86865234375,1.953125,6.195068359375
4.272499900000001,0.9870096445083618,-0.6823474764823914,9.719860076904297,5.43212890625,-3.41796875,-6.4697265625
4.2774999000000005,0.9816226959228516,-0.7003039717674255,9.7791166305542,-12.725830078125,3.143310546875,3.90625
4.2824999,0.9983820915222168,-0.7344213724136353,9.875483512878418,17.578125,-3.326416015625,-1.983642578125
4.2874999,1.0085574388504028,-0.6847416758537292,9.617507934570312,-19.10400390625,2.0751953125,-1.03759765625
4.2924999,0.9744400978088379,-0.7451952695846558,9.891045570373535,17.669677734375,-0.42724609375,3.204345703125
4.2974999,1.035492181777954,-0.6835445761680603,9.551667213439941,-13.458251953125,0.06103515625,-5.43212890625
4.3024999,1.0085574388504028,-0.7589619159698486,9.898228645324707,7.62939453125,2.105712890625,6.317138671875
4.3074999,1.0540473461151123,-0.6829460263252258,9.59596061706543,-0.79345703125,-1.8310546875,-6.927490234375
4.312499900000001,1.0205284357070923,-0.7134721279144287,9.790489196777344,-5.67626953125,3.570556640625,5.584716796875
4.3174999000000005,0.9977835416793823,-0.679354727268219,9.558850288391113,-13.397216796875,-1.129150390625,-5.096435546875
4.3224999,1.0301052331924438,-0.706289529800415,9.908403396606445,-0.823974609375,2.5634765625,6.2255859375
4.3274999,1.0570400953292847,-0.6685808300971985,9.695320129394531,5.462646484375,-1.861572265625,-6.072998046875
4.3324999,1.0223240852355957,-0.6979097723960876,9.806650161743164,-9.674072265625,2.593994140625,4.7607421875
4.3374999,1.0187327861785889,-0.7296329736709595,9.774927139282227,13.031005859375,-1.708984375,-4.2724609375
4.3424999,0.9780313968658447,-0.7266402244567871,9.605537414550781,-15.56396484375,-0.67138671875,-3.143310546875
4.3474999,0.9564836025238037,-0.7146692276000977,9.922768592834473,13.61083984375,0.213623046875,3.753662109375
4.352499900000001,0.9528923034667969,-0.6697779297828674,9.549872398376465,-11.505126953125,-0.946044921875,-5.035400390625
4.3574999000000005,0.943913996219635,-0.6715735793113708,9.919178009033203,8.97216796875,1.129150390625,4.913330078125
4.3624999,1.0336965322494507,-0.6344634294509888,9.549872398376465,-6.2255859375,-1.007080078125,-6.16455078125
4.3674999,1.01753568649292,-0.6715735793113708,9.91977596282959,3.662109375,1.678466796875,5.9814453125
4.3724999,1.0749965906143188,-0.6320692300796509,9.628880500793457,-0.9765625,-0.8544921875,-6.378173828125
4.3774999,1.0408791303634644,-0.702099621295929,9.956287384033203,-1.46484375,1.8310546875,5.950927734375
4.3824999,1.0319008827209473,-0.6715735793113708,9.70549488067627,3.753662109375,-1.220703125,-6.2255859375
4.3874999,0.9852139949798584,-0.7182605266571045,9.730035781860352,7.659912109375,-1.40380859375,-5.706787109375
4.3924999,0.9133879542350769,-0.7158663272857666,9.736021041870117,-9.27734375,1.129150390625,4.669189453125
4.397499900000001,0.9582792520523071,-0.7110779285430908,9.744400978088379,10.55908203125,-1.495361328125,-4.608154296875
4.4024999000000005,1.0067617893218994,-0.751779317855835,9.804854393005371,13.580322265625,-0.67138671875,-2.838134765625
4.4074999,1.01753568649292,-0.6883329749107361,9.635464668273926,-14.007568359375,1.190185546875,1.708984375
4.4124999,1.0121487379074097,-0.7428010702133179,9.84376049041748,14.251708984375,-0.48828125,-2.0751953125
4.4174999,1.0271124839782715,-0.6727706789970398,9.647436141967773,-14.312744140625,0.9765625,1.251220703125
4.4224999,0.9923965930938721,-0.7212532758712769,9.90241813659668,14.373779296875,-0.152587890625,-1.46484375
4.4274999,1.025316834449768,-0.6673837304115295,9.691129684448242,-14.5263671875,1.007080078125,0.732421875
4.4324999,0.9684545993804932,-0.7535749673843384,9.840168952941895,14.09912109375,-0.640869140625,-0.54931640625
4.437499900000001,1.0145429372787476,-0.718859076499939,9.624691009521484,-13.885498046875,0.579833984375,-0.030517578125
4.4424999000000005,0.970848798751831,-0.7368155717849731,9.833584785461426,13.85498046875,-0.79345703125,-0.6103515625
4.4474999,1.0115501880645752,-0.6859387755393982,9.625288963317871,-13.61083984375,0.579833984375,0.213623046875
4.4524999,0.9762357473373413,-0.7056909799575806,9.838373184204102,13.5498046875,-0.518798828125,-0.79345703125
4.4574999,1.015141487121582,-0.656609833240509,9.619902610778809,-13.519287109375,0.54931640625,0.396728515625
4.4624999,0.982221245765686,-0.6871358752250671,9.84256362915039,13.397216796875,-0.518798828125,-1.0986328125
4.4674999,1.0085574388504028,-0.6560112833976746,9.61212158203125,-13.153076171875,0.701904296875,0.885009765625
4.4724999,0.9870096445083618,-0.706289529800415,9.819219589233398,12.847900390625,-0.579833984375,-1.678466796875
4.477499900000001,0.9929951429367065,-0.7254431247711182,9.801262855529785,12.298583984375,-0.701904296875,-2.44140625
4.4824999000000005,0.9804255962371826,-0.6386532783508301,9.652822494506836,-11.749267578125,0.823974609375,2.227783203125
4.4874999,0.993593692779541,-0.7038952708244324,9.819818496704102,11.016845703125,-0.640869140625,-2.9296875
4.4924999,0.993593692779541,-0.7038952708244324,9.819818496704102,11.016845703125,-0.640869140625,-2.9296875
4.4974999,0.9528923034667969,-0.6386532783508301,9.679159164428711,-10.467529296875,0.885009765625,2.99072265625
4.5024999,1.0043675899505615,-0.689530074596405,9.797672271728516,9.674072265625,-1.007080078125,-3.5400390625
4.5074999,0.9397241473197937,-0.689530074596405,9.734824180603027,-8.514404296875,1.068115234375,4.150390625
4.5124999,1.0211269855499268,-0.7140706777572632,9.768342971801758,7.6904296875,-1.007080078125,-4.180908203125
4.5174999,0.970848798751831,-0.7439981698989868,9.86770248413086,-6.317138671875,0.91552734375,4.8828125
4.522499900000001,1.0342950820922852,-0.7212532758712769,9.730634689331055,5.2490234375,-0.9765625,-4.547119140625
4.5274999000000005,1.0109516382217407,-0.7523778676986694,9.898228645324707,-3.35693359375,0.640869140625,5.584716796875
4.5324999,1.0444705486297607,-0.6847416758537292,9.610923767089844,1.983642578125,-0.91552734375,-4.913330078125
4.5374999,0.9971849918365479,-0.6997054219245911,9.563638687133789,-5.157470703125,-0.732421875,-5.035400390625
4.5424999,0.9475052952766418,-0.7134721279144287,9.881468772888184,6.500244140625,0.396728515625,3.72314453125
4.5474999,0.9840168952941895,-0.7272387742996216,9.567230224609375,-8.056640625,-0.3662109375,-4.669189453125
4.5524999,1.0013748407363892,-0.7152677774429321,9.84615421295166,8.9111328125,0.274658203125,2.044677734375
4.5574999,1.01753568649292,-0.7416039705276489,9.596558570861816,-10.3759765625,0.30517578125,-3.631591796875
4.562499900000001,1.004966139793396,-0.6302735805511475,9.739013671875,5.523681640625,-0.42724609375,-5.096435546875
4.5674999000000005,0.9906009435653687,-0.6530185341835022,9.873088836669922,-3.509521484375,0.8544921875,3.96728515625
4.5724999,1.4772224426269531,-0.20051439106464386,9.459490776062012,-3.387451171875,1.64794921875,-11.29150390625
4.5774999,2.4187421798706055,1.3760673999786377,9.294290542602539,-47.271728515625,29.052734375,-47.607421875
4.5824999,3.779845952987671,2.647987127304077,9.631275177001953,-145.56884765625,112.85400390625,-169.25048828125
4.5874999,4.592078685760498,4.485537052154541,10.919355392456055,-121.917724609375,197.601318359375,-226.837158203125
4.5924999,4.571728229522705,5.072116374969482,12.679093360900879,-52.001953125,130.096435546875,-237.335205078125
4.5974999,3.6553473472595215,4.264671802520752,13.98752498626709,-120.54443359375,83.282470703125,-208.587646484375
4.602499900000001,1.9500772953033447,3.2321722507476807,13.951611518859863,-129.45556640625,75.103759765625,-163.63525390625
4.6074999000000005,0.3818751573562622,1.3808557987213135,12.461221694946289,-104.18701171875,73.42529296875,-159.912109375
4.6124999,-0.9870096445083618,-0.284311443567276,10.105925559997559,-58.837890625,74.249267578125,-166.168212890625
4.6174999,-2.147000312805176,-1.941697597503662,7.904457092285156,-42.327880859375,68.634033203125,-154.78515625
4.6224999,-3.3435027599334717,-4.792593479156494,5.2014031410217285,-3.387451171875,35.5224609375,-117.889404296875
4.6274999,-3.336320161819458,-5.718550682067871,4.882974147796631,24.71923828125,27.52685546875,-106.99462890625
4.6324999,-2.958634853363037,-6.287173748016357,4.978742599487305,38.2080078125,8.392333984375,-92.620849609375
4.6374999,-2.297835111618042,-6.555922985076904,5.251082897186279,43.426513671875,-23.101806640625,-68.695068359375
4.6424999,-1.45806884765625,-6.6163763999938965,5.583278179168701,47.515869140625,-53.28369140625,-38.299560546875
4.647499900000001,-0.545877993106842,-6.536769390106201,5.945401191711426,56.2744140625,-76.416015625,-7.415771484375
4.6524999000000005,0.3663128614425659,-6.3697733879089355,6.381744861602783,75.1953125,-92.10205078125,20.263671875
4.6574999,1.1689690351486206,-6.1315507888793945,6.860584735870361,106.048583984375,-97.564697265625,44.49462890625
4.6624999,1.7830817699432373,-5.726930618286133,7.443572998046875,144.47021484375,-100.2197265625,65.5517578125
4.6674999,2.09672212600708,-4.949413299560547,8.591592788696289,171.173095703125,-98.93798828125,78.948974609375
4.6724999,2.183511972427368,-3.3949780464172363,10.60272216796875,150.0244140625,-68.817138671875,79.193115234375
4.6774999,2.2607250213623047,-1.1085153818130493,12.519280433654785,47.4853515625,-2.593994140625,63.96484375
4.6824999,2.0889410972595215,5.264250755310059,10.254365921020508,10.92529296875,-9.765625,31.79931640625
4.687499900000001,1.7268179655075073,4.6740803718566895,8.562263488769531,-21.30126953125,-14.6484375,20.050048828125
4.6924999000000005,1.4173674583435059,3.5691561698913574,7.916428089141846,-37.445068359375,-11.749267578125,4.241943359375
4.6974999,1.3988122940063477,2.147000312805176,8.227075576782227,-31.280517578125,-3.96728515625,-6.011962890625
4.7024999,1.5909470319747925,0.5291185975074768,9.049484252929688,-20.904541015625,5.615234375,-4.913330078125
4.7074999,1.8303672075271606,-1.0618284940719604,9.9000244140625,-10.955810546875,7.75146484375,-0.823974609375
4.7124999,1.8608932495117188,-2.3798365592956543,10.299257278442383,-2.44140625,8.087158203125,1.5869140625
4.7174999,1.5849615335464478,-3.156156301498413,10.199897766113281,5.157470703125,13.519287109375,1.617431640625
4.7224999,1.060032844543457,-3.2752678394317627,9.856928825378418,11.474609375,14.129638671875,-2.01416015625
4.727499900000001,0.5213374495506287,-2.8143839836120605,9.591172218322754,12.75634765625,6.53076171875,-4.364013671875
4.7324999000000005,1.3533225059509277,-0.9427168965339661,9.751583099365234,3.47900390625,2.25830078125,0.579833984375
4.7374999,1.4389152526855469,-1.2120646238327026,9.68155288696289,5.035400390625,4.57763671875,0
4.7424999,1.3467384576797485,-1.1378443241119385,9.68933391571045,2.655029296875,4.7607421875,-1.190185546875
4.7474999,1.1749545335769653,-0.9169792532920837,9.715670585632324,1.068115234375,4.150390625,-1.129150390625
4.7524999,0.9241618514060974,-0.6518214344978333,9.747393608093262,-1.3427734375,2.044677734375,-0.335693359375
4.7574999,0.729034423828125,-0.4950011968612671,9.797073364257812,-2.044677734375,-0.1220703125,-1.068115234375
4.7624999,0.6189011335372925,-0.6236895322799683,9.79647445678711,-0.48828125,-3.173828125,-0.457763671875
4.7674999,0.7589619159698486,-0.6979097723960876,9.812037467956543,-0.06103515625,-1.861572265625,-0.579833984375
4.772499900000001,0.8780734539031982,-0.7296329736709595,9.781511306762695,0.762939453125,-0.06103515625,1.64794921875
4.7774999000000005,0.9953893423080444,-0.7613561153411865,9.710882186889648,0.732421875,0.946044921875,0
4.7824999,1.072602391242981,-0.7655459642410278,9.731831550598145,0.640869140625,2.13623046875,-2.50244140625
4.7874999,1.0594342947006226,-0.7026981711387634,9.704896926879883,0.946044921875,3.143310546875,-0.335693359375
4.7924999,1.0031704902648926,-0.6631938815116882,9.73542308807373,0.244140625,2.01416015625,-0.701904296875
4.7974999,0.9217676520347595,-0.5722141861915588,9.780912399291992,-0.885009765625,0.91552734375,-1.007080078125
4.8024999,0.6823474764823914,-0.6548141837120056,9.797672271728516,0.335693359375,-3.265380859375,0.396728515625
4.8074999,0.900818407535553,-0.8032546639442444,9.699509620666504,2.105712890625,0.9765625,-1.953125
4.812499900000001,1.0534487962722778,-0.7631517648696899,9.68813705444336,0.335693359375,2.50244140625,-1.129150390625
4.8174999000000005,1.1001356840133667,-0.6266822814941406,9.716867446899414,-1.03759765625,3.90625,-0.152587890625
4.8224999,1.07379949092865,-0.5704185366630554,9.783307075500488,-2.410888671875,2.044677734375,2.227783203125
4.8274999,0.899621307849884,-0.5374982953071594,9.803058624267578,-1.3427734375,-0.3662109375,2.197265625
4.8324999,0.760757565498352,-0.6853402256965637,9.784503936767578,0.762939453125,-2.593994140625,-0.152587890625
4.8374999,0.6769605278968811,-0.8158242106437683,9.755773544311523,2.227783203125,-1.861572265625,-3.326416015625
4.8424999,0.7134721279144287,-0.8355764150619507,9.719860076904297,2.0751953125,-0.3662109375,-2.5634765625
4.8474999,0.8259995579719543,-0.7344213724136353,9.786299705505371,-0.030517578125,1.190185546875,-0.67138671875
4.852499900000001,0.9427168965339661,-0.5692214369773865,9.805453300476074,-2.105712890625,0.579833984375,2.899169921875
4.8574999000000005,0.9546879529953003,-0.47584760189056396,9.854534149169922,-2.44140625,-0.48828125,3.23486328125
4.8624999,0.9313444495201111,-0.5524620413780212,9.7791166305542,-0.6103515625,-1.373291015625,0.030517578125
4.8674999,0.9038111567497253,-0.8421604633331299,9.694721221923828,2.166748046875,1.129150390625,-3.662109375
4.8724999,0.9151836037635803,-0.7948749661445618,9.725247383117676,1.3427734375,2.166748046875,0.67138671875
4.8774999,0.910993754863739,-0.6428431272506714,9.821614265441895,-1.190185546875,0.091552734375,4.33349609375
4.8824999,0.851138710975647,-0.52552729845047,9.804854393005371,-1.495361328125,-1.46484375,2.655029296875
4.8874999,0.8092401623725891,-0.5482721924781799,9.791088104248047,-1.068115234375,-1.8310546875,-3.814697265625
4.8924999,0.7835025191307068,-0.667982280254364,9.68155288696289,0.06103515625,0.1220703125,-5.37109375
4.897499900000001,0.8774749040603638,-0.7374141216278076,9.706692695617676,0.762939453125,1.708984375,-0.732421875
4.9024999000000005,0.8912416100502014,-0.7248445749282837,9.742605209350586,0.518798828125,0.823974609375,5.18798828125
4.9074999,0.9145850539207458,-0.6584054827690125,9.776124000549316,0.396728515625,-0.457763671875,3.72314453125
4.9124999,0.8966285586357117,-0.6440402865409851,9.77672290802002,0,-1.15966796875,-4.5166015625
4.9174999,0.8786720037460327,-0.6697779297828674,9.719860076904297,-0.91552734375,0.6103515625,-6.65283203125
4.9224999,0.8948329091072083,-0.6524199843406677,9.702502250671387,-0.579833984375,1.52587890625,-0.030517578125
4.9274999,0.9127894043922424,-0.6308721303939819,9.774328231811523,0.42724609375,0.213623046875,7.26318359375
4.9324999,0.8906430602073669,-0.6129156351089478,9.822811126708984,0.91552734375,-1.434326171875,3.72314453125
4.937499900000001,0.8738836050033569,-0.6129156351089478,9.765948295593262,0.457763671875,-1.15966796875,-6.866455078125
4.9424999000000005,0.8942343592643738,-0.6811503767967224,9.762955665588379,-2.044677734375,0.732421875,-7.87353515625
4.9474999,0.9528923034667969,-0.6985083222389221,9.768941879272461,-0.152587890625,1.3427734375,3.60107421875
4.9524999,0.9487023949623108,-0.6919242739677429,9.764751434326172,2.105712890625,-0.274658203125,9.796142578125
4.9574999,0.9475052952766418,-0.706289529800415,9.791686058044434,0.885009765625,-1.434326171875,-1.068115234375
4.9624999,0.8792705535888672,-0.6949170231819153,9.676764488220215,-2.410888671875,0.42724609375,-10.833740234375
4.9674999,0.8942343592643738,-0.689530074596405,9.676764488220215,-2.227783203125,1.5869140625,-2.74658203125
4.9724999,0.8601169586181641,-0.6661866307258606,9.73781681060791,2.777099609375,0.30517578125,10.498046875
4.977499900000001,0.8194155097007751,-0.7116764783859253,9.807847023010254,2.227783203125,-1.312255859375,4.608154296875
4.9824999000000005,0.8086416125297546,-0.6979097723960876,9.798270225524902,-1.251220703125,-0.42724609375,-10.43701171875
4.9874999,0.8032546639442444,-0.6985083222389221,9.75637149810791,-3.90625,1.3427734375,-6.65283203125
4.9924999,0.8631097078323364,-0.6721721291542053,9.799467086791992,3.204345703125,-1.434326171875,7.14111328125
4.9974999,0.9103952050209045,-0.6386532783508301,9.791088104248047,-1.617431640625,-0.6103515625,-10.68115234375
5.0024999,0.8792705535888672,-0.6649895310401917,9.748590469360352,-5.0048828125,1.190185546875,-7.9345703125
5.0074999,0.8936358094215393,-0.6506243348121643,9.745597839355469,3.35693359375,0.54931640625,11.3525390625
5.0124999,0.9097966551780701,-0.6320692300796509,9.744999885559082,4.364013671875,-1.190185546875,7.476806640625
5.0174999,0.8966285586357117,-0.6105214357376099,9.75517463684082,-3.11279296875,-0.30517578125,-12.939453125
5.022499900000001,0.900818407535553,-0.6530185341835022,9.782109260559082,-5.584716796875,1.434326171875,-7.232666015625
5.0274999000000005,0.8774749040603638,-0.6542156338691711,9.75936508178711,5.462646484375,0.579833984375,14.2822265625
5.0324999,0.8774749040603638,-0.6817489266395569,9.75278091430664,4.21142578125,-1.03759765625,5.218505859375
5.0374999,0.8768763542175293,-0.6434416770935059,9.757569313049316,-6.378173828125,-0.213623046875,-16.021728515625
5.0424999,0.8607155084609985,-0.657806932926178,9.746196746826172,-10.6201171875,0.732421875,-16.937255859375
5.0474999,0.8373720645904541,-0.6841431260108948,9.798869132995605,3.753662109375,0.244140625,5.92041015625
5.0524999,0.8289923667907715,-0.6560112833976746,9.725846290588379,8.270263671875,-0.732421875,12.63427734375
5.0574999,0.884058952331543,-0.6135141849517822,9.668983459472656,-8.941650390625,0.213623046875,-13.763427734375
5.062499900000001,0.9085995554924011,-0.5961562395095825,9.700706481933594,-4.852294921875,0.152587890625,-7.01904296875
5.0674999000000005,0.9457096457481384,-0.6961141228675842,9.780313491821289,-7.87353515625,0.640869140625,-10.528564453125
5.0724999,0.8571242094039917,-0.7266402244567871,9.897629737854004,11.29150390625,-0.762939453125,13.85498046875
5.0774999,0.8643068075180054,-0.6727706789970398,9.776124000549316,-0.762939453125,-0.091552734375,-0.762939453125
5.0824999,0.8900445103645325,-0.751779317855835,9.82640266418457,-11.138916015625,0.762939453125,-13.336181640625
5.0874999,0.8080430626869202,-0.7559691667556763,9.8784761428833,10.528564453125,-0.48828125,10.772705078125
5.0924999,0.8313865661621094,-0.6320692300796509,9.70310115814209,2.777099609375,-0.42724609375,3.326416015625
5.0974999,0.8852560520172119,-0.657806932926178,9.719860076904297,-13.24462890625,1.007080078125,-14.007568359375
5.102499900000001,0.849941611289978,-0.679354727268219,9.82640266418457,9.09423828125,-0.18310546875,8.270263671875
5.1074999000000005,0.8631097078323364,-0.5793967843055725,9.692925453186035,4.94384765625,-0.518798828125,5.340576171875
5.1124999,0.93254154920578,-0.6745663285255432,9.679757118225098,-15.716552734375,1.068115234375,-12.51220703125
5.1174999,0.93254154920578,-0.6745663285255432,9.679757118225098,-15.716552734375,1.068115234375,-12.51220703125
5.1224999,0.8535329103469849,-0.7553706169128418,9.84376049041748,9.58251953125,-0.274658203125,6.561279296875
5.1274999,0.8439561128616333,-0.6320692300796509,9.701904296875,5.889892578125,-0.3662109375,4.33349609375
5.1324999,0.8924387097358704,-0.6973112225532532,9.707290649414062,-16.2353515625,0.91552734375,-11.29150390625
5.1374999,0.8780734539031982,-0.7894880175590515,9.897629737854004,11.71875,-0.42724609375,7.476806640625
5.1424999,0.8822633028030396,-0.6326677799224854,9.718663215637207,3.72314453125,-0.091552734375,1.739501953125
5.147499900000001,0.9630676507949829,-0.7104793787002563,9.75397777557373,-16.66259765625,0.885009765625,-9.552001953125
5.1524999000000005,0.9044097065925598,-0.7230489253997803,9.885659217834473,14.95361328125,-0.579833984375,8.514404296875
5.1574999,0.910993754863739,-0.5566518902778625,9.64923095703125,-0.335693359375,0.18310546875,-1.739501953125
5.1624999,0.9373299479484558,-0.6332663297653198,9.707290649414062,-14.801025390625,0.48828125,-6.500244140625
5.1674999,0.8541314601898193,-0.5464765429496765,9.618106842041016,-7.2021484375,0.579833984375,-5.67626953125
5.1724999,0.8254010081291199,-0.7122750282287598,9.765948295593262,-9.8876953125,0.18310546875,-1.983642578125
5.1774999,0.8074445128440857,-0.7104793787002563,9.861717224121094,19.866943359375,-0.79345703125,7.293701171875
5.1824999,0.8469488620758057,-0.6278793811798096,9.66958236694336,-15.380859375,0.762939453125,-8.331298828125
5.187499900000001,0.8601169586181641,-0.778714120388031,9.892841339111328,-0.701904296875,-0.30517578125,3.204345703125
5.1924999000000005,0.8427590131759644,-0.6733692288398743,9.795876502990723,16.632080078125,-0.42724609375,2.899169921875
5.1974999,0.8918401598930359,-0.6512228846549988,9.659406661987305,-21.1181640625,0.91552734375,-7.904052734375
5.2024999,0.9044097065925598,-0.5889736413955688,9.609726905822754,-9.979248046875,1.0986328125,-7.965087890625
5.2074999,0.8870517015457153,-0.7146692276000977,9.813234329223633,19.012451171875,-0.762939453125,1.739501953125
5.2124999,0.9205705523490906,-0.6596025824546814,9.623494148254395,-21.331787109375,1.40380859375,-6.927490234375
5.2174999,0.8690952062606812,-0.7637503147125244,9.858723640441895,12.237548828125,-1.40380859375,7.904052734375
5.2224999,0.8924387097358704,-0.6105214357376099,9.619303703308105,2.86865234375,0.396728515625,-6.011962890625
5.227499900000001,0.8667010068893433,-0.6602011322975159,9.727043151855469,-15.899658203125,0.823974609375,0.42724609375
