# Time (seconds),Accel_X,Accel_Y,Accel_Z,Gyro_X,Gyro_Y,Gyro_Z
0.0024999,-0.24241292476654053,-0.8870517015457153,9.666589736938477,4.486083984375,-17.181396484375,2.960205078125
0.0074999,0.10354922711849213,-0.7326257228851318,9.804854393005371,3.2958984375,-10.8642578125,13.946533203125
0.012499900000000001,0.7864952683448792,-0.15981295704841614,9.846753120422363,8.9111328125,-11.16943359375,7.75146484375
0.0174999,1.1851298809051514,-0.11851298063993454,9.855731010437012,-0.091552734375,-13.5498046875,-4.39453125
0.0224999,1.467047095298767,-0.04489128291606903,9.776124000549316,-1.40380859375,0.06103515625,3.082275390625
0.0274999,2.006340980529785,-0.011372458189725876,9.679757118225098,3.509521484375,4.8828125,-5.523681640625
0.0324999,0.09157821536064148,-0.7858967185020447,9.665990829467773,-33.63037109375,-11.749267578125,7.049560546875
0.0374999,-1.0863690376281738,-0.6625953316688538,9.698312759399414,-8.544921875,-2.3193359375,2.13623046875
0.0424999,-0.9977835416793823,-1.4646528959274292,9.57441234588623,9.246826171875,2.532958984375,-3.265380859375
0.0474999,-1.1605892181396484,-1.5598224401474,9.548674583435059,-2.62451171875,-9.246826171875,10.589599609375
0.0524999,-1.1653777360916138,-1.1881226301193237,9.65222454071045,-4.913330078125,-9.70458984375,20.751953125
0.0574999,-0.5931634902954102,-0.35015198588371277,9.867103576660156,5.218505859375,-16.41845703125,7.99560546875
0.0624999,-0.4944026470184326,-0.34835633635520935,9.963470458984375,1.983642578125,-18.524169921875,14.404296875
0.0674999,-0.18136078119277954,0.0586579404771328,10.107122421264648,4.08935546875,-18.49365234375,23.345947265625
0.0724999,0.3932476341724396,0.30466216802597046,9.970054626464844,6.805419921875,-20.782470703125,19.439697265625
0.0774999,3.2555158138275146,-1.4700398445129395,9.547477722167969,12.176513671875,34.210205078125,-34.759521484375
0.0824999,2.6833014488220215,-0.922366201877594,9.566631317138672,12.3291015625,42.938232421875,-30.975341796875
0.0874999,1.5376760959625244,-0.5859808921813965,9.852738380432129,1.77001953125,24.505615234375,-14.46533203125
0.0924999,0.05985504388809204,-0.2454056739807129,10.132261276245117,-17.15087890625,-0.457763671875,3.753662109375
0.0974999,-1.2862848043441772,-0.1562216579914093,9.909601211547852,-19.47021484375,-10.68115234375,-2.5634765625
0.1024999,-1.9716250896453857,-0.718859076499939,9.996989250183105,1.800537109375,-2.50244140625,7.87353515625
0.1074999,-2.0476410388946533,-1.0648212432861328,9.765948295593262,-6.77490234375,-16.876220703125,12.298583984375
0.1124999,-1.7435773611068726,-1.0271124839782715,9.734824180603027,-8.270263671875,-21.728515625,31.8603515625
0.1174999,-1.2587515115737915,-0.8008604645729065,9.849146842956543,-4.058837890625,-28.4423828125,26.611328125
0.1224999,-0.5931634902954102,-0.7625532150268555,9.871891975402832,-0.152587890625,-27.313232421875,35.33935546875
0.1274999,0.6057330369949341,-0.545877993106842,9.814431190490723,10.43701171875,-3.7841796875,38.39111328125
0.1324999,1.4550760984420776,-0.45190557837486267,9.715670585632324,2.62451171875,-1.28173828125,28.9306640625
0.1374999,2.404376983642578,-0.6009446382522583,9.586383819580078,-0.213623046875,2.5634765625,-0.213623046875
0.1424999,2.404376983642578,-0.6009446382522583,9.586383819580078,-0.213623046875,2.5634765625,-0.213623046875
0.1474999,2.959831953048706,-0.7583633661270142,9.667786598205566,7.080078125,21.575927734375,-22.52197265625
0.1524999,3.4362781047821045,-1.521515130996704,9.363123893737793,14.862060546875,32.470703125,-24.871826171875
0.1574999,3.004723072052002,-1.1180921792984009,9.589975357055664,12.939453125,36.7431640625,-41.046142578125
0.1624999,-0.3082534670829773,0.32680854201316833,9.852140426635742,-11.871337890625,-2.105712890625,-17.486572265625
0.1674999,-2.094926595687866,0.25498247146606445,9.794678688049316,-15.838623046875,-8.819580078125,1.953125
0.1724999,-2.32297420501709,0.25977087020874023,9.856329917907715,-9.185791015625,-22.52197265625,19.500732421875
0.17749990000000002,-1.7363947629928589,-0.4255693554878235,9.794678688049316,-10.43701171875,-22.64404296875,25.238037109375
0.1824999,-0.9068039059638977,-0.6302735805511475,9.86351203918457,-2.044677734375,-21.148681640625,38.4521484375
0.1874999,-0.06703764945268631,-1.1049240827560425,9.926360130310059,7.01904296875,-23.01025390625,31.1279296875
0.1924999,0.5566518902778625,-1.3503297567367554,9.804854393005371,5.615234375,-13.336181640625,24.017333984375
0.1974999,1.3970166444778442,-1.0103530883789062,9.73781681060791,6.256103515625,0.335693359375,24.10888671875
0.2024999,2.3283610343933105,-0.9762357473373413,9.601945877075195,2.50244140625,4.0283203125,2.410888671875
0.20749990000000001,2.6898856163024902,-0.7960720658302307,9.59715747833252,3.265380859375,13.763427734375,-16.05224609375
0.2124999,2.9676129817962646,-0.9762357473373413,9.561244010925293,8.48388671875,24.017333984375,-13.580322265625
0.2174999,2.9053637981414795,-1.2545616626739502,9.633070945739746,13.12255859375,26.4892578125,-31.25
0.2224999,2.3582887649536133,-0.7924807667732239,9.737217903137207,13.702392578125,37.9638671875,-47.66845703125
0.2274999,1.5107412338256836,-0.7894880175590515,9.841964721679688,3.082275390625,30.21240234375,-31.158447265625
0.2324999,0.5123591423034668,0.2124854028224945,9.749189376831055,-1.28173828125,8.697509765625,-24.261474609375
0.2374999,-2.0667946338653564,0.14604631066322327,9.622296333312988,-7.415771484375,-6.103515625,7.9345703125
0.2424999,-1.823184609413147,0.21128830313682556,9.874286651611328,-8.575439453125,-22.5830078125,25.177001953125
0.2474999,-0.9157821536064148,0.0065840547904372215,9.845556259155273,-2.62451171875,-26.91650390625,45.95947265625
0.2524999,-0.1843535304069519,-0.47824180126190186,9.944316864013672,3.265380859375,-27.557373046875,26.519775390625
0.2574999,0.6105214357376099,-0.9032126069068909,9.794678688049316,6.011962890625,-9.124755859375,25.299072265625
0.2624999,1.7872716188430786,-1.016338586807251,9.68274974822998,5.9814453125,5.279541015625,18.585205078125
0.2674999,2.694674015045166,-1.2120646238327026,9.519346237182617,1.678466796875,6.256103515625,-8.575439453125
0.2724999,2.913743495941162,-1.1629834175109863,9.515754699707031,5.218505859375,19.6533203125,-15.350341796875
0.2774999,3.067570924758911,-1.2617442607879639,9.53969669342041,9.307861328125,24.169921875,-16.143798828125
0.2824999,2.8197710514068604,-1.1061211824417114,9.457097053527832,15.045166015625,27.9541015625,-39.55078125
0.28749990000000003,0.15502455830574036,0.4818331003189087,9.579200744628906,-4.57763671875,2.62451171875,-24.658203125
0.2924999,0.15502455830574036,0.4818331003189087,9.579200744628906,-4.57763671875,2.62451171875,-24.658203125
0.2974999,-1.3772644996643066,-0.0736217051744461,9.829395294189453,-16.204833984375,-5.035400390625,-19.744873046875
0.3024999,-2.0476410388946533,-0.07661445438861847,9.66958236694336,-4.08935546875,-6.7138671875,7.781982421875
0.3074999,-2.1595699787139893,-0.3148375153541565,9.854534149169922,-5.37109375,-18.280029296875,8.697509765625
0.3124999,-1.7711106538772583,-0.7906851172447205,9.984419822692871,-8.23974609375,-15.5029296875,12.451171875
0.3174999,-1.1605892181396484,-0.7128735780715942,10.003573417663574,-3.509521484375,-10.92529296875,11.199951171875
0.3224999,0.2753331959247589,-0.9313444495201111,9.930550575256348,4.5166015625,-17.181396484375,5.67626953125
0.3274999,0.2753331959247589,-0.9313444495201111,9.930550575256348,4.5166015625,-17.181396484375,5.67626953125
0.3324999,1.0408791303634644,-0.6093243360519409,9.827000617980957,2.25830078125,-10.650634765625,0.152587890625
0.3374999,1.5538369417190552,-0.27054479718208313,9.779715538024902,-1.007080078125,-1.52587890625,-2.197265625
0.3424999,1.8136078119277954,-0.10055647045373917,9.692925453186035,0.42724609375,1.708984375,-1.953125
0.34749990000000003,1.3515268564224243,-0.5811924338340759,9.710283279418945,3.143310546875,24.322509765625,-9.246826171875
0.35249990000000003,0.8661024570465088,0.13108254969120026,9.478046417236328,-4.364013671875,9.8876953125,0.6103515625
0.3574999,0.31124621629714966,-0.6506243348121643,9.50857162475586,-17.08984375,-0.457763671875,-4.058837890625
0.3624999,-0.6619967818260193,-0.7368155717849731,9.610923767089844,-1.251220703125,8.4228515625,-0.640869140625
0.3674999,-0.6542156338691711,-1.877652645111084,9.715071678161621,0.91552734375,-2.899169921875,4.302978515625
0.3724999,-1.0923545360565186,-1.6514005661010742,9.75936508178711,-4.2724609375,-10.92529296875,7.476806640625
0.3774999,-0.7667431235313416,-1.4113819599151611,9.913790702819824,-1.434326171875,-5.92041015625,9.58251953125
0.3824999,-0.4357447028160095,-0.6877344250679016,9.827000617980957,-0.67138671875,-6.8359375,5.340576171875
0.3874999,-0.0867898091673851,-0.6721721291542053,9.91738224029541,1.15966796875,-7.32421875,5.79833984375
0.3924999,0.17178396880626678,-0.18614917993545532,9.948506355285645,7.9345703125,-7.99560546875,10.345458984375
0.3974999,1.1581950187683105,0.16519992053508759,9.773730278015137,1.220703125,2.288818359375,0.701904296875
0.4024999,1.4389152526855469,-0.7475894689559937,9.9401273727417,3.23486328125,5.92041015625,-15.31982421875
0.4074999,1.6382324695587158,-0.5063736438751221,9.592967987060547,9.521484375,23.193359375,-15.594482421875
0.41249990000000003,1.2611457109451294,-0.6518214344978333,9.819219589233398,1.52587890625,20.843505859375,-7.049560546875
0.41749990000000003,1.0187327861785889,0.1909375786781311,9.288904190063477,-4.638671875,6.072998046875,-2.685546875
0.4224999,0.363918662071228,-0.7212532758712769,9.331400871276855,-13.671875,2.99072265625,-11.16943359375
0.4274999,-0.5841852426528931,-0.5602431893348694,9.255983352661133,-0.091552734375,10.833740234375,0.91552734375
0.4324999,-0.618302583694458,-1.9033904075622559,9.50737476348877,-2.50244140625,-9.735107421875,4.21142578125
0.4374999,-1.183334231376648,-1.6364368200302124,9.710283279418945,-6.256103515625,-13.916015625,9.185791015625
0.4424999,-0.7230489253997803,-0.933738648891449,9.910199165344238,-1.800537109375,-9.82666015625,11.871337890625
0.4474999,-0.353743314743042,-0.5895721912384033,10.04307746887207,0.244140625,-16.448974609375,19.10400390625
0.4524999,-0.31543606519699097,-0.0586579404771328,10.087968826293945,6.53076171875,-21.8505859375,21.484375
0.4574999,0.27653029561042786,0.21667525172233582,9.997588157653809,2.532958984375,-25.634765625,18.402099609375
0.4624999,0.9385270476341248,0.3082534670829773,9.90361499786377,-4.21142578125,-18.6767578125,13.031005859375
0.4674999,1.956661343574524,-0.04189852997660637,9.653421401977539,0.335693359375,1.89208984375,0.06103515625
0.47249990000000003,2.6862943172454834,-0.6045359373092651,9.507973670959473,6.28662109375,20.294189453125,-18.24951171875
0.47749990000000003,3.2585084438323975,-1.4431051015853882,9.461286544799805,10.3759765625,32.623291015625,-24.47509765625
0.4824999,2.9933507442474365,-1.0696096420288086,9.540295600891113,13.946533203125,40.83251953125,-40.618896484375
0.4874999,1.854907751083374,-0.9786299467086792,9.673172950744629,4.45556640625,34.72900390625,-25.45166015625
0.4924999,0.6075286865234375,-0.08619125932455063,9.62947940826416,-5.55419921875,9.185791015625,-3.448486328125
0.4974999,-1.0869675874710083,-0.36152446269989014,9.673771858215332,-15.777587890625,-7.080078125,-10.1318359375
0.5024999,-1.4508862495422363,-0.4686649739742279,10.025120735168457,-5.859375,-21.270751953125,23.101806640625
0.5074999,-0.7398083209991455,-0.5530605912208557,10.031106948852539,-2.227783203125,-26.0009765625,47.42431640625
0.5124999,-0.1933317929506302,-0.4513070285320282,10.04188060760498,4.608154296875,-29.022216796875,38.2080078125
0.5174999,0.5093663930892944,-0.7410054206848145,9.880271911621094,5.950927734375,-12.725830078125,28.076171875
0.5224999,1.5053542852401733,-0.6482301354408264,9.740809440612793,5.584716796875,2.86865234375,22.5830078125
0.5274999,2.5121161937713623,-0.9313444495201111,9.544485092163086,2.197265625,6.77490234375,-6.134033203125
0.5324999,2.850297212600708,-0.9050082564353943,9.492411613464355,5.218505859375,18.463134765625,-16.6015625
0.5374999,3.1064767837524414,-1.2120646238327026,9.525331497192383,8.209228515625,23.5595703125,-16.204833984375
0.5424999,2.8407204151153564,-1.0690110921859741,9.482834815979004,14.70947265625,27.9541015625,-38.787841796875
0.5474999,2.1996726989746094,-0.9247604012489319,9.551069259643555,7.843017578125,35.94970703125,-44.647216796875
0.5524999,-2.162562608718872,-0.02513911761343479,9.67077922821045,-3.936767578125,-11.810302734375,12.75634765625
0.5574999,-2.5025393962860107,-0.16639702022075653,9.627683639526367,-8.148193359375,-21.97265625,19.989013671875
0.5624999,-1.9309237003326416,-0.4034229815006256,9.694721221923828,-8.6669921875,-20.843505859375,16.754150390625
0.5674999000000001,-1.4335283041000366,-0.13108254969120026,9.947908401489258,-2.50244140625,-16.876220703125,31.6162109375
0.5724999000000001,-0.5991489887237549,-0.4752490520477295,10.08078670501709,-0.762939453125,-30.517578125,35.21728515625
0.5774999000000001,-0.07841010391712189,-0.5159504413604736,10.04068374633789,2.044677734375,-25.665283203125,32.318115234375
0.5824999,0.8864531517028809,-0.6266822814941406,9.90122127532959,6.195068359375,-5.645751953125,31.8603515625
0.5874999,2.0213048458099365,-0.8589198589324951,9.692327499389648,4.364013671875,4.180908203125,13.427734375
0.5924999,2.7299885749816895,-1.0492589473724365,9.536704063415527,1.708984375,8.392333984375,-11.199951171875
0.5974999,3.1214404106140137,-1.1468225717544556,9.470863342285156,5.43212890625,19.927978515625,-13.580322265625
0.6024999,-0.6242880821228027,-0.1562216579914093,9.637859344482422,-18.37158203125,-6.317138671875,-20.1416015625
0.6074999,-2.079962730407715,-0.25677812099456787,9.470863342285156,-4.7607421875,-2.8076171875,2.471923828125
0.6124999,-2.2397756576538086,-1.1569979190826416,9.583391189575195,-3.753662109375,-13.12255859375,3.90625
0.6174999,-2.0470423698425293,-1.27191960811615,9.849146842956543,-4.21142578125,-14.068603515625,11.16943359375
0.6224999,-1.3742717504501343,-1.216254472732544,9.91738224029541,-6.53076171875,-12.6953125,10.894775390625
0.6274999,-0.6572083830833435,-0.8870517015457153,9.98681354522705,-1.007080078125,-11.688232421875,10.711669921875
0.6324999,-0.008978256024420261,-0.8349778652191162,9.996989250183105,4.45556640625,-15.31982421875,10.406494140625
0.6374999,0.6302735805511475,-0.7469909191131592,9.959878921508789,3.692626953125,-16.845703125,-0.885009765625
0.6424999,1.800439715385437,-0.36152446269989014,9.609726905822754,1.129150390625,-0.091552734375,-5.340576171875
0.6474999,1.6466121673583984,-0.7098808288574219,9.731831550598145,7.2021484375,13.946533203125,-19.378662109375
0.6524999,1.592742681503296,-0.6266822814941406,9.674370765686035,9.6435546875,26.91650390625,-19.1650390625
0.6574999,1.113303780555725,-0.6129156351089478,9.82759952545166,0.274658203125,19.4091796875,-4.33349609375
0.6624999,0.7050924301147461,-0.536899745464325,10.023324966430664,-12.5732421875,1.708984375,4.2724609375
0.6674999,-0.21308395266532898,-0.7948749661445618,9.736021041870117,-11.688232421875,1.068115234375,-6.622314453125
0.6724999,-0.7912836670875549,-1.138442873954773,9.79647445678711,4.791259765625,9.124755859375,2.50244140625
0.6774999,-0.9750386476516724,-1.6454150676727295,9.581595420837402,-2.410888671875,-8.941650390625,5.279541015625
0.6824999,-1.0708067417144775,-1.0324994325637817,9.573814392089844,-4.2724609375,-11.199951171875,15.31982421875
0.6874999,-0.7320271730422974,-0.862511157989502,9.774328231811523,-1.03759765625,-9.82666015625,8.819580078125
0.6924999000000001,-0.595557689666748,-0.3124433159828186,9.9401273727417,-1.28173828125,-11.962890625,16.937255859375
0.6974999000000001,-0.4016273319721222,0.11911153793334961,10.080187797546387,7.01904296875,-24.23095703125,27.618408203125
0.7024999000000001,0.3190273642539978,-0.06584054976701736,9.965864181518555,-0.67138671875,-25.177001953125,24.96337890625
0.7074999,1.1234791278839111,-0.17896658182144165,9.752182006835938,-2.777099609375,-10.498046875,11.505126953125
0.7124999,2.315192937850952,-0.6308721303939819,9.543288230895996,3.509521484375,10.009765625,-10.986328125
0.7174999,3.111265182495117,-1.1647791862487793,9.414599418640137,8.209228515625,28.1982421875,-21.3623046875
0.7224999,2.8137855529785156,-0.7487865686416626,9.505578994750977,11.810302734375,37.384033203125,-43.3349609375
0.7274999,1.3467384576797485,-0.7535749673843384,9.757569313049316,-2.777099609375,19.6533203125,-23.74267578125
0.7324999,0.0017956512747332454,-0.38067805767059326,9.852738380432129,-21.270751953125,-2.349853515625,-2.716064453125
0.7374999,-1.8010382652282715,-0.4387374520301819,9.804255485534668,-12.0849609375,-10.07080078125,2.685546875
0.7424999,-1.8010382652282715,-0.4387374520301819,9.804255485534668,-12.0849609375,-10.07080078125,2.685546875
0.7474999,-2.208651065826416,-1.1971008777618408,9.780313491821289,-4.913330078125,-14.58740234375,10.955810546875
0.7524999,-1.2006921768188477,-0.71766197681427,9.867103576660156,-2.62451171875,-21.942138671875,31.829833984375
0.7574999,-0.40880993008613586,-0.7817068696022034,9.963470458984375,3.72314453125,-27.03857421875,37.4755859375
0.7624999,0.1256955862045288,-0.5991489887237549,9.961674690246582,7.415771484375,-19.317626953125,30.792236328125
0.7674999,0.8786720037460327,-0.5195417404174805,9.855133056640625,5.218505859375,-7.87353515625,29.266357421875
0.7724999,1.8914192914962769,-0.4165911078453064,9.73542308807373,3.631591796875,0.457763671875,15.7470703125
0.7774999,2.6880898475646973,-0.6392518281936646,9.587580680847168,1.861572265625,8.148193359375,-14.251708984375
0.7824999,3.075352191925049,-0.7445967197418213,9.570222854614258,7.415771484375,25.20751953125,-17.547607421875
0.7874999,3.265691041946411,-1.4987702369689941,9.57321548461914,10.80322265625,28.1982421875,-24.810791015625
0.7924999,2.8580782413482666,-0.8373720645904541,9.604340553283691,14.923095703125,35.247802734375,-47.454833984375
0.7974999,1.9734207391738892,-0.9995791912078857,9.692327499389648,3.082275390625,30.792236328125,-43.304443359375
0.8024999,-0.545877993106842,-0.5566518902778625,9.628880500793457,-19.71435546875,-5.43212890625,-18.798828125
0.8074999,-2.0871453285217285,-0.39205053448677063,9.529520988464355,-9.918212890625,-8.758544921875,13.18359375
0.8124999,-2.3912088871002197,-1.1552022695541382,9.684545516967773,-7.87353515625,-22.552490234375,12.8173828125
0.8174999000000001,-2.3523032665252686,-1.0947487354278564,9.877279281616211,-7.232666015625,-21.484375,25.20751953125
0.8224999000000001,-1.7471686601638794,-1.0307037830352783,9.931148529052734,-7.38525390625,-20.233154296875,21.3623046875
0.8274999000000001,-0.9498994946479797,-0.6524199843406677,9.9401273727417,1.739501953125,-21.087646484375,41.168212890625
0.8324999000000001,-0.2017114907503128,-0.7380126714706421,9.955090522766113,5.55419921875,-26.123046875,29.571533203125
0.8374999,0.45848962664604187,-0.7410054206848145,9.84256362915039,4.974365234375,-13.48876953125,25.848388671875
0.8424999,1.445499300956726,-0.5476736426353455,9.742006301879883,5.401611328125,0.18310546875,21.453857421875
0.8474999,2.4127566814422607,-0.7876923680305481,9.569623947143555,2.044677734375,4.364013671875,-4.69970703125
0.8524999,2.761711597442627,-0.7499836683273315,9.548674583435059,5.0048828125,18.06640625,-18.24951171875
0.8574999,3.1208419799804688,-1.2348095178604126,9.38048267364502,8.48388671875,24.078369140625,-16.17431640625
0.8624999,2.4361002445220947,-0.7050924301147461,9.555258750915527,10.711669921875,36.651611328125,-53.802490234375
0.8674999,1.4742296934127808,-0.558447539806366,9.82640266418457,-2.9296875,23.98681640625,-33.447265625
0.8724999,0.29568392038345337,0.06584054976701736,9.852738380432129,-10.43701171875,3.60107421875,-22.94921875
0.8774999,-1.599326729774475,-0.21009120345115662,9.6803560256958,-15.594482421875,-6.195068359375,-10.406494140625
0.8824999,-2.318784236907959,-0.3902548849582672,9.563638687133789,-4.150390625,-12.176513671875,15.869140625
0.8874999,-2.716820478439331,-0.46567222476005554,9.428964614868164,-9.368896484375,-24.627685546875,16.998291015625
0.8924999,-2.2008697986602783,-0.7272387742996216,9.5223388671875,-7.568359375,-22.0947265625,22.735595703125
0.8974999,-1.5634137392044067,-0.5973533391952515,9.790489196777344,-3.631591796875,-19.71435546875,32.135009765625
0.9024999,-0.7487865686416626,-0.7936778664588928,9.961075782775879,1.495361328125,-28.3203125,43.182373046875
0.9074999,-0.0005985504249110818,-0.8140285611152649,9.946710586547852,6.04248046875,-24.139404296875,29.541015625
0.9124999,0.8816647529602051,-0.7811083197593689,9.84615421295166,5.767822265625,-7.87353515625,30.792236328125
0.9174999,2.0913352966308594,-0.729034423828125,9.691129684448242,4.547119140625,3.90625,17.974853515625
0.9224999,2.8886044025421143,-0.8469488620758057,9.587580680847168,15.533447265625,35.614013671875,-48.614501953125
0.9274999,2.0015525817871094,-1.026513934135437,9.707290649414062,3.23486328125,32.89794921875,-43.76220703125
0.9324999,0.8978256583213806,0.16400282084941864,9.525331497192383,-2.655029296875,16.54052734375,-25.7568359375
0.9374999,-0.5099649429321289,-0.5165489912033081,9.661202430725098,-18.402099609375,-5.31005859375,-23.37646484375
0.9424999000000001,-2.1499931812286377,-0.30047231912612915,9.61331844329834,-8.72802734375,-6.591796875,8.4228515625
0.9474999000000001,-2.432508945465088,-0.8271966576576233,9.697115898132324,-6.2255859375,-20.782470703125,11.962890625
0.9524999000000001,-2.501342296600342,-0.7817068696022034,9.8784761428833,-7.659912109375,-22.003173828125,23.895263671875
0.9574999000000001,-1.8668787479400635,-0.40462008118629456,9.93593692779541,-6.4697265625,-20.69091796875,20.172119140625
0.9624999,3.1417911052703857,-1.3221979141235352,9.551667213439941,13.427734375,29.388427734375,-35.09521484375
0.9674999,2.604891538619995,-0.7739257216453552,9.654618263244629,11.505126953125,36.376953125,-53.03955078125
0.9724999,1.5203180313110352,-0.8080430626869202,9.854534149169922,-2.13623046875,25.909423828125,-35.003662109375
0.9774999,0.3214215636253357,-0.04429273307323456,9.904213905334473,-7.8125,6.500244140625,-22.64404296875
0.9824999,-1.5298948287963867,-0.41359832882881165,9.805453300476074,-17.39501953125,-8.026123046875,-11.90185546875
0.9874999,-2.363675594329834,-0.5351040959358215,9.727641105651855,-4.57763671875,-11.932373046875,16.387939453125
0.9924999,-2.691082715988159,-0.6218938827514648,9.609726905822754,-8.636474609375,-23.895263671875,14.190673828125
0.9974999,-2.1164743900299072,-0.8756792545318604,9.548076629638672,-7.598876953125,-21.148681640625,23.468017578125
1.0024999,-0.6649895310401917,-0.790086567401886,9.870096206665039,0.732421875,-27.069091796875,41.168212890625
1.0074999000000002,-0.0005985504249110818,-0.7763199210166931,9.947309494018555,5.37109375,-24.993896484375,27.77099609375
1.0124999000000001,0.767341673374176,-0.7745242714881897,9.86231517791748,5.096435546875,-9.765625,26.91650390625
1.0174999000000002,1.88782799243927,-0.6967126727104187,9.740211486816406,4.608154296875,2.99072265625,17.181396484375
1.0224999000000001,2.650381326675415,-0.8684966564178467,9.586981773376465,1.52587890625,7.26318359375,-12.5732421875
1.0274999,2.9969420433044434,-0.8798691034317017,9.529520988464355,6.53076171875,21.484375,-16.2353515625
1.0324999000000001,3.204638957977295,-1.4832079410552979,9.5624418258667,9.735107421875,25.93994140625,-22.857666015625
1.0374999,2.9095535278320312,-0.9199720025062561,9.528324127197266,15.869140625,35.2783203125,-48.065185546875
1.0424999000000001,-2.612074136734009,-0.9750386476516724,9.913191795349121,-7.99560546875,-22.3388671875,23.651123046875
1.0474999,-1.896806240081787,-0.7817068696022034,9.931747436523438,-6.53076171875,-21.759033203125,21.759033203125
1.0524999000000002,-1.1827356815338135,-0.5141547918319702,9.95748519897461,-1.800537109375,-22.8271484375,39.97802734375
1.0574999,-0.4058171808719635,-0.4991910457611084,10.023324966430664,4.852294921875,-27.2216796875,33.447265625
1.0624999000000002,0.304063618183136,-0.6877344250679016,9.889249801635742,5.615234375,-17.88330078125,27.40478515625
1.0674999,1.2186486721038818,-0.5512649416923523,9.773730278015137,5.615234375,-3.47900390625,29.632568359375
1.0724999000000002,2.337339401245117,-0.7338228225708008,9.584588050842285,2.685546875,2.9296875,7.50732421875
1.0774999,2.911947727203369,-0.7296329736709595,9.527127265930176,3.082275390625,11.962890625,-16.571044921875
1.0824999000000002,3.309983968734741,-1.0893617868423462,9.526528358459473,7.080078125,24.871826171875,-17.7001953125
1.0874999,3.3650505542755127,-1.2617442607879639,9.553462982177734,14.190673828125,30.82275390625,-32.684326171875
1.0924999000000002,2.830544948577881,-0.8026561141014099,9.754576683044434,11.65771484375,37.078857421875,-53.680419921875
1.0974999,1.7974469661712646,-0.7236474752426147,9.828198432922363,-0.9765625,29.23583984375,-38.0859375
1.1024999000000002,-1.2964602708816528,-0.46567222476005554,9.655815124511719,-18.341064453125,-4.791259765625,-19.012451171875
1.1074999,-2.383427858352661,-0.608127236366272,9.5408935546875,-3.35693359375,-7.38525390625,13.641357421875
1.1124999000000002,-2.78086519241333,-0.922366201877594,9.492411613464355,-9.307861328125,-24.017333984375,10.772705078125
1.1174999,-2.2804770469665527,-0.9971849918365479,9.653421401977539,-7.293701171875,-21.026611328125,24.2919921875
1.1224999000000002,-1.66696298122406,-0.8086416125297546,9.854534149169922,-4.730224609375,-19.561767578125,21.1181640625
1.1274999,-0.8391677141189575,-0.6428431272506714,9.947309494018555,1.190185546875,-23.345947265625,38.726806640625
1.1324999000000002,-0.28730419278144836,-0.608127236366272,10.005967140197754,4.058837890625,-29.388427734375,31.8603515625
1.1374999000000001,0.3513490855693817,-0.6607996821403503,9.90241813659668,4.669189453125,-17.181396484375,33.87451171875
1.1424999000000002,1.4215573072433472,-0.5099649429321289,9.777320861816406,5.584716796875,-1.007080078125,29.052734375
1.1474999000000001,2.455253839492798,-0.8277952671051025,9.570821762084961,1.983642578125,4.69970703125,-2.25830078125
1.1524999000000002,3.1244332790374756,-0.9433154463768005,9.453505516052246,4.486083984375,17.669677734375,-15.899658203125
1.1574999000000001,-1.9333178997039795,-0.7206547260284424,9.750386238098145,-10.31494140625,-3.387451171875,-4.486083984375
1.1624999,-2.3780407905578613,-1.258152961730957,9.651026725769043,-2.0751953125,-11.444091796875,8.758544921875
1.1674999000000001,-2.737171173095703,-1.1288660764694214,9.5809965133667,-8.392333984375,-20.263671875,15.533447265625
1.1724999,-1.8070237636566162,-0.8140285611152649,9.63067626953125,-5.950927734375,-19.775390625,19.287109375
1.1774999000000002,-1.3413515090942383,-0.5901707410812378,9.851541519165039,-3.35693359375,-18.402099609375,23.284912109375
1.1824999,-0.46986207365989685,-0.29628247022628784,10.019734382629395,3.7841796875,-23.834228515625,29.6630859375
1.1874999000000002,0.028730420395731926,-0.40701428055763245,10.019734382629395,4.57763671875,-28.472900390625,22.3388671875
1.1924999,0.6075286865234375,-0.3770867586135864,9.915586471557617,2.74658203125,-15.899658203125,28.106689453125
1.1974999000000002,-2.2846670150756836,-0.30885201692581177,9.72285270690918,-1.52587890625,-3.84521484375,7.14111328125
1.2024999,-1.6747441291809082,-1.290474772453308,9.82879638671875,-4.08935546875,-20.294189453125,17.63916015625
1.2074999000000002,-1.0330979824066162,-0.9906009435653687,9.922768592834473,-0.8544921875,-20.32470703125,30.120849609375
1.2124999,1.0103530883789062,-0.15083470940589905,9.891644477844238,3.23486328125,-8.453369140625,29.35791015625
1.2174999000000002,2.0159177780151367,-0.30705636739730835,9.706093788146973,2.410888671875,1.190185546875,11.5966796875
1.2224999,2.8131868839263916,-0.6218938827514648,9.546878814697266,2.197265625,7.99560546875,-13.031005859375
1.2274999000000002,3.381211280822754,-0.9594763517379761,9.619902610778809,7.4462890625,26.85546875,-23.162841796875
1.2324999,3.626018524169922,-1.3239935636520386,9.500192642211914,15.869140625,39.215087890625,-35.858154296875
1.2374999000000002,3.00053334236145,-0.6560112833976746,9.709086418151855,10.19287109375,39.9169921875,-51.33056640625
1.2424999,1.6196774244308472,-0.3663128614425659,9.740809440612793,-2.25830078125,21.453857421875,-34.85107421875
1.2474999000000002,0.12868833541870117,-0.04668693244457245,9.788095474243164,-20.20263671875,-0.885009765625,-13.671875
1.2524999,-1.7597382068634033,-0.30705636739730835,9.61451530456543,-14.312744140625,-6.683349609375,-2.349853515625
1.2574999000000002,-2.3594858646392822,-0.7445967197418213,9.630077362060547,1.373291015625,-6.866455078125,5.950927734375
1.2624999000000001,-2.700061082839966,-1.0791864395141602,9.461286544799805,-7.354736328125,-16.448974609375,12.481689453125
1.2674999000000002,-0.10893617570400238,-0.35733461380004883,10.043676376342773,6.805419921875,-24.47509765625,26.611328125
1.2724999000000001,0.5231330990791321,-0.3974374830722809,9.949105262756348,3.021240234375,-16.510009765625,29.205322265625
1.2774999000000002,1.4413094520568848,-0.26575639843940735,9.81024169921875,3.2958984375,-1.89208984375,25.20751953125
1.2824999000000001,2.4133553504943848,-0.6212953329086304,9.57979965209961,1.556396484375,3.814697265625,-2.716064453125
1.2874999,2.4133553504943848,-0.6212953329086304,9.57979965209961,1.556396484375,3.814697265625,-2.716064453125
1.2924999000000001,3.1232361793518066,-0.9493009448051453,9.495404243469238,5.340576171875,18.951416015625,-20.355224609375
1.2974999,3.621230125427246,-1.3611036539077759,9.44752025604248,12.176513671875,35.58349609375,-27.313232421875
1.3024999000000002,3.400364875793457,-1.1079168319702148,9.522936820983887,16.54052734375,42.633056640625,-47.7294921875
1.3074999,2.410362482070923,-0.4728548228740692,9.640851974487305,4.0283203125,32.2265625,-47.42431640625
1.3124999000000002,0.8601169586181641,0.628477931022644,9.570222854614258,-7.8125,10.19287109375,-26.031494140625
1.3174999,-2.251746654510498,0.1909375786781311,9.62947940826416,-3.387451171875,-5.55419921875,7.2021484375
1.3224999000000002,-2.5240871906280518,-1.2030863761901855,9.602544784545898,-2.685546875,-13.458251953125,4.180908203125
1.3274999,-2.3942017555236816,-1.216254472732544,9.779715538024902,-8.697509765625,-17.852783203125,23.49853515625
1.3324999000000002,-1.6974890232086182,-1.2395979166030884,9.865307807922363,-4.08935546875,-22.125244140625,18.157958984375
1.3374999,-1.061229944229126,-0.899621307849884,9.910199165344238,-1.251220703125,-22.15576171875,30.8837890625
1.3424999000000002,-0.5309142470359802,-0.6338648796081543,10.018536567687988,4.94384765625,-24.932861328125,29.84619140625
1.3474999,0.1951274424791336,-0.6159083843231201,9.964667320251465,6.011962890625,-20.263671875,30.33447265625
1.3524999000000002,0.9965864419937134,-0.34416648745536804,9.850942611694336,3.662109375,-8.636474609375,29.72412109375
1.3574999,2.0404584407806396,-0.47584760189056396,9.660603523254395,2.38037109375,1.708984375,10.101318359375
1.3624999000000002,2.965817451477051,-0.7015010714530945,9.503783226013184,3.173828125,10.80322265625,-14.58740234375
1.3674999,3.529053211212158,-1.027711033821106,9.607333183288574,8.36181640625,28.717041015625,-24.10888671875
1.3724999000000002,3.7050271034240723,-1.325789213180542,9.509170532226562,17.08984375,39.886474609375,-37.628173828125
1.3774999,1.5849615335464478,-0.2579752206802368,9.78989028930664,-2.655029296875,20.111083984375,-39.24560546875
1.3824999000000002,-0.02753331884741783,0.11312603205442429,9.873687744140625,-22.186279296875,-2.86865234375,-14.0380859375
1.3874999000000001,-1.8399440050125122,-0.19692309200763702,9.624691009521484,-17.608642578125,-10.80322265625,1.77001953125
1.3924999000000002,-2.4630351066589355,-0.6925228238105774,9.66958236694336,1.739501953125,-7.75146484375,6.134033203125
1.3974999000000001,-2.764704465866089,-1.3036428689956665,9.387664794921875,-5.767822265625,-14.190673828125,9.674072265625
1.4024999000000002,-2.02848744392395,-1.224035620689392,9.548076629638672,-5.615234375,-18.829345703125,24.261474609375
1.4074999000000001,-1.4772224426269531,-0.9355342984199524,9.728838920593262,-3.143310546875,-23.92578125,22.15576171875
1.4124999,-0.74040687084198,-0.8020575642585754,9.911396026611328,0.762939453125,-24.566650390625,30.70068359375
1.4174999000000001,-0.1280897855758667,-0.3663128614425659,9.992799758911133,7.6904296875,-22.125244140625,29.052734375
1.4224999,0.7044938206672668,-0.3824737071990967,9.922170639038086,4.638671875,-14.373779296875,29.296875
1.4274999000000002,1.5502456426620483,-0.18914192914962769,9.816226959228516,2.471923828125,-3.570556640625,25.299072265625
1.4324999,2.5558102130889893,-0.5003881454467773,9.621099472045898,1.3427734375,3.570556640625,-0.1220703125
1.4374999000000002,3.6984431743621826,-1.2653355598449707,9.479243278503418,12.3291015625,36.07177734375,-26.885986328125
1.4424999,-2.2888567447662354,0.11192893236875534,9.687539100646973,-4.974365234375,-7.659912109375,7.415771484375
1.4474999000000002,-2.2888567447662354,0.11192893236875534,9.687539100646973,-4.974365234375,-7.659912109375,7.415771484375
1.4524999,-2.5133132934570312,-1.4101848602294922,9.719860076904297,-0.6103515625,-11.138916015625,2.166748046875
1.4574999000000002,-2.3977930545806885,-1.325789213180542,9.932944297790527,-7.110595703125,-15.167236328125,22.735595703125
1.4624999,-1.6095020771026611,-1.3365631103515625,9.958083152770996,-4.39453125,-22.979736328125,17.51708984375
1.4674999000000002,-1.1240776777267456,-0.851138710975647,10.00955867767334,-1.89208984375,-23.406982421875,30.120849609375
1.4724999,-0.5835866928100586,-0.5871779918670654,10.070012092590332,4.241943359375,-25.787353515625,28.045654296875
1.4774999000000002,0.07122749835252762,-0.46986207365989685,9.99459457397461,6.866455078125,-20.660400390625,29.1748046875
1.4824999,0.8289923667907715,-0.20231004059314728,9.84495735168457,2.8076171875,-11.8408203125,30.487060546875
1.4874999000000002,1.8567034006118774,-0.26815059781074524,9.677961349487305,1.52587890625,-1.77001953125,16.082763671875
1.4924999,2.8413188457489014,-0.5632359385490417,9.467870712280273,1.89208984375,6.805419921875,-11.41357421875
1.4974999000000002,3.397372245788574,-0.9187749028205872,9.48762321472168,6.9580078125,25.87890625,-23.529052734375
1.5024999,3.7708675861358643,-1.294066071510315,9.393052101135254,14.739990234375,37.506103515625,-32.5927734375
1.5074999000000002,3.22139835357666,-0.6889315247535706,9.61451530456543,10.009765625,39.48974609375,-53.52783203125
1.5124999000000001,1.8501193523406982,-0.3064578175544739,9.722254753112793,-1.983642578125,24.59716796875,-38.4521484375
1.5174999000000002,0.3010708689689636,-0.17896658182144165,10.050858497619629,-18.646240234375,0.701904296875,-15.44189453125
1.5224999000000001,-2.761711597442627,-1.5041571855545044,9.706692695617676,-5.859375,-14.16015625,8.819580078125
1.5274999000000002,-1.9584569931030273,-1.334767460823059,9.754576683044434,-4.21142578125,-17.364501953125,22.552490234375
1.5324999000000001,-0.7122750282287598,-0.6769605278968811,9.946112632751465,0,-23.895263671875,31.92138671875
1.5374999000000003,-0.16579847037792206,-0.41120412945747375,9.99339771270752,6.89697265625,-25.543212890625,27.64892578125
1.5424999000000001,0.5345055460929871,-0.5093663930892944,9.899425506591797,4.7607421875,-17.9443359375,25.543212890625
1.5474999,1.4299370050430298,-0.35254621505737305,9.776124000549316,3.72314453125,-3.84521484375,22.491455078125
1.5524999000000002,2.4450783729553223,-0.6015431880950928,9.563638687133789,1.800537109375,4.33349609375,-1.03759765625
1.5574999,3.1100680828094482,-0.8373720645904541,9.476250648498535,4.2724609375,16.845703125,-18.157958984375
1.5624999000000002,3.422511339187622,-1.1198878288269043,9.500192642211914,8.453369140625,30.914306640625,-22.491455078125
1.5674999,3.381809949874878,-1.0761936902999878,9.442132949829102,14.801025390625,36.468505859375,-39.825439453125
1.5724999000000002,2.558803081512451,-0.46327802538871765,9.688735961914062,5.55419921875,35.247802734375,-52.764892578125
1.5774999,1.127070426940918,0.13766659796237946,9.398438453674316,-3.692626953125,17.9443359375,-30.09033203125
1.5824999000000002,-0.3495534360408783,-0.5662286877632141,9.695320129394531,-25.0244140625,-4.94384765625,-9.46044921875
1.5874999,-1.9907786846160889,-0.606930136680603,9.634865760803223,-7.62939453125,-8.758544921875,6.591796875
1.5924999000000002,-1.7513585090637207,-1.4371196031570435,10.047266960144043,-3.387451171875,-19.866943359375,17.822265625
1.5974999,-1.2910733222961426,-0.8062474131584167,10.079588890075684,-2.838134765625,-22.64404296875,29.083251953125
1.6024999000000002,0.07422025501728058,-0.3034650683403015,9.987412452697754,7.232666015625,-21.881103515625,25.482177734375
1.6074999,0.8200140595436096,-0.2849099934101105,9.809642791748047,4.45556640625,-12.298583984375,24.2919921875
1.6124999000000002,1.824381709098816,-0.31842881441116333,9.655217170715332,3.7841796875,0.91552734375,15.594482421875
1.6174999,2.697666883468628,-0.5913678407669067,9.45111083984375,1.800537109375,6.561279296875,-8.36181640625
1.6224999000000002,3.1920695304870605,-0.9014169573783875,9.420584678649902,5.9814453125,22.15576171875,-20.172119140625
1.6274999,3.47039532661438,-1.146224021911621,9.496601104736328,10.284423828125,33.87451171875,-25.970458984375
1.6324999000000002,3.162141799926758,-0.922366201877594,9.5809965133667,13.458251953125,38.26904296875,-46.7529296875
1.6374999000000001,2.100912094116211,-0.36750996112823486,9.779715538024902,2.410888671875,31.036376953125,-46.966552734375
1.6424999000000002,-2.3032219409942627,-0.14365209639072418,9.85034465789795,-2.899169921875,-9.70458984375,8.636474609375
1.6474999000000001,-2.5576059818267822,-1.2653355598449707,9.57201862335205,-2.105712890625,-10.498046875,2.99072265625
1.6524999000000002,-2.0404584407806396,-1.22642982006073,9.66419506072998,-4.180908203125,-12.451171875,22.52197265625
1.6574999000000001,-1.4173674583435059,-1.2503718137741089,9.755773544311523,-3.72314453125,-21.881103515625,17.333984375
1.6624999000000003,-0.8325836658477783,-0.8038532137870789,9.815030097961426,-2.25830078125,-23.49853515625,31.67724609375
1.6674999000000001,-0.3579331636428833,-0.5249287486076355,9.975440979003906,4.82177734375,-24.4140625,27.4658203125
1.6724999,0.3190273642539978,-0.6009446382522583,9.946710586547852,5.55419921875,-19.134521484375,24.35302734375
1.6774999000000002,1.083974838256836,-0.4159925580024719,9.851541519165039,4.21142578125,-6.65283203125,25.177001953125
1.6824999,2.077568531036377,-0.5560533404350281,9.679757118225098,2.288818359375,2.838134765625,8.60595703125
1.6874999000000002,2.896385431289673,-0.7487865686416626,9.522936820983887,3.173828125,10.772705078125,-14.7705078125
1.6924999,3.3201591968536377,-0.882861852645874,9.546878814697266,7.87353515625,27.89306640625,-23.223876953125
1.6974999000000002,0.02214636653661728,-0.058059390634298325,9.94970417022705,-20.8740234375,-0.79345703125,-12.603759765625
1.7024999,-1.765723705291748,-0.26096799969673157,9.731831550598145,-16.66259765625,-12.02392578125,4.547119140625
1.7074999000000002,-2.3582887649536133,-0.872686505317688,9.803058624267578,0.244140625,-9.307861328125,5.401611328125
1.7124999,-2.667739152908325,-1.212663173675537,9.586981773376465,-4.913330078125,-11.749267578125,10.80322265625
1.7174999000000002,-1.8387469053268433,-1.1982979774475098,9.715071678161621,-4.7607421875,-17.547607421875,21.66748046875
1.7224999,-1.370081901550293,-0.8421604633331299,9.834781646728516,-3.204345703125,-23.681640625,23.712158203125
1.7274999000000002,-0.6883329749107361,-0.718859076499939,9.975440979003906,0.18310546875,-25.054931640625,30.975341796875
1.7324999,-0.06883329898118973,-0.42856210470199585,9.993996620178223,7.293701171875,-22.491455078125,27.923583984375
1.7374999000000002,0.6655880808830261,-0.4991910457611084,9.885659217834473,5.126953125,-14.2822265625,26.092529296875
1.7424999,1.5652093887329102,-0.3387795388698578,9.77791976928711,4.180908203125,-1.678466796875,21.3623046875
1.7474999000000002,3.162740468978882,-0.7948749661445618,9.498994827270508,4.669189453125,17.669677734375,-19.012451171875
1.7524999,3.4111387729644775,-1.01753568649292,9.503185272216797,9.063720703125,31.951904296875,-23.86474609375
1.7574999000000002,3.3710360527038574,-1.013944387435913,9.493009567260742,13.702392578125,36.68212890625,-39.886474609375
1.7624999000000001,2.456450939178467,-0.4291606545448303,9.737217903137207,5.218505859375,34.7900390625,-51.3916015625
1.7674999000000002,1.1288660764694214,0.3711012601852417,9.663596153259277,-2.960205078125,16.17431640625,-31.79931640625
1.7724999000000001,-0.45848962664604187,-0.48063600063323975,9.814431190490723,-27.191162109375,-6.9580078125,-8.697509765625
1.7774999000000002,-1.988384485244751,-0.3992331326007843,9.797073364257812,-9.307861328125,-10.6201171875,9.613037109375
1.7824999000000001,-2.433107376098633,-1.954267144203186,9.706692695617676,-0.732421875,-10.650634765625,0.8544921875
1.7874999000000003,-2.5516204833984375,-1.7908629179000854,9.82640266418457,-5.18798828125,-11.322021484375,19.195556640625
1.7924999000000001,-1.6741455793380737,-1.5286977291107178,9.82640266418457,-3.753662109375,-20.69091796875,16.387939453125
1.7974999,-1.2431892156600952,-0.8966285586357117,9.901819229125977,-3.082275390625,-22.186279296875,28.99169921875
1.8024999000000002,-0.558447539806366,-0.456095427274704,9.986215591430664,2.5634765625,-24.261474609375,28.533935546875
1.8074999,0.8906430602073669,-0.3292027413845062,9.795876502990723,4.852294921875,-10.345458984375,24.0478515625
1.8124999000000002,1.8429367542266846,-0.3627215623855591,9.677363395690918,3.326416015625,1.15966796875,15.31982421875
1.8174999,2.697068214416504,-0.6302735805511475,9.494805335998535,1.953125,6.34765625,-8.72802734375
1.8224999000000002,3.111265182495117,-0.9295487999916077,9.481637001037598,6.53076171875,22.369384765625,-21.240234375
1.8274999,3.4368765354156494,-1.0893617868423462,9.541492462158203,11.016845703125,33.8134765625,-26.67236328125
1.8324999000000002,3.068169593811035,-0.8667010068893433,9.652822494506836,12.786865234375,38.51318359375,-47.637939453125
1.8374999,1.9548656940460205,-0.24001872539520264,9.82759952545166,1.983642578125,30.487060546875,-44.769287109375
1.8424999000000002,-2.6216509342193604,-1.7292121648788452,9.700108528137207,-2.044677734375,-8.60595703125,2.593994140625
1.8474999,-1.8315643072128296,-1.5933412313461304,9.692327499389648,-3.143310546875,-12.176513671875,22.369384765625
1.8524999000000002,0.9391255974769592,-0.24420857429504395,9.864709854125977,2.62451171875,-9.6435546875,20.751953125
1.8574999,1.8315643072128296,-0.3627215623855591,9.70310115814209,2.25830078125,1.678466796875,10.68115234375
1.8624999000000002,2.6138696670532227,-0.6362590789794922,9.512762069702148,2.777099609375,8.4228515625,-13.916015625
1.8674999,3.1723172664642334,-0.8870517015457153,9.570821762084961,8.148193359375,27.03857421875,-24.2919921875
1.8724999000000002,3.4620156288146973,-1.236605167388916,9.472060203552246,12.847900390625,37.7197265625,-33.14208984375
1.8774999,2.806602954864502,-0.6697779297828674,9.731232643127441,10.162353515625,38.57421875,-47.05810546875
1.8824999000000002,1.3784615993499756,-0.30286651849746704,9.765350341796875,-0.335693359375,19.012451171875,-35.369873046875
1.8874999000000001,-0.23343466222286224,-0.3908534348011017,9.940725326538086,-23.223876953125,-5.0048828125,-6.622314453125
1.8924999000000002,-2.3044190406799316,-1.4975731372833252,9.798869132995605,0.8544921875,-9.552001953125,1.495361328125
1.8974999000000001,-2.3044190406799316,-1.4975731372833252,9.798869132995605,0.8544921875,-9.552001953125,1.495361328125
1.9024999000000002,-2.522890090942383,-1.853710651397705,9.673172950744629,-2.3193359375,-7.110595703125,13.427734375
1.9074999000000001,-1.4844050407409668,-1.7477672100067139,9.716269493103027,-3.173828125,-17.974853515625,18.12744140625
1.9124999000000003,-1.1330559253692627,-1.1204863786697388,9.87967300415039,-1.64794921875,-19.439697265625,17.974853515625
1.9174999000000001,-0.37888240814208984,-0.8289923667907715,9.982025146484375,0.8544921875,-18.61572265625,22.8271484375
1.9224999,1.2659341096878052,0.023942016065120697,9.852738380432129,2.685546875,-5.31005859375,20.1416015625
1.9274999000000002,2.1098902225494385,-0.3208230137825012,9.650428771972656,1.220703125,1.5869140625,2.197265625
1.9324999,2.7928361892700195,-0.6943184733390808,9.507973670959473,4.241943359375,13.85498046875,-18.829345703125
1.9374999000000002,3.3907880783081055,-1.0283095836639404,9.46607494354248,9.58251953125,32.53173828125,-25.69580078125
1.9424999,2.473210334777832,-0.518943190574646,9.690531730651855,5.462646484375,35.797119140625,-44.86083984375
1.9474999000000002,0.8876502513885498,0.2902969419956207,9.727043151855469,-3.570556640625,10.6201171875,-25.7568359375
1.9524999,-0.9612720012664795,-0.27473464608192444,9.90241813659668,-26.9775390625,-11.505126953125,0.274658203125
1.9574999000000002,-2.1505916118621826,-0.33279404044151306,9.93354320526123,-8.4228515625,-15.93017578125,13.671875
1.9624999,-2.60548996925354,-1.7621324062347412,9.870096206665039,-2.13623046875,-10.223388671875,1.8310546875
1.9674999000000002,-2.0823569297790527,-1.8411411046981812,9.890447616577148,-1.800537109375,-9.82666015625,22.39990234375
1.9724999,-1.246780514717102,-1.9333178997039795,9.86770248413086,-3.448486328125,-20.050048828125,11.41357421875
1.9774999000000002,-0.7086837291717529,-1.2623428106307983,9.82879638671875,0.030517578125,-14.556884765625,21.453857421875
1.9824999,-0.15023615956306458,-0.6829460263252258,9.955090522766113,4.69970703125,-17.39501953125,20.660400390625
1.9874999000000002,0.375291109085083,-0.34177228808403015,9.898228645324707,4.913330078125,-21.6064453125,15.0146484375
1.9924999,0.7577648162841797,-0.043095629662275314,9.84615421295166,2.532958984375,-13.336181640625,18.00537109375
1.9974999000000002,1.5885528326034546,-0.04967968538403511,9.726444244384766,2.532958984375,-1.251220703125,13.885498046875
2.0024999,2.9041666984558105,-0.7637503147125244,9.637260437011719,9.429931640625,40.22216796875,-42.6025390625
2.0074999,1.5478514432907104,-0.39205053448677063,9.713874816894531,1.77001953125,21.636962890625,-30.8837890625
2.0124999000000003,-0.08858546614646912,-0.5554547905921936,10.049062728881836,-19.6533203125,-4.547119140625,-8.23974609375
2.0174999000000002,-1.7435773611068726,-0.7709329724311829,9.90241813659668,-17.27294921875,-15.045166015625,12.847900390625
2.0224999,-2.144606113433838,-1.4586673974990845,9.96825885772705,-1.46484375,-11.23046875,3.692626953125
2.0274999,-2.363675594329834,-1.6071078777313232,9.814431190490723,-1.0986328125,-5.92041015625,14.617919921875
2.0324999000000004,-1.2348095178604126,-1.5382746458053589,9.785700798034668,-2.685546875,-16.204833984375,17.76123046875
2.0374999000000003,-0.8864531517028809,-1.1593921184539795,9.88625717163086,-1.678466796875,-15.625,13.00048828125
2.0424999,-0.243011474609375,-0.7906851172447205,9.982025146484375,4.852294921875,-11.444091796875,20.111083984375
2.0474999,0.17238251864910126,-0.48303020000457764,9.983820915222168,6.256103515625,-19.1650390625,17.486572265625
2.0524999,2.720411777496338,-0.5668272376060486,9.497797966003418,4.08935546875,15.13671875,-19.622802734375
2.0574999000000003,3.399766445159912,-0.7236474752426147,9.387664794921875,9.613037109375,34.3017578125,-27.252197265625
2.0624999,3.1477766036987305,-0.982221245765686,9.495404243469238,10.80322265625,41.44287109375,-40.679931640625
2.0674999,2.1715409755706787,-0.3621230125427246,9.627683639526367,5.645751953125,29.510498046875,-36.712646484375
2.0724999,0.44831427931785583,0.23702596127986908,9.858125686645508,-7.01904296875,2.105712890625,-20.751953125
2.0774999000000003,-1.2186486721038818,-0.4225766062736511,9.929951667785645,-28.106689453125,-13.7939453125,7.415771484375
2.0824999,-2.0937294960021973,-0.4776432514190674,10.038887977600098,-6.9580078125,-15.472412109375,14.617919921875
2.0874999,-2.3457190990448,-1.8267759084701538,10.017339706420898,-0.396728515625,-8.1787109375,1.708984375
2.0924999,-1.7028759717941284,-1.9925743341445923,9.915586471557617,-2.13623046875,-10.31494140625,25.848388671875
2.0974999000000003,-0.9319429993629456,-2.1057004928588867,9.931148529052734,-3.631591796875,-21.1181640625,11.932373046875
2.1024999,0.043095629662275314,-0.9241618514060974,9.876082420349121,7.38525390625,-13.702392578125,19.53125
2.1074999,0.5907692909240723,-0.524330198764801,9.86111831665039,5.06591796875,-19.134521484375,14.617919921875
2.1124999,0.9983820915222168,0.05746084079146385,9.818621635437012,1.89208984375,-12.0849609375,10.772705078125
2.1174999000000003,1.8381483554840088,0.0975637212395668,9.687539100646973,1.007080078125,-0.213623046875,2.5634765625
2.1224999,2.6162638664245605,-0.0628477931022644,9.529520988464355,2.38037109375,11.962890625,-16.387939453125
2.1274999,3.245340347290039,-0.3016694188117981,9.485228538513184,6.77490234375,30.731201171875,-24.810791015625
2.1324999,3.090315818786621,-1.1839327812194824,9.49121379852295,12.39013671875,40.008544921875,-35.46142578125
2.1374999000000003,2.3493103981018066,-0.39564183354377747,9.615114212036133,9.765625,32.806396484375,-38.330078125
2.1424999000000002,0.8535329103469849,-0.011971008032560349,9.714473724365234,-5.0048828125,7.232666015625,-26.092529296875
2.1474999,-0.7936778664588928,-0.5602431893348694,9.929352760314941,-28.564453125,-9.124755859375,7.598876953125
2.1524999,-1.7489643096923828,-0.19033902883529663,9.947908401489258,-10.711669921875,-15.411376953125,15.07568359375
2.1574999000000004,-2.1068975925445557,-1.7310078144073486,9.974244117736816,0.6103515625,-8.48388671875,-0.091552734375
2.1624999000000003,-0.004788403399288654,-0.9487023949623108,9.929951667785645,7.568359375,-9.3994140625,10.528564453125
2.1674999,0.7463923692703247,-0.6751648783683777,9.853337287902832,9.552001953125,-11.566162109375,10.43701171875
2.1724999,1.3162124156951904,-0.24181437492370605,9.800065994262695,1.28173828125,-12.664794921875,-3.448486328125
2.1774999000000004,1.8417396545410156,0.13168109953403473,9.715670585632324,-0.152587890625,3.570556640625,-7.537841796875
2.1824999000000003,2.078166961669922,0.0802057534456253,9.64923095703125,1.495361328125,12.451171875,-7.87353515625
2.1874999,2.3696610927581787,-0.3016694188117981,9.499593734741211,5.9814453125,12.725830078125,-15.350341796875
2.1924999,2.1535844802856445,-1.0133458375930786,9.712677955627441,9.735107421875,23.49853515625,-31.036376953125
2.1974999,1.7944542169570923,-0.778714120388031,9.690531730651855,10.25390625,32.806396484375,-27.191162109375
2.2024999000000003,1.0085574388504028,-0.5021837949752808,9.924564361572266,0.3662109375,17.578125,-19.287109375
2.2074999,-0.0347159244120121,-0.08559270948171616,10.407594680786133,-22.27783203125,-3.47900390625,4.058837890625
2.2124999,-0.40880993008613586,-1.2204443216323853,9.844358444213867,1.15966796875,-20.263671875,19.317626953125
2.2174999,-0.13946224749088287,-0.9906009435653687,9.75397777557373,5.767822265625,-18.73779296875,1.46484375
2.2224999000000003,0.39624038338661194,-0.9050082564353943,9.79527759552002,4.547119140625,-7.38525390625,12.298583984375
2.2274999,0.9750386476516724,-0.1975216418504715,9.792284965515137,9.46044921875,-2.655029296875,8.056640625
2.2324999,1.5514427423477173,-0.2908954918384552,9.739013671875,0.6103515625,-7.50732421875,-6.866455078125
2.2374999,1.7094600200653076,-0.07900865375995636,9.71926212310791,-0.9765625,4.425048828125,-6.500244140625
2.2424999000000003,2.2852654457092285,-0.9864110946655273,9.773131370544434,8.331298828125,22.308349609375,-29.327392578125
2.2474999,1.3694833517074585,-0.5446808934211731,9.782109260559082,2.532958984375,22.88818359375,-21.30126953125
2.2524999,0.07781155407428741,0.5919663906097412,9.9371337890625,-9.918212890625,4.0283203125,0.8544921875
2.2574999,-0.9062053561210632,-0.24899697303771973,9.697713851928711,-33.233642578125,-18.61572265625,13.85498046875
2.2624999000000003,-1.4760253429412842,-0.2974795699119568,9.907805442810059,-3.7841796875,-12.176513671875,10.3759765625
2.2674999000000002,-1.4371196031570435,-1.5298948287963867,9.831191062927246,3.47900390625,-2.9296875,-0.457763671875
2.2724999,-1.22642982006073,-2.1565771102905273,9.731831550598145,-3.96728515625,-8.331298828125,21.54541015625
2.2774999,-0.6871358752250671,-1.7818846702575684,9.791686058044434,-2.288818359375,-17.913818359375,23.284912109375
2.2824999000000004,-0.363918662071228,-1.2401964664459229,9.774927139282227,5.9814453125,-19.775390625,2.899169921875
2.2874999000000003,-0.004788403399288654,-0.9546879529953003,9.824007987976074,2.777099609375,-15.2587890625,19.989013671875
2.2924999,0.353743314743042,-0.1280897855758667,9.921571731567383,7.87353515625,-11.29150390625,26.275634765625
2.2974999,1.061229944229126,0.09935937076807022,9.891644477844238,4.638671875,-10.92529296875,16.2353515625
2.3024999000000004,1.6861165761947632,0.08738835901021957,9.73542308807373,-2.50244140625,-7.781982421875,1.922607421875
2.3074999000000003,3.377021551132202,-0.7757213711738586,9.41100788116455,11.688232421875,35.247802734375,-28.01513671875
2.3124999,3.180098295211792,-1.0791864395141602,9.467870712280273,14.434814453125,42.999267578125,-42.694091796875
2.3174999,2.3726539611816406,-0.5913678407669067,9.46487808227539,7.293701171875,30.8837890625,-38.726806640625
2.3224999,-1.8794482946395874,-0.595557689666748,9.884461402893066,-9.307861328125,-16.11328125,11.41357421875
2.3274999000000003,-2.078765630722046,-1.9937714338302612,9.996390342712402,5.31005859375,-2.471923828125,-3.96728515625
2.3324999,-2.0225019454956055,-2.5731682777404785,9.950302124023438,-4.45556640625,-7.50732421875,25.57373046875
2.3374999,-1.3006501197814941,-1.867477297782898,9.935338973999023,-4.57763671875,-24.322509765625,25.238037109375
2.3424999,-0.8870517015457153,-1.2563573122024536,9.884461402893066,5.157470703125,-24.71923828125,13.5498046875
2.3474999000000003,-0.3711012601852417,-0.8409633636474609,9.906607627868652,2.532958984375,-19.012451171875,25.0244140625
2.3524999,0.24660277366638184,-0.11192893236875534,9.88386344909668,8.23974609375,-11.260986328125,33.3251953125
2.3574999,1.7178397178649902,0.07960720360279083,9.685144424438477,-0.885009765625,-6.439208984375,13.00048828125
2.3624999,2.7916390895843506,-0.1777694821357727,9.502586364746094,1.15966796875,8.60595703125,-12.237548828125
2.3674999000000003,3.582324266433716,-0.5315127968788147,9.481039047241211,8.697509765625,32.806396484375,-27.40478515625
2.3724999,3.863044500350952,-1.4269442558288574,9.46487808227539,16.41845703125,44.43359375,-43.02978515625
2.3774999,2.9879636764526367,-0.641047477722168,9.55585765838623,10.25390625,38.299560546875,-49.37744140625
2.3824999,1.380257248878479,-0.5380968451499939,9.840767860412598,-4.7607421875,12.176513671875,-35.0341796875
2.3874999000000003,-0.5117605924606323,-0.3555389642715454,9.886856079101562,-27.801513671875,-7.38525390625,-0.1220703125
2.3924999000000002,-2.015319347381592,-0.6847416758537292,9.819219589233398,-18.310546875,-17.730712890625,14.373779296875
2.3974999,-2.385223388671875,-1.1097124814987183,9.79527759552002,4.547119140625,-6.683349609375,-2.9296875
2.4024999,-2.389413356781006,-1.6950948238372803,9.651625633239746,-2.25830078125,-5.4931640625,16.510009765625
2.4074999000000004,-1.6011223793029785,-1.3293805122375488,9.582792282104492,-6.439208984375,-20.3857421875,26.18408203125
2.4124999000000003,-1.0241197347640991,-0.8289923667907715,9.824606895446777,3.875732421875,-24.0478515625,15.045166015625
2.4174999,2.4666264057159424,-0.23762452602386475,9.640851974487305,-0.42724609375,2.01416015625,-1.52587890625
2.4224999,3.3237504959106445,-0.3908534348011017,9.473258018493652,5.4931640625,24.169921875,-26.06201171875
2.4274999000000004,3.9713821411132812,-1.335964560508728,9.423578262329102,13.7939453125,43.426513671875,-34.5458984375
2.4324999000000003,3.293224334716797,-0.9044097065925598,9.537900924682617,13.031005859375,44.219970703125,-49.1943359375
2.4374999,2.102707624435425,-0.6619967818260193,9.674968719482422,1.15966796875,22.3388671875,-42.633056640625
2.4424999,0.11133038252592087,0.11192893236875534,10.096348762512207,-16.17431640625,0.152587890625,-14.22119140625
2.4474999,-1.613093376159668,-0.32860419154167175,9.740211486816406,-28.01513671875,-15.9912109375,13.031005859375
2.4524999000000003,-2.2894554138183594,-0.40521863102912903,9.897629737854004,-1.3427734375,-12.451171875,7.049560546875
2.4574999,-2.5109190940856934,-1.4826093912124634,9.61451530456543,1.708984375,-4.8828125,3.47900390625
2.4624999,-1.061229944229126,-1.3467384576797485,9.715071678161621,-0.244140625,-20.965576171875,13.0615234375
2.4674999,-0.26755204796791077,-1.035492181777954,9.648633003234863,5.035400390625,-17.364501953125,12.02392578125
2.4724999000000003,0.15741875767707825,-0.8720879554748535,9.932345390319824,4.852294921875,-13.275146484375,17.120361328125
2.4774999,1.0516531467437744,-0.46327802538871765,9.949105262756348,8.48388671875,-12.939453125,9.246826171875
2.4824999,2.5989060401916504,-0.6613982319831848,9.633668899536133,8.514404296875,15.5029296875,-26.18408203125
2.4874999,2.5989060401916504,-0.6613982319831848,9.633668899536133,8.514404296875,15.5029296875,-26.18408203125
2.4924999000000003,2.1487960815429688,-0.6751648783683777,9.591172218322754,10.223388671875,31.73828125,-30.029296875
2.4974999,1.6502034664154053,-0.7326257228851318,9.670180320739746,5.79833984375,29.571533203125,-25.81787109375
2.5024999,0.5919663906097412,0.11552023142576218,9.658807754516602,-2.899169921875,10.986328125,-15.68603515625
2.5074999,-1.3395558595657349,-0.6751648783683777,9.761758804321289,-14.58740234375,-15.167236328125,20.843505859375
2.5124999000000003,-1.3395558595657349,-0.6751648783683777,9.761758804321289,-14.58740234375,-15.167236328125,20.843505859375
2.5174999000000002,-1.427542805671692,-1.5286977291107178,9.75397777557373,6.40869140625,-4.69970703125,-4.119873046875
2.5224999,-1.5532383918762207,-1.8543092012405396,9.528324127197266,0.54931640625,-3.47900390625,14.251708984375
2.5274999,-1.2677297592163086,-1.3395558595657349,9.575011253356934,-8.148193359375,-15.0146484375,27.801513671875
2.5324999000000004,-0.5979518890380859,-0.9020155072212219,9.712677955627441,7.232666015625,-21.270751953125,10.25390625
2.5374999000000003,-0.25438392162323,-0.5440823435783386,9.803058624267578,4.119873046875,-17.120361328125,6.40869140625
2.5424999,0.45908817648887634,-0.40043023228645325,9.890447616577148,4.7607421875,-8.544921875,18.06640625
2.5474999,1.1851298809051514,0.005386953707784414,9.855133056640625,7.781982421875,-7.01904296875,10.68115234375
2.5524999000000004,1.7357962131500244,0.031124621629714966,9.783307075500488,-0.701904296875,-7.965087890625,-6.500244140625
2.5574999000000003,2.0703859329223633,-0.10773907601833344,9.733627319335938,0.18310546875,9.246826171875,-9.21630859375
2.5624999,2.6659436225891113,-0.4207809567451477,9.493608474731445,7.4462890625,21.66748046875,-16.693115234375
2.5674999,2.5103204250335693,-0.8936358094215393,9.531316757202148,10.3759765625,30.09033203125,-30.8837890625
2.5724999,-1.501164436340332,-0.7140706777572632,10.033500671386719,3.875732421875,-4.08935546875,0.91552734375
2.5774999000000003,-1.4634557962417603,-1.7531541585922241,9.716867446899414,2.899169921875,-2.74658203125,4.638671875
2.5824999,-1.4658499956130981,-1.8040310144424438,9.59177017211914,-7.87353515625,-14.95361328125,28.228759765625
2.5874999,-0.8535329103469849,-1.0480618476867676,9.859322547912598,2.777099609375,-22.979736328125,19.439697265625
2.5924999,-0.6572083830833435,-0.8631097078323364,9.779715538024902,3.692626953125,-26.092529296875,14.46533203125
2.5974999000000003,-0.22026655077934265,-0.5315127968788147,9.864709854125977,2.86865234375,-19.1650390625,29.083251953125
2.6024999,0.3519476354122162,-0.04908113554120064,9.841964721679688,9.94873046875,-9.063720703125,31.951904296875
2.6074999,1.2401964664459229,-0.12509703636169434,9.763554573059082,2.532958984375,-9.033203125,19.71435546875
2.6124999,3.377619981765747,-1.082777738571167,9.561842918395996,14.251708984375,45.318603515625,-51.08642578125
2.6174999000000003,2.295440912246704,-0.6607996821403503,9.674370765686035,1.617431640625,25.93994140625,-40.740966796875
2.6224999,0.3405751883983612,0.42437225580215454,9.931148529052734,-12.939453125,3.448486328125,-14.7705078125
2.6274999,-1.237802267074585,-0.26336219906806946,9.742605209350586,-30.6396484375,-15.13671875,9.246826171875
2.6324999,-2.321777105331421,-0.1604115068912506,9.965864181518555,-0.885009765625,-8.209228515625,4.45556640625
2.6374999000000003,-2.3475148677825928,-1.8010382652282715,9.704896926879883,1.89208984375,-5.340576171875,2.838134765625
2.6424999000000002,-2.0446481704711914,-1.8429367542266846,9.62947940826416,-6.988525390625,-13.73291015625,26.214599609375
2.6474999,-1.3192051649093628,-1.5310919284820557,9.815030097961426,0.823974609375,-22.3388671875,16.204833984375
2.6524999,-0.8457517623901367,-1.1552022695541382,9.79408073425293,0.579833984375,-26.18408203125,25.57373046875
2.6574999000000004,-0.3908534348011017,-0.5758054852485657,9.97484302520752,4.7607421875,-23.529052734375,27.77099609375
2.6624999000000003,2.163759708404541,-0.14844051003456116,9.706692695617676,-1.373291015625,-2.349853515625,6.40869140625
2.6674999,2.163759708404541,-0.14844051003456116,9.706692695617676,-1.373291015625,-2.349853515625,6.40869140625
2.6724999,3.1471781730651855,-0.4381389021873474,9.489418029785156,3.265380859375,15.2587890625,-19.287109375
2.6774999000000004,3.822941541671753,-0.9361328482627869,9.326014518737793,10.894775390625,36.224365234375,-28.99169921875
2.6824999000000003,3.71280837059021,-1.3138182163238525,9.388861656188965,14.129638671875,44.342041015625,-48.095703125
2.6874999,2.786850690841675,-0.4668693244457245,9.408015251159668,6.7138671875,34.11865234375,-47.9736328125
2.6924999,1.1252747774124146,0.1562216579914093,9.524134635925293,-7.720947265625,9.8876953125,-29.35791015625
2.6974999,-0.6901286244392395,-0.4638765752315521,9.79288387298584,-30.914306640625,-7.568359375,4.82177734375
2.7024999000000003,-2.053027868270874,-0.5482721924781799,9.800664901733398,-10.3759765625,-12.0849609375,9.490966796875
2.7074999,-2.4127566814422607,-1.6873136758804321,10.019135475158691,5.035400390625,-4.45556640625,-2.593994140625
2.7124999,-2.3714568614959717,-2.0027496814727783,9.999981880187988,-5.218505859375,-9.552001953125,22.27783203125
2.7174999,-1.6059107780456543,-1.4131776094436646,10.053851127624512,-3.11279296875,-19.775390625,19.317626953125
2.7224999000000003,0.8086416125297546,0.023343466222286224,9.82640266418457,4.82177734375,-13.641357421875,23.773193359375
2.7274999,1.6184803247451782,-0.050876785069704056,9.678560256958008,-0.67138671875,-6.34765625,14.5263671875
2.7324999,2.765901565551758,-0.2561795711517334,9.479243278503418,0.6103515625,7.598876953125,-9.33837890625
2.7374999,3.595492362976074,-0.45250412821769714,9.50737476348877,7.62939453125,30.21240234375,-26.397705078125
2.7424999000000003,3.8965632915496826,-1.5065513849258423,9.498994827270508,14.22119140625,42.54150390625,-39.24560546875
2.7474999,3.0986955165863037,-0.7374141216278076,9.661202430725098,11.932373046875,40.22216796875,-47.54638671875
2.7524999,1.668160080909729,-0.6308721303939819,9.821015357971191,-3.021240234375,15.2587890625,-39.154052734375
2.7574999,-0.2998737692832947,-0.15263035893440247,10.069414138793945,-22.4609375,-1.52587890625,-5.9814453125
2.7624999000000003,-1.7926585674285889,-0.6200982332229614,9.686341285705566,-21.97265625,-14.984130859375,13.97705078125
2.7674999000000002,-2.360682964324951,-0.7942764163017273,9.815628051757812,3.72314453125,-7.568359375,1.03759765625
2.7724999,-1.6777368783950806,-1.7082629203796387,9.443329811096191,-7.87353515625,-16.998291015625,26.611328125
2.7774999,-1.1049240827560425,-1.1605892181396484,9.75278091430664,3.448486328125,-20.599365234375,13.946533203125
2.7824999000000004,-0.3974374830722809,-1.0259153842926025,9.779715538024902,2.8076171875,-20.965576171875,17.7001953125
2.7874999000000003,-0.030526071786880493,-0.4465186297893524,9.903017044067383,5.218505859375,-17.578125,24.688720703125
2.7924999,0.7122750282287598,-0.090979665517807,9.931148529052734,7.32421875,-14.5263671875,20.32470703125
2.7974999,1.3545196056365967,0.11432313174009323,9.855133056640625,0.213623046875,-10.6201171875,14.2822265625
2.8024999000000004,3.0567970275878906,-0.8325836658477783,9.50498104095459,13.946533203125,42.083740234375,-41.473388671875
2.8074999000000003,2.05123233795166,-0.669179379940033,9.571419715881348,3.814697265625,23.406982421875,-40.618896484375
2.8124999,0.2388216257095337,0.4554968774318695,9.66299819946289,-10.55908203125,3.90625,-17.608642578125
2.8174999,-1.2078747749328613,-1.5933412313461304,9.882665634155273,-2.655029296875,-22.3388671875,21.881103515625
2.8224999,-0.7535749673843384,-1.2773065567016602,9.780912399291992,5.126953125,-23.651123046875,13.214111328125
2.8274999000000003,-0.28969839215278625,-0.8858546018600464,9.885659217834473,2.197265625,-19.439697265625,23.834228515625
2.8324999,0.2968810200691223,-0.2148796021938324,9.889249801635742,8.575439453125,-12.786865234375,29.022216796875
2.8374999,1.027711033821106,0.1628057211637497,9.828198432922363,4.058837890625,-11.688232421875,22.8271484375
2.8424999,1.7836803197860718,0.05925649031996727,9.692327499389648,-2.197265625,-6.9580078125,10.31494140625
2.8474999000000003,2.7964274883270264,-0.2322375625371933,9.528324127197266,1.220703125,10.711669921875,-15.289306640625
2.8524999,3.5883097648620605,-0.6027402877807617,9.37748908996582,9.735107421875,35.003662109375,-27.008056640625
2.8574999,3.714603900909424,-1.4634557962417603,9.466673851013184,14.404296875,43.182373046875,-43.792724609375
2.8624999,1.2779051065444946,-0.507570743560791,9.870096206665039,-6.2255859375,10.498046875,-32.012939453125
2.8674999000000003,-0.4950011968612671,-0.33937808871269226,9.914987564086914,-28.62548828125,-5.584716796875,3.814697265625
2.8724999,-1.867477297782898,-0.6661866307258606,9.880870819091797,-15.899658203125,-14.617919921875,12.054443359375
2.8774999,-2.2667105197906494,-1.0342950820922852,9.860519409179688,6.2255859375,-3.23486328125,-3.35693359375
2.8824999,-1.1558008193969727,-0.7386112213134766,9.819818496704102,4.39453125,-23.86474609375,17.059326171875
2.8874999000000003,-0.545877993106842,-0.6248866319656372,9.856329917907715,1.678466796875,-22.76611328125,23.13232421875
2.8924999000000002,-0.048482585698366165,-0.292691171169281,9.91977596282959,7.75146484375,-16.571044921875,29.72412109375
2.8974999,0.7457938194274902,-0.08379705995321274,9.896432876586914,6.103515625,-13.153076171875,26.702880859375
2.9024999,1.4832079410552979,-0.13048399984836578,9.798270225524902,0.030517578125,-8.30078125,17.913818359375
2.9074999000000004,2.542043685913086,-0.2651578485965729,9.61451530456543,-0.152587890625,3.570556640625,-3.875732421875
2.9124999000000003,3.354276657104492,-0.49559974670410156,9.603142738342285,6.16455078125,26.06201171875,-25.81787109375
2.9174999,3.845088005065918,-1.459265947341919,9.501988410949707,14.0380859375,42.6025390625,-34.027099609375
2.9224999,3.184288263320923,-0.910993754863739,9.642647743225098,13.48876953125,42.17529296875,-48.64501953125
2.9274999000000004,1.9446903467178345,-0.6835445761680603,9.709685325622559,-0.06103515625,20.172119140625,-41.107177734375
2.9324999000000003,0.0975637212395668,0.11432313174009323,10.029909133911133,-16.7236328125,1.373291015625,-11.077880859375
2.9374999,-1.4508862495422363,-0.3585317134857178,9.636661529541016,-26.885986328125,-13.97705078125,10.19287109375
2.9424999,-2.227804660797119,-0.2819172441959381,9.840767860412598,2.25830078125,-6.378173828125,2.655029296875
2.9474999,-2.3750481605529785,-1.6699557304382324,9.533711433410645,0.48828125,-5.4931640625,5.43212890625
2.9524999000000003,-1.8638859987258911,-1.470638394355774,9.320627212524414,-6.744384765625,-14.801025390625,25.634765625
2.9574999,-1.279700756072998,-1.2701239585876465,9.680954933166504,1.5869140625,-20.355224609375,13.641357421875
2.9624999,-0.34656068682670593,-0.5237316489219666,9.946112632751465,3.84521484375,-23.101806640625,26.275634765625
2.9674999,0.36750996112823486,-0.2017114907503128,10.049661636352539,8.11767578125,-16.571044921875,28.900146484375
2.9724999000000003,3.1459810733795166,-0.4884171485900879,9.536704063415527,3.021240234375,15.0146484375,-20.08056640625
2.9774999,3.8151605129241943,-0.8505401611328125,9.369110107421875,10.19287109375,38.238525390625,-28.289794921875
2.9824999,3.6756980419158936,-1.3934253454208374,9.41639518737793,14.251708984375,44.5556640625,-43.365478515625
2.9874999,2.6797101497650146,-0.4411316514015198,9.419387817382812,7.62939453125,31.55517578125,-46.2646484375
2.9924999000000003,0.93254154920578,0.020350715145468712,9.492411613464355,-7.50732421875,8.026123046875,-27.34375
2.9974999,-0.7739257216453552,-0.5267243981361389,9.75517463684082,-29.541015625,-7.8125,5.7373046875
3.0024999,-2.0464439392089844,-0.557250440120697,9.761758804321289,-10.07080078125,-11.138916015625,9.002685546875
3.0074999,-2.3110032081604004,-1.6950948238372803,9.99100399017334,5.126953125,-3.448486328125,-1.77001953125
3.0124999000000003,-2.2685060501098633,-2.012925148010254,10.000580787658691,-4.730224609375,-9.124755859375,20.44677734375
3.0174999000000002,-1.4293384552001953,-1.4113819599151611,10.071209907531738,-2.777099609375,-18.402099609375,15.106201171875
3.0224999,1.5376760959625244,0.07841010391712189,9.690531730651855,-0.762939453125,-6.9580078125,15.31982421875
3.0274999,2.6611552238464355,-0.19273324310779572,9.501988410949707,0.396728515625,6.77490234375,-8.36181640625
3.0324999000000004,3.4362781047821045,-0.2495955228805542,9.57860279083252,6.683349609375,28.900146484375,-24.59716796875
3.0374999000000003,3.689464807510376,-1.4969745874404907,9.546878814697266,11.77978515625,39.6728515625,-34.85107421875
3.0424999,2.986168146133423,-0.7242460250854492,9.708487510681152,13.00048828125,39.6728515625,-43.731689453125
3.0474999,1.6101006269454956,-0.7469909191131592,9.825204849243164,-1.28173828125,16.357421875,-39.031982421875
3.0524999000000004,-0.1107318252325058,-0.08439560979604721,10.104728698730469,-18.890380859375,0.457763671875,-6.439208984375
3.0574999000000003,-1.547252893447876,-0.5488707423210144,9.693524360656738,-24.566650390625,-14.190673828125,12.02392578125
3.0624999,-2.140416383743286,-0.5662286877632141,9.872490882873535,2.62451171875,-6.622314453125,2.38037109375
3.0674999,-0.5386953949928284,-1.0235211849212646,9.779715538024902,2.044677734375,-19.83642578125,18.890380859375
3.0724999000000004,-0.5386953949928284,-1.0235211849212646,9.779715538024902,2.044677734375,-19.83642578125,18.890380859375
3.0774999000000003,-0.24600422382354736,-0.45010992884635925,9.94970417022705,3.692626953125,-19.927978515625,24.658203125
3.0824999,0.3908534348011017,-0.08499415963888168,10.007762908935547,7.4462890625,-17.822265625,22.674560546875
3.0874999,1.0342950820922852,0.16998831927776337,9.923966407775879,1.03759765625,-13.458251953125,17.63916015625
3.0924999,2.0254945755004883,-0.020949264988303185,9.714473724365234,-1.251220703125,-1.0986328125,5.18798828125
3.0974999000000003,2.8802247047424316,-0.22026655077934265,9.55705451965332,3.23486328125,17.27294921875,-18.890380859375
3.1024999,3.596689462661743,-0.884058952331543,9.405022621154785,9.735107421875,34.942626953125,-26.85546875
3.1074999,3.2417490482330322,-1.1366472244262695,9.460687637329102,13.153076171875,40.557861328125,-40.069580078125
3.1124999,2.344521999359131,-0.4878185987472534,9.486425399780273,6.591796875,29.510498046875,-39.398193359375
3.1174999000000003,-0.739209771156311,-0.5321113467216492,9.718064308166504,-29.84619140625,-10.80322265625,9.3994140625
3.1224999,-1.8387469053268433,-0.44831427931785583,9.79647445678711,-7.476806640625,-10.833740234375,6.2255859375
3.1274999,-1.9823989868164062,-1.9596540927886963,9.858723640441895,5.37109375,-1.46484375,-1.678466796875
3.1324999,-1.8896236419677734,-2.007538080215454,9.78869342803955,-3.96728515625,-8.30078125,18.12744140625
3.1374999000000003,-1.184531331062317,-1.669357180595398,9.912593841552734,-2.25830078125,-15.533447265625,13.458251953125
3.1424999000000002,-0.9026140570640564,-0.8846575021743774,9.848548889160156,3.631591796875,-15.716552734375,15.19775390625
3.1474999,-0.3531447649002075,-0.6224924325942993,9.955689430236816,1.800537109375,-21.3623046875,19.683837890625
3.1524999,-0.13946224749088287,-0.06165069341659546,9.951498985290527,7.171630859375,-20.01953125,25.7568359375
3.1574999000000004,0.6871358752250671,0.23702596127986908,9.86351203918457,4.57763671875,-17.39501953125,19.47021484375
3.1624999000000003,1.4526818990707397,0.22206220030784607,9.747992515563965,-1.678466796875,-8.941650390625,12.359619140625
3.1674999,2.5312697887420654,-0.08319851011037827,9.567230224609375,-0.152587890625,6.988525390625,-6.256103515625
3.1724999,3.3961751461029053,-0.19393034279346466,9.620500564575195,6.40869140625,26.79443359375,-21.484375
3.1774999000000004,2.8802247047424316,-0.6787561774253845,9.733627319335938,11.23046875,40.069580078125,-40.863037109375
3.1824999000000003,1.5418659448623657,-0.7092822790145874,9.787496566772461,-1.312255859375,18.24951171875,-29.11376953125
3.1874999,-0.15322890877723694,-0.2693476974964142,10.004171371459961,-20.965576171875,-2.01416015625,0.48828125
3.1924999,-1.4939818382263184,-0.6506243348121643,9.642647743225098,-20.8740234375,-13.885498046875,7.38525390625
3.1974999000000004,-2.0841526985168457,-0.9085995554924011,9.761758804321289,5.279541015625,-1.617431640625,0.06103515625
3.2024999000000003,-1.0564415454864502,-1.0241197347640991,9.733028411865234,0.8544921875,-16.876220703125,10.92529296875
3.2074999,-0.39205053448677063,-0.5734112858772278,9.864110946655273,1.373291015625,-20.294189453125,22.796630859375
3.2124999,-0.29867666959762573,-0.36990416049957275,10.068815231323242,4.364013671875,-23.0712890625,20.904541015625
3.2174999,0.29628247022628784,-0.14365209639072418,10.105925559997559,7.75146484375,-17.333984375,24.7802734375
3.2224999000000003,1.0324994325637817,0.025737667456269264,9.968857765197754,-0.3662109375,-13.3056640625,16.9677734375
3.2274999,2.3774423599243164,-0.4429273009300232,9.48343276977539,5.462646484375,32.684326171875,-37.9638671875
3.2324999,0.7643488645553589,0.5141547918319702,9.570821762084961,-7.75146484375,8.72802734375,-15.228271484375
3.2374999,-0.7038952708244324,-0.39145198464393616,9.820416450500488,-28.80859375,-10.406494140625,4.608154296875
3.2424999000000003,-1.988384485244751,-0.25438392162323,9.936535835266113,-3.23486328125,-5.157470703125,3.7841796875
3.2474999,-1.9913772344589233,-2.0883424282073975,10.034099578857422,3.082275390625,-4.5166015625,-0.091552734375
3.2524999,-2.0039467811584473,-2.0464439392089844,10.09814453125,-5.126953125,-10.223388671875,20.599365234375
3.2574999,-1.2497732639312744,-1.8237831592559814,10.086771965026855,-1.861572265625,-18.00537109375,12.8173828125
3.2624999000000003,-1.035492181777954,-1.0360907316207886,10.000580787658691,0.335693359375,-19.4091796875,23.92578125
3.2674999000000002,-0.49619829654693604,-0.7068880796432495,10.011953353881836,2.74658203125,-24.90234375,21.942138671875
3.2724999,1.7256208658218384,0.047884032130241394,9.628880500793457,-1.52587890625,-4.21142578125,12.51220703125
3.2774999,2.8562827110290527,-0.13347674906253815,9.456498146057129,1.52587890625,9.735107421875,-10.31494140625
3.2824999000000004,3.4973301887512207,-0.45908817648887634,9.552266120910645,7.38525390625,28.900146484375,-24.658203125
3.2874999000000003,3.71280837059021,-1.370081901550293,9.482834815979004,13.824462890625,39.398193359375,-36.0107421875
3.2924999,2.892794132232666,-0.6266822814941406,9.6989107131958,10.101318359375,38.665771484375,-44.921875
3.2974999,1.4419080018997192,-0.535702645778656,9.768941879272461,-2.532958984375,17.425537109375,-31.31103515625
3.3024999000000004,-0.13587094843387604,-0.3166331648826599,9.913790702819824,-23.162841796875,-3.326416015625,-1.953125
3.3074999000000003,-1.7687164545059204,-0.6021417379379272,9.707290649414062,-16.448974609375,-10.31494140625,4.94384765625
3.3124999,-2.1523873805999756,-0.9319429993629456,9.765350341796875,4.974365234375,-3.265380859375,1.5869140625
3.3174999,-2.384026288986206,-1.5897499322891235,9.561244010925293,-3.173828125,-9.368896484375,9.6435546875
3.3224999000000004,-1.5131354331970215,-1.1468225717544556,9.575011253356934,-3.90625,-15.411376953125,22.552490234375
3.3274999000000003,-0.2885012924671173,-0.2902969419956207,10.031106948852539,6.34765625,-23.651123046875,23.62060546875
3.3324999,0.535702645778656,-0.18914192914962769,10.037092208862305,6.16455078125,-16.082763671875,23.406982421875
3.3374999,1.2868833541870117,-0.03172317147254944,9.895833969116211,-0.396728515625,-9.21630859375,18.157958984375
3.3424999,2.3535003662109375,-0.26096799969673157,9.67077922821045,-0.8544921875,2.197265625,0.579833984375
3.3474999000000003,3.0998926162719727,-0.6189011335372925,9.517550468444824,4.913330078125,19.683837890625,-21.514892578125
3.3524999,3.6762967109680176,-1.2300211191177368,9.415796279907227,11.322021484375,35.430908203125,-27.557373046875
3.3574999,3.228580951690674,-1.1581950187683105,9.480440139770508,12.3291015625,40.374755859375,-44.586181640625
3.3624999,2.2182278633117676,-0.48243165016174316,9.602544784545898,3.23486328125,29.327392578125,-38.26904296875
3.3674999000000003,0.5339069962501526,0.30047231912612915,9.799467086791992,-9.521484375,5.79833984375,-13.85498046875
3.3724999,-0.9816226959228516,-0.39803603291511536,9.77253246307373,-28.25927734375,-11.383056640625,4.486083984375
3.3774999,-1.9153614044189453,-1.9159599542617798,9.791686058044434,-5.035400390625,-10.986328125,23.040771484375
3.3824999,-1.1773487329483032,-1.7980455160140991,9.858125686645508,-1.708984375,-18.61572265625,10.406494140625
3.3874999000000003,-0.8194155097007751,-1.0528502464294434,9.886856079101562,1.251220703125,-17.974853515625,24.10888671875
3.3924999000000002,-0.39145198464393616,-0.6745663285255432,9.985017776489258,3.204345703125,-23.895263671875,20.538330078125
3.3974999,0.10354922711849213,-0.2346317619085312,9.962273597717285,8.1787109375,-20.172119140625,24.23095703125
3.4024999,0.8972271084785461,0.15023615956306458,9.828198432922363,1.28173828125,-15.07568359375,17.88330078125
3.4074999000000004,1.8136078119277954,0.0035913025494664907,9.658807754516602,-1.556396484375,-3.35693359375,8.941650390625
3.4124999000000003,2.846705913543701,-0.1867477297782898,9.477447509765625,1.89208984375,11.322021484375,-12.786865234375
3.4174999,3.4620156288146973,-0.5069721937179565,9.489418029785156,7.8125,29.083251953125,-23.834228515625
3.4224999,3.5865142345428467,-1.3736732006072998,9.44871711730957,13.336181640625,38.330078125,-38.4521484375
3.4274999000000004,2.7263972759246826,-0.4602852761745453,9.559449195861816,8.697509765625,38.0859375,-43.5791015625
3.4324999000000003,-2.2361843585968018,-1.6621745824813843,9.607333183288574,-3.662109375,-9.063720703125,12.63427734375
3.4374999,-1.324592113494873,-1.280897855758667,9.624691009521484,-3.326416015625,-15.777587890625,18.951416015625
3.4424999,-1.1336544752120972,-0.7344213724136353,9.79647445678711,0.823974609375,-16.510009765625,14.46533203125
3.4474999000000004,-0.33339259028434753,-0.6344634294509888,9.907805442810059,2.01416015625,-20.08056640625,22.308349609375
3.4524999000000003,-0.17417816817760468,-0.1693897694349289,10.000580787658691,7.14111328125,-21.209716796875,22.491455078125
3.4574999,0.6386532783508301,-0.023343466222286224,9.99339771270752,4.608154296875,-18.12744140625,18.035888671875
3.4624999,1.3281834125518799,0.10235211998224258,9.868300437927246,-0.8544921875,-8.6669921875,13.7939453125
3.4674999,2.318185806274414,-0.12868833541870117,9.674968719482422,-0.335693359375,4.119873046875,-1.5869140625
3.4724999000000003,2.9514522552490234,-0.4291606545448303,9.494805335998535,5.37109375,20.01953125,-20.20263671875
3.4774999,2.896984100341797,-0.9846154451370239,9.52114200592041,12.0849609375,40.679931640625,-42.938232421875
3.4824999,1.9829975366592407,-0.5716156363487244,9.645041465759277,2.838134765625,27.252197265625,-33.111572265625
3.4874999,0.31842881441116333,0.1215057373046875,10.022727012634277,-12.20703125,3.204345703125,-7.568359375
3.4924999000000003,-1.0881646871566772,-0.3645172119140625,9.819219589233398,-26.275634765625,-13.5498046875,5.218505859375
3.4974999,-2.049436569213867,-0.43514615297317505,10.056844711303711,1.251220703125,-3.936767578125,3.387451171875
3.5024999,-2.0602104663848877,-1.7806875705718994,9.805453300476074,0.335693359375,-5.79833984375,2.685546875
3.5074999,-1.6208745241165161,-1.5041571855545044,9.805453300476074,-5.157470703125,-11.8408203125,23.4375
3.5124999000000003,-1.0576386451721191,-1.4873977899551392,9.894038200378418,-1.40380859375,-18.1884765625,9.368896484375
3.5174999000000002,-0.5680243372917175,-0.9253589510917664,9.9185791015625,1.40380859375,-17.51708984375,23.25439453125
3.5224999,-0.3190273642539978,-0.6811503767967224,10.004770278930664,3.96728515625,-22.5830078125,19.6533203125
3.5274999,0.19213469326496124,-0.33937808871269226,9.962273597717285,7.50732421875,-19.622802734375,23.37646484375
3.5324999000000004,0.9127894043922424,0.025737667456269264,9.840168952941895,0.244140625,-14.892578125,17.059326171875
3.5374999000000003,2.8185739517211914,-0.3232172429561615,9.470264434814453,2.685546875,12.786865234375,-15.411376953125
3.5424999,3.4847605228424072,-0.6769605278968811,9.39903736114502,8.453369140625,30.6396484375,-24.688720703125
3.5474999,3.4410665035247803,-1.3138182163238525,9.44752025604248,13.092041015625,38.818359375,-40.22216796875
3.5524999000000004,2.652775526046753,-0.3693056106567383,9.504382133483887,8.209228515625,34.912109375,-41.290283203125
3.5574999000000003,1.0989385843276978,-0.2017114907503128,9.819219589233398,-5.584716796875,11.474609375,-23.01025390625
3.5624999,-0.3860650360584259,-0.6171054840087891,9.750386238098145,-27.40478515625,-7.659912109375,4.547119140625
3.5674999,-1.789067268371582,-0.6446388363838196,9.870695114135742,-9.246826171875,-8.880615234375,5.828857421875
3.5724999000000004,-2.031480073928833,-1.8387469053268433,9.77253246307373,4.730224609375,-3.11279296875,0.67138671875
3.5774999000000003,-2.145803213119507,-1.7699135541915894,9.674370765686035,-4.08935546875,-9.674072265625,16.082763671875
3.5824999,-1.3443442583084106,-1.5173252820968628,9.803657531738281,-2.5634765625,-15.594482421875,16.632080078125
3.5874999,-1.1139023303985596,-0.7350199222564697,9.84256362915039,1.190185546875,-16.143798828125,16.11328125
3.5924999,-0.3824737071990967,-0.6165069341659546,9.993996620178223,2.044677734375,-20.599365234375,20.782470703125
3.5974999000000003,0.7086837291717529,0.20769700407981873,9.909002304077148,4.2724609375,-16.571044921875,19.989013671875
3.6024999,1.4143747091293335,0.22026655077934265,9.77791976928711,-1.861572265625,-8.636474609375,14.556884765625
3.6074999,2.515108823776245,-0.04369417950510979,9.5809965133667,-0.06103515625,5.43212890625,-4.730224609375
3.6124999,3.292027235031128,-0.3058592677116394,9.617507934570312,6.34765625,24.658203125,-23.223876953125
3.6174999000000003,3.6343982219696045,-1.436521053314209,9.50737476348877,12.39013671875,37.139892578125,-33.233642578125
3.6224999,2.959831953048706,-0.8182184100151062,9.698312759399414,11.65771484375,39.886474609375,-43.27392578125
3.6274999,1.6753426790237427,-0.7146692276000977,9.746196746826172,-0.091552734375,19.927978515625,-33.99658203125
3.6324999,0.035913024097681046,-0.30466216802597046,10.043676376342773,-17.608642578125,-0.823974609375,-4.180908203125
3.6374999000000003,-1.4802151918411255,-0.7559691667556763,9.635464668273926,-23.193359375,-13.18359375,6.805419921875
3.6424999000000002,-2.12485408782959,-0.9648633003234863,9.779715538024902,3.23486328125,-3.41796875,2.960205078125
3.6474999,-2.181716203689575,-2.0817582607269287,9.44871711730957,-1.15966796875,-7.8125,6.561279296875
3.6524999,-1.546055793762207,-1.5173252820968628,9.332598686218262,-4.8828125,-14.068603515625,23.37646484375
3.6574999000000004,-0.23822307586669922,-0.5973533391952515,10.02691650390625,4.21142578125,-21.514892578125,20.538330078125
3.6624999000000003,0.3621230125427246,-0.27234044671058655,10.089764595031738,8.1787109375,-14.7705078125,24.84130859375
3.6674999,1.0773907899856567,-0.03531447425484657,9.976638793945312,-0.335693359375,-11.90185546875,16.815185546875
3.6724999,2.0147206783294678,-0.14006079733371735,9.740809440612793,-1.89208984375,-0.67138671875,2.960205078125
3.6774999000000004,2.8616695404052734,-0.3669114112854004,9.563039779663086,3.814697265625,17.88330078125,-18.829345703125
3.6824999000000003,3.5069069862365723,-0.9187749028205872,9.409811019897461,10.31494140625,33.63037109375,-25.360107421875
3.6874999,3.1693243980407715,-1.161187767982483,9.44752025604248,12.603759765625,38.604736328125,-42.236328125
3.6924999,2.2373814582824707,-0.4034229815006256,9.481637001037598,5.889892578125,30.029296875,-38.57421875
3.6974999000000004,0.667982280254364,0.43095630407333374,9.651625633239746,-7.62939453125,7.080078125,-15.380859375
3.7024999000000003,0.667982280254364,0.43095630407333374,9.651625633239746,-7.62939453125,7.080078125,-15.380859375
3.7074999,-0.7697358727455139,-0.49978959560394287,9.77013874053955,-29.205322265625,-11.260986328125,6.134033203125
3.7124999,-0.32441434264183044,-0.7050924301147461,9.949105262756348,2.38037109375,-21.392822265625,18.341064453125
3.7174999,-0.32441434264183044,-0.7050924301147461,9.949105262756348,2.38037109375,-21.392822265625,18.341064453125
3.7224999000000003,-0.019153613597154617,-0.10714052617549896,9.909002304077148,8.453369140625,-17.76123046875,24.0478515625
3.7274999,0.8182184100151062,0.22026655077934265,9.801861763000488,2.288818359375,-15.13671875,18.4326171875
3.7324999,1.5634137392044067,0.14425064623355865,9.682151794433594,-2.3193359375,-6.256103515625,11.322021484375
3.7374999,2.6180596351623535,-0.0628477931022644,9.522936820983887,1.007080078125,7.99560546875,-8.36181640625
3.7424999000000003,3.33392596244812,-0.3908534348011017,9.5624418258667,7.4462890625,26.519775390625,-23.040771484375
3.7474999,3.576937437057495,-1.3988122940063477,9.484031677246094,13.427734375,37.506103515625,-36.68212890625
3.7524999,-1.7675193548202515,-0.945111095905304,9.728240013122559,-14.7705078125,-12.176513671875,5.79833984375
3.7574999,-2.1074960231781006,-1.6478092670440674,9.682151794433594,4.82177734375,-3.082275390625,1.03759765625
3.7624999000000003,-1.1091139316558838,-0.9588778018951416,9.813234329223633,0,-17.27294921875,13.031005859375
3.7674999000000002,-1.1091139316558838,-0.9588778018951416,9.813234329223633,0,-17.27294921875,13.031005859375
3.7724999,-0.3411737382411957,-0.718859076499939,9.944915771484375,1.8310546875,-20.172119140625,22.064208984375
3.7774999,-0.18734627962112427,-0.166995570063591,10.04427433013916,6.591796875,-20.32470703125,22.064208984375
3.7824999000000004,0.6206967830657959,0.0586579404771328,10.046070098876953,5.462646484375,-14.892578125,21.54541015625
3.7874999000000003,1.2850877046585083,0.1759738177061081,9.911396026611328,-1.495361328125,-9.490966796875,15.31982421875
3.7924999,2.278681516647339,-0.0293289702385664,9.710882186889648,-0.946044921875,1.708984375,-0.823974609375
3.7974999,3.5188779830932617,-1.2635399103164673,9.475052833557129,11.5966796875,35.21728515625,-29.11376953125
3.8024999000000004,2.964021682739258,-0.9738415479660034,9.526528358459473,11.932373046875,39.886474609375,-43.701171875
3.8074999000000003,1.9818004369735718,-0.6015431880950928,9.68694019317627,2.13623046875,25.45166015625,-34.515380859375
3.8124999,0.32202014327049255,-0.058059390634298325,9.941324234008789,-13.18359375,2.349853515625,-8.36181640625
3.8174999,-1.1426327228546143,-0.5291185975074768,9.729436874389648,-25.93994140625,-13.702392578125,5.767822265625
3.8224999000000004,-2.0626046657562256,-0.767341673374176,9.873088836669922,0.732421875,-4.94384765625,3.90625
3.8274999000000003,-2.1068975925445557,-2.070984363555908,9.609128952026367,0.1220703125,-6.591796875,3.265380859375
3.8324999,-1.613093376159668,-1.6352397203445435,9.615114212036133,-3.814697265625,-11.138916015625,23.651123046875
3.8374999,-1.0468647480010986,-1.5771803855895996,9.794678688049316,-1.3427734375,-17.974853515625,10.55908203125
3.8424999,-0.2693476974964142,-0.6518214344978333,10.006566047668457,4.302978515625,-21.42333984375,20.538330078125
3.8474999000000003,-0.2693476974964142,-0.6518214344978333,10.006566047668457,4.302978515625,-21.42333984375,20.538330078125
3.8524999,0.2579752206802368,-0.31184476613998413,10.025120735168457,8.056640625,-15.2587890625,23.956298828125
3.8574999,1.86508309841156,-0.14425064623355865,9.682151794433594,-1.8310546875,-1.15966796875,7.080078125
3.8624999,2.847304344177246,-0.3944447338581085,9.50498104095459,3.570556640625,14.34326171875,-17.578125
3.8674999000000003,3.4524388313293457,-0.767341673374176,9.423578262329102,9.70458984375,32.623291015625,-24.47509765625
3.8724999,3.4087445735931396,-1.2964602708816528,9.434351921081543,14.404296875,38.75732421875,-40.8935546875
3.8774999,2.5300726890563965,-0.35733461380004883,9.520543098449707,7.01904296875,32.89794921875,-41.778564453125
3.8824999,0.9510966539382935,0.019153613597154617,9.481637001037598,-5.706787109375,9.94873046875,-22.186279296875
3.8874999000000003,-0.6356605291366577,-0.7811083197593689,9.6618013381958,-29.11376953125,-10.92529296875,5.31005859375
3.8924999000000002,-1.9638439416885376,-0.8026561141014099,9.702502250671387,-8.9111328125,-11.23046875,6.683349609375
3.8974999,-2.1577742099761963,-2.3564929962158203,9.847949981689453,3.997802734375,-4.39453125,-0.213623046875
3.9024999,-2.2170307636260986,-2.2158336639404297,9.960477828979492,-3.997802734375,-8.941650390625,18.5546875
3.9074999000000004,-1.334767460823059,-1.7950527667999268,10.053253173828125,-2.593994140625,-17.547607421875,15.68603515625
3.9124999000000003,-1.1180921792984009,-0.9271546006202698,10.00716495513916,0.823974609375,-18.73779296875,20.050048828125
3.9174999,-0.050876785069704056,-0.038307227194309235,9.986215591430664,8.23974609375,-17.242431640625,24.383544921875
3.9224999,0.7894880175590515,0.2172738015651703,9.840168952941895,3.90625,-12.0849609375,22.247314453125
3.9274999000000004,1.5508441925048828,0.15143325924873352,9.718663215637207,-1.800537109375,-6.591796875,15.228271484375
3.9324999000000003,2.607285737991333,-0.04249707981944084,9.548076629638672,0.640869140625,5.43212890625,-8.30078125
3.9374999,3.2818520069122314,-0.4489128291606903,9.617507934570312,6.89697265625,26.06201171875,-23.834228515625
3.9424999,3.709217071533203,-1.3479355573654175,9.5007905960083,13.885498046875,37.689208984375,-33.0810546875
3.9474999000000004,2.940678119659424,-0.8062474131584167,9.747393608093262,9.979248046875,38.299560546875,-47.54638671875
3.9524999000000003,1.6394295692443848,-0.5793967843055725,9.753378868103027,-0.67138671875,20.050048828125,-33.111572265625
3.9574999,-0.13108254969120026,-0.4692635238170624,10.14782428741455,-21.1181640625,-3.387451171875,-3.35693359375
3.9624999,-1.68970787525177,-0.7565677165985107,9.761758804321289,-19.683837890625,-15.80810546875,8.4228515625
3.9674999000000004,-2.279878616333008,-1.3084312677383423,9.956287384033203,3.326416015625,-4.974365234375,1.007080078125
3.9724999000000003,-2.3995885848999023,-2.0033483505249023,9.57441234588623,-0.9765625,-5.9814453125,9.033203125
3.9774999,-0.4794389009475708,-0.7649474143981934,9.812037467956543,1.251220703125,-20.99609375,24.35302734375
3.9824999,-0.21308395266532898,-0.3010708689689636,9.997588157653809,5.950927734375,-21.1181640625,21.820068359375
3.9874999,0.5315127968788147,-0.12509703636169434,10.059837341308594,6.500244140625,-13.885498046875,23.37646484375
3.9924999000000003,1.227626919746399,0.03292027488350868,9.947309494018555,-0.42724609375,-9.307861328125,20.1416015625
3.9974999,2.2002713680267334,-0.2041056901216507,9.739013671875,-0.885009765625,0.274658203125,1.3427734375
4.0024999,3.576338768005371,-1.1378443241119385,9.414599418640137,11.16943359375,34.7900390625,-26.55029296875
4.0074999,3.2333693504333496,-1.146224021911621,9.48462963104248,13.0615234375,39.4287109375,-47.05810546875
4.0124999,2.2403743267059326,-0.3770867586135864,9.583989143371582,3.35693359375,28.9306640625,-40.283203125
4.0174999,0.48961424827575684,0.3770867586135864,9.815030097961426,-9.521484375,5.767822265625,-14.95361328125
4.022499900000001,-1.0330979824066162,-0.33997663855552673,9.858723640441895,-28.4423828125,-14.434814453125,6.40869140625
4.0274999000000005,-2.2224178314208984,-2.1332337856292725,9.924564361572266,1.5869140625,-4.974365234375,2.105712890625
4.0324999,-1.755548357963562,-1.8567034006118774,9.983222961425781,-4.730224609375,-11.16943359375,24.078369140625
4.0374999,-1.1605892181396484,-1.844732403755188,9.996390342712402,-1.52587890625,-19.8974609375,12.115478515625
4.0424999,-0.6751648783683777,-1.0881646871566772,9.9772367477417,0.1220703125,-19.989013671875,26.214599609375
4.0474999,-0.32381579279899597,-0.7523778676986694,9.976638793945312,3.509521484375,-22.125244140625,21.54541015625
4.0524999,0.20111294090747833,-0.33698388934135437,9.92097282409668,8.575439453125,-14.495849609375,24.749755859375
4.0574999,0.9157821536064148,-0.06464344263076782,9.745597839355469,1.495361328125,-10.07080078125,21.942138671875
4.062499900000001,1.813009262084961,-0.12210428714752197,9.586981773376465,-1.068115234375,-1.8310546875,9.796142578125
4.0674999000000005,2.7988216876983643,-0.3064578175544739,9.437344551086426,3.0517578125,11.77978515625,-15.9912109375
4.0724999,3.383007049560547,-0.6362590789794922,9.48462963104248,8.758544921875,31.06689453125,-23.74267578125
4.0774999,3.5482068061828613,-1.291671872138977,9.445125579833984,14.83154296875,38.4521484375,-40.130615234375
4.0824999,2.671929121017456,-0.38067805767059326,9.598953247070312,8.087158203125,34.576416015625,-45.806884765625
4.0874999,-0.3944447338581085,-0.7362170219421387,9.874884605407715,-26.824951171875,-8.941650390625,1.861572265625
4.0924999,-1.8046295642852783,-0.8864531517028809,10.06043529510498,-11.71875,-12.420654296875,7.171630859375
4.0974999,-2.1972784996032715,-1.9889830350875854,9.93474006652832,4.39453125,-3.753662109375,0.274658203125
4.1024999,-2.361281394958496,-1.9734207391738892,9.758766174316406,-4.302978515625,-8.636474609375,17.547607421875
4.1074999000000005,-1.5490485429763794,-1.4975731372833252,9.786299705505371,-2.716064453125,-18.37158203125,17.39501953125
4.1124999,-1.304241418838501,-0.7757213711738586,9.774927139282227,-0.1220703125,-20.32470703125,20.56884765625
4.1174999,-0.5201402902603149,-0.5147533416748047,9.8599214553833,1.64794921875,-22.52197265625,23.162841796875
4.1224999,-0.11133038252592087,0.010175357572734356,9.86650562286377,7.904052734375,-18.035888671875,24.322509765625
4.1274999,0.7745242714881897,0.1412578970193863,9.821015357971191,4.547119140625,-12.02392578125,22.705078125
4.1324999,1.5430630445480347,0.08738835901021957,9.754576683044434,-1.3427734375,-6.4697265625,16.11328125
4.1374999,2.60548996925354,-0.13946224749088287,9.600150108337402,0.18310546875,4.57763671875,-7.598876953125
4.1424999,1.7603367567062378,-0.645237386226654,9.804854393005371,-0.244140625,20.81298828125,-36.224365234375
4.147499900000001,0.10773907601833344,-0.25019407272338867,10.176554679870605,-17.791748046875,-1.0986328125,-7.2021484375
4.1524999000000005,-1.4616601467132568,-0.6488286852836609,9.790489196777344,-22.613525390625,-15.0146484375,7.4462890625
4.1574999,-2.1164743900299072,-0.8277952671051025,9.97065258026123,2.532958984375,-4.8828125,2.86865234375
4.1624999,-2.3074119091033936,-1.9369091987609863,9.594164848327637,-1.373291015625,-6.744384765625,7.659912109375
4.1674999,-1.8082208633422852,-1.602918028831482,9.530718803405762,-4.425048828125,-14.373779296875,24.566650390625
4.1724999,-1.2743138074874878,-1.313219666481018,9.71926212310791,-0.640869140625,-21.087646484375,14.617919921875
4.1774999,-0.6500257849693298,-1.0372878313064575,9.827000617980957,0.457763671875,-21.78955078125,25.787353515625
4.1824999,-0.2017114907503128,-0.524330198764801,9.9401273727417,5.340576171875,-19.805908203125,22.8271484375
4.187499900000001,0.6099228858947754,-0.26336219906806946,9.985017776489258,7.87353515625,-11.260986328125,24.505615234375
4.1924999000000005,3.5895068645477295,-1.0492589473724365,9.44871711730957,11.5966796875,35.919189453125,-26.458740234375
4.1974999,3.228580951690674,-1.1115081310272217,9.473855972290039,14.373779296875,38.4521484375,-46.56982421875
4.2024999,2.2152352333068848,-0.36810851097106934,9.561244010925293,3.90625,27.923583984375,-43.792724609375
4.2074999,0.5051765441894531,0.641047477722168,9.624691009521484,-8.453369140625,6.256103515625,-19.622802734375
4.2124999,-0.9977835416793823,-0.2861070930957794,9.712079048156738,-29.60205078125,-13.641357421875,7.537841796875
4.2174999,-2.1116859912872314,-0.1346738487482071,9.79288387298584,-4.852294921875,-11.505126953125,6.7138671875
4.2224999,-2.1541829109191895,-2.075772762298584,9.804854393005371,2.655029296875,-4.180908203125,0.946044921875
4.2274999,-1.843535304069519,-1.9405004978179932,9.836577415466309,-4.852294921875,-10.3759765625,23.895263671875
4.2324999000000005,-1.1450269222259521,-1.868674397468567,9.929951667785645,-1.312255859375,-20.01953125,14.09912109375
4.2374999,-0.7799112200737,-1.082777738571167,9.919178009033203,0.335693359375,-20.99609375,22.857666015625
4.2424999,0.8649053573608398,-0.0065840547904372215,9.792284965515137,2.38037109375,-10.1318359375,21.484375
4.2474999,1.789067268371582,-0.11133038252592087,9.63067626953125,-1.495361328125,-2.86865234375,9.46044921875
4.2524999,2.782062292098999,-0.3082534670829773,9.47265911102295,2.62451171875,12.054443359375,-15.960693359375
4.2574999,3.4751837253570557,-0.5536591410636902,9.516951560974121,9.033203125,31.646728515625,-23.62060546875
4.2624999,3.5709519386291504,-1.3563152551651,9.46727180480957,14.678955078125,37.628173828125,-40.802001953125
4.2674999,2.7036523818969727,-0.37648820877075195,9.595361709594727,7.99560546875,34.271240234375,-45.2880859375
4.272499900000001,1.1869255304336548,-0.47824180126190186,9.819818496704102,-4.180908203125,12.26806640625,-28.01513671875
4.2774999000000005,-0.43275195360183716,-0.586579442024231,9.818022727966309,-26.30615234375,-8.758544921875,2.899169921875
4.2824999,-1.8369512557983398,-0.8756792545318604,9.870096206665039,-13.214111328125,-14.892578125,8.23974609375
4.2874999,-2.1565771102905273,-1.6603789329528809,9.853337287902832,5.0048828125,-2.960205078125,-0.396728515625
4.2924999,-2.2655134201049805,-1.7812861204147339,9.716269493103027,-2.899169921875,-6.7138671875,15.80810546875
4.2974999,-1.1976994276046753,-0.7212532758712769,9.861717224121094,0.213623046875,-19.989013671875,18.951416015625
4.3024999,-0.4638765752315521,-0.5297171473503113,9.966463088989258,1.708984375,-22.003173828125,22.76611328125
4.3074999,-0.10115502029657364,-0.06344634294509888,9.96825885772705,7.476806640625,-17.39501953125,25.20751953125
4.312499900000001,0.7481880187988281,0.11252748221158981,9.888052940368652,4.913330078125,-11.04736328125,23.8037109375
4.3174999000000005,1.5269020795822144,0.0293289702385664,9.785700798034668,-1.129150390625,-6.591796875,16.2353515625
4.3224999,0.11791443079710007,-0.1735796183347702,10.163984298706055,-17.4560546875,-0.732421875,-7.14111328125
4.3274999,0.11791443079710007,-0.1735796183347702,10.163984298706055,-17.4560546875,-0.732421875,-7.14111328125
4.3324999,-2.1057004928588867,-0.861314058303833,9.949105262756348,3.11279296875,-4.82177734375,2.960205078125
4.3374999,-2.278082847595215,-1.8273744583129883,9.566631317138672,-0.640869140625,-6.04248046875,6.195068359375
4.3424999,-1.5364789962768555,-1.3922282457351685,9.431957244873047,-3.997802734375,-13.0615234375,24.078369140625
4.3474999,-1.1899182796478271,-1.2066776752471924,9.70310115814209,-1.495361328125,-19.59228515625,12.5732421875
4.352499900000001,-0.46806642413139343,-0.7739257216453552,9.798270225524902,1.129150390625,-20.294189453125,24.96337890625
4.3574999000000005,-0.29388827085494995,-0.5153518915176392,9.995792388916016,5.18798828125,-21.240234375,22.15576171875
4.3624999,0.41120412945747375,-0.36810851097106934,10.068815231323242,6.561279296875,-13.97705078125,24.23095703125
4.3674999,1.1228805780410767,-0.13826514780521393,9.942521095275879,0.152587890625,-9.002685546875,18.4326171875
4.3724999,2.1057004928588867,-0.33099839091300964,9.73781681060791,-1.068115234375,0.54931640625,2.410888671875
4.3774999,2.9245173931121826,-0.5793967843055725,9.551069259643555,4.57763671875,17.364501953125,-20.782470703125
4.3824999,3.5218706130981445,-1.0504560470581055,9.418789863586426,10.589599609375,33.8134765625,-26.031494140625
4.3874999,3.2184057235717773,-1.1456254720687866,9.458293914794922,13.580322265625,38.299560546875,-43.914794921875
4.3924999,0.5889736413955688,0.5398924946784973,9.615114212036133,-8.056640625,6.683349609375,-18.646240234375
4.397499900000001,-0.8810662031173706,-0.3770867586135864,9.706093788146973,-28.9306640625,-12.51220703125,5.7373046875
4.4024999000000005,-2.053626537322998,-0.23163901269435883,9.786299705505371,-3.84521484375,-8.85009765625,6.134033203125
4.4074999,-2.0817582607269287,-2.054823637008667,9.805453300476074,2.471923828125,-4.974365234375,0.396728515625
4.4124999,-1.8872294425964355,-1.9913772344589233,9.852738380432129,-4.39453125,-9.307861328125,22.430419921875
4.4174999,-1.1127052307128906,-1.8195933103561401,9.953893661499023,-2.3193359375,-18.585205078125,11.8408203125
4.4224999,-0.7930793166160583,-1.062427043914795,9.938929557800293,0.823974609375,-17.9443359375,22.216796875
4.4274999,-0.29568392038345337,-0.6871358752250671,10.001777648925781,2.62451171875,-20.965576171875,19.95849609375
4.4324999,0.1280897855758667,-0.21787235140800476,9.9586820602417,7.8125,-15.2587890625,25.482177734375
4.437499900000001,0.9163807034492493,0.0694318488240242,9.792284965515137,2.197265625,-11.1083984375,19.22607421875
4.4424999000000005,1.71245276927948,-0.05925649031996727,9.637859344482422,-1.5869140625,-3.35693359375,9.552001953125
4.4474999,2.7509377002716064,-0.272938996553421,9.474454879760742,2.349853515625,10.955810546875,-14.6484375
4.4524999,3.4626142978668213,-1.4287399053573608,9.518148422241211,13.5498046875,36.895751953125,-37.139892578125
4.4574999,2.6653449535369873,-0.45429977774620056,9.607931137084961,9.46044921875,33.721923828125,-44.73876953125
4.4624999,1.157596468925476,-0.5045779943466187,9.838972091674805,-3.814697265625,12.115478515625,-31.494140625
4.4674999,-0.3447650372982025,-0.5404910445213318,9.79527759552002,-25.604248046875,-7.01904296875,2.105712890625
4.4724999,-1.7753005027770996,-0.8164227604866028,9.806051254272461,-14.862060546875,-14.70947265625,9.70458984375
4.477499900000001,-2.1045033931732178,-1.5101426839828491,9.727043151855469,5.126953125,-4.08935546875,-0.732421875
4.4824999000000005,-1.3611036539077759,-1.4981716871261597,9.617507934570312,-4.058837890625,-16.90673828125,19.195556640625
4.4874999,-1.3611036539077759,-1.4981716871261597,9.617507934570312,-4.058837890625,-16.90673828125,19.195556640625
4.4924999,-1.1121066808700562,-0.8086416125297546,9.73542308807373,1.190185546875,-18.49365234375,15.350341796875
4.4974999,-0.3166331648826599,-0.5841852426528931,9.880870819091797,1.3427734375,-20.477294921875,21.209716796875
4.5024999,-0.10055647045373917,-0.10594342648983002,9.937732696533203,6.04248046875,-17.852783203125,24.658203125
4.5074999,0.6757634282112122,0.12988543510437012,9.911396026611328,6.072998046875,-11.627197265625,24.2919921875
4.5124999,2.388814687728882,-0.1885433793067932,9.627084732055664,-0.244140625,3.72314453125,-4.7607421875
4.5174999,3.0783448219299316,-0.35434186458587646,9.563638687133789,6.317138671875,24.4140625,-23.162841796875
4.522499900000001,3.5655648708343506,-1.3335703611373901,9.498994827270508,11.962890625,35.919189453125,-29.4189453125
4.5274999000000005,2.894589900970459,-0.8541314601898193,9.633070945739746,12.51220703125,37.017822265625,-44.49462890625
4.5324999,1.8339585065841675,-0.5764040350914001,9.715670585632324,1.28173828125,20.172119140625,-39.9169921875
4.5374999,0.10953472554683685,0.0454898327589035,10.051457405090332,-14.892578125,1.77001953125,-8.697509765625
4.5424999,-1.294066071510315,-0.4638765752315521,9.673172950744629,-26.641845703125,-16.41845703125,10.31494140625
4.5474999,-2.036867141723633,-0.5063736438751221,9.82759952545166,1.556396484375,-7.62939453125,3.60107421875
4.5524999,-2.1523873805999756,-1.834557056427002,9.531316757202148,1.0986328125,-4.425048828125,4.33349609375
4.5574999,-1.4167689085006714,-1.4664485454559326,9.486425399780273,-5.06591796875,-12.237548828125,23.92578125
4.562499900000001,0.22266076505184174,-0.27653029561042786,9.984419822692871,7.598876953125,-14.312744140625,25.87890625
4.5674999000000005,0.8780734539031982,-0.07122749835252762,9.854534149169922,0.335693359375,-12.02392578125,19.989013671875
4.5724999,1.7884687185287476,-0.20231004059314728,9.643844604492188,-1.5869140625,-2.471923828125,5.828857421875
4.5774999,2.7760767936706543,-0.4273650050163269,9.48762321472168,3.448486328125,15.106201171875,-18.646240234375
4.5824999,3.508702516555786,-0.8092401623725891,9.458892822265625,9.429931640625,33.87451171875,-24.96337890625
4.5874999,3.3213562965393066,-1.382651448249817,9.50498104095459,13.031005859375,38.299560546875,-40.52734375
4.5924999,2.5007436275482178,-0.43993455171585083,9.560646057128906,7.659912109375,29.144287109375,-43.9453125
4.5974999,0.849941611289978,0.13946224749088287,9.717466354370117,-6.04248046875,8.148193359375,-23.4375
4.602499900000001,-0.7206547260284424,-0.6063315868377686,9.667187690734863,-28.839111328125,-9.82666015625,8.148193359375
4.6074999000000005,-1.8387469053268433,-0.35494041442871094,9.771934509277344,-8.056640625,-12.6953125,8.514404296875
4.6124999,-2.0907366275787354,-1.9494787454605103,9.768941879272461,4.8828125,-3.021240234375,-1.739501953125
4.6174999,0.016160860657691956,-0.01496376097202301,9.837176322937012,7.354736328125,-15.960693359375,22.27783203125
4.6224999,0.8367735147476196,0.21009120345115662,9.774927139282227,3.326416015625,-13.73291015625,16.082763671875
4.6274999,1.5568296909332275,0.25917232036590576,9.706093788146973,-1.800537109375,-4.7607421875,10.406494140625
4.6324999,2.5043349266052246,0.02454056777060032,9.606135368347168,0.885009765625,9.27734375,-9.735107421875
4.6374999,3.162740468978882,-0.26396074891090393,9.5809965133667,7.38525390625,26.031494140625,-20.050048828125
4.6424999,2.5498247146606445,-0.7511807680130005,9.713275909423828,14.2822265625,37.17041015625,-37.811279296875
4.647499900000001,1.2737152576446533,-0.7954735159873962,9.904812812805176,-1.40380859375,15.289306640625,-30.1513671875
4.6524999000000005,-0.3292027413845062,-0.3208230137825012,10.123882293701172,-21.97265625,-2.74658203125,2.99072265625
4.6574999,-1.935113549232483,-1.978209137916565,9.452308654785156,0.244140625,-2.8076171875,9.735107421875
4.6624999,-1.3856441974639893,-1.6903064250946045,9.291297912597656,-5.828857421875,-14.190673828125,21.759033203125
4.6674999,-0.8637082576751709,-1.1605892181396484,9.527725219726562,3.387451171875,-15.838623046875,10.040283203125
4.6724999,-0.2825157940387726,-0.9798270463943481,9.597756385803223,2.532958984375,-15.869140625,15.655517578125
4.6774999,0.05985504388809204,-0.37469255924224854,9.82640266418457,4.913330078125,-13.641357421875,18.646240234375
4.6824999,0.8744821548461914,0.020350715145468712,9.883264541625977,7.720947265625,-11.932373046875,14.129638671875
4.687499900000001,1.4562731981277466,0.23582886159420013,9.876082420349121,-1.434326171875,-9.27734375,0.823974609375
4.6924999000000005,2.027888774871826,0.12868833541870117,9.762955665588379,-1.03759765625,5.859375,-6.9580078125
4.6974999,2.5528175830841064,-0.07721300423145294,9.608530044555664,4.669189453125,16.4794921875,-9.521484375
4.7024999,2.7060465812683105,-0.8649053573608398,9.807847023010254,8.941650390625,20.477294921875,-29.388427734375
4.7074999,2.1942858695983887,-0.7924807667732239,9.59476375579834,12.51220703125,33.782958984375,-24.810791015625
4.7124999,0.2388216257095337,0.6739677786827087,9.59057331085205,-5.279541015625,5.462646484375,-8.36181640625
4.7174999,-0.6506243348121643,-0.8248024582862854,9.517550468444824,-34.027099609375,-15.9912109375,8.7890625
4.7224999,-1.4867992401123047,-0.524330198764801,9.576807022094727,-7.50732421875,-8.4228515625,7.62939453125
4.727499900000001,-1.3982137441635132,-2.081159830093384,9.704896926879883,8.331298828125,1.52587890625,-1.953125
4.7324999000000005,-1.4574702978134155,-2.738966703414917,9.636661529541016,-4.547119140625,-9.033203125,16.78466796875
4.7374999,-1.0678139925003052,-1.7854759693145752,9.844358444213867,-0.396728515625,-13.458251953125,20.8740234375
4.7424999,-0.5871779918670654,-1.2874820232391357,9.798869132995605,3.570556640625,-21.514892578125,9.307861328125
4.7474999,-0.21368250250816345,-0.727837324142456,9.935338973999023,1.373291015625,-16.998291015625,17.303466796875
4.7524999,0.4554968774318695,0.08259996026754379,9.931747436523438,7.598876953125,-10.8642578125,18.768310546875
4.7574999,1.2413935661315918,0.25977087020874023,9.84256362915039,3.11279296875,-10.223388671875,8.36181640625
4.7624999,1.8315643072128296,0.3381809890270233,9.725247383117676,-2.716064453125,-3.631591796875,-3.265380859375
4.7674999,2.433706045150757,0.048482585698366165,9.800664901733398,1.89208984375,14.404296875,-12.26806640625
4.772499900000001,2.580949544906616,-0.9020155072212219,9.566033363342285,12.115478515625,34.423828125,-31.707763671875
4.7774999000000005,1.9321208000183105,-0.8906430602073669,9.616311073303223,7.32421875,28.99169921875,-25.87890625
4.7824999,0.5728127360343933,-0.18076223134994507,9.64683723449707,-2.838134765625,8.636474609375,-19.4091796875
4.7874999,-0.39624038338661194,-0.586579442024231,9.822811126708984,-27.923583984375,-9.063720703125,5.126953125
4.7924999,-1.5454572439193726,-0.9534908533096313,9.64803409576416,-17.9443359375,-12.847900390625,6.561279296875
4.7974999,-1.6154875755310059,-1.4550760984420776,9.59835433959961,8.48388671875,0.946044921875,-0.335693359375
4.8024999,0.7601590156555176,0.13527239859104156,10.055646896362305,6.195068359375,-9.002685546875,28.86962890625
4.8074999,3.1681272983551025,-0.6913257241249084,9.511565208435059,9.429931640625,28.38134765625,-20.56884765625
4.812499900000001,3.3680431842803955,-1.7244237661361694,9.64923095703125,13.275146484375,36.92626953125,-38.116455078125
4.8174999000000005,2.6150667667388916,-0.945111095905304,9.560646057128906,12.39013671875,37.506103515625,-35.33935546875
4.8224999,1.4317326545715332,-0.7775170207023621,9.818022727966309,-1.129150390625,13.0615234375,-28.38134765625
4.8274999,-0.12389993667602539,0.21128830313682556,10.078392028808594,-17.27294921875,-2.777099609375,-4.69970703125
4.8324999,-1.3772644996643066,-0.0999579206109047,9.587580680847168,-23.49853515625,-12.51220703125,3.173828125
4.8374999,-1.9375077486038208,0.10654197633266449,9.759963035583496,6.378173828125,0.030517578125,2.166748046875
4.8424999,-1.931522250175476,-0.9379284977912903,9.396044731140137,-2.13623046875,-9.70458984375,7.049560546875
4.8474999,-1.6729484796524048,-0.7230489253997803,9.394847869873047,-7.354736328125,-14.984130859375,26.67236328125
4.852499900000001,-1.0091559886932373,-0.6536170840263367,9.646238327026367,0.762939453125,-21.514892578125,14.862060546875
4.8574999000000005,-0.5895721912384033,-0.596754789352417,9.81024169921875,1.03759765625,-21.66748046875,20.56884765625
4.8624999,1.256955862045288,-0.1951274424791336,9.884461402893066,-0.152587890625,-9.490966796875,17.974853515625
4.8674999,2.207453966140747,-0.2735375463962555,9.703699111938477,-1.28173828125,0.54931640625,-0.701904296875
4.8724999,3.0789434909820557,-0.5674257874488831,9.784503936767578,5.584716796875,21.66748046875,-22.125244140625
4.8774999,3.5410242080688477,-1.3796586990356445,9.464279174804688,14.404296875,36.4990234375,-29.632568359375
4.8824999,3.0795419216156006,-1.002571940422058,9.586981773376465,13.0615234375,39.73388671875,-42.022705078125
4.8874999,2.0446481704711914,-0.6829460263252258,9.427168846130371,4.2724609375,22.4609375,-36.163330078125
4.8924999,0.4321534037590027,0.6542156338691711,9.357138633728027,-9.1552734375,3.387451171875,-16.90673828125
4.897499900000001,-0.8702923059463501,-0.3495534360408783,9.424176216125488,-29.144287109375,-10.92529296875,-0.06103515625
4.9024999000000005,-1.9835960865020752,-0.060453593730926514,9.570821762084961,-1.861572265625,-3.631591796875,4.730224609375
4.9074999,-1.8758569955825806,-1.7232266664505005,9.72165584564209,2.74658203125,-6.622314453125,-0.640869140625
4.9124999,-1.137245774269104,-1.4598644971847534,10.02452278137207,-1.52587890625,-15.9912109375,12.3291015625
4.9174999,-1.137245774269104,-1.4598644971847534,10.02452278137207,-1.52587890625,-15.9912109375,12.3291015625
4.9224999,-0.8337807655334473,-0.8954314589500427,9.982025146484375,1.52587890625,-18.524169921875,16.998291015625
4.9274999,-0.2777273952960968,-0.6985083222389221,9.998186111450195,0.6103515625,-21.392822265625,17.2119140625
4.9324999,0.12090718746185303,-0.13706804811954498,9.931148529052734,7.50732421875,-16.2353515625,21.3623046875
4.937499900000001,1.039083480834961,0.03172317147254944,9.799467086791992,1.495361328125,-14.83154296875,12.0849609375
4.9424999000000005,1.7495628595352173,0.10354922711849213,9.63187313079834,-2.899169921875,-4.82177734375,2.62451171875
4.9474999,2.562394380569458,-0.13766659796237946,9.535507202148438,1.495361328125,12.664794921875,-11.138916015625
4.9524999,3.119046211242676,-0.606930136680603,9.370905876159668,8.60595703125,25.45166015625,-19.805908203125
4.9574999,3.0567970275878906,-1.347337007522583,9.633668899536133,10.772705078125,32.2265625,-35.46142578125
4.9624999,1.0606313943862915,-0.536899745464325,9.965864181518555,-2.471923828125,13.61083984375,-20.99609375
4.9674999,-1.4873977899551392,-0.8493430614471436,9.678560256958008,-18.463134765625,-13.24462890625,4.852294921875
4.9724999,-1.7471686601638794,-1.202487826347351,9.639654159545898,6.866455078125,0.213623046875,1.190185546875
4.977499900000001,-1.73519766330719,-1.977012038230896,9.276334762573242,-0.457763671875,-6.317138671875,7.50732421875
4.9824999000000005,-1.3335703611373901,-1.6645687818527222,9.297882080078125,-5.462646484375,-12.115478515625,21.17919921875
4.9874999,-0.7350199222564697,-0.9774328470230103,9.55585765838623,3.387451171875,-16.326904296875,9.918212890625
4.9924999,-0.2406172752380371,-0.7775170207023621,9.766547203063965,1.953125,-16.937255859375,12.969970703125
4.9974999,0.07422025501728058,-0.2364274114370346,9.989208221435547,4.7607421875,-13.24462890625,18.85986328125
5.0024999,0.8373720645904541,0.12749123573303223,9.97065258026123,5.889892578125,-15.350341796875,11.199951171875
5.0074999,1.4083890914916992,0.23104046285152435,9.93354320526123,-1.983642578125,-10.833740234375,-0.579833984375
5.0124999,2.0195090770721436,0.1604115068912506,9.780912399291992,-1.312255859375,7.080078125,-5.9814453125
5.0174999,2.626439332962036,-0.08559270948171616,9.757569313049316,4.425048828125,18.06640625,-12.02392578125
5.022499900000001,2.807201385498047,-0.8984242081642151,9.701904296875,9.185791015625,22.27783203125,-26.9775390625
5.0274999000000005,1.566406488418579,-0.7122750282287598,9.567828178405762,4.486083984375,25.360107421875,-20.843505859375
5.0324999,0.09576806426048279,0.5506663918495178,9.439739227294922,-6.53076171875,3.814697265625,-5.950927734375
5.0374999,-0.6775590777397156,-0.8259995579719543,9.321226119995117,-31.402587890625,-14.617919921875,5.340576171875
5.0424999,-0.6673837304115295,-1.1079168319702148,9.782109260559082,1.40380859375,-22.064208984375,11.383056640625
5.0474999,-0.6673837304115295,-1.1079168319702148,9.782109260559082,1.40380859375,-22.064208984375,11.383056640625
5.0524999,-0.23104046285152435,-0.5476736426353455,9.947908401489258,1.922607421875,-16.7236328125,19.8974609375
5.0574999,0.3166331648826599,0.07003039866685867,9.913790702819824,7.843017578125,-13.641357421875,20.721435546875
5.062499900000001,1.1049240827560425,0.2495955228805542,9.868300437927246,1.617431640625,-11.90185546875,15.167236328125
5.0674999000000005,1.79146146774292,0.21188685297966003,9.70429801940918,-2.99072265625,-3.753662109375,1.52587890625
5.0724999,2.9083564281463623,-1.313219666481018,9.603741645812988,11.444091796875,34.1796875,-38.0859375
5.0774999,2.167351007461548,-0.7918822169303894,9.592369079589844,9.796142578125,33.905029296875,-30.029296875
5.0824999,0.8277952671051025,-0.34177228808403015,9.95090103149414,-3.47900390625,10.406494140625,-19.561767578125
5.0874999,-0.35673606395721436,-0.5398924946784973,9.921571731567383,-26.30615234375,-9.09423828125,3.35693359375
5.0924999,-1.7202339172363281,-0.4465186297893524,9.728240013122559,-12.176513671875,-9.796142578125,3.021240234375
5.0974999,-1.8022353649139404,-0.9738415479660034,9.545083999633789,5.55419921875,-2.197265625,3.570556640625
5.102499900000001,-1.9907786846160889,-1.1815385818481445,9.346364974975586,-6.2255859375,-13.214111328125,15.533447265625
5.1074999000000005,-1.4963760375976562,-0.7140706777572632,9.50617790222168,-5.096435546875,-18.1884765625,26.702880859375
5.1124999,-1.0396820306777954,-0.436343252658844,9.689932823181152,-0.06103515625,-25.848388671875,18.310546875
5.1174999,-0.4967968463897705,-0.4854243993759155,9.913790702819824,1.373291015625,-22.27783203125,26.85546875
5.1224999,2.5761611461639404,-0.4908113479614258,9.649829864501953,0.823974609375,4.364013671875,-8.758544921875
5.1274999,3.2417490482330322,-0.8050503134727478,9.736021041870117,7.9345703125,26.458740234375,-23.74267578125
5.1324999,3.5913026332855225,-1.511339783668518,9.652822494506836,14.70947265625,37.65869140625,-32.257080078125
5.1374999,2.956240653991699,-0.9050082564353943,9.759963035583496,13.092041015625,37.811279296875,-48.15673828125
5.1424999,1.679532527923584,-0.4728548228740692,9.79408073425293,-0.1220703125,19.378662109375,-36.529541015625
5.147499900000001,0.16639702022075653,0.1843535304069519,9.753378868103027,-14.739990234375,0.732421875,-12.14599609375
5.1524999000000005,-1.4047977924346924,-0.05925649031996727,9.437943458557129,-22.216796875,-8.85009765625,-1.312255859375
5.1574999,-2.1104888916015625,-0.22206220030784607,9.46487808227539,2.44140625,-2.899169921875,4.608154296875
5.1624999,-2.1757307052612305,-1.2922704219818115,9.251194953918457,-1.64794921875,-10.284423828125,3.84521484375
5.1674999,-1.7471686601638794,-0.9750386476516724,9.332598686218262,-4.608154296875,-11.65771484375,22.125244140625
5.1724999,-1.0887632369995117,-1.0462661981582642,9.64683723449707,-1.617431640625,-17.15087890625,9.429931640625
5.1774999,1.1510124206542969,-0.09217676520347595,9.982025146484375,-1.190185546875,-13.824462890625,13.0615234375
5.1824999,1.999756932258606,-0.16340427100658417,9.742605209350586,-2.01416015625,-0.48828125,1.922607421875
5.187499900000001,2.741360902786255,-0.456095427274704,9.575610160827637,3.60107421875,17.02880859375,-16.9677734375
5.1924999000000005,3.2369606494903564,-0.8690952062606812,9.319430351257324,10.55908203125,30.1513671875,-21.209716796875
