# Time (seconds),Accel_X,Accel_Y,Accel_Z,Gyro_X,Gyro_Y,Gyro_Z
0.0024999,0.2992752194404602,-0.21787235140800476,9.661202430725098,-5.950927734375,-0.213623046875,0.823974609375
0.0074999,0.2992752194404602,-0.21787235140800476,9.661202430725098,-5.950927734375,-0.213623046875,0.823974609375
0.012499900000000001,0.5153518915176392,-0.2819172441959381,9.685144424438477,2.716064453125,0.640869140625,-2.471923828125
0.0174999,0.3447650372982025,-0.2890998423099518,9.565434455871582,-6.011962890625,-0.030517578125,0.48828125
0.0224999,0.524330198764801,-0.3208230137825012,9.717466354370117,3.662109375,0.67138671875,-2.471923828125
0.0274999,0.32680854201316833,-0.29149407148361206,10.002376556396484,2.25830078125,-0.18310546875,1.40380859375
0.0324999,0.3232172429561615,-0.24839842319488525,9.61571216583252,-6.011962890625,-0.213623046875,0.152587890625
0.0374999,0.5219359993934631,-0.3076549172401428,9.852140426635742,4.5166015625,0.1220703125,-2.410888671875
0.0424999,0.322618693113327,-0.27653029561042786,9.996390342712402,0.946044921875,-0.3662109375,1.708984375
0.0474999,0.4189853072166443,-0.284311443567276,9.57979965209961,-5.401611328125,-0.091552734375,-0.274658203125
0.0524999,0.5823895931243896,-0.3687070608139038,9.831191062927246,5.096435546875,0.3662109375,-2.105712890625
0.0574999,0.345363587141037,-0.29807811975479126,9.901819229125977,-0.030517578125,-0.274658203125,1.861572265625
0.0624999,0.43993455171585083,-0.27054479718208313,9.54209041595459,-4.791259765625,0.030517578125,-0.8544921875
0.0674999,0.5195417404174805,-0.322618693113327,9.925163269042969,5.889892578125,0.18310546875,-1.89208984375
0.0724999,0.2472013235092163,-0.2148796021938324,9.965864181518555,-1.312255859375,-0.48828125,2.044677734375
0.0774999,0.48063600063323975,-0.31543606519699097,10.020332336425781,6.103515625,0.030517578125,-1.52587890625
0.0824999,0.2621650993824005,-0.26336219906806946,9.908403396606445,-2.38037109375,-0.3662109375,2.0751953125
0.0874999,0.5201402902603149,-0.2932897210121155,9.602544784545898,-3.021240234375,0.091552734375,-1.64794921875
0.0924999,0.5027823448181152,-0.3645172119140625,9.989208221435547,5.92041015625,0.06103515625,-1.068115234375
0.0974999,0.304063618183136,-0.2795230448246002,9.822212219238281,-3.631591796875,-0.30517578125,1.953125
0.1024999,0.5231330990791321,-0.28730419278144836,9.61331844329834,-2.166748046875,0.335693359375,-1.922607421875
0.1074999,0.41718965768814087,-0.3232172429561615,10.002974510192871,5.9814453125,0.274658203125,-0.48828125
0.1124999,0.26575639843940735,-0.23942017555236816,9.800664901733398,-4.364013671875,-0.18310546875,1.800537109375
0.1174999,0.5123591423034668,-0.2735375463962555,9.623494148254395,-1.007080078125,0.244140625,-2.227783203125
0.1224999,0.41120412945747375,-0.29867666959762573,9.992799758911133,5.645751953125,0.244140625,-0.152587890625
0.1274999,0.31783026456832886,-0.2645592987537384,9.707889556884766,-5.06591796875,-0.213623046875,1.64794921875
0.1324999,0.5213374495506287,-0.2783259451389313,9.611522674560547,0.091552734375,0.6103515625,-2.532958984375
0.1374999,0.27892449498176575,-0.23942017555236816,9.6989107131958,-5.584716796875,-0.48828125,1.3427734375
0.1424999,0.45010992884635925,-0.2172738015651703,9.714473724365234,1.40380859375,0.152587890625,-2.8076171875
0.1474999,0.3387795388698578,-0.24839842319488525,10.06582260131836,4.302978515625,-0.3662109375,0.640869140625
0.1524999,0.28072014451026917,-0.19692309200763702,9.706093788146973,-5.859375,-0.457763671875,1.129150390625
0.1574999,0.49619829654693604,-0.2561795711517334,9.70429801940918,2.593994140625,0.213623046875,-2.593994140625
0.1624999,0.395043283700943,-0.29388827085494995,9.959878921508789,3.2958984375,-0.213623046875,1.068115234375
0.1674999,0.34835633635520935,-0.27892449498176575,9.551667213439941,-5.889892578125,0.030517578125,0.701904296875
0.1724999,0.5422866940498352,-0.322618693113327,9.674370765686035,3.387451171875,0.48828125,-2.50244140625
0.17749990000000002,0.3579331636428833,-0.2819172441959381,9.97364616394043,2.227783203125,-0.030517578125,1.129150390625
0.1824999,0.3345896899700165,-0.2454056739807129,9.610923767089844,-6.103515625,0.274658203125,0.213623046875
0.1874999,0.5231330990791321,-0.28371289372444153,9.851541519165039,4.302978515625,0.457763671875,-2.3193359375
0.1924999,0.314238965511322,-0.2537853717803955,10.034099578857422,1.129150390625,-0.091552734375,1.617431640625
0.1974999,0.40880993008613586,-0.24899697303771973,9.63067626953125,-4.180908203125,-0.1220703125,-1.007080078125
0.2024999,0.48482584953308105,-0.31603461503982544,10.037092208862305,6.34765625,0.457763671875,-1.617431640625
0.20749990000000001,0.25917232036590576,-0.2495955228805542,9.942521095275879,-2.288818359375,-0.18310546875,1.922607421875
0.2124999,0.5039794445037842,-0.2777273952960968,9.628880500793457,-3.60107421875,0.1220703125,-1.5869140625
0.2174999,0.5009866952896118,-0.34835633635520935,10.002974510192871,5.889892578125,0.06103515625,-1.068115234375
0.2224999,0.28969839215278625,-0.2795230448246002,9.832387924194336,-3.326416015625,-0.244140625,2.13623046875
0.2274999,0.5183446407318115,-0.29628247022628784,9.612719535827637,-2.288818359375,0.213623046875,-1.922607421875
0.2324999,0.2693476974964142,-0.23163901269435883,9.819219589233398,-4.180908203125,-0.30517578125,2.0751953125
0.2374999,0.5213374495506287,-0.25677812099456787,9.64923095703125,-1.312255859375,0.244140625,-2.13623046875
0.2424999,0.424970805644989,-0.28550854325294495,10.011354446411133,5.4931640625,-0.091552734375,-0.457763671875
0.2474999,0.32680854201316833,-0.2603694200515747,9.73781681060791,-4.8828125,-0.457763671875,1.678466796875
0.2524999,0.5392939448356628,-0.2944868206977844,9.616909980773926,0.30517578125,0.30517578125,-2.38037109375
0.2574999,0.40282443165779114,-0.3034650683403015,9.991601943969727,5.37109375,-0.06103515625,0.030517578125
0.2624999,0.29568392038345337,-0.2495955228805542,9.692925453186035,-5.584716796875,-0.274658203125,1.556396484375
0.2674999,0.4602852761745453,-0.21308395266532898,9.695918083190918,1.03759765625,0.42724609375,-2.349853515625
0.2724999,0.3423708379268646,-0.23283611238002777,10.05923843383789,4.0283203125,-0.030517578125,0.6103515625
0.2774999,0.27892449498176575,-0.17896658182144165,9.716269493103027,-6.103515625,-0.1220703125,1.03759765625
0.2824999,0.48722004890441895,-0.23762452602386475,9.710882186889648,2.410888671875,0.823974609375,-2.471923828125
0.28749990000000003,0.3974374830722809,-0.2735375463962555,9.979032516479492,3.692626953125,0.091552734375,0.946044921875
0.2924999,0.547075092792511,-0.33339259028434753,9.674370765686035,3.41796875,0.18310546875,-2.288818359375
0.2974999,0.363918662071228,-0.2944868206977844,9.979631423950195,2.50244140625,-0.457763671875,1.312255859375
0.3024999,0.33279404044151306,-0.28131869435310364,9.607931137084961,-5.859375,-0.1220703125,0.152587890625
0.3074999,0.517746090888977,-0.3130418658256531,9.84256362915039,4.57763671875,-0.06103515625,-2.3193359375
0.3124999,0.517746090888977,-0.3130418658256531,9.84256362915039,4.57763671875,-0.06103515625,-2.3193359375
0.3174999,0.3100491166114807,-0.26336219906806946,10.02571964263916,1.15966796875,-0.274658203125,1.77001953125
0.3224999,0.34416648745536804,-0.2849099934101105,9.911396026611328,-0.091552734375,-0.1220703125,1.953125
0.3274999,0.4387374520301819,-0.2753331959247589,9.531316757202148,-5.035400390625,0.030517578125,-0.640869140625
0.3324999,0.5345055460929871,-0.3321954905986786,9.895833969116211,5.67626953125,0.335693359375,-1.953125
0.3374999,0.2621650993824005,-0.228047713637352,9.955090522766113,-1.007080078125,-0.152587890625,2.044677734375
0.3424999,0.49140989780426025,-0.3100491166114807,10.038887977600098,6.04248046875,0.152587890625,-1.617431640625
0.34749990000000003,0.2645592987537384,-0.24241292476654053,9.944316864013672,-2.410888671875,-0.457763671875,1.953125
0.35249990000000003,0.5135562419891357,-0.28311434388160706,9.625288963317871,-3.448486328125,0.1220703125,-1.556396484375
0.3574999,0.5117605924606323,-0.345363587141037,9.99459457397461,6.2255859375,0.579833984375,-1.007080078125
0.3624999,0.30466216802597046,-0.2819172441959381,9.813234329223633,-3.326416015625,-0.3662109375,2.166748046875
0.3674999,0.5351040959358215,-0.304063618183136,9.608530044555664,-2.410888671875,-0.335693359375,-1.800537109375
0.3724999,0.43275195360183716,-0.3298012912273407,9.99339771270752,5.950927734375,0.030517578125,-0.732421875
0.3774999,0.2735375463962555,-0.243011474609375,9.815628051757812,-4.364013671875,-0.579833984375,1.953125
0.3824999,0.5165489912033081,-0.2759317457675934,9.643245697021484,-1.40380859375,-0.335693359375,-2.288818359375
0.3874999,0.41359832882881165,-0.2711433470249176,9.995193481445312,5.67626953125,-0.42724609375,-0.213623046875
0.3924999,0.3172317147254944,-0.25677812099456787,9.717466354370117,-5.06591796875,-0.732421875,1.708984375
0.3974999,0.5183446407318115,-0.2795230448246002,9.592369079589844,0.1220703125,-0.54931640625,-2.62451171875
0.4024999,0.2819172441959381,-0.2454056739807129,9.673172950744629,-5.43212890625,0.213623046875,1.678466796875
0.4074999,0.45010992884635925,-0.22685061395168304,9.677961349487305,1.15966796875,0.274658203125,-2.532958984375
0.41249990000000003,0.33937808871269226,-0.22864626348018646,10.052056312561035,4.180908203125,0.030517578125,0.396728515625
0.41749990000000003,0.2735375463962555,-0.19931729137897491,9.701305389404297,-6.04248046875,-0.396728515625,1.129150390625
0.4224999,0.48602294921875,-0.25498247146606445,9.68574333190918,2.5634765625,0.030517578125,-2.50244140625
0.4274999,0.38965633511543274,-0.2669534981250763,9.952696800231934,3.387451171875,-0.274658203125,0.79345703125
0.4324999,0.3423708379268646,-0.28072014451026917,9.536704063415527,-6.04248046875,-0.518798828125,0.701904296875
0.4374999,0.535702645778656,-0.33039984107017517,9.644442558288574,3.7841796875,0.762939453125,-2.3193359375
0.4424999,0.35254621505737305,-0.272938996553421,9.9586820602417,2.471923828125,-0.06103515625,1.3427734375
0.4474999,0.3256114423274994,-0.28131869435310364,9.571419715881348,-5.889892578125,0.1220703125,0.244140625
0.4524999,0.517746090888977,-0.2908954918384552,9.813234329223633,4.57763671875,0.67138671875,-2.38037109375
0.4574999,0.3130418658256531,-0.23822307586669922,9.990405082702637,1.129150390625,0.213623046875,1.708984375
0.4624999,0.52552729845047,-0.32441434264183044,9.886856079101562,5.706787109375,-0.335693359375,-2.01416015625
0.4674999,0.24660277366638184,-0.22385786473751068,9.943120002746582,-1.251220703125,-0.640869140625,2.01416015625
0.47249990000000003,0.3932476341724396,-0.262763649225235,9.608530044555664,-4.364013671875,-0.152587890625,-1.251220703125
0.47749990000000003,0.46806642413139343,-0.2932897210121155,10.019135475158691,6.256103515625,0.518798828125,-1.40380859375
0.4824999,0.24899697303771973,-0.27234044671058655,9.909002304077148,-2.532958984375,-0.18310546875,2.288818359375
0.4874999,0.497395396232605,-0.33279404044151306,9.601945877075195,-3.326416015625,0.06103515625,-1.40380859375
0.4924999,0.49978959560394287,-0.3315969407558441,9.964667320251465,6.011962890625,0.244140625,-1.129150390625
0.4974999,0.28969839215278625,-0.2998737692832947,9.799467086791992,-3.387451171875,-0.244140625,2.105712890625
0.5024999,0.5033808946609497,-0.29388827085494995,9.57979965209961,-0.701904296875,0.30517578125,-2.13623046875
0.5074999,0.41120412945747375,-0.22685061395168304,9.943717956542969,5.828857421875,-0.244140625,-0.518798828125
0.5124999,0.3172317147254944,-0.2998737692832947,9.672574996948242,-5.31005859375,-0.42724609375,1.708984375
0.5174999,0.5267243981361389,-0.30466216802597046,9.572616577148438,0.335693359375,0.244140625,-2.349853515625
0.5224999,0.38965633511543274,-0.2322375625371933,9.961674690246582,4.791259765625,-0.06103515625,0
0.5274999,0.2825157940387726,-0.29209262132644653,9.670180320739746,-5.92041015625,-0.213623046875,1.251220703125
0.5324999,0.4387374520301819,-0.21308395266532898,9.670180320739746,1.678466796875,0.213623046875,-2.5634765625
0.5374999,0.3256114423274994,-0.20470423996448517,10.047266960144043,4.119873046875,-0.30517578125,0.42724609375
0.5424999,0.26156654953956604,-0.24121582508087158,9.668384552001953,-6.16455078125,-0.244140625,1.15966796875
0.5474999,0.47884035110473633,-0.23343466222286224,9.679159164428711,2.86865234375,0.3662109375,-2.593994140625
0.5524999,0.345363587141037,-0.3106476664543152,9.53969669342041,-6.072998046875,-0.152587890625,0.48828125
0.5574999,0.5428852438926697,-0.31603461503982544,9.6803560256958,3.631591796875,0.30517578125,-2.74658203125
0.5624999,0.333991140127182,-0.2687491476535797,9.619303703308105,-5.859375,-0.06103515625,0.30517578125
0.5674999000000001,0.5273229479789734,-0.2603694200515747,9.856928825378418,4.425048828125,0.457763671875,-2.38037109375
0.5724999000000001,0.31842881441116333,-0.24241292476654053,10.019135475158691,0.91552734375,0,1.739501953125
0.5774999000000001,0.40043023228645325,-0.25258827209472656,9.571419715881348,-5.462646484375,0,-0.152587890625
0.5824999,0.5793967843055725,-0.32381579279899597,9.806051254272461,4.974365234375,0.48828125,-2.197265625
0.5874999,0.34656068682670593,-0.2968810200691223,9.867103576660156,0,-0.274658203125,1.922607421875
0.5924999,0.4411316514015198,-0.2890998423099518,9.486425399780273,-5.035400390625,-0.030517578125,-0.640869140625
0.5974999,0.5303156971931458,-0.33997663855552673,9.869498252868652,5.859375,0.213623046875,-1.922607421875
0.6024999,0.25318682193756104,-0.24181437492370605,9.934141159057617,-1.0986328125,-0.274658203125,2.105712890625
0.6074999,0.4794389009475708,-0.2968810200691223,10.037092208862305,6.072998046875,0.244140625,-1.739501953125
0.6124999,0.25977087020874023,-0.25318682193756104,9.934141159057617,-2.349853515625,-0.42724609375,2.13623046875
0.6174999,0.50876784324646,-0.29867666959762573,9.624691009521484,-3.2958984375,0.152587890625,-1.52587890625
0.6224999,0.5129576921463013,-0.333991140127182,9.971850395202637,6.317138671875,0.030517578125,-1.28173828125
0.6274999,0.30705636739730835,-0.2849099934101105,9.803058624267578,-3.47900390625,-0.3662109375,1.922607421875
0.6324999,0.5374982953071594,-0.292691171169281,9.586383819580078,-2.288818359375,0.1220703125,-1.739501953125
0.6374999,0.4387374520301819,-0.28072014451026917,9.971850395202637,6.16455078125,-0.030517578125,-0.79345703125
0.6424999,0.5327098965644836,-0.3190273642539978,9.548674583435059,0.18310546875,0.48828125,-2.38037109375
0.6474999,0.3010708689689636,-0.2759317457675934,9.654618263244629,-5.828857421875,-0.274658203125,1.495361328125
0.6524999,0.4692635238170624,-0.2406172752380371,9.657012939453125,1.15966796875,0.396728515625,-2.5634765625
0.6574999,0.35075053572654724,-0.19452889263629913,10.052056312561035,4.425048828125,0.06103515625,0.6103515625
0.6624999,0.2753331959247589,-0.21847090125083923,9.683348655700684,-5.92041015625,-0.42724609375,1.190185546875
0.6674999,0.4794389009475708,-0.2346317619085312,9.68274974822998,2.74658203125,0.3662109375,-2.593994140625
0.6724999,0.3794809579849243,-0.228047713637352,9.955090522766113,3.5400390625,-0.18310546875,1.03759765625
0.6774999,0.33039984107017517,-0.2998737692832947,9.531915664672852,-6.103515625,-0.335693359375,0.79345703125
0.6824999,0.524330198764801,-0.2867056429386139,9.64683723449707,3.814697265625,0.152587890625,-2.838134765625
0.6874999,0.34356793761253357,-0.2651578485965729,9.956886291503906,2.25830078125,-0.30517578125,1.28173828125
0.6924999000000001,0.3106476664543152,-0.3076549172401428,9.57860279083252,-5.67626953125,-0.274658203125,0.244140625
0.6974999000000001,0.49978959560394287,-0.2454056739807129,9.822811126708984,4.638671875,0.06103515625,-2.5634765625
0.7024999000000001,0.304063618183136,-0.26336219906806946,10.00836181640625,1.312255859375,-0.457763671875,1.617431640625
0.7074999,0.5752069354057312,-0.2819172441959381,9.815030097961426,5.06591796875,0.1220703125,-2.25830078125
0.7124999,0.36810851097106934,-0.2968810200691223,9.879075050354004,-0.152587890625,-0.244140625,1.8310546875
0.7174999,0.46507367491722107,-0.2968810200691223,9.480440139770508,-5.035400390625,0.18310546875,-0.67138671875
0.7224999,0.5668272376060486,-0.3423708379268646,9.832986831665039,5.645751953125,0.42724609375,-2.105712890625
0.7274999,0.29867666959762573,-0.2849099934101105,9.906607627868652,-0.8544921875,-0.1220703125,1.983642578125
0.7324999,0.41718965768814087,-0.2663549482822418,9.583391189575195,-4.39453125,0.30517578125,-0.946044921875
0.7374999,0.4908113479614258,-0.3076549172401428,10.002376556396484,5.79833984375,0.396728515625,-1.46484375
0.7424999,0.25019407272338867,-0.2585737705230713,9.946710586547852,-2.13623046875,-0.335693359375,2.13623046875
0.7474999,0.4812345504760742,-0.284311443567276,9.607333183288574,-3.692626953125,0.18310546875,-1.52587890625
0.7524999,0.5057750940322876,-0.353743314743042,9.985017776489258,6.072998046875,0.18310546875,-1.251220703125
0.7574999,0.29867666959762573,-0.3082534670829773,9.825204849243164,-3.173828125,-0.244140625,2.13623046875
0.7624999,0.5279214978218079,-0.3082534670829773,9.583989143371582,-2.655029296875,0.1220703125,-1.861572265625
0.7674999,0.26396074891090393,-0.24420857429504395,9.827000617980957,-3.997802734375,-0.030517578125,2.01416015625
0.7724999,0.5015852451324463,-0.2693476974964142,9.658209800720215,-1.46484375,0.396728515625,-2.01416015625
0.7774999,0.4040215313434601,-0.2669534981250763,10.00836181640625,5.950927734375,0.42724609375,-0.48828125
0.7824999,0.2998737692832947,-0.2555810213088989,9.75517463684082,-4.8828125,-0.030517578125,1.800537109375
0.7874999,0.536899745464325,-0.2908954918384552,9.577404975891113,-0.3662109375,0.54931640625,-2.288818359375
0.7924999,0.4231751561164856,-0.28790274262428284,9.938331604003906,5.37109375,0.30517578125,0.091552734375
0.7974999,0.31543606519699097,-0.28550854325294495,9.640253067016602,-5.279541015625,-0.1220703125,1.5869140625
0.8024999,0.36990416049957275,-0.23762452602386475,9.983820915222168,4.058837890625,0.06103515625,0.701904296875
0.8074999,0.406415730714798,-0.26096799969673157,9.920374870300293,2.960205078125,-0.396728515625,1.220703125
0.8124999,0.3513490855693817,-0.2890998423099518,9.533112525939941,-5.950927734375,-0.3662109375,0.48828125
0.8174999000000001,0.5273229479789734,-0.2819172441959381,9.747992515563965,4.150390625,0.335693359375,-2.74658203125
0.8224999000000001,0.31184476613998413,-0.2298433631658554,10.008959770202637,1.8310546875,-0.48828125,1.312255859375
0.8274999000000001,0.33099839091300964,-0.26156654953956604,9.617507934570312,-5.950927734375,-0.48828125,0.091552734375
0.8324999000000001,0.5297171473503113,-0.28072014451026917,9.851541519165039,4.8828125,-0.244140625,-2.50244140625
0.8374999,0.3292027413845062,-0.2663549482822418,9.95329475402832,0.54931640625,-0.67138671875,1.861572265625
0.8424999,0.4345476031303406,-0.32860419154167175,9.528324127197266,-5.218505859375,-0.30517578125,-0.396728515625
0.8474999,0.5740098357200623,-0.3357867896556854,9.814431190490723,5.767822265625,0.67138671875,-2.349853515625
0.8524999,0.32381579279899597,-0.30286651849746704,9.888651847839355,-0.457763671875,-0.54931640625,1.8310546875
0.8574999,0.41718965768814087,-0.3196259140968323,9.537302017211914,-4.638671875,-0.30517578125,-0.885009765625
0.8624999,0.42616790533065796,-0.28550854325294495,9.617507934570312,-3.570556640625,0.06103515625,-1.220703125
0.8674999,0.497395396232605,-0.27892449498176575,10.016142845153809,6.378173828125,0.457763671875,-1.556396484375
0.8724999,0.2849099934101105,-0.3280056416988373,9.87967300415039,-2.777099609375,-0.48828125,1.983642578125
0.8774999,0.5351040959358215,-0.31603461503982544,9.621099472045898,-2.838134765625,-0.762939453125,-1.495361328125
0.8824999,0.30526071786880493,-0.29388827085494995,9.841964721679688,-3.753662109375,-0.335693359375,2.01416015625
0.8874999,0.5249287486076355,-0.26396074891090393,9.65222454071045,-1.89208984375,-0.030517578125,-1.983642578125
0.8924999,0.4183867573738098,-0.2735375463962555,10.006566047668457,5.9814453125,0.579833984375,-0.701904296875
0.8974999,0.2735375463962555,-0.2513911724090576,9.798270225524902,-4.302978515625,-0.244140625,1.922607421875
0.9024999,0.5147533416748047,-0.25498247146606445,9.601346969604492,-0.732421875,0.06103515625,-2.227783203125
0.9074999,0.5147533416748047,-0.25498247146606445,9.601346969604492,-0.732421875,0.06103515625,-2.227783203125
0.9124999,0.3214215636253357,-0.2645592987537384,9.679159164428711,-5.18798828125,-0.335693359375,1.678466796875
0.9174999,0.5159504413604736,-0.2663549482822418,9.600749015808105,0.18310546875,0.274658203125,-2.471923828125
0.9224999,0.3758896589279175,-0.2861070930957794,9.990405082702637,4.7607421875,-0.244140625,0.30517578125
0.9274999,0.2759317457675934,-0.2388216257095337,9.707290649414062,-5.67626953125,-0.274658203125,1.3427734375
0.9324999,0.44592007994651794,-0.21188685297966003,9.720458984375,1.52587890625,0.42724609375,-2.38037109375
0.9374999,0.3471592366695404,-0.262763649225235,10.074202537536621,4.180908203125,0.06103515625,0.762939453125
0.9424999000000001,0.29388827085494995,-0.21009120345115662,9.702502250671387,-5.859375,0,0.946044921875
0.9474999000000001,0.5057750940322876,-0.2687491476535797,9.70310115814209,2.38037109375,0.54931640625,-2.532958984375
0.9524999000000001,0.40222588181495667,-0.30047231912612915,9.955689430236816,3.23486328125,-0.030517578125,1.0986328125
0.9574999000000001,0.35075053572654724,-0.2849099934101105,9.552266120910645,-6.195068359375,0.1220703125,0.640869140625
0.9624999,0.535702645778656,-0.3292027413845062,9.673172950744629,3.692626953125,0.396728515625,-2.44140625
0.9674999,0.3423708379268646,-0.2950853705406189,9.97364616394043,2.288818359375,-0.18310546875,1.434326171875
0.9724999,0.5135562419891357,-0.2998737692832947,9.845556259155273,4.180908203125,0.396728515625,-2.25830078125
0.9774999,0.5135562419891357,-0.2998737692832947,9.845556259155273,4.180908203125,0.396728515625,-2.25830078125
0.9824999,0.31364041566848755,-0.2603694200515747,10.027515411376953,1.0986328125,-0.152587890625,1.800537109375
0.9874999,0.4010287821292877,-0.262763649225235,9.597756385803223,-5.767822265625,0.1220703125,-0.396728515625
0.9924999,0.5746083855628967,-0.33937808871269226,9.837775230407715,5.06591796875,0.457763671875,-2.166748046875
0.9974999,0.35494041442871094,-0.29568392038345337,9.903017044067383,-0.06103515625,-0.06103515625,1.922607421875
1.0024999,0.4429273009300232,-0.28969839215278625,9.517550468444824,-5.126953125,0.06103515625,-0.885009765625
1.0074999000000002,0.535702645778656,-0.35015198588371277,9.880870819091797,5.706787109375,0.457763671875,-1.89208984375
1.0124999000000001,0.26096799969673157,-0.2388216257095337,9.940725326538086,-1.251220703125,-0.06103515625,2.0751953125
1.0174999000000002,0.40282443165779114,-0.24480712413787842,9.609128952026367,-4.425048828125,0.244140625,-1.068115234375
1.0224999000000001,0.4794389009475708,-0.30945056676864624,10.035296440124512,5.9814453125,0.457763671875,-1.52587890625
1.0274999,0.25498247146606445,-0.2495955228805542,9.953893661499023,-2.166748046875,-0.1220703125,2.044677734375
1.0324999000000001,0.5315127968788147,-0.2992752194404602,9.591172218322754,-2.532958984375,0.30517578125,-2.197265625
1.0374999,0.4387374520301819,-0.3148375153541565,9.996989250183105,5.9814453125,0.244140625,-0.762939453125
1.0424999000000001,0.26755204796791077,-0.22864626348018646,9.805453300476074,-4.150390625,-0.274658203125,1.983642578125
1.0474999,0.50876784324646,-0.2663549482822418,9.646238327026367,-1.373291015625,0.48828125,-2.25830078125
1.0524999000000002,0.4124012291431427,-0.2669534981250763,9.992799758911133,5.828857421875,0.1220703125,-0.244140625
1.0574999,0.3130418658256531,-0.25498247146606445,9.726444244384766,-4.913330078125,-0.274658203125,1.922607421875
1.0624999000000002,0.5327098965644836,-0.30047231912612915,9.572616577148438,-0.152587890625,0.274658203125,-2.50244140625
1.0674999,0.40880993008613586,-0.3016694188117981,9.925761222839355,5.340576171875,-0.1220703125,0.06103515625
1.0724999000000002,0.2932897210121155,-0.284311443567276,9.62947940826416,-5.37109375,-0.396728515625,1.5869140625
1.0774999,0.4620809257030487,-0.25079262256622314,9.625288963317871,1.03759765625,0.335693359375,-2.716064453125
1.0824999000000002,0.46806642413139343,-0.22864626348018646,9.702502250671387,2.288818359375,0.274658203125,-2.685546875
1.0874999,0.3794809579849243,-0.24241292476654053,9.978434562683105,3.7841796875,-0.274658203125,0.8544921875
1.0924999000000002,0.3381809890270233,-0.2783259451389313,9.55585765838623,-6.04248046875,-0.091552734375,0.79345703125
1.0974999,0.536899745464325,-0.33698388934135437,9.608530044555664,3.41796875,0.18310546875,-2.716064453125
1.1024999000000002,0.3734954595565796,-0.2849099934101105,9.901819229125977,2.838134765625,-0.335693359375,1.28173828125
1.1074999,0.32620999217033386,-0.3016694188117981,9.519944190979004,-6.04248046875,-0.18310546875,0.18310546875
1.1124999000000002,0.5003881454467773,-0.29388827085494995,9.75637149810791,4.180908203125,0.1220703125,-2.5634765625
1.1174999,0.2968810200691223,-0.22864626348018646,10.001777648925781,1.617431640625,-0.30517578125,1.64794921875
1.1224999000000002,0.568622887134552,-0.3357867896556854,9.812037467956543,5.615234375,0.396728515625,-2.044677734375
1.1274999,0.3034650683403015,-0.27712884545326233,9.891644477844238,-1.007080078125,-0.1220703125,2.01416015625
1.1324999000000002,0.40282443165779114,-0.3034650683403015,9.567230224609375,-4.486083984375,0.152587890625,-0.885009765625
1.1374999000000001,0.4776432514190674,-0.2693476974964142,9.978434562683105,5.9814453125,0.18310546875,-1.708984375
1.1424999000000002,0.2298433631658554,-0.2555810213088989,9.956886291503906,-2.25830078125,-0.213623046875,1.983642578125
1.1474999000000001,0.4465186297893524,-0.31364041566848755,9.602544784545898,-3.753662109375,0.335693359375,-1.28173828125
1.1524999000000002,0.5009866952896118,-0.28550854325294495,9.989806175231934,6.103515625,0.3662109375,-1.129150390625
1.1574999000000001,0.29209262132644653,-0.3477577865123749,9.841964721679688,-3.2958984375,-0.274658203125,2.0751953125
1.1624999,0.524330198764801,-0.34416648745536804,9.59057331085205,-2.50244140625,0.213623046875,-1.739501953125
1.1674999000000001,0.4638765752315521,-0.30526071786880493,10.001777648925781,6.011962890625,0.213623046875,-0.823974609375
1.1724999,0.2621650993824005,-0.3124433159828186,9.819219589233398,-4.0283203125,-0.244140625,2.044677734375
1.1774999000000002,0.49619829654693604,-0.29209262132644653,9.651625633239746,-1.495361328125,0.457763671875,-1.983642578125
1.1824999,0.4279635548591614,-0.2795230448246002,9.88625717163086,5.401611328125,0.244140625,-0.213623046875
1.1874999000000002,0.3274070918560028,-0.3064578175544739,9.59476375579834,-5.31005859375,-0.244140625,1.52587890625
1.1924999,0.5021837949752808,-0.262763649225235,9.560047149658203,0.67138671875,0.42724609375,-2.410888671875
1.1974999000000002,0.365115761756897,-0.25079262256622314,9.965864181518555,4.791259765625,-0.1220703125,0.42724609375
1.2024999,0.3597288131713867,-0.24121582508087158,10.08198356628418,4.150390625,-0.18310546875,0.732421875
1.2074999000000002,0.31364041566848755,-0.2232593148946762,9.68933391571045,-5.950927734375,-0.30517578125,0.79345703125
1.2124999,0.524330198764801,-0.2998737692832947,9.700706481933594,3.0517578125,0.42724609375,-2.471923828125
1.2174999000000002,0.4010287821292877,-0.30705636739730835,9.958083152770996,3.11279296875,-0.213623046875,1.190185546875
1.2224999,0.3298012912273407,-0.23523031175136566,9.965266227722168,0.8544921875,-0.18310546875,1.617431640625
1.2274999000000002,0.4225766062736511,-0.26815059781074524,9.530718803405762,-5.43212890625,-0.091552734375,-0.3662109375
1.2324999,0.5770025849342346,-0.3292027413845062,9.79288387298584,5.43212890625,0.244140625,-2.25830078125
1.2374999000000002,0.32860419154167175,-0.27892449498176575,9.854534149169922,-0.213623046875,-0.48828125,1.89208984375
1.2424999,0.4255693554878235,-0.2998737692832947,9.494805335998535,-4.69970703125,-0.091552734375,-0.823974609375
1.2474999000000002,0.5081692934036255,-0.30945056676864624,9.903017044067383,5.950927734375,0.091552734375,-1.953125
1.2524999,0.24480712413787842,-0.23942017555236816,9.939528465270996,-1.434326171875,-0.42724609375,1.922607421875
1.2574999000000002,0.41359832882881165,-0.28072014451026917,9.617507934570312,-3.936767578125,0,-1.03759765625
1.2624999000000001,0.5165489912033081,-0.3274070918560028,9.948506355285645,6.28662109375,-0.030517578125,-1.190185546875
1.2674999000000002,0.3064578175544739,-0.31842881441116333,9.786299705505371,-3.692626953125,-0.54931640625,1.8310546875
1.2724999000000001,0.5279214978218079,-0.333991140127182,9.57860279083252,-1.77001953125,0.335693359375,-2.044677734375
1.2774999000000002,0.42676645517349243,-0.25318682193756104,9.965864181518555,6.195068359375,0,-0.762939453125
1.2824999000000001,0.26755204796791077,-0.2753331959247589,9.764751434326172,-4.45556640625,-0.3662109375,1.708984375
1.2874999,0.5123591423034668,-0.28790274262428284,9.586383819580078,-0.823974609375,0.3662109375,-2.0751953125
1.2924999000000001,0.4129997789859772,-0.21667525172233582,9.95090103149414,5.79833984375,0.06103515625,-0.396728515625
1.2974999,0.3166331648826599,-0.31184476613998413,9.68274974822998,-5.279541015625,-0.1220703125,1.64794921875
1.3024999000000002,0.5285200476646423,-0.27653029561042786,9.584588050842285,0.396728515625,0.18310546875,-2.410888671875
1.3074999,0.3998316824436188,-0.2621650993824005,9.983222961425781,4.913330078125,-0.091552734375,0.06103515625
1.3124999000000002,0.47824180126190186,-0.20051439106464386,9.680954933166504,2.50244140625,0.396728515625,-2.44140625
1.3174999,0.39384618401527405,-0.26096799969673157,9.94970417022705,3.5400390625,-0.244140625,0.91552734375
1.3224999000000002,0.34656068682670593,-0.25498247146606445,9.53849983215332,-6.072998046875,-0.244140625,0.701904296875
1.3274999,0.5398924946784973,-0.29867666959762573,9.640253067016602,3.082275390625,0.335693359375,-2.532958984375
1.3324999000000002,0.3734954595565796,-0.30885201692581177,9.948506355285645,2.62451171875,-0.1220703125,1.312255859375
1.3374999,0.33339259028434753,-0.2711433470249176,9.592369079589844,-5.828857421875,-0.18310546875,0.335693359375
1.3424999000000002,0.5219359993934631,-0.304063618183136,9.812037467956543,3.997802734375,0.457763671875,-2.38037109375
1.3474999,0.3208230137825012,-0.26575639843940735,10.02811336517334,1.556396484375,-0.091552734375,1.617431640625
1.3524999000000002,0.3770867586135864,-0.25438392162323,9.607931137084961,-5.79833984375,0.152587890625,-0.1220703125
1.3574999,0.35434186458587646,-0.27892449498176575,9.926360130310059,0.42724609375,0,1.861572265625
1.3624999000000002,0.3968389332294464,-0.23762452602386475,9.595361709594727,-4.669189453125,0.244140625,-0.885009765625
1.3674999,0.4800374507904053,-0.2902969419956207,10.004171371459961,5.79833984375,0.42724609375,-1.708984375
1.3724999000000002,0.23403321206569672,-0.21368250250816345,9.983820915222168,-2.0751953125,-0.244140625,2.13623046875
1.3774999,0.46567222476005554,-0.2579752206802368,9.654618263244629,-3.84521484375,0.457763671875,-1.556396484375
1.3824999000000002,0.518943190574646,-0.34656068682670593,10.02571964263916,6.011962890625,0.640869140625,-1.3427734375
1.3874999000000001,0.3190273642539978,-0.3034650683403015,9.882067680358887,-2.655029296875,-0.06103515625,2.166748046875
1.3924999000000002,0.5500678420066833,-0.3214215636253357,9.602544784545898,-2.899169921875,0.213623046875,-1.77001953125
1.3974999000000001,0.48243165016174316,-0.3555389642715454,10.002376556396484,5.92041015625,0.030517578125,-0.9765625
1.4024999000000002,0.27234044671058655,-0.23942017555236816,9.807249069213867,-4.486083984375,-0.274658203125,1.8310546875
1.4074999000000001,0.5117605924606323,-0.2902969419956207,9.62828254699707,-0.91552734375,0.30517578125,-2.349853515625
1.4124999,0.41718965768814087,-0.29628247022628784,9.998785018920898,5.43212890625,0.030517578125,0.091552734375
1.4174999000000001,0.3208230137825012,-0.29388827085494995,9.691129684448242,-5.340576171875,-0.244140625,1.678466796875
1.4224999,0.5099649429321289,-0.2861070930957794,9.622296333312988,0.3662109375,0.06103515625,-2.532958984375
1.4274999000000002,0.37648820877075195,-0.2753331959247589,9.996989250183105,4.974365234375,0.42724609375,0.244140625
1.4324999,0.2711433470249176,-0.2214636504650116,9.702502250671387,-5.67626953125,0.152587890625,1.495361328125
1.4374999000000002,0.44532153010368347,-0.19812019169330597,9.715071678161621,1.617431640625,0.762939453125,-2.685546875
1.4424999,0.3531447649002075,-0.3292027413845062,9.544485092163086,-6.072998046875,-0.335693359375,0.640869140625
1.4474999000000002,0.5351040959358215,-0.3381809890270233,9.707889556884766,3.84521484375,1.15966796875,-2.44140625
1.4524999,0.3357867896556854,-0.26096799969673157,10.005967140197754,1.922607421875,0.18310546875,1.434326171875
1.4574999000000002,0.3298012912273407,-0.262763649225235,9.623494148254395,-6.103515625,0.335693359375,0.18310546875
1.4624999,0.5291185975074768,-0.2849099934101105,9.864709854125977,4.486083984375,-0.091552734375,-2.38037109375
1.4674999000000002,0.5291185975074768,-0.2849099934101105,9.864709854125977,4.486083984375,-0.091552734375,-2.38037109375
1.4724999,0.3232172429561615,-0.2555810213088989,9.989806175231934,1.03759765625,0.1220703125,1.556396484375
1.4774999000000002,0.41778820753097534,-0.292691171169281,9.548076629638672,-5.584716796875,0.579833984375,-0.18310546875
1.4824999,0.5823895931243896,-0.35494041442871094,9.798270225524902,5.37109375,0.79345703125,-2.166748046875
1.4874999000000002,0.3489548861980438,-0.29568392038345337,9.859322547912598,-0.244140625,-0.091552734375,1.8310546875
1.4924999,0.5105634927749634,-0.34177228808403015,9.606135368347168,-3.143310546875,0.42724609375,-1.52587890625
1.4974999000000002,0.5105634927749634,-0.34177228808403015,9.606135368347168,-3.143310546875,0.42724609375,-1.52587890625
1.5024999,0.50876784324646,-0.314238965511322,9.989208221435547,6.011962890625,0.091552734375,-1.068115234375
1.5074999000000002,0.2968810200691223,-0.32202014327049255,9.825204849243164,-3.662109375,-0.1220703125,2.288818359375
1.5124999000000001,0.5165489912033081,-0.3292027413845062,9.612719535827637,-2.044677734375,0.335693359375,-1.800537109375
1.5174999000000002,0.4213795065879822,-0.24839842319488525,9.97364616394043,6.103515625,0.274658203125,-0.732421875
1.5224999000000001,0.414795458316803,-0.24839842319488525,9.954492568969727,4.8828125,-0.244140625,0.091552734375
1.5274999000000002,0.414795458316803,-0.24839842319488525,9.954492568969727,4.8828125,-0.244140625,0.091552734375
1.5324999000000001,0.304063618183136,-0.28969839215278625,9.675567626953125,-5.67626953125,-0.396728515625,1.434326171875
1.5374999000000003,0.4578910768032074,-0.2232593148946762,9.686341285705566,1.40380859375,0.8544921875,-2.62451171875
1.5424999000000001,0.33099839091300964,-0.22086510062217712,10.056844711303711,4.180908203125,-0.396728515625,0.48828125
1.5474999,0.2651578485965729,-0.2298433631658554,9.699509620666504,-5.9814453125,-0.579833984375,1.190185546875
1.5524999000000002,0.47644615173339844,-0.24480712413787842,9.667187690734863,2.44140625,0.152587890625,-2.655029296875
1.5574999,0.3866635859012604,-0.2801215946674347,9.923966407775879,3.72314453125,-0.030517578125,0.762939453125
1.5624999000000002,0.34656068682670593,-0.29807811975479126,9.510367393493652,-5.889892578125,0.1220703125,0.823974609375
1.5674999,0.5351040959358215,-0.32860419154167175,9.609128952026367,3.448486328125,0.579833984375,-2.655029296875
1.5724999000000002,0.3603273630142212,-0.30286651849746704,9.932944297790527,2.62451171875,-0.640869140625,1.190185546875
1.5774999,0.49799394607543945,-0.3010708689689636,9.832387924194336,4.2724609375,0.213623046875,-2.655029296875
1.5824999000000002,0.29209262132644653,-0.25258827209472656,10.06582260131836,1.556396484375,-0.30517578125,1.46484375
1.5874999,0.3585317134857178,-0.24899697303771973,9.650428771972656,-5.523681640625,-0.06103515625,0
1.5924999000000002,0.5512649416923523,-0.2992752194404602,9.871294021606445,4.974365234375,-0.030517578125,-2.25830078125
1.5974999,0.3513490855693817,-0.27054479718208313,9.941324234008789,0.42724609375,-0.518798828125,1.708984375
1.6024999000000002,0.39803603291511536,-0.2603694200515747,9.553462982177734,-4.5166015625,-0.48828125,-0.91552734375
1.6074999,0.47225627303123474,-0.2908954918384552,9.975440979003906,6.134033203125,-0.1220703125,-1.77001953125
1.6124999000000002,0.2298433631658554,-0.2406172752380371,9.944316864013672,-1.983642578125,-0.518798828125,2.01416015625
1.6174999,0.45669397711753845,-0.3082534670829773,9.622895240783691,-3.5400390625,-0.30517578125,-1.3427734375
1.6224999000000002,0.41718965768814087,-0.25258827209472656,9.944316864013672,5.55419921875,-0.3662109375,0
1.6274999,0.3280056416988373,-0.3172317147254944,9.659406661987305,-5.4931640625,-0.6103515625,1.5869140625
1.6324999000000002,0.5021837949752808,-0.2735375463962555,9.624092102050781,0.701904296875,0.152587890625,-2.62451171875
1.6374999000000001,0.3669114112854004,-0.21188685297966003,10.019734382629395,4.852294921875,-0.396728515625,0.396728515625
1.6424999000000002,0.3513490855693817,-0.21009120345115662,10.031704902648926,3.90625,-0.30517578125,0.9765625
1.6474999000000001,0.3082534670829773,-0.26396074891090393,9.622296333312988,-5.859375,-0.30517578125,1.03759765625
1.6524999000000002,0.5165489912033081,-0.26755204796791077,9.649829864501953,3.173828125,-0.06103515625,-2.74658203125
1.6574999000000001,0.3926490843296051,-0.29807811975479126,9.929352760314941,3.0517578125,-0.30517578125,1.15966796875
1.6624999000000003,0.34356793761253357,-0.314238965511322,9.537302017211914,-5.889892578125,-0.091552734375,0.48828125
1.6674999000000001,0.5315127968788147,-0.304063618183136,9.726444244384766,3.90625,0.396728515625,-2.655029296875
1.6724999,0.3315969407558441,-0.27234044671058655,10.004171371459961,2.0751953125,-0.18310546875,1.46484375
1.6774999000000002,0.3363853394985199,-0.26096799969673157,9.623494148254395,-5.645751953125,-0.18310546875,0.152587890625
1.6824999,0.5225345492362976,-0.33339259028434753,9.929951667785645,5.859375,0.244140625,-1.953125
1.6874999000000002,0.25258827209472656,-0.23523031175136566,9.971850395202637,-1.251220703125,-0.42724609375,2.044677734375
1.6924999,0.41718965768814087,-0.25677812099456787,9.62947940826416,-3.90625,0.30517578125,-1.068115234375
1.6974999000000002,0.49380409717559814,-0.30945056676864624,10.031704902648926,6.195068359375,0.42724609375,-1.708984375
1.7024999,0.2783259451389313,-0.2759317457675934,9.910199165344238,-2.44140625,-0.18310546875,2.01416015625
1.7074999000000002,0.5237316489219666,-0.3190273642539978,9.61331844329834,-3.082275390625,0.823974609375,-1.495361328125
1.7124999,0.5057750940322876,-0.36092591285705566,9.99100399017334,6.134033203125,-0.6103515625,-1.129150390625
1.7174999000000002,0.2902969419956207,-0.304063618183136,9.824606895446777,-3.41796875,-0.885009765625,1.983642578125
1.7224999,0.507570743560791,-0.3250128924846649,9.636063575744629,-2.197265625,0.030517578125,-1.800537109375
1.7274999000000002,0.4076128304004669,-0.29628247022628784,9.99220085144043,6.04248046875,-0.244140625,-0.79345703125
1.7324999,0.5093663930892944,-0.2795230448246002,9.604340553283691,-1.0986328125,0.54931640625,-2.044677734375
1.7374999000000002,0.42197805643081665,-0.24600422382354736,9.944316864013672,5.92041015625,0.244140625,-0.335693359375
1.7424999,0.3292027413845062,-0.272938996553421,9.676166534423828,-5.0048828125,-0.30517578125,1.64794921875
1.7474999000000002,0.5404910445213318,-0.304063618183136,9.55825138092041,0.06103515625,-0.244140625,-2.50244140625
1.7524999,0.4124012291431427,-0.2513911724090576,9.946710586547852,5.4931640625,0.518798828125,0.152587890625
1.7574999000000002,0.30047231912612915,-0.27054479718208313,9.6618013381958,-5.706787109375,0.152587890625,1.434326171875
1.7624999000000001,0.46327802538871765,-0.2388216257095337,9.662399291992188,1.373291015625,0,-2.685546875
1.7674999000000002,0.33698388934135437,-0.19572599232196808,10.032303810119629,4.57763671875,-0.274658203125,0.6103515625
1.7724999000000001,0.26156654953956604,-0.21607670187950134,9.677961349487305,-5.859375,-0.396728515625,1.312255859375
1.7774999000000002,0.4620809257030487,-0.22505496442317963,9.667786598205566,2.593994140625,0.244140625,-2.62451171875
1.7824999000000001,0.36750996112823486,-0.22266076505184174,9.955090522766113,3.570556640625,0.18310546875,1.03759765625
1.7874999000000003,0.3214215636253357,-0.2890998423099518,9.542689323425293,-6.072998046875,0.244140625,0.91552734375
1.7924999000000001,0.3280056416988373,-0.314238965511322,9.581595420837402,-5.950927734375,0,0.335693359375
1.7974999,0.5231330990791321,-0.25079262256622314,9.807249069213867,4.547119140625,0.518798828125,-2.593994140625
1.8024999000000002,0.32381579279899597,-0.2693476974964142,10.00836181640625,1.251220703125,0.1220703125,1.40380859375
1.8074999,0.3878606855869293,-0.2777273952960968,9.585186958312988,-5.43212890625,0.6103515625,-0.244140625
1.8124999000000002,0.5656301379203796,-0.29388827085494995,9.824007987976074,5.06591796875,0.701904296875,-2.38037109375
1.8174999,0.3579331636428833,-0.314238965511322,9.907805442810059,0.335693359375,-0.335693359375,1.739501953125
1.8224999000000002,0.44173020124435425,-0.29807811975479126,9.491812705993652,-5.126953125,0.091552734375,-0.48828125
1.8274999,0.5476736426353455,-0.34177228808403015,9.831789016723633,5.645751953125,0.091552734375,-1.77001953125
1.8324999000000002,0.28131869435310364,-0.27892449498176575,9.884461402893066,-1.007080078125,-0.030517578125,1.708984375
1.8374999,0.38486793637275696,-0.2579752206802368,9.549872398376465,-4.39453125,0.579833984375,-1.15966796875
1.8424999000000002,0.45908817648887634,-0.31603461503982544,9.982025146484375,6.103515625,0.8544921875,-1.434326171875
1.8474999,0.21847090125083923,-0.262763649225235,9.944915771484375,-1.617431640625,-0.335693359375,1.983642578125
1.8524999000000002,0.44592007994651794,-0.27413609623908997,9.632472038269043,-3.7841796875,-0.213623046875,-1.617431640625
1.8574999,0.4985924959182739,-0.3519476354122162,10.020931243896484,6.04248046875,0.213623046875,-1.373291015625
1.8624999000000002,0.29568392038345337,-0.2902969419956207,9.86770248413086,-2.899169921875,-0.54931640625,2.25830078125
1.8674999,0.5339069962501526,-0.284311443567276,9.621698379516602,-2.86865234375,-0.030517578125,-1.953125
1.8724999000000002,0.4620809257030487,-0.33758243918418884,9.998785018920898,5.9814453125,-0.396728515625,-0.9765625
1.8774999,0.26815059781074524,-0.2454056739807129,9.833584785461426,-3.5400390625,-0.396728515625,2.105712890625
1.8824999000000002,0.5027823448181152,-0.26156654953956604,9.64683723449707,-1.495361328125,0.701904296875,-2.25830078125
1.8874999000000001,0.40282443165779114,-0.2968810200691223,10.002376556396484,5.9814453125,0.3662109375,-0.701904296875
1.8924999000000002,0.2902969419956207,-0.24600422382354736,9.780912399291992,-4.57763671875,-0.091552734375,2.227783203125
1.8974999000000001,0.5398924946784973,-0.27653029561042786,9.618705749511719,-0.640869140625,0.274658203125,-2.38037109375
1.9024999000000002,0.43035775423049927,-0.3106476664543152,9.98681354522705,5.18798828125,-0.6103515625,-0.3662109375
1.9074999000000001,0.33758243918418884,-0.27892449498176575,9.714473724365234,-5.279541015625,-0.732421875,1.52587890625
1.9124999000000003,0.36750996112823486,-0.29149407148361206,10.027515411376953,4.913330078125,-0.42724609375,0.30517578125
1.9174999000000001,0.2669534981250763,-0.2256535142660141,9.727641105651855,-5.645751953125,-0.6103515625,1.52587890625
1.9224999,0.43933600187301636,-0.2124854028224945,9.717466354370117,1.617431640625,-0.06103515625,-2.532958984375
1.9274999000000002,0.34356793761253357,-0.25438392162323,10.038887977600098,3.875732421875,-0.48828125,0.640869140625
1.9324999,0.29628247022628784,-0.21547815203666687,9.636661529541016,-5.889892578125,-0.579833984375,1.129150390625
1.9374999000000002,0.5135562419891357,-0.2867056429386139,9.6618013381958,2.777099609375,-0.244140625,-2.44140625
1.9424999,0.3998316824436188,-0.3016694188117981,9.925761222839355,2.9296875,-0.640869140625,0.9765625
1.9474999000000002,0.34835633635520935,-0.28730419278144836,9.54209041595459,-6.04248046875,-0.67138671875,0.48828125
1.9524999,0.5345055460929871,-0.322618693113327,9.707889556884766,3.7841796875,0.54931640625,-2.410888671875
1.9574999000000002,0.3298012912273407,-0.2819172441959381,9.996390342712402,1.983642578125,-0.457763671875,1.190185546875
1.9624999,0.33339259028434753,-0.2669534981250763,9.630077362060547,-5.859375,-0.6103515625,0.091552734375
1.9674999000000002,0.32202014327049255,-0.2759317457675934,10.010157585144043,1.190185546875,-0.1220703125,1.46484375
1.9724999,0.4207809567451477,-0.26815059781074524,9.565434455871582,-5.31005859375,0.48828125,-0.48828125
1.9774999000000002,0.5781996846199036,-0.3387795388698578,9.820416450500488,5.035400390625,-0.518798828125,-2.01416015625
1.9824999,0.3471592366695404,-0.26336219906806946,9.87967300415039,-0.1220703125,-0.335693359375,1.708984375
1.9874999000000002,0.43933600187301636,-0.2585737705230713,9.528923034667969,-4.730224609375,0.48828125,-0.9765625
1.9924999,0.5195417404174805,-0.3148375153541565,9.915586471557617,5.9814453125,0.8544921875,-1.64794921875
1.9974999000000002,0.2472013235092163,-0.22445641458034515,9.964069366455078,-1.0986328125,-0.213623046875,2.13623046875
2.0024999,0.2651578485965729,-0.26396074891090393,9.922170639038086,-2.38037109375,-0.54931640625,2.166748046875
2.0074999,0.5159504413604736,-0.29867666959762573,9.616909980773926,-3.173828125,0.244140625,-1.556396484375
2.0124999000000003,0.5081692934036255,-0.36152446269989014,9.988609313964844,6.2255859375,0,-1.190185546875
2.0174999000000002,0.5093663930892944,-0.2717418968677521,9.634865760803223,-1.0986328125,0.274658203125,-2.38037109375
2.0224999,0.41539400815963745,-0.2908954918384552,10.001178741455078,5.859375,-0.152587890625,-0.396728515625
2.0274999,0.32381579279899597,-0.27054479718208313,9.725247383117676,-4.94384765625,-0.335693359375,1.678466796875
2.0324999000000004,0.536899745464325,-0.304063618183136,9.607931137084961,0.152587890625,0.30517578125,-2.410888671875
2.0374999000000003,0.40940847992897034,-0.29149407148361206,9.980828285217285,5.218505859375,-0.091552734375,0.1220703125
2.0424999,0.2998737692832947,-0.26336219906806946,9.692925453186035,-5.4931640625,-0.48828125,1.220703125
2.0474999,0.4596867263317108,-0.23044191300868988,9.695320129394531,1.190185546875,0.18310546875,-2.685546875
2.0524999,0.34177228808403015,-0.22685061395168304,10.075399398803711,4.5166015625,-0.18310546875,0.67138671875
2.0574999000000003,0.4752490520477295,-0.24420857429504395,9.715670585632324,2.410888671875,0.030517578125,-2.655029296875
2.0624999,0.3824737071990967,-0.262763649225235,9.967061996459961,3.753662109375,-0.244140625,0.91552734375
2.0674999,0.33997663855552673,-0.2885012924671173,9.540295600891113,-6.04248046875,-0.213623046875,0.732421875
2.0724999,0.5398924946784973,-0.34356793761253357,9.613917350769043,3.509521484375,0.091552734375,-2.62451171875
2.0774999000000003,0.3687070608139038,-0.29149407148361206,9.919178009033203,2.593994140625,-0.6103515625,1.28173828125
2.0824999,0.33099839091300964,-0.29867666959762573,9.547477722167969,-6.011962890625,-0.518798828125,0.152587890625
2.0874999,0.5201402902603149,-0.2867056429386139,9.79408073425293,4.2724609375,-0.335693359375,-2.685546875
2.0924999,0.3106476664543152,-0.22864626348018646,10.012551307678223,1.495361328125,-0.79345703125,1.678466796875
2.0974999000000003,0.37648820877075195,-0.2513911724090576,9.609726905822754,-5.615234375,-0.54931640625,-0.152587890625
2.1024999,0.5656301379203796,-0.3034650683403015,9.844358444213867,4.913330078125,-0.091552734375,-2.410888671875
2.1074999,0.35254621505737305,-0.28131869435310364,9.931148529052734,0.30517578125,-0.335693359375,1.77001953125
2.1124999,0.45250412821769714,-0.31543606519699097,9.519346237182617,-5.035400390625,0.244140625,-0.518798828125
2.1174999000000003,0.28550854325294495,-0.26575639843940735,9.912593841552734,-0.885009765625,-0.518798828125,1.983642578125
2.1224999,0.38726213574409485,-0.3010708689689636,9.582792282104492,-4.5166015625,-0.1220703125,-0.91552734375
2.1274999,0.46148237586021423,-0.2861070930957794,9.989208221435547,6.103515625,0.79345703125,-1.617431640625
2.1324999,0.2214636504650116,-0.27234044671058655,9.944915771484375,-2.105712890625,-0.457763671875,1.983642578125
2.1374999000000003,0.4471171796321869,-0.34656068682670593,9.601945877075195,-3.41796875,-0.54931640625,-1.64794921875
2.1424999000000002,0.5027823448181152,-0.3274070918560028,9.987412452697754,6.439208984375,-0.1220703125,-1.46484375
2.1474999,0.30466216802597046,-0.34177228808403015,9.82879638671875,-3.23486328125,-0.244140625,1.861572265625
2.1524999,0.5434837937355042,-0.35075053572654724,9.600749015808105,-2.288818359375,-0.030517578125,-1.800537109375
2.1574999000000004,0.4818331003189087,-0.26396074891090393,9.989806175231934,6.16455078125,-0.1220703125,-0.9765625
2.1624999000000003,0.28311434388160706,-0.2861070930957794,9.816825866699219,-4.119873046875,-0.396728515625,1.922607421875
2.1674999,0.5153518915176392,-0.284311443567276,9.622895240783691,-1.03759765625,0.48828125,-2.166748046875
2.1724999,0.4118026793003082,-0.22505496442317963,9.96945571899414,5.9814453125,-0.091552734375,-0.579833984375
2.1774999000000004,0.2585737705230713,-0.23822307586669922,9.703699111938477,-5.7373046875,-0.67138671875,1.373291015625
2.1824999000000003,0.44412440061569214,-0.19273324310779572,9.71926212310791,2.0751953125,0.67138671875,-2.5634765625
2.1874999,0.34835633635520935,-0.21607670187950134,10.027515411376953,3.753662109375,-0.579833984375,0.67138671875
2.1924999,0.30705636739730835,-0.2717418968677521,9.615114212036133,-6.04248046875,-0.732421875,0.8544921875
2.1974999,0.517746090888977,-0.29807811975479126,9.654019355773926,3.41796875,1.03759765625,-2.593994140625
2.2024999000000003,0.3902548849582672,-0.31124621629714966,9.925761222839355,2.99072265625,-0.396728515625,1.190185546875
2.2074999,0.3321954905986786,-0.3495534360408783,9.553462982177734,-6.16455078125,-0.3662109375,0.457763671875
2.2124999,0.5033808946609497,-0.2645592987537384,9.815030097961426,4.486083984375,0.9765625,-2.227783203125
2.2174999,0.314238965511322,-0.27054479718208313,9.929352760314941,0.701904296875,-0.030517578125,1.617431640625
2.2224999000000003,0.4124012291431427,-0.2663549482822418,9.476848602294922,-5.462646484375,-0.244140625,-0.335693359375
2.2274999,0.5847837924957275,-0.3477577865123749,9.728240013122559,5.279541015625,1.28173828125,-2.227783203125
2.2324999,0.3495534360408783,-0.3130418658256531,9.803657531738281,0,0.213623046875,1.953125
2.2374999,0.4357447028160095,-0.3064578175544739,9.478644371032715,-4.669189453125,0.54931640625,-0.396728515625
2.2424999000000003,0.24600422382354736,-0.25079262256622314,9.944316864013672,-1.373291015625,-0.274658203125,2.044677734375
2.2474999,0.395043283700943,-0.24241292476654053,9.607333183288574,-4.302978515625,-0.3662109375,-1.15966796875
2.2524999,0.47884035110473633,-0.31124621629714966,10.005369186401367,5.859375,-0.091552734375,-1.678466796875
2.2574999,0.50876784324646,-0.3016694188117981,9.604340553283691,-3.143310546875,-0.274658203125,-1.52587890625
2.2624999000000003,0.5147533416748047,-0.3687070608139038,9.991601943969727,6.16455078125,-0.8544921875,-1.46484375
2.2674999000000002,0.3016694188117981,-0.29209262132644653,9.835979461669922,-3.448486328125,-0.823974609375,2.044677734375
2.2724999,0.5225345492362976,-0.29388827085494995,9.637260437011719,-2.50244140625,-0.30517578125,-1.617431640625
2.2774999,0.42856210470199585,-0.3058592677116394,10.033500671386719,6.103515625,-0.152587890625,-0.9765625
2.2824999000000004,0.2603694200515747,-0.22744916379451752,9.858723640441895,-3.997802734375,-0.640869140625,1.800537109375
2.2874999000000003,0.507570743560791,-0.26156654953956604,9.683348655700684,-1.190185546875,-0.06103515625,-2.01416015625
2.2924999,0.4129997789859772,-0.27653029561042786,10.017339706420898,5.92041015625,0.18310546875,-0.6103515625
2.2974999,0.31783026456832886,-0.2651578485965729,9.750386238098145,-4.730224609375,-0.213623046875,1.77001953125
2.3024999000000004,0.5428852438926697,-0.2932897210121155,9.59596061706543,0,0.6103515625,-2.227783203125
2.3074999000000003,0.4189853072166443,-0.29388827085494995,9.9401273727417,5.18798828125,0.091552734375,0
2.3124999,0.3016694188117981,-0.272938996553421,9.647436141967773,-5.523681640625,-0.335693359375,1.46484375
2.3174999,0.4554968774318695,-0.22445641458034515,9.713874816894531,2.044677734375,-0.152587890625,-2.5634765625
2.3224999,0.38546648621559143,-0.24001872539520264,10.01075553894043,3.631591796875,-0.518798828125,0.640869140625
2.3274999000000003,0.3429693877696991,-0.2555810213088989,9.592369079589844,-6.16455078125,-0.30517578125,0.79345703125
2.3324999,0.5512649416923523,-0.3232172429561615,9.651625633239746,3.35693359375,1.129150390625,-2.50244140625
2.3374999,0.3944447338581085,-0.2825157940387726,9.932345390319824,2.532958984375,0.213623046875,1.03759765625
2.3424999,0.3381809890270233,-0.31364041566848755,9.568427085876465,-6.04248046875,0.152587890625,0.3662109375
2.3474999000000003,0.5111620426177979,-0.2992752194404602,9.77791976928711,4.180908203125,0.457763671875,-2.38037109375
2.3524999,0.3010708689689636,-0.2406172752380371,10.038289070129395,1.556396484375,-0.274658203125,1.434326171875
2.3574999,0.33997663855552673,-0.2513911724090576,9.627683639526367,-6.072998046875,-0.274658203125,0.091552734375
2.3624999,0.5392939448356628,-0.28311434388160706,9.86111831665039,4.913330078125,0.54931640625,-2.44140625
2.3674999000000003,0.4507084786891937,-0.30466216802597046,9.513958930969238,-5.37109375,0.06103515625,-0.3662109375
2.3724999,0.579995334148407,-0.34656068682670593,9.816825866699219,5.43212890625,0.396728515625,-2.227783203125
2.3774999,0.32620999217033386,-0.28311434388160706,9.88745403289795,-0.9765625,-0.213623046875,1.861572265625
2.3824999,0.41778820753097534,-0.30885201692581177,9.564835548400879,-4.638671875,0.091552734375,-0.732421875
2.3874999000000003,0.49380409717559814,-0.2890998423099518,9.9772367477417,5.92041015625,0.91552734375,-1.678466796875
2.3924999000000002,0.2322375625371933,-0.2561795711517334,9.972448348999023,-1.861572265625,-0.091552734375,2.227783203125
2.3974999,0.42437225580215454,-0.31364041566848755,9.618106842041016,-3.875732421875,0.579833984375,-1.15966796875
2.4024999,0.5386953949928284,-0.3363853394985199,9.609726905822754,-2.960205078125,0.244140625,-1.739501953125
2.4074999000000004,0.5027823448181152,-0.262763649225235,10.003573417663574,6.011962890625,0.06103515625,-1.068115234375
2.4124999000000003,0.5267243981361389,-0.262763649225235,9.582193374633789,-0.823974609375,-0.06103515625,-2.227783203125
2.4174999,0.4279635548591614,-0.24899697303771973,9.938331604003906,5.43212890625,0.6103515625,-0.244140625
2.4224999,0.33099839091300964,-0.3076549172401428,9.662399291992188,-5.401611328125,0.030517578125,1.64794921875
2.4274999000000004,0.5207388401031494,-0.27234044671058655,9.604340553283691,0.30517578125,0.48828125,-2.410888671875
2.4324999000000003,0.3800795078277588,-0.26575639843940735,9.99100399017334,4.638671875,0.54931640625,0.396728515625
2.4374999,0.26815059781074524,-0.24660277366638184,9.709685325622559,-5.7373046875,0.18310546875,1.434326171875
2.4424999,0.43275195360183716,-0.17657238245010376,9.719860076904297,1.40380859375,0.42724609375,-2.532958984375
2.4474999,0.33039984107017517,-0.2364274114370346,10.06043529510498,4.2724609375,0.48828125,0.762939453125
2.4524999000000003,0.27712884545326233,-0.19213469326496124,9.679757118225098,-5.950927734375,0.213623046875,1.007080078125
2.4574999,0.39564183354377747,-0.29628247022628784,9.944915771484375,3.11279296875,0.091552734375,0.946044921875
2.4624999,0.34656068682670593,-0.26994624733924866,9.552865028381348,-6.072998046875,-0.030517578125,0.67138671875
2.4674999,0.5440823435783386,-0.3405751883983612,9.683947563171387,3.2958984375,0.213623046875,-2.44140625
2.4724999000000003,0.36332011222839355,-0.31783026456832886,9.97484302520752,2.227783203125,0.42724609375,1.251220703125
2.4774999,0.33937808871269226,-0.3016694188117981,9.608530044555664,-5.706787109375,0.396728515625,0.30517578125
2.4824999,0.5345055460929871,-0.31364041566848755,9.839570045471191,4.150390625,-0.152587890625,-2.25830078125
2.4874999,0.3280056416988373,-0.2759317457675934,10.022128105163574,0.9765625,-0.091552734375,1.617431640625
2.4924999000000003,0.4129997789859772,-0.25079262256622314,9.579200744628906,-5.523681640625,0.1220703125,-0.1220703125
2.4974999,0.5847837924957275,-0.3315969407558441,9.832986831665039,5.096435546875,0.67138671875,-2.13623046875
2.5024999,0.36152446269989014,-0.2759317457675934,9.9000244140625,0.06103515625,-0.244140625,1.64794921875
2.5074999,0.4411316514015198,-0.27234044671058655,9.537900924682617,-4.913330078125,0.1220703125,-0.6103515625
2.5124999000000003,0.5291185975074768,-0.33698388934135437,9.909601211547852,5.43212890625,-0.06103515625,-1.800537109375
2.5174999000000002,0.39564183354377747,-0.24779987335205078,9.642048835754395,-4.33349609375,0.213623046875,-1.190185546875
2.5224999,0.4752490520477295,-0.3298012912273407,10.044873237609863,6.011962890625,0.30517578125,-1.64794921875
2.5274999,0.24779987335205078,-0.2801215946674347,9.959878921508789,-2.13623046875,-0.244140625,2.044677734375
2.5324999000000004,0.4878185987472534,-0.30047231912612915,9.64564037322998,-3.35693359375,0.091552734375,-1.5869140625
2.5374999000000003,0.4967968463897705,-0.37409400939941406,9.999981880187988,5.92041015625,-0.06103515625,-1.220703125
2.5424999,0.2890998423099518,-0.2890998423099518,9.838373184204102,-3.173828125,-0.640869140625,2.166748046875
2.5474999,0.518943190574646,-0.29568392038345337,9.604340553283691,-2.50244140625,-0.274658203125,-1.89208984375
2.5524999000000004,0.42377370595932007,-0.33518823981285095,9.995193481445312,6.16455078125,0.3662109375,-0.823974609375
2.5574999000000003,0.2561795711517334,-0.24001872539520264,9.821614265441895,-4.150390625,-0.274658203125,1.983642578125
2.5624999,0.5021837949752808,-0.26815059781074524,9.658209800720215,-1.251220703125,0.48828125,-2.0751953125
2.5674999,0.40462008118629456,-0.2825157940387726,10.00955867767334,5.859375,-0.3662109375,-0.48828125
2.5724999,0.3190273642539978,-0.25019407272338867,9.762955665588379,-4.638671875,-0.640869140625,1.64794921875
2.5774999000000003,0.3016694188117981,-0.25438392162323,9.654019355773926,-5.279541015625,-0.18310546875,1.5869140625
2.5824999,0.45669397711753845,-0.24660277366638184,9.626486778259277,1.03759765625,0.091552734375,-2.471923828125
2.5874999,0.3196259140968323,-0.25737667083740234,10.00836181640625,4.638671875,-0.823974609375,0.152587890625
2.5924999,0.24480712413787842,-0.21368250250816345,9.699509620666504,-5.828857421875,-1.068115234375,1.190185546875
2.5974999000000003,0.4507084786891937,-0.22445641458034515,9.727043151855469,2.227783203125,-0.518798828125,-2.38037109375
2.6024999,0.3776853084564209,-0.27234044671058655,10.021530151367188,3.570556640625,0,0.762939453125
2.6074999,0.33997663855552673,-0.2472013235092163,9.601945877075195,-5.79833984375,-0.091552734375,0.8544921875
2.6124999,0.33997663855552673,-0.2472013235092163,9.601945877075195,-5.79833984375,-0.091552734375,0.8544921875
2.6174999000000003,0.5494692921638489,-0.314238965511322,9.666589736938477,3.204345703125,-0.1220703125,-2.471923828125
2.6224999,0.39624038338661194,-0.30705636739730835,9.9371337890625,2.777099609375,-0.213623046875,1.068115234375
2.6274999,0.34835633635520935,-0.284311443567276,9.566033363342285,-6.04248046875,0.1220703125,0.396728515625
2.6324999,0.36571431159973145,-0.26096799969673157,9.635464668273926,-5.67626953125,-0.640869140625,-0.213623046875
2.6374999000000003,0.36571431159973145,-0.26096799969673157,9.635464668273926,-5.67626953125,-0.640869140625,-0.213623046875
2.6424999000000002,0.3519476354122162,-0.28311434388160706,9.963470458984375,0.6103515625,-0.06103515625,1.953125
2.6474999,0.3519476354122162,-0.28311434388160706,9.963470458984375,0.6103515625,-0.06103515625,1.953125
2.6524999,0.45429977774620056,-0.26815059781074524,9.539097785949707,-5.157470703125,0.396728515625,-0.6103515625
2.6574999000000004,0.5781996846199036,-0.3315969407558441,9.845556259155273,5.279541015625,0.091552734375,-1.922607421875
2.6624999000000003,0.31364041566848755,-0.2364274114370346,9.914389610290527,-0.885009765625,-0.396728515625,2.01416015625
2.6674999,0.4159925580024719,-0.22924481332302094,9.573814392089844,-4.8828125,-0.213623046875,-1.03759765625
2.6724999,0.4812345504760742,-0.3148375153541565,9.985616683959961,5.67626953125,0.091552734375,-1.8310546875
2.6774999000000004,0.22505496442317963,-0.243011474609375,9.963470458984375,-1.8310546875,-0.152587890625,2.197265625
2.6824999000000003,0.4405331015586853,-0.2885012924671173,9.641449928283691,-3.692626953125,0.30517578125,-1.617431640625
2.6874999,0.49320554733276367,-0.3687070608139038,10.016142845153809,6.04248046875,0.91552734375,-1.46484375
2.6924999,0.5351040959358215,-0.32202014327049255,9.606734275817871,-3.11279296875,-0.1220703125,-1.800537109375
2.6974999,0.4704606235027313,-0.3585317134857178,10.005369186401367,5.92041015625,-0.244140625,-1.0986328125
2.7024999000000003,0.26994624733924866,-0.26575639843940735,9.834183692932129,-3.90625,-0.30517578125,1.983642578125
2.7074999,0.49799394607543945,-0.2663549482822418,9.653421401977539,-1.495361328125,0.91552734375,-1.983642578125
2.7124999,0.395043283700943,-0.28730419278144836,10.035895347595215,5.828857421875,-0.152587890625,-0.701904296875
2.7174999,0.2867056429386139,-0.22685061395168304,9.798270225524902,-4.608154296875,-0.518798828125,1.739501953125
2.7224999000000003,0.49619829654693604,-0.26755204796791077,9.621099472045898,0.518798828125,-0.42724609375,-2.532958984375
2.7274999,0.35673606395721436,-0.2735375463962555,10.001178741455078,4.852294921875,-0.54931640625,0.42724609375
2.7324999,0.25677812099456787,-0.21787235140800476,9.700706481933594,-5.706787109375,-0.823974609375,1.220703125
2.7374999,0.30885201692581177,-0.21308395266532898,9.640253067016602,-5.79833984375,-0.244140625,0.762939453125
2.7424999000000003,0.5261258482933044,-0.27054479718208313,9.683947563171387,2.777099609375,0.091552734375,-2.716064453125
2.7474999,0.39863458275794983,-0.28790274262428284,9.938929557800293,3.0517578125,-0.42724609375,1.0986328125
2.7524999,0.34356793761253357,-0.2687491476535797,9.570222854614258,-6.134033203125,-0.3662109375,0.48828125
2.7574999,0.5261258482933044,-0.3190273642539978,9.743204116821289,3.7841796875,0.42724609375,-2.50244140625
2.7624999000000003,0.3172317147254944,-0.2795230448246002,10.017938613891602,1.983642578125,-0.18310546875,1.40380859375
2.7674999000000002,0.333991140127182,-0.2663549482822418,9.635464668273926,-5.79833984375,0.091552734375,0.18310546875
2.7724999,0.5327098965644836,-0.3166331648826599,9.864709854125977,4.5166015625,0.457763671875,-2.166748046875
2.7774999,0.33099839091300964,-0.2801215946674347,9.995792388916016,0.6103515625,-0.213623046875,1.678466796875
2.7824999000000004,0.42437225580215454,-0.2890998423099518,9.567828178405762,-5.43212890625,0.152587890625,-0.244140625
2.7874999000000003,0.5734112858772278,-0.3627215623855591,9.828198432922363,5.218505859375,0.335693359375,-2.01416015625
2.7924999,0.4189853072166443,-0.2645592987537384,9.550470352172852,-4.730224609375,0.18310546875,-0.701904296875
2.7974999,0.4944026470184326,-0.32381579279899597,9.950302124023438,5.828857421875,0.1220703125,-1.800537109375
2.8024999000000004,0.2346317619085312,-0.22206220030784607,9.985017776489258,-1.373291015625,-0.396728515625,2.01416015625
2.8074999000000003,0.414795458316803,-0.25737667083740234,9.648633003234863,-3.814697265625,-0.030517578125,-1.220703125
2.8124999,0.48303020000457764,-0.33518823981285095,10.04068374633789,6.2255859375,-0.06103515625,-1.373291015625
2.8174999,0.272938996553421,-0.28730419278144836,9.898826599121094,-2.50244140625,-0.396728515625,1.983642578125
2.8224999,0.5249287486076355,-0.3100491166114807,9.59715747833252,-2.777099609375,0.18310546875,-1.708984375
2.8274999000000003,0.49380409717559814,-0.3579331636428833,9.983222961425781,6.256103515625,0.06103515625,-0.9765625
2.8324999,0.2932897210121155,-0.272938996553421,9.812037467956543,-3.84521484375,-0.30517578125,2.166748046875
2.8374999,0.5135562419891357,-0.27653029561042786,9.633668899536133,-2.01416015625,0.1220703125,-1.8310546875
2.8424999,0.3998316824436188,-0.30286651849746704,10.015543937683105,5.706787109375,0.213623046875,-0.701904296875
2.8474999000000003,0.2555810213088989,-0.23822307586669922,9.807249069213867,-4.425048828125,-0.274658203125,1.861572265625
2.8524999,0.5021837949752808,-0.2801215946674347,9.622895240783691,-0.732421875,0.396728515625,-2.166748046875
2.8574999,0.4034229815006256,-0.30286651849746704,9.975440979003906,5.4931640625,0.091552734375,-0.18310546875
2.8624999,0.31543606519699097,-0.28131869435310364,9.683348655700684,-5.2490234375,-0.396728515625,1.495361328125
2.8674999000000003,0.5105634927749634,-0.2777273952960968,9.602544784545898,0.396728515625,0.3662109375,-2.532958984375
2.8724999,0.36810851097106934,-0.2801215946674347,9.990405082702637,4.913330078125,-0.18310546875,0.213623046875
2.8774999,0.2651578485965729,-0.2322375625371933,9.700108528137207,-5.67626953125,-0.3662109375,1.312255859375
2.8824999,0.2902969419956207,-0.22625206410884857,9.667187690734863,-5.950927734375,-0.18310546875,1.068115234375
2.8874999000000003,0.5081692934036255,-0.2890998423099518,9.693524360656738,2.685546875,0.6103515625,-2.593994140625
2.8924999000000002,0.3926490843296051,-0.3064578175544739,9.95209789276123,3.143310546875,-0.091552734375,1.03759765625
2.8974999,0.3429693877696991,-0.2867056429386139,9.565434455871582,-6.134033203125,-0.152587890625,0.518798828125
2.9024999,0.5333084464073181,-0.3292027413845062,9.724648475646973,3.7841796875,0.1220703125,-2.593994140625
2.9074999000000004,0.3321954905986786,-0.28131869435310364,10.00955867767334,2.166748046875,-0.3662109375,1.556396484375
2.9124999000000003,0.345363587141037,-0.26096799969673157,9.637260437011719,-5.584716796875,0.091552734375,0.18310546875
2.9174999,0.5416881442070007,-0.2998737692832947,9.876082420349121,4.69970703125,0.3662109375,-2.38037109375
2.9224999,0.33997663855552673,-0.2645592987537384,10.013748168945312,0.701904296875,-0.54931640625,1.739501953125
2.9274999000000004,0.4357447028160095,-0.26755204796791077,9.572616577148438,-5.615234375,-0.518798828125,-0.396728515625
2.9324999000000003,0.579995334148407,-0.3477577865123749,9.82640266418457,5.340576171875,0.67138671875,-1.922607421875
2.9374999,0.3298012912273407,-0.2753331959247589,9.901819229125977,-0.244140625,0.3662109375,1.983642578125
2.9424999,0.41718965768814087,-0.2669534981250763,9.548674583435059,-4.425048828125,0.6103515625,-0.823974609375
2.9474999,0.4920084476470947,-0.32022446393966675,9.953893661499023,5.767822265625,0.396728515625,-1.800537109375
2.9524999000000003,0.23044191300868988,-0.23044191300868988,9.9772367477417,-1.64794921875,-0.640869140625,1.861572265625
2.9574999,0.42197805643081665,-0.2519897222518921,9.651625633239746,-4.058837890625,-0.640869140625,-1.3427734375
2.9624999,0.545877993106842,-0.2974795699119568,9.586383819580078,-2.777099609375,0.8544921875,-1.739501953125
2.9674999,0.5033808946609497,-0.35075053572654724,9.962273597717285,5.950927734375,0.335693359375,-0.885009765625
2.9724999000000003,0.30286651849746704,-0.2687491476535797,9.783307075500488,-3.72314453125,-0.457763671875,1.953125
2.9774999,0.5237316489219666,-0.2867056429386139,9.61331844329834,-1.861572265625,0,-2.13623046875
2.9824999,0.4129997789859772,-0.30945056676864624,9.988609313964844,6.103515625,0,-0.6103515625
2.9874999,0.28072014451026917,-0.24420857429504395,9.77672290802002,-4.45556640625,-0.640869140625,1.922607421875
2.9924999000000003,0.524330198764801,-0.2735375463962555,9.624092102050781,-0.885009765625,-0.457763671875,-2.197265625
2.9974999,0.4213795065879822,-0.28790274262428284,9.97484302520752,5.279541015625,0.1220703125,0.030517578125
3.0024999,0.33279404044151306,-0.2663549482822418,9.693524360656738,-5.31005859375,-0.06103515625,1.556396484375
3.0074999,0.5141547918319702,-0.2645592987537384,9.61212158203125,0.48828125,0.335693359375,-2.685546875
3.0124999000000003,0.3705027103424072,-0.2777273952960968,9.99459457397461,4.8828125,-0.396728515625,0.42724609375
3.0174999000000002,0.2687491476535797,-0.22086510062217712,9.697713851928711,-5.37109375,-0.518798828125,1.495361328125
3.0224999,0.3561375141143799,-0.29388827085494995,9.535507202148438,-5.889892578125,-0.396728515625,0.457763671875
3.0274999,0.5339069962501526,-0.33698388934135437,9.71926212310791,3.96728515625,0.701904296875,-2.8076171875
3.0324999000000004,0.3232172429561615,-0.28371289372444153,9.989208221435547,1.922607421875,-0.1220703125,1.40380859375
3.0374999000000003,0.3429693877696991,-0.2585737705230713,9.59476375579834,-5.79833984375,-0.030517578125,0.152587890625
3.0424999,0.5734112858772278,-0.3447650372982025,9.838373184204102,5.645751953125,0.396728515625,-1.983642578125
3.0474999,0.4124012291431427,-0.2495955228805542,9.571419715881348,-4.547119140625,-0.06103515625,-0.8544921875
3.0524999000000004,0.4836287498474121,-0.3148375153541565,9.984419822692871,6.04248046875,0.885009765625,-1.861572265625
3.0574999000000003,0.23163901269435883,-0.23343466222286224,9.964069366455078,-2.13623046875,-0.18310546875,2.01416015625
3.0624999,0.4513070285320282,-0.27653029561042786,9.631275177001953,-3.997802734375,-0.42724609375,-1.373291015625
3.0674999,0.5051765441894531,-0.3519476354122162,10.02452278137207,6.195068359375,-0.06103515625,-1.495361328125
3.0724999000000004,0.2998737692832947,-0.2932897210121155,9.853935241699219,-2.838134765625,-0.762939453125,1.861572265625
3.0774999000000003,0.5428852438926697,-0.3034650683403015,9.610923767089844,-2.593994140625,-0.42724609375,-1.800537109375
3.0824999,0.46567222476005554,-0.33518823981285095,9.989806175231934,5.79833984375,-0.274658203125,-0.8544921875
3.0874999,0.2693476974964142,-0.24420857429504395,9.823410034179688,-3.997802734375,-0.30517578125,2.0751953125
3.0924999,0.5033808946609497,-0.2717418968677521,9.655217170715332,-1.373291015625,0.67138671875,-2.227783203125
3.0974999000000003,0.39384618401527405,-0.2861070930957794,10.026318550109863,6.011962890625,0.42724609375,-0.48828125
3.1024999,0.2950853705406189,-0.2579752206802368,9.78869342803955,-4.547119140625,-0.1220703125,2.01416015625
3.1074999,0.41778820753097534,-0.2950853705406189,9.99459457397461,5.37109375,0.244140625,-0.030517578125
3.1124999,0.3166331648826599,-0.2585737705230713,9.704896926879883,-5.645751953125,0,1.708984375
3.1174999000000003,0.4854243993759155,-0.24181437492370605,9.675567626953125,1.03759765625,0.946044921875,-2.593994140625
3.1224999,0.3531447649002075,-0.24241292476654053,10.068216323852539,4.730224609375,-0.244140625,0.30517578125
3.1274999,0.272938996553421,-0.19812019169330597,9.73661994934082,-5.79833984375,-0.3662109375,1.220703125
3.1324999,0.46986207365989685,-0.21966800093650818,9.739612579345703,2.44140625,0.885009765625,-2.685546875
3.1374999000000003,0.37828385829925537,-0.2519897222518921,10.016741752624512,3.570556640625,-0.1220703125,1.068115234375
3.1424999000000002,0.3321954905986786,-0.24001872539520264,9.583989143371582,-6.256103515625,-0.152587890625,0.91552734375
3.1474999,0.536899745464325,-0.3082534670829773,9.643844604492188,3.143310546875,0,-2.685546875
3.1524999,0.3728969097137451,-0.27653029561042786,9.927556991577148,2.38037109375,-0.701904296875,1.0986328125
3.1574999000000004,0.3315969407558441,-0.2849099934101105,9.555258750915527,-5.859375,-0.579833984375,0.48828125
3.1624999000000003,0.5249287486076355,-0.3076549172401428,9.79527759552002,4.45556640625,1.03759765625,-2.50244140625
3.1674999,0.3974374830722809,-0.26815059781074524,9.616311073303223,-5.79833984375,-0.30517578125,-0.1220703125
3.1724999,0.5859808921813965,-0.3292027413845062,9.86111831665039,4.852294921875,-0.06103515625,-2.44140625
3.1774999000000004,0.36571431159973145,-0.2801215946674347,9.939528465270996,0.030517578125,-0.79345703125,1.953125
3.1824999000000003,0.44771572947502136,-0.2717418968677521,9.545681953430176,-5.06591796875,-0.335693359375,-0.48828125
3.1874999,0.5345055460929871,-0.34177228808403015,9.896432876586914,5.79833984375,0.9765625,-1.89208984375
3.1924999,0.2519897222518921,-0.2322375625371933,9.953893661499023,-1.068115234375,-0.42724609375,1.953125
3.1974999000000004,0.39205053448677063,-0.25318682193756104,9.616909980773926,-4.425048828125,-0.48828125,-1.15966796875
3.2024999000000003,0.2555810213088989,-0.26396074891090393,9.946112632751465,-2.44140625,-0.457763671875,2.044677734375
3.2074999,0.507570743560791,-0.29209262132644653,9.623494148254395,-3.387451171875,0.244140625,-1.373291015625
3.2124999,0.5135562419891357,-0.3561375141143799,10.001178741455078,6.378173828125,1.0986328125,-1.007080078125
3.2174999,0.3082534670829773,-0.2795230448246002,9.82999324798584,-3.265380859375,0.030517578125,1.922607421875
3.2224999000000003,0.5063736438751221,-0.2687491476535797,9.65222454071045,-1.0986328125,0.9765625,-2.13623046875
3.2274999,0.5063736438751221,-0.2687491476535797,9.65222454071045,-1.0986328125,0.9765625,-2.13623046875
3.2324999,0.4106055796146393,-0.27712884545326233,10.010157585144043,5.55419921875,-0.30517578125,-0.335693359375
3.2374999,0.31842881441116333,-0.26755204796791077,9.709685325622559,-5.2490234375,-0.732421875,1.5869140625
3.2424999000000003,0.5147533416748047,-0.2711433470249176,9.601945877075195,0.244140625,-0.457763671875,-2.3193359375
3.2474999,0.38307225704193115,-0.26815059781074524,9.968857765197754,4.7607421875,0.030517578125,0.213623046875
3.2524999,0.27413609623908997,-0.22744916379451752,9.675567626953125,-5.828857421875,-0.30517578125,1.40380859375
3.2574999,0.44352585077285767,-0.2082955539226532,9.691728591918945,1.373291015625,0.457763671875,-2.5634765625
3.2624999000000003,0.34177228808403015,-0.23283611238002777,10.04068374633789,4.21142578125,-0.396728515625,0.518798828125
3.2674999000000002,0.28730419278144836,-0.20709845423698425,9.662399291992188,-5.92041015625,-0.1220703125,0.946044921875
3.2724999,0.39384618401527405,-0.28371289372444153,9.91977596282959,3.11279296875,-0.091552734375,1.03759765625
3.2774999,0.34356793761253357,-0.28790274262428284,9.527127265930176,-6.16455078125,-0.244140625,0.6103515625
3.2824999000000004,0.33758243918418884,-0.2759317457675934,9.980229377746582,1.007080078125,-0.518798828125,1.739501953125
3.2874999000000003,0.33758243918418884,-0.2759317457675934,9.980229377746582,1.007080078125,-0.518798828125,1.739501953125
3.2924999,0.4297592043876648,-0.28550854325294495,9.55825138092041,-5.43212890625,-0.3662109375,-0.457763671875
3.2974999,0.5668272376060486,-0.3585317134857178,9.856928825378418,5.31005859375,-0.030517578125,-1.983642578125
3.3024999000000004,0.30047231912612915,-0.2735375463962555,9.91738224029541,-0.701904296875,-0.091552734375,2.044677734375
3.3074999000000003,0.39564183354377747,-0.28072014451026917,9.561842918395996,-4.57763671875,0.18310546875,-1.007080078125
3.3124999,0.47584760189056396,-0.3256114423274994,9.979032516479492,5.92041015625,-0.6103515625,-1.89208984375
3.3174999,0.49978959560394287,-0.33039984107017517,10.037690162658691,6.439208984375,0.457763671875,-1.40380859375
3.3224999000000004,0.49978959560394287,-0.33039984107017517,10.037690162658691,6.439208984375,0.457763671875,-1.40380859375
3.3274999000000003,0.2974795699119568,-0.2735375463962555,9.86650562286377,-2.99072265625,-0.518798828125,2.227783203125
3.3324999,0.5339069962501526,-0.30226796865463257,9.613917350769043,-2.899169921875,-0.6103515625,-1.678466796875
3.3374999,0.45848962664604187,-0.32860419154167175,9.986215591430664,5.9814453125,-0.091552734375,-0.91552734375
3.3424999,0.2663549482822418,-0.2537853717803955,9.821015357971191,-4.119873046875,-0.3662109375,1.983642578125
3.3474999000000003,0.497395396232605,-0.2908954918384552,9.640253067016602,-1.708984375,-0.457763671875,-2.25830078125
3.3524999,0.3974374830722809,-0.29209262132644653,10.01075553894043,6.16455078125,0.18310546875,-0.42724609375
3.3574999,0.29807811975479126,-0.2783259451389313,9.764751434326172,-4.852294921875,-0.030517578125,1.800537109375
3.3624999,0.25438392162323,-0.18794482946395874,9.68274974822998,-5.889892578125,0.18310546875,1.0986328125
3.3674999000000003,0.45429977774620056,-0.24181437492370605,9.685144424438477,2.25830078125,-0.06103515625,-2.899169921875
3.3724999,0.36092591285705566,-0.26336219906806946,9.964667320251465,3.631591796875,-0.67138671875,1.007080078125
3.3774999,0.32022446393966675,-0.2861070930957794,9.549273490905762,-6.103515625,-0.1220703125,0.823974609375
3.3824999,0.5285200476646423,-0.33997663855552673,9.643844604492188,3.23486328125,0.3662109375,-2.716064453125
3.3874999000000003,0.35733461380004883,-0.2885012924671173,9.955689430236816,2.532958984375,-0.18310546875,1.312255859375
3.3924999000000002,0.3357867896556854,-0.29388827085494995,9.585186958312988,-6.103515625,0.274658203125,0.30517578125
3.3974999,0.5249287486076355,-0.2992752194404602,9.838373184204102,4.486083984375,0.06103515625,-2.5634765625
3.4024999,0.3148375153541565,-0.25079262256622314,10.040084838867188,1.068115234375,-0.396728515625,1.5869140625
3.4074999000000004,0.39863458275794983,-0.25498247146606445,9.605537414550781,-5.645751953125,-0.579833984375,-0.335693359375
3.4124999000000003,0.5710170865058899,-0.3148375153541565,9.856329917907715,5.4931640625,0.091552734375,-2.197265625
3.4174999,0.34656068682670593,-0.2561795711517334,9.91977596282959,-0.152587890625,-0.1220703125,1.861572265625
3.4224999,0.4345476031303406,-0.27473464608192444,9.536105155944824,-5.0048828125,0.152587890625,-0.732421875
3.4274999000000004,0.524330198764801,-0.3256114423274994,9.929951667785645,5.767822265625,1.068115234375,-1.8310546875
3.4324999000000003,0.2472013235092163,-0.24121582508087158,9.955689430236816,-1.40380859375,-0.518798828125,1.922607421875
3.4374999,0.4165911078453064,-0.28371289372444153,9.61212158203125,-4.08935546875,-0.274658203125,-1.220703125
3.4424999,0.48602294921875,-0.32202014327049255,10.013150215148926,6.072998046875,0.091552734375,-1.373291015625
3.4474999000000004,0.2711433470249176,-0.2890998423099518,9.88625717163086,-2.8076171875,-0.457763671875,2.105712890625
3.4524999000000003,0.5279214978218079,-0.33279404044151306,9.622895240783691,-3.11279296875,0.06103515625,-1.5869140625
3.4574999,0.49320554733276367,-0.34656068682670593,10.00716495513916,6.195068359375,0.1220703125,-1.190185546875
3.4624999,0.2974795699119568,-0.2968810200691223,9.847949981689453,-3.7841796875,-0.274658203125,1.953125
3.4674999,0.5201402902603149,-0.3124433159828186,9.64803409576416,-1.678466796875,0.42724609375,-1.861572265625
3.4724999000000003,0.4124012291431427,-0.27054479718208313,10.003573417663574,6.2255859375,-0.244140625,-0.640869140625
3.4774999,0.27892449498176575,-0.24839842319488525,9.789292335510254,-4.8828125,-0.3662109375,1.861572265625
3.4824999,0.5171475410461426,-0.2861070930957794,9.594164848327637,-0.48828125,0.67138671875,-2.288818359375
3.4874999,0.4159925580024719,-0.25019407272338867,9.941922187805176,5.767822265625,0.274658203125,-0.1220703125
3.4924999000000003,0.322618693113327,-0.28311434388160706,9.639056205749512,-5.279541015625,-0.1220703125,1.77001953125
3.4974999,0.4985924959182739,-0.26815059781074524,9.578003883361816,0.79345703125,-0.18310546875,-2.50244140625
3.5024999,0.36750996112823486,-0.21188685297966003,9.973047256469727,4.45556640625,-0.18310546875,0.274658203125
3.5074999,0.26994624733924866,-0.21128830313682556,9.66299819946289,-5.9814453125,-0.640869140625,1.28173828125
3.5124999000000003,0.45908817648887634,-0.21607670187950134,9.668983459472656,2.349853515625,0.42724609375,-2.74658203125
3.5174999000000002,0.3585317134857178,-0.2059013396501541,9.98681354522705,3.631591796875,-0.274658203125,0.91552734375
3.5224999,0.30885201692581177,-0.26815059781074524,9.567828178405762,-6.378173828125,-0.244140625,0.823974609375
3.5274999,0.5165489912033081,-0.2867056429386139,9.633668899536133,3.0517578125,0.244140625,-2.593994140625
3.5324999000000004,0.3621230125427246,-0.26575639843940735,9.932944297790527,2.593994140625,-0.640869140625,1.251220703125
3.5374999000000003,0.3357867896556854,-0.3010708689689636,9.548674583435059,-6.011962890625,-0.274658203125,0.3662109375
3.5424999,0.3232172429561615,-0.24241292476654053,10.005967140197754,1.46484375,-0.518798828125,1.739501953125
3.5474999,0.3884592354297638,-0.28311434388160706,9.598953247070312,-5.9814453125,-0.640869140625,-0.244140625
3.5524999000000004,0.568622887134552,-0.2687491476535797,9.844358444213867,5.157470703125,-0.518798828125,-2.3193359375
3.5574999000000003,0.3519476354122162,-0.28131869435310364,9.932345390319824,-0.213623046875,-0.18310546875,1.89208984375
3.5624999,0.43933600187301636,-0.3256114423274994,9.515754699707031,-5.0048828125,-0.091552734375,-0.8544921875
3.5674999,0.5416881442070007,-0.29388827085494995,9.875483512878418,6.072998046875,-0.30517578125,-1.953125
3.5724999000000004,0.2663549482822418,-0.292691171169281,9.901819229125977,-1.251220703125,0.030517578125,2.0751953125
3.5774999000000003,0.4058171808719635,-0.28730419278144836,9.564237594604492,-4.150390625,0.732421875,-1.190185546875
3.5824999,0.4842272996902466,-0.2717418968677521,9.97065258026123,5.859375,-0.457763671875,-1.617431640625
3.5874999,0.25677812099456787,-0.3106476664543152,9.886856079101562,-2.50244140625,-0.732421875,2.197265625
3.5924999,0.5051765441894531,-0.3016694188117981,9.597756385803223,-2.9296875,0.1220703125,-1.373291015625
3.5974999000000003,0.5033808946609497,-0.34356793761253357,9.9772367477417,6.134033203125,0.732421875,-1.220703125
3.6024999,0.4082113802433014,-0.2825157940387726,9.989806175231934,5.859375,0.335693359375,-0.213623046875
3.6074999,0.322618693113327,-0.26575639843940735,9.715670585632324,-5.18798828125,0.06103515625,1.495361328125
3.6124999,0.49978959560394287,-0.2735375463962555,9.636661529541016,0.244140625,-0.06103515625,-2.38037109375
3.6174999000000003,0.36810851097106934,-0.2825157940387726,10.026318550109863,5.18798828125,0.030517578125,0.48828125
3.6224999,0.2651578485965729,-0.228047713637352,9.719860076904297,-5.889892578125,-0.30517578125,0.9765625
3.6274999,0.4489128291606903,-0.20530278980731964,9.731232643127441,1.40380859375,-0.3662109375,-2.74658203125
3.6324999,0.35075053572654724,-0.23283611238002777,10.056245803833008,3.96728515625,-0.091552734375,0.91552734375
3.6374999000000003,0.304063618183136,-0.19572599232196808,9.655217170715332,-5.92041015625,-0.335693359375,0.79345703125
3.6424999000000002,0.34596213698387146,-0.2890998423099518,9.55466079711914,-6.103515625,-0.457763671875,0.30517578125
3.6474999,0.5339069962501526,-0.3250128924846649,9.744400978088379,3.96728515625,0,-2.777099609375
3.6524999,0.32441434264183044,-0.2687491476535797,10.011354446411133,1.739501953125,-0.213623046875,1.77001953125
3.6574999000000004,0.35913026332855225,-0.2579752206802368,9.601346969604492,-5.9814453125,0.030517578125,0.030517578125
3.6624999000000003,0.5560533404350281,-0.30945056676864624,9.847352027893066,5.0048828125,0.42724609375,-2.349853515625
3.6674999,0.3477577865123749,-0.2693476974964142,9.934141159057617,0.518798828125,-0.457763671875,1.77001953125
3.6724999,0.4495113790035248,-0.27892449498176575,9.520543098449707,-5.31005859375,0.1220703125,-0.54931640625
3.6774999000000004,0.568622887134552,-0.3495534360408783,9.82879638671875,5.31005859375,0.640869140625,-2.105712890625
3.6824999000000003,0.47644615173339844,-0.30885201692581177,10.00716495513916,5.950927734375,0.48828125,-1.64794921875
3.6874999,0.5404910445213318,-0.32680854201316833,9.622296333312988,-2.50244140625,0.518798828125,-1.739501953125
3.6924999,0.4507084786891937,-0.3471592366695404,10.025120735168457,6.103515625,0.06103515625,-1.03759765625
3.6974999000000004,0.2759317457675934,-0.26815059781074524,9.845556259155273,-4.21142578125,-0.152587890625,1.953125
3.7024999000000003,0.5099649429321289,-0.2992752194404602,9.66958236694336,-1.007080078125,1.068115234375,-2.044677734375
3.7074999,0.41120412945747375,-0.2783259451389313,10.017938613891602,5.889892578125,-0.030517578125,-0.457763671875
3.7124999,0.3106476664543152,-0.26096799969673157,9.727043151855469,-5.157470703125,-0.640869140625,1.708984375
3.7174999,0.5201402902603149,-0.26755204796791077,9.587580680847168,0,0.06103515625,-2.44140625
3.7224999000000003,0.38905778527259827,-0.25438392162323,9.950302124023438,4.94384765625,-0.30517578125,0.213623046875
3.7274999,0.28730419278144836,-0.23343466222286224,9.659406661987305,-5.767822265625,-0.762939453125,1.3427734375
3.7324999,0.29568392038345337,-0.20889410376548767,9.679159164428711,-6.439208984375,-0.396728515625,0.9765625
3.7374999,0.5153518915176392,-0.2849099934101105,9.697713851928711,2.62451171875,0.335693359375,-2.5634765625
3.7424999000000003,0.40043023228645325,-0.284311443567276,9.960477828979492,3.2958984375,-0.30517578125,1.190185546875
3.7474999,0.3519476354122162,-0.30885201692581177,9.561842918395996,-6.2255859375,-0.274658203125,0.6103515625
3.7524999,0.5309142470359802,-0.33279404044151306,9.706692695617676,3.692626953125,0.18310546875,-2.410888671875
3.7574999,0.32381579279899597,-0.25977087020874023,9.992799758911133,2.13623046875,-0.42724609375,1.40380859375
3.7624999000000003,0.5309142470359802,-0.2902969419956207,9.864110946655273,4.69970703125,0.06103515625,-2.349853515625
3.7674999000000002,0.3357867896556854,-0.25737667083740234,9.992799758911133,0.79345703125,0.06103515625,1.800537109375
3.7724999,0.436343252658844,-0.2735375463962555,9.546878814697266,-5.43212890625,0.274658203125,-0.48828125
3.7774999,0.5871779918670654,-0.34835633635520935,9.82879638671875,5.7373046875,0.48828125,-2.0751953125
3.7824999000000004,0.4159925580024719,-0.27712884545326233,9.527127265930176,-4.852294921875,0.42724609375,-0.9765625
3.7874999000000003,0.48901569843292236,-0.30885201692581177,9.959280967712402,6.103515625,-0.152587890625,-1.739501953125
3.7924999,0.22685061395168304,-0.2388216257095337,9.958083152770996,-1.8310546875,-0.579833984375,2.13623046875
3.7974999,0.4513070285320282,-0.29568392038345337,9.642647743225098,-3.997802734375,-0.42724609375,-1.40380859375
3.8024999000000004,0.5051765441894531,-0.34177228808403015,10.043676376342773,6.34765625,0.6103515625,-1.5869140625
3.8074999000000003,0.3076549172401428,-0.3130418658256531,9.86770248413086,-2.960205078125,-0.54931640625,2.227783203125
3.8124999,0.5446808934211731,-0.3447650372982025,9.618705749511719,-2.593994140625,-0.6103515625,-1.800537109375
3.8174999,0.46986207365989685,-0.3232172429561615,9.984419822692871,6.103515625,0.457763671875,-1.068115234375
3.8224999000000004,0.46986207365989685,-0.3232172429561615,9.984419822692871,6.103515625,0.457763671875,-1.068115234375
3.8274999000000003,0.26994624733924866,-0.26156654953956604,9.804854393005371,-4.0283203125,-0.30517578125,2.044677734375
3.8324999,0.49320554733276367,-0.2890998423099518,9.618705749511719,-1.3427734375,-0.335693359375,-2.044677734375
3.8374999,0.3932476341724396,-0.23822307586669922,9.980828285217285,5.523681640625,-0.335693359375,-0.701904296875
3.8424999,0.46507367491722107,-0.24361002445220947,9.651026725769043,1.007080078125,0.152587890625,-2.471923828125
3.8474999000000003,0.3357867896556854,-0.1999158412218094,10.026318550109863,4.547119140625,-0.152587890625,0.54931640625
3.8524999,0.2645592987537384,-0.21966800093650818,9.672574996948242,-5.889892578125,-0.1220703125,1.068115234375
3.8574999,0.4692635238170624,-0.23104046285152435,9.67077922821045,2.838134765625,0.640869140625,-2.410888671875
3.8624999,0.37828385829925537,-0.23163901269435883,9.951498985290527,3.23486328125,0.1220703125,1.15966796875
3.8674999000000003,0.3381809890270233,-0.29628247022628784,9.533711433410645,-6.103515625,-0.152587890625,0.518798828125
3.8724999,0.5392939448356628,-0.2908954918384552,9.67077922821045,4.058837890625,0.152587890625,-2.5634765625
3.8774999,0.35434186458587646,-0.26396074891090393,9.974244117736816,2.01416015625,0,1.3427734375
3.8824999,0.33698388934135437,-0.304063618183136,9.592369079589844,-6.011962890625,0.030517578125,0.335693359375
3.8874999000000003,0.31783026456832886,-0.2795230448246002,9.99100399017334,0.885009765625,-0.42724609375,1.556396484375
3.8924999000000002,0.39863458275794983,-0.29388827085494995,9.5408935546875,-5.279541015625,-0.1220703125,-0.3662109375
3.8974999,0.5668272376060486,-0.3148375153541565,9.788095474243164,5.218505859375,0.396728515625,-2.197265625
3.9024999,0.32620999217033386,-0.3124433159828186,9.843161582946777,-0.518798828125,-0.18310546875,1.983642578125
3.9074999000000004,0.4231751561164856,-0.3082534670829773,9.485228538513184,-4.82177734375,0.06103515625,-0.885009765625
3.9124999000000003,0.5069721937179565,-0.2867056429386139,9.898228645324707,5.9814453125,0.18310546875,-2.01416015625
3.9174999,0.2388216257095337,-0.2561795711517334,9.931148529052734,-1.46484375,-0.091552734375,2.166748046875
3.9224999,0.5333084464073181,-0.2669534981250763,9.593565940856934,-0.457763671875,0.30517578125,-2.227783203125
3.9274999000000004,0.4291606545448303,-0.2783259451389313,9.941324234008789,5.31005859375,0.3662109375,0
3.9324999000000003,0.333991140127182,-0.27892449498176575,9.642647743225098,-5.31005859375,-0.152587890625,1.64794921875
3.9374999,0.5051765441894531,-0.2819172441959381,9.599552154541016,0.91552734375,0.518798828125,-2.349853515625
3.9424999,0.36571431159973145,-0.25737667083740234,9.988011360168457,5.06591796875,-0.30517578125,0.274658203125
3.9474999000000004,0.262763649225235,-0.22385786473751068,9.695918083190918,-5.79833984375,-0.152587890625,1.434326171875
3.9524999000000003,0.4471171796321869,-0.21667525172233582,9.704896926879883,1.678466796875,0.579833984375,-2.5634765625
3.9574999,0.35075053572654724,-0.22266076505184174,10.012551307678223,3.96728515625,0.091552734375,0.732421875
3.9624999,0.3034650683403015,-0.23403321206569672,9.600150108337402,-6.072998046875,-0.213623046875,1.068115234375
3.9674999000000004,0.31364041566848755,-0.2346317619085312,9.992799758911133,1.556396484375,-0.3662109375,1.28173828125
3.9724999000000003,0.34656068682670593,-0.25737667083740234,9.583391189575195,-5.828857421875,-0.18310546875,0
3.9774999,0.5410895943641663,-0.284311443567276,9.832387924194336,5.157470703125,0.152587890625,-2.0751953125
3.9824999,0.3345896899700165,-0.2801215946674347,9.911994934082031,0.1220703125,-0.06103515625,1.77001953125
3.9874999,0.4345476031303406,-0.3166331648826599,9.48762321472168,-5.126953125,0.213623046875,-0.518798828125
3.9924999000000003,0.5596446394920349,-0.3477577865123749,9.830592155456543,5.950927734375,0.640869140625,-1.861572265625
3.9974999,0.2902969419956207,-0.28371289372444153,9.893440246582031,-0.91552734375,-0.518798828125,1.953125
4.0024999,0.4040215313434601,-0.2998737692832947,9.575610160827637,-4.45556640625,-0.091552734375,-1.129150390625
4.0074999,0.5057750940322876,-0.3058592677116394,9.979032516479492,6.591796875,0.152587890625,-1.3427734375
4.0124999,0.30047231912612915,-0.3387795388698578,9.832986831665039,-3.204345703125,-0.396728515625,2.13623046875
4.0174999,0.5363011956214905,-0.3489548861980438,9.613917350769043,-2.0751953125,0.1220703125,-2.01416015625
4.022499900000001,0.4578910768032074,-0.25917232036590576,10.016741752624512,6.04248046875,0.06103515625,-0.79345703125
4.0274999000000005,0.27054479718208313,-0.2867056429386139,9.819818496704102,-4.608154296875,-0.1220703125,2.13623046875
4.0324999,0.5117605924606323,-0.27234044671058655,9.620500564575195,-1.220703125,0.42724609375,-2.227783203125
4.0374999,0.41120412945747375,-0.21966800093650818,9.965864181518555,5.828857421875,0.06103515625,-0.640869140625
4.0424999,0.3082534670829773,-0.2950853705406189,9.691129684448242,-4.852294921875,-0.457763671875,1.8310546875
4.0474999,0.5333084464073181,-0.2783259451389313,9.557653427124023,0.42724609375,0,-2.44140625
4.0524999,0.41359832882881165,-0.25079262256622314,9.955090522766113,4.8828125,-0.213623046875,-0.06103515625
4.0574999,0.47225627303123474,-0.22744916379451752,9.66958236694336,1.220703125,0.640869140625,-2.410888671875
4.062499900000001,0.34356793761253357,-0.23523031175136566,10.039485931396484,4.486083984375,0,0.42724609375
4.0674999000000005,0.27234044671058655,-0.22206220030784607,9.682151794433594,-5.859375,-0.244140625,1.0986328125
4.0724999,0.4812345504760742,-0.2406172752380371,9.648633003234863,2.655029296875,0.244140625,-2.532958984375
4.0774999,0.38726213574409485,-0.26575639843940735,9.910798072814941,3.448486328125,-0.335693359375,1.068115234375
4.0824999,0.5183446407318115,-0.2968810200691223,9.818022727966309,4.608154296875,0,-2.62451171875
4.0874999,0.31364041566848755,-0.2603694200515747,10.027515411376953,1.312255859375,-0.42724609375,1.5869140625
4.0924999,0.39564183354377747,-0.25258827209472656,9.599552154541016,-5.55419921875,-0.06103515625,-0.30517578125
4.0974999,0.4411316514015198,-0.2795230448246002,9.512762069702148,-5.096435546875,0,-0.54931640625
4.1024999,0.5327098965644836,-0.3429693877696991,9.883264541625977,5.79833984375,0.396728515625,-2.0751953125
4.1074999000000005,0.24660277366638184,-0.2454056739807129,9.935338973999023,-1.0986328125,-0.457763671875,1.89208984375
4.1124999,0.3974374830722809,-0.26755204796791077,9.61331844329834,-3.997802734375,-0.091552734375,-1.15966796875
4.1174999,0.4686649739742279,-0.314238965511322,10.02691650390625,6.195068359375,0.030517578125,-1.5869140625
4.1224999,0.2513911724090576,-0.26815059781074524,9.929352760314941,-2.38037109375,-0.244140625,2.0751953125
4.1274999,0.5069721937179565,-0.31124621629714966,9.617507934570312,-3.2958984375,0.396728515625,-1.5869140625
4.1324999,0.5027823448181152,-0.3447650372982025,9.96945571899414,6.195068359375,0.396728515625,-1.0986328125
4.1374999,0.30226796865463257,-0.29568392038345337,9.807249069213867,-3.47900390625,-0.274658203125,2.0751953125
4.1424999,0.5267243981361389,-0.30885201692581177,9.59057331085205,-2.197265625,0.244140625,-1.983642578125
4.147499900000001,0.4231751561164856,-0.2861070930957794,9.982025146484375,6.34765625,-0.091552734375,-0.732421875
4.1524999000000005,0.5225345492362976,-0.2908954918384552,9.563039779663086,0.091552734375,0.457763671875,-2.532958984375
4.1574999,0.39384618401527405,-0.2561795711517334,9.93354320526123,5.06591796875,-0.091552734375,0.152587890625
4.1624999,0.4602852761745453,-0.24121582508087158,9.653421401977539,1.739501953125,0.396728515625,-2.5634765625
4.1674999,0.35015198588371277,-0.21667525172233582,10.020931243896484,4.302978515625,-0.18310546875,0.579833984375
4.1724999,0.28730419278144836,-0.22266076505184174,9.642647743225098,-6.011962890625,-0.274658203125,1.007080078125
4.1774999,0.4985924959182739,-0.26336219906806946,9.642647743225098,2.685546875,0.274658203125,-2.410888671875
4.1824999,0.38486793637275696,-0.24899697303771973,9.90361499786377,3.143310546875,0.030517578125,1.251220703125
4.187499900000001,0.3345896899700165,-0.3166331648826599,9.491812705993652,-6.256103515625,0.06103515625,0.579833984375
4.1924999000000005,0.31603461503982544,-0.24241292476654053,9.995792388916016,0.946044921875,-0.457763671875,1.739501953125
4.1974999,0.4082113802433014,-0.3010708689689636,9.542689323425293,-5.4931640625,-0.152587890625,-0.152587890625
4.2024999,0.578798234462738,-0.31543606519699097,9.79408073425293,5.4931640625,0.06103515625,-2.13623046875
4.2074999,0.34656068682670593,-0.3250128924846649,9.868300437927246,-0.54931640625,-0.152587890625,1.89208984375
4.2124999,0.4345476031303406,-0.3429693877696991,9.512762069702148,-4.852294921875,0.1220703125,-0.732421875
4.2174999,0.5171475410461426,-0.2902969419956207,9.929352760314941,5.950927734375,0.30517578125,-1.861572265625
4.2224999,0.24361002445220947,-0.27473464608192444,9.966463088989258,-1.64794921875,-0.335693359375,2.166748046875
4.2274999,0.4034229815006256,-0.272938996553421,9.624691009521484,-3.997802734375,0.213623046875,-1.220703125
4.2324999000000005,0.48303020000457764,-0.26575639843940735,10.005369186401367,6.256103515625,0.152587890625,-1.52587890625
4.2374999,0.5249287486076355,-0.3130418658256531,9.565434455871582,-2.838134765625,0,-1.5869140625
4.2424999,0.50876784324646,-0.31543606519699097,9.928155899047852,6.103515625,0.1220703125,-1.007080078125
4.2474999,0.30466216802597046,-0.3064578175544739,9.783307075500488,-3.570556640625,-0.274658203125,2.044677734375
4.2524999,0.5261258482933044,-0.2693476974964142,9.593565940856934,-2.105712890625,0.396728515625,-1.983642578125
4.2574999,0.4141969084739685,-0.2777273952960968,9.982025146484375,5.828857421875,0.152587890625,-0.6103515625
4.2624999,0.26336219906806946,-0.2454056739807129,9.790489196777344,-4.39453125,-0.335693359375,1.861572265625
4.2674999,0.507570743560791,-0.2519897222518921,9.610923767089844,-0.885009765625,0.335693359375,-2.166748046875
4.272499900000001,0.40880993008613586,-0.28730419278144836,9.959280967712402,5.67626953125,-0.091552734375,-0.244140625
4.2774999000000005,0.3214215636253357,-0.26575639843940735,9.68574333190918,-5.035400390625,-0.42724609375,1.739501953125
4.2824999,0.5207388401031494,-0.27054479718208313,9.592369079589844,0.335693359375,0.18310546875,-2.38037109375
4.2874999,0.38726213574409485,-0.28072014451026917,9.983820915222168,4.94384765625,-0.274658203125,0.152587890625
4.2924999,0.28790274262428284,-0.24181437492370605,9.703699111938477,-5.645751953125,-0.18310546875,1.312255859375
4.2974999,0.353743314743042,-0.25079262256622314,10.070611000061035,4.425048828125,0,0.640869140625
4.3024999,0.29209262132644653,-0.20470423996448517,9.692327499389648,-6.16455078125,-0.06103515625,1.0986328125
4.3074999,0.5003881454467773,-0.24779987335205078,9.6803560256958,2.44140625,0.42724609375,-2.655029296875
4.312499900000001,0.3926490843296051,-0.27473464608192444,9.941324234008789,2.960205078125,0.1220703125,1.0986328125
4.3174999000000005,0.3447650372982025,-0.2735375463962555,9.527725219726562,-5.950927734375,-0.1220703125,0.6103515625
4.3224999,0.3208230137825012,-0.23163901269435883,10.014945983886719,1.068115234375,-0.42724609375,1.678466796875
4.3274999,0.4076128304004669,-0.23582886159420013,9.571419715881348,-5.584716796875,-0.640869140625,-0.54931640625
4.3324999,0.5734112858772278,-0.3166331648826599,9.830592155456543,5.06591796875,-0.30517578125,-2.44140625
4.3374999,0.3357867896556854,-0.2669534981250763,9.888052940368652,0.06103515625,-0.18310546875,2.227783203125
4.3424999,0.4255693554878235,-0.2717418968677521,9.530718803405762,-4.913330078125,0.42724609375,-0.640869140625
4.3474999,0.5111620426177979,-0.32620999217033386,9.916184425354004,5.55419921875,0.762939453125,-2.25830078125
4.352499900000001,0.23822307586669922,-0.22924481332302094,9.974244117736816,-1.495361328125,0,2.01416015625
4.3574999000000005,0.23822307586669922,-0.22924481332302094,9.974244117736816,-1.495361328125,0,2.01416015625
4.3624999,0.39863458275794983,-0.25438392162323,9.638457298278809,-4.2724609375,-0.030517578125,-1.0986328125
4.3674999,0.4794389009475708,-0.32441434264183044,10.054450035095215,6.2255859375,0.30517578125,-1.800537109375
4.3724999,0.26575639843940735,-0.28371289372444153,9.948506355285645,-2.3193359375,-0.213623046875,1.861572265625
4.3774999,0.5135562419891357,-0.32620999217033386,9.641449928283691,-2.777099609375,0.518798828125,-1.40380859375
4.3824999,0.5039794445037842,-0.3669114112854004,10.008959770202637,6.500244140625,-0.1220703125,-1.190185546875
4.3874999,0.2968810200691223,-0.29628247022628784,9.832986831665039,-3.631591796875,-0.640869140625,1.800537109375
4.3924999,0.5201402902603149,-0.30047231912612915,9.616909980773926,-1.983642578125,-0.1220703125,-1.8310546875
4.397499900000001,0.4207809567451477,-0.304063618183136,9.996989250183105,6.072998046875,-0.18310546875,-0.67138671875
4.4024999000000005,0.4279635548591614,-0.2783259451389313,9.9772367477417,5.523681640625,0.42724609375,-0.152587890625
4.4074999,0.4279635548591614,-0.2783259451389313,9.9772367477417,5.523681640625,0.42724609375,-0.152587890625
4.4124999,0.3321954905986786,-0.2783259451389313,9.687539100646973,-5.401611328125,0.06103515625,1.64794921875
4.4174999,0.5315127968788147,-0.28072014451026917,9.577404975891113,0,0.640869140625,-2.5634765625
4.4224999,0.39384618401527405,-0.262763649225235,9.9401273727417,4.8828125,0.335693359375,0.18310546875
4.4274999,0.27892449498176575,-0.2472013235092163,9.662399291992188,-5.645751953125,-0.244140625,1.40380859375
4.4324999,0.4411316514015198,-0.2298433631658554,9.675567626953125,1.40380859375,0.396728515625,-2.532958984375
4.437499900000001,0.3280056416988373,-0.2232593148946762,10.056245803833008,4.364013671875,-0.213623046875,0.67138671875
4.4424999000000005,0.2669534981250763,-0.20949265360832214,9.697713851928711,-6.04248046875,-0.48828125,1.03759765625
4.4474999,0.4878185987472534,-0.27234044671058655,9.686341285705566,2.50244140625,-0.030517578125,-2.685546875
4.4524999,0.3926490843296051,-0.27054479718208313,9.936535835266113,3.47900390625,-0.396728515625,1.007080078125
4.4574999,0.35913026332855225,-0.322618693113327,9.504382133483887,-6.195068359375,-0.091552734375,0.67138671875
4.4624999,0.3669114112854004,-0.2801215946674347,9.930550575256348,2.227783203125,-0.030517578125,1.46484375
4.4674999,0.3669114112854004,-0.2801215946674347,9.930550575256348,2.227783203125,-0.030517578125,1.46484375
4.4724999,0.33997663855552673,-0.2801215946674347,9.561244010925293,-5.950927734375,0,0.213623046875
4.477499900000001,0.5237316489219666,-0.27234044671058655,9.831191062927246,4.547119140625,0.518798828125,-2.44140625
4.4824999000000005,0.31184476613998413,-0.21308395266532898,10.012551307678223,1.03759765625,-0.06103515625,1.800537109375
4.4874999,0.3878606855869293,-0.25318682193756104,9.567828178405762,-5.584716796875,0.091552734375,-0.091552734375
4.4924999,0.5614402890205383,-0.29149407148361206,9.812037467956543,5.37109375,0.396728515625,-2.349853515625
4.4974999,0.33039984107017517,-0.262763649225235,9.856928825378418,-0.18310546875,-0.30517578125,2.01416015625
4.5024999,0.42377370595932007,-0.29628247022628784,9.475052833557129,-4.974365234375,0.030517578125,-0.640869140625
4.5074999,0.5159504413604736,-0.3082534670829773,9.861717224121094,5.92041015625,0.152587890625,-1.983642578125
4.5124999,0.24660277366638184,-0.2561795711517334,9.917980194091797,-1.251220703125,-0.579833984375,2.0751953125
4.5174999,0.4058171808719635,-0.2944868206977844,9.59835433959961,-4.0283203125,-0.1220703125,-1.0986328125
4.522499900000001,0.27234044671058655,-0.29867666959762573,9.892841339111328,-2.471923828125,-0.54931640625,2.13623046875
4.5274999000000005,0.5183446407318115,-0.3447650372982025,9.582792282104492,-3.23486328125,0.030517578125,-1.556396484375
4.5324999,0.518943190574646,-0.31184476613998413,9.955689430236816,6.072998046875,0.213623046875,-1.220703125
4.5374999,0.30705636739730835,-0.3274070918560028,9.808445930480957,-3.60107421875,-0.06103515625,2.0751953125
4.5424999,0.5327098965644836,-0.3315969407558441,9.600749015808105,-2.0751953125,0.518798828125,-1.861572265625
4.5474999,0.4357447028160095,-0.24241292476654053,10.002974510192871,6.103515625,0.152587890625,-0.701904296875
4.5524999,0.2711433470249176,-0.27234044671058655,9.79527759552002,-4.730224609375,-0.244140625,2.01416015625
4.5574999,0.5141547918319702,-0.26994624733924866,9.606734275817871,-0.946044921875,0.48828125,-2.13623046875
4.562499900000001,0.3190273642539978,-0.3082534670829773,9.671378135681152,-5.279541015625,-0.091552734375,1.77001953125
4.5674999000000005,0.5351040959358215,-0.29149407148361206,9.560646057128906,0.48828125,0.457763671875,-2.5634765625
4.5724999,0.40043023228645325,-0.26336219906806946,9.960477828979492,5.2490234375,-0.030517578125,0.091552734375
4.5774999,0.4770447015762329,-0.23163901269435883,9.664793968200684,2.593994140625,0.3662109375,-2.410888671875
4.5824999,0.3842693865299225,-0.2795230448246002,9.90361499786377,3.35693359375,-0.091552734375,0.91552734375
4.5874999,0.3387795388698578,-0.2867056429386139,9.497797966003418,-6.011962890625,-0.18310546875,0.6103515625
4.5924999,0.5339069962501526,-0.3208230137825012,9.599552154541016,3.204345703125,0.274658203125,-2.471923828125
4.5974999,0.35673606395721436,-0.29568392038345337,9.924564361572266,2.166748046875,-0.274658203125,1.220703125
4.602499900000001,0.32620999217033386,-0.27473464608192444,9.585784912109375,-6.134033203125,-0.152587890625,0.30517578125
4.6074999000000005,0.5159504413604736,-0.29388827085494995,9.830592155456543,4.21142578125,0.30517578125,-2.38037109375
4.6124999,0.3124433159828186,-0.262763649225235,10.031704902648926,1.46484375,-0.030517578125,1.373291015625
4.6174999,0.3902548849582672,-0.2669534981250763,9.610325813293457,-5.4931640625,0.335693359375,-0.091552734375
4.6224999,0.3579331636428833,-0.28730419278144836,9.912593841552734,0.152587890625,-0.457763671875,1.861572265625
4.6274999,0.44412440061569214,-0.28730419278144836,9.515155792236328,-5.06591796875,0.091552734375,-0.701904296875
4.6324999,0.5351040959358215,-0.3513490855693817,9.87967300415039,5.706787109375,-0.6103515625,-1.953125
4.6374999,0.2579752206802368,-0.25258827209472656,9.946112632751465,-0.9765625,-0.762939453125,1.922607421875
4.6424999,0.3818751573562622,-0.2651578485965729,9.607333183288574,-4.21142578125,-0.030517578125,-1.220703125
4.647499900000001,0.4638765752315521,-0.3064578175544739,10.033500671386719,6.134033203125,0.091552734375,-1.64794921875
4.6524999000000005,0.23702596127986908,-0.2454056739807129,9.937732696533203,-2.532958984375,-0.274658203125,2.13623046875
4.6574999,0.4866214990615845,-0.29568392038345337,9.607931137084961,-3.60107421875,0.152587890625,-1.434326171875
4.6624999,0.5159504413604736,-0.3477577865123749,9.96825885772705,6.134033203125,0.30517578125,-1.40380859375
4.6674999,0.3166331648826599,-0.31364041566848755,9.791686058044434,-3.41796875,0.030517578125,2.166748046875
4.6724999,0.5494692921638489,-0.3345896899700165,9.569025993347168,-2.38037109375,0.518798828125,-1.739501953125
4.6774999,0.4537012279033661,-0.3232172429561615,9.971251487731934,5.859375,0.42724609375,-0.91552734375
4.6824999,0.38546648621559143,-0.2561795711517334,9.96945571899414,5.92041015625,0.30517578125,-0.396728515625
4.687499900000001,0.28371289372444153,-0.27234044671058655,9.697115898132324,-4.7607421875,-0.30517578125,1.708984375
4.6924999000000005,0.5099649429321289,-0.3172317147254944,9.557653427124023,0.213623046875,0.579833984375,-2.227783203125
4.6974999,0.40282443165779114,-0.2651578485965729,9.924564361572266,5.43212890625,0.030517578125,0
4.7024999,0.30047231912612915,-0.28311434388160706,9.654618263244629,-5.706787109375,-0.30517578125,1.434326171875
4.7074999,0.46507367491722107,-0.2472013235092163,9.638457298278809,1.251220703125,0.579833984375,-2.3193359375
4.7124999,0.3411737382411957,-0.20350714027881622,10.030508041381836,4.7607421875,0.213623046875,0.54931640625
4.7174999,0.26096799969673157,-0.2124854028224945,9.695918083190918,-5.767822265625,-0.06103515625,1.03759765625
4.7224999,0.3734954595565796,-0.21787235140800476,9.978434562683105,3.692626953125,0.18310546875,1.007080078125
4.727499900000001,0.32680854201316833,-0.2783259451389313,9.555258750915527,-6.195068359375,0,0.823974609375
4.7324999000000005,0.5147533416748047,-0.2603694200515747,9.79647445678711,4.425048828125,0.701904296875,-2.685546875
4.7374999,0.3076549172401428,-0.24420857429504395,10.010157585144043,1.312255859375,0,1.800537109375
4.7424999,0.3663128614425659,-0.29388827085494995,9.586981773376465,-5.859375,0.152587890625,0.152587890625
4.7474999,0.5608417391777039,-0.26815059781074524,9.832387924194336,5.096435546875,0.48828125,-2.50244140625
4.7524999,0.3471592366695404,-0.3166331648826599,9.907805442810059,0.06103515625,0.030517578125,1.922607421875
4.7574999,0.4411316514015198,-0.3280056416988373,9.516951560974121,-4.82177734375,0.1220703125,-0.3662109375
4.7624999,0.5530605912208557,-0.32381579279899597,9.864110946655273,5.767822265625,0.732421875,-2.105712890625
4.7674999,0.28371289372444153,-0.3082534670829773,9.944915771484375,-0.701904296875,-0.48828125,1.89208984375
4.772499900000001,0.3968389332294464,-0.27712884545326233,9.616311073303223,-4.150390625,0.06103515625,-0.732421875
4.7774999000000005,0.4776432514190674,-0.2693476974964142,10.02571964263916,6.34765625,0.48828125,-1.953125
4.7824999,0.4626794755458832,-0.3321954905986786,9.880870819091797,6.378173828125,0.8544921875,-0.79345703125
4.7874999,0.27234044671058655,-0.2621650993824005,9.729436874389648,-3.90625,0.48828125,2.044677734375
4.7924999,0.50876784324646,-0.262763649225235,9.567230224609375,-1.3427734375,1.007080078125,-1.953125
4.7974999,0.41359832882881165,-0.2717418968677521,9.956886291503906,5.92041015625,0.885009765625,-0.48828125
4.8024999,0.30705636739730835,-0.24660277366638184,9.744999885559082,-4.608154296875,0,1.617431640625
4.8074999,0.5351040959358215,-0.2777273952960968,9.603741645812988,-0.48828125,-0.1220703125,-2.25830078125
4.812499900000001,0.43035775423049927,-0.2825157940387726,9.967061996459961,5.126953125,0.518798828125,-0.152587890625
4.8174999000000005,0.31783026456832886,-0.27473464608192444,9.657012939453125,-5.523681640625,-0.18310546875,1.64794921875
4.8224999,0.262763649225235,-0.20709845423698425,9.671976089477539,-5.79833984375,-0.244140625,1.28173828125
4.8274999,0.4537012279033661,-0.21009120345115662,9.698312759399414,2.166748046875,0.54931640625,-2.44140625
4.8324999,0.3585317134857178,-0.2298433631658554,9.998785018920898,4.119873046875,-0.274658203125,0.823974609375
4.8374999,0.3148375153541565,-0.24660277366638184,9.59715747833252,-6.195068359375,-0.396728515625,0.67138671875
4.8424999,0.5267243981361389,-0.3214215636253357,9.624691009521484,3.265380859375,0.18310546875,-2.532958984375
4.8474999,0.38726213574409485,-0.29628247022628784,9.903017044067383,3.0517578125,-0.396728515625,1.3427734375
4.852499900000001,0.34596213698387146,-0.3208230137825012,9.529520988464355,-6.011962890625,-0.244140625,0.457763671875
4.8574999000000005,0.5285200476646423,-0.3064578175544739,9.730634689331055,4.2724609375,0.18310546875,-2.5634765625
4.8624999,0.32022446393966675,-0.23104046285152435,10.002376556396484,1.8310546875,-0.213623046875,1.64794921875
4.8674999,0.3423708379268646,-0.24480712413787842,9.59476375579834,-6.011962890625,0.030517578125,0.030517578125
4.8724999,0.5428852438926697,-0.27712884545326233,9.820416450500488,5.0048828125,0.18310546875,-2.5634765625
4.8774999,0.3172317147254944,-0.2717418968677521,9.847352027893066,-0.91552734375,-0.1220703125,1.8310546875
4.8824999,0.4165911078453064,-0.28371289372444153,9.509170532226562,-4.791259765625,0.213623046875,-0.6103515625
4.8874999,0.4926069974899292,-0.284311443567276,9.947309494018555,5.92041015625,0.54931640625,-1.8310546875
4.8924999,0.23523031175136566,-0.25019407272338867,9.949105262756348,-1.861572265625,-0.1220703125,1.8310546875
4.897499900000001,0.42856210470199585,-0.314238965511322,9.619303703308105,-3.72314453125,0.42724609375,-1.129150390625
4.9024999000000005,0.4902127981185913,-0.3034650683403015,9.996390342712402,6.256103515625,0.396728515625,-1.3427734375
4.9074999,0.28131869435310364,-0.322618693113327,9.858723640441895,-3.11279296875,-0.396728515625,2.044677734375
4.9124999,0.52552729845047,-0.3477577865123749,9.57201862335205,-2.8076171875,0.3662109375,-1.52587890625
4.9174999,0.48243165016174316,-0.28790274262428284,9.973047256469727,6.256103515625,0.152587890625,-0.9765625
4.9224999,0.28131869435310364,-0.30526071786880493,9.807847023010254,-4.08935546875,-0.396728515625,1.64794921875
4.9274999,0.507570743560791,-0.3130418658256531,9.628880500793457,-1.495361328125,0.18310546875,-1.983642578125
4.9324999,0.40701428055763245,-0.2298433631658554,9.995792388916016,6.195068359375,-0.091552734375,-0.457763671875
4.937499900000001,0.27712884545326233,-0.284311443567276,9.75397777557373,-4.608154296875,-0.518798828125,1.678466796875
4.9424999000000005,0.5321113467216492,-0.2759317457675934,9.558850288391113,-0.3662109375,0.244140625,-2.44140625
4.9474999,0.4297592043876648,-0.23942017555236816,9.928754806518555,5.615234375,-0.274658203125,-0.1220703125
4.9524999,0.3381809890270233,-0.30945056676864624,9.62828254699707,-5.43212890625,-0.3662109375,1.40380859375
4.9574999,0.5213374495506287,-0.28311434388160706,9.588179588317871,0.762939453125,0.1220703125,-2.838134765625
4.9624999,0.37469255924224854,-0.2495955228805542,9.989806175231934,4.974365234375,-0.06103515625,0.396728515625
4.9674999,0.2687491476535797,-0.25438392162323,9.691728591918945,-5.706787109375,-0.30517578125,1.3427734375
4.9724999,0.4423287510871887,-0.20470423996448517,9.701904296875,1.77001953125,0,-2.685546875
4.977499900000001,0.3411737382411957,-0.21667525172233582,10.02691650390625,4.058837890625,-0.335693359375,0.885009765625
4.9824999000000005,0.2944868206977844,-0.22744916379451752,9.622895240783691,-6.011962890625,-0.457763671875,1.03759765625
4.9874999,0.2944868206977844,-0.22744916379451752,9.622895240783691,-6.011962890625,-0.457763671875,1.03759765625
4.9924999,0.3998316824436188,-0.3076549172401428,9.9000244140625,3.204345703125,-0.1220703125,1.068115234375
4.9974999,0.3998316824436188,-0.3076549172401428,9.9000244140625,3.204345703125,-0.1220703125,1.068115234375
5.0024999,0.35015198588371277,-0.3010708689689636,9.52353572845459,-5.828857421875,-0.030517578125,0.6103515625
5.0074999,0.536899745464325,-0.28790274262428284,9.698312759399414,3.5400390625,0.67138671875,-2.62451171875
5.0124999,0.3381809890270233,-0.27653029561042786,9.995193481445312,1.708984375,0,1.46484375
5.0174999,0.33758243918418884,-0.2232593148946762,9.63067626953125,-5.92041015625,-0.030517578125,0.274658203125
5.022499900000001,0.5303156971931458,-0.29209262132644653,9.85034465789795,4.302978515625,0.396728515625,-2.410888671875
5.0274999000000005,0.33039984107017517,-0.292691171169281,9.99100399017334,0.946044921875,-0.1220703125,1.678466796875
5.0324999,0.42437225580215454,-0.28790274262428284,9.566033363342285,-5.401611328125,0.152587890625,-0.335693359375
5.0374999,0.5847837924957275,-0.3561375141143799,9.80904483795166,5.2490234375,0.732421875,-2.105712890625
5.0424999,0.5153518915176392,-0.31543606519699097,9.8784761428833,5.4931640625,-0.152587890625,-1.8310546875
5.0474999,0.2454056739807129,-0.23822307586669922,9.93474006652832,-1.312255859375,-0.396728515625,1.983642578125
5.0524999,0.3968389332294464,-0.23942017555236816,9.603741645812988,-3.875732421875,-0.274658203125,-1.28173828125
5.0574999,0.4776432514190674,-0.3298012912273407,10.01075553894043,6.34765625,0.701904296875,-1.556396484375
5.062499900000001,0.26096799969673157,-0.2687491476535797,9.91738224029541,-2.13623046875,-0.244140625,2.01416015625
5.0674999000000005,0.5093663930892944,-0.2759317457675934,9.63187313079834,-3.2958984375,-0.42724609375,-1.5869140625
5.0724999,0.5063736438751221,-0.3597288131713867,10.003573417663574,5.859375,-0.48828125,-1.190185546875
5.0774999,0.2968810200691223,-0.284311443567276,9.851541519165039,-3.326416015625,-0.54931640625,2.13623046875
5.0824999,0.5213374495506287,-0.28072014451026917,9.636661529541016,-1.800537109375,0.640869140625,-2.105712890625
5.0874999,0.4225766062736511,-0.3405751883983612,10.011953353881836,5.859375,-0.1220703125,-0.8544921875
5.0924999,0.26396074891090393,-0.24361002445220947,9.807847023010254,-4.058837890625,-0.518798828125,2.01416015625
5.0974999,0.5093663930892944,-0.25677812099456787,9.62828254699707,-1.251220703125,-0.54931640625,-2.288818359375
5.102499900000001,0.40880993008613586,-0.3100491166114807,9.97484302520752,5.79833984375,0.42724609375,-0.396728515625
5.1074999000000005,0.5321113467216492,-0.25977087020874023,9.61212158203125,-0.244140625,-0.244140625,-2.471923828125
5.1124999,0.3878606855869293,-0.30945056676864624,9.978434562683105,5.218505859375,0.42724609375,0.1220703125
5.1174999,0.29628247022628784,-0.24001872539520264,9.709086418151855,-5.31005859375,-0.091552734375,1.52587890625
5.1224999,0.4507084786891937,-0.20290859043598175,9.697115898132324,0.9765625,-0.213623046875,-2.3193359375
5.1274999,0.33339259028434753,-0.28371289372444153,10.057442665100098,4.08935546875,-0.213623046875,0.6103515625
5.1324999,0.26994624733924866,-0.19153612852096558,9.706093788146973,-5.7373046875,-0.213623046875,1.03759765625
5.1374999,0.47584760189056396,-0.23822307586669922,9.698312759399414,2.410888671875,1.0986328125,-2.38037109375
5.1424999,0.38486793637275696,-0.31364041566848755,9.958083152770996,3.326416015625,0,0.946044921875
5.147499900000001,0.3363853394985199,-0.25737667083740234,9.552865028381348,-6.195068359375,-0.42724609375,0.823974609375
5.1524999000000005,0.5327098965644836,-0.3010708689689636,9.677363395690918,2.838134765625,0,-2.349853515625
5.1574999,0.3621230125427246,-0.31603461503982544,9.951498985290527,2.44140625,0,1.251220703125
5.1624999,0.3214215636253357,-0.24420857429504395,9.59476375579834,-5.462646484375,0.030517578125,0.42724609375
5.1674999,0.31783026456832886,-0.27054479718208313,9.988609313964844,1.495361328125,-0.213623046875,1.617431640625
5.1724999,0.39624038338661194,-0.2041056901216507,9.575011253356934,-5.55419921875,-0.091552734375,0.030517578125
5.1774999,0.586579442024231,-0.3232172429561615,9.804255485534668,4.7607421875,0.640869140625,-2.471923828125
5.1824999,0.3734954595565796,-0.3010708689689636,9.88506031036377,0.244140625,-0.579833984375,1.8310546875
5.187499900000001,0.456095427274704,-0.28790274262428284,9.513958930969238,-4.82177734375,-0.48828125,-0.701904296875
5.1924999000000005,0.5494692921638489,-0.39205053448677063,9.859322547912598,5.55419921875,0.396728515625,-2.0751953125
5.1974999,0.27413609623908997,-0.2890998423099518,9.928155899047852,-0.823974609375,-0.1220703125,1.983642578125
5.2024999,0.47465047240257263,-0.24241292476654053,9.601945877075195,-3.509521484375,-0.213623046875,-1.434326171875
5.2074999,0.5027823448181152,-0.3663128614425659,9.967659950256348,5.950927734375,0.06103515625,-1.434326171875
5.2124999,0.26575639843940735,-0.2148796021938324,9.801861763000488,-3.662109375,-0.274658203125,1.922607421875
5.2174999,0.5099649429321289,-0.2232593148946762,9.598953247070312,-1.495361328125,-0.06103515625,-1.983642578125
5.2224999,0.4034229815006256,-0.3172317147254944,9.938331604003906,5.950927734375,0.48828125,-0.457763671875
5.227499900000001,0.304063618183136,-0.21368250250816345,9.701904296875,-4.69970703125,0,1.739501953125
5.2324999000000005,0.5321113467216492,-0.26096799969673157,9.588179588317871,-0.579833984375,-0.335693359375,-2.227783203125
5.2374999,0.4118026793003082,-0.34656068682670593,9.963470458984375,5.462646484375,0.79345703125,-0.030517578125
5.2424999,0.3016694188117981,-0.2519897222518921,9.687539100646973,-4.974365234375,0.30517578125,1.678466796875
5.2474999,0.45908817648887634,-0.3208230137825012,9.647436141967773,0.48828125,0.54931640625,-2.471923828125
5.2524999,0.33518823981285095,-0.2932897210121155,9.999382972717285,4.852294921875,-0.42724609375,0.274658203125
5.2574999,0.25258827209472656,-0.2124854028224945,9.684545516967773,-5.9814453125,-0.823974609375,1.3427734375
5.2624999,0.3770867586135864,-0.1975216418504715,9.954492568969727,3.692626953125,-0.06103515625,1.03759765625
5.2674999,0.3274070918560028,-0.19931729137897491,9.555258750915527,-5.9814453125,0.1220703125,0.885009765625
