# Time (seconds),Accel_X,Accel_Y,Accel_Z,Gyro_X,Gyro_Y,Gyro_Z
0.0024999,0.6272808313369751,-0.28969839215278625,9.676166534423828,-9.33837890625,-0.732421875,0.152587890625
0.0074999,0.6272808313369751,-0.28969839215278625,9.676166534423828,-9.33837890625,-0.732421875,0.152587890625
0.012499900000000001,0.6847416758537292,-0.262763649225235,9.673172950744629,5.92041015625,-0.274658203125,-3.7841796875
0.0174999,0.6344634294509888,-0.2885012924671173,9.687539100646973,-8.056640625,-0.91552734375,-0.823974609375
0.0224999,0.7003039717674255,-0.3232172429561615,9.746794700622559,6.988525390625,0.030517578125,-3.11279296875
0.0274999,0.6979097723960876,-0.30705636739730835,9.938929557800293,0.518798828125,1.190185546875,3.814697265625
0.0324999,0.6446388363838196,-0.42197805643081665,9.667786598205566,-7.354736328125,-0.640869140625,-1.46484375
0.0374999,0.7092822790145874,-0.4129997789859772,9.755773544311523,8.575439453125,-0.244140625,-2.44140625
0.0424999,0.6751648783683777,-0.34416648745536804,9.891045570373535,-1.678466796875,0.640869140625,3.7841796875
0.0474999,0.6230909824371338,-0.3758896589279175,9.650428771972656,-6.317138671875,-1.28173828125,-2.5634765625
0.0524999,0.6853402256965637,-0.3603273630142212,9.800065994262695,9.1552734375,0.54931640625,-1.8310546875
0.0574999,0.6392518281936646,-0.2932897210121155,9.931747436523438,-3.021240234375,0.946044921875,3.692626953125
0.0624999,0.6266822814941406,-0.40222588181495667,9.649829864501953,-4.974365234375,-1.129150390625,-3.082275390625
0.0674999,0.7152677774429321,-0.3621230125427246,9.850942611694336,9.1552734375,0.946044921875,-0.885009765625
0.0724999,0.6368576288223267,-0.3423708379268646,9.877877235412598,-4.730224609375,0.701904296875,3.631591796875
0.0774999,0.7134721279144287,-0.30466216802597046,9.880870819091797,8.7890625,0.579833984375,-0.091552734375
0.0824999,0.6266822814941406,-0.2968810200691223,9.853935241699219,-6.2255859375,0.244140625,2.99072265625
0.0874999,0.6625953316688538,-0.3357867896556854,9.656414031982422,-1.3427734375,-0.732421875,-3.936767578125
0.0924999,0.7134721279144287,-0.2795230448246002,9.906009674072266,8.148193359375,0.213623046875,0.8544921875
0.0974999,0.6332663297653198,-0.3232172429561615,9.834183692932129,-7.8125,-0.579833984375,2.471923828125
0.1024999,0.7104793787002563,-0.4040215313434601,9.64564037322998,-0.030517578125,-1.28173828125,-4.21142578125
0.1074999,0.7314286231994629,-0.31124621629714966,9.90361499786377,7.26318359375,0.42724609375,1.64794921875
0.1124999,0.656609833240509,-0.3627215623855591,9.819219589233398,-8.23974609375,-0.335693359375,1.800537109375
0.1174999,0.7086837291717529,-0.3908534348011017,9.678560256958008,2.044677734375,-0.946044921875,-4.45556640625
0.1224999,0.6973112225532532,-0.26755204796791077,9.960477828979492,5.92041015625,1.190185546875,2.25830078125
0.1274999,0.6236895322799683,-0.37409400939941406,9.77672290802002,-8.758544921875,0.18310546875,1.03759765625
0.1324999,0.6871358752250671,-0.38486793637275696,9.677961349487305,4.302978515625,-0.48828125,-4.180908203125
0.1374999,0.6177040338516235,-0.3250128924846649,9.680954933166504,-8.941650390625,-0.213623046875,0.244140625
0.1424999,0.6721721291542053,-0.2992752194404602,9.649829864501953,5.79833984375,-0.823974609375,-3.692626953125
0.1474999,0.6721721291542053,-0.2992752194404602,9.649829864501953,5.79833984375,-0.823974609375,-3.692626953125
0.1524999,0.6769605278968811,-0.18555063009262085,9.898826599121094,2.38037109375,0.9765625,3.47900390625
0.1574999,0.6159083843231201,-0.2944868206977844,9.683348655700684,-8.697509765625,-0.79345703125,-0.6103515625
0.1624999,0.67815762758255,-0.40043023228645325,9.750985145568848,8.209228515625,0.091552734375,-2.62451171875
0.1674999,0.6548141837120056,-0.3292027413845062,9.889249801635742,-1.007080078125,0.79345703125,3.875732421875
0.1724999,0.6242880821228027,-0.37648820877075195,9.667187690734863,-6.988525390625,-1.5869140625,-2.288818359375
0.17749990000000002,0.6973112225532532,-0.3489548861980438,9.79647445678711,8.636474609375,0.030517578125,-1.922607421875
0.1824999,0.6458359360694885,-0.39145198464393616,9.64923095703125,-5.2490234375,-1.373291015625,-3.021240234375
0.1874999,0.6458359360694885,-0.39145198464393616,9.64923095703125,-5.2490234375,-1.373291015625,-3.021240234375
0.1924999,0.7332242727279663,-0.3621230125427246,9.82999324798584,8.575439453125,0.54931640625,-1.129150390625
0.1974999,0.656609833240509,-0.34656068682670593,9.886856079101562,-4.7607421875,0.701904296875,3.448486328125
0.2024999,0.6602011322975159,-0.39145198464393616,9.596558570861816,-2.99072265625,-1.007080078125,-3.875732421875
0.20749990000000001,0.7224503755569458,-0.31842881441116333,9.86351203918457,8.60595703125,0.79345703125,-0.1220703125
0.2124999,0.6278793811798096,-0.29388827085494995,9.825204849243164,-6.4697265625,0.396728515625,3.173828125
0.2174999,0.6667851805686951,-0.322618693113327,9.627084732055664,-1.068115234375,-0.732421875,-4.058837890625
0.2224999,0.7170634269714355,-0.26575639843940735,9.896432876586914,8.1787109375,0.9765625,0.79345703125
0.2274999,0.6404489278793335,-0.29388827085494995,9.832387924194336,-7.415771484375,0.396728515625,2.532958984375
0.2324999,0.7110779285430908,-0.36750996112823486,9.655217170715332,0.8544921875,-0.762939453125,-4.45556640625
0.2374999,0.7266402244567871,-0.2801215946674347,9.904213905334473,7.110595703125,0.732421875,1.52587890625
0.2424999,0.6829460263252258,-0.23822307586669922,9.919178009033203,6.16455078125,0.701904296875,2.25830078125
0.2474999,0.6153098344802856,-0.3519476354122162,9.738415718078613,-8.941650390625,-1.251220703125,1.068115234375
0.2524999,0.6865373253822327,-0.37888240814208984,9.66958236694336,4.33349609375,-0.518798828125,-4.2724609375
0.2574999,0.6769605278968811,-0.31124621629714966,9.900622367858887,4.547119140625,0.946044921875,2.9296875
0.2624999,0.6266822814941406,-0.3561375141143799,9.691728591918945,-8.85009765625,-0.30517578125,0.3662109375
0.2674999,0.6841431260108948,-0.3447650372982025,9.673172950744629,5.950927734375,-0.335693359375,-3.814697265625
0.2724999,0.689530074596405,-0.23942017555236816,9.8784761428833,2.593994140625,0.762939453125,3.47900390625
0.2774999,0.6338648796081543,-0.284311443567276,9.658209800720215,-8.514404296875,-0.579833984375,-0.79345703125
0.2824999,0.6859387755393982,-0.3196259140968323,9.683348655700684,7.2021484375,0,-3.41796875
0.28749990000000003,0.690727174282074,-0.2298433631658554,9.88386344909668,0.79345703125,0.91552734375,3.997802734375
0.2924999,0.6272808313369751,-0.3321954905986786,9.640851974487305,-7.720947265625,-0.732421875,-1.46484375
0.2974999,0.7068880796432495,-0.33997663855552673,9.731232643127441,7.843017578125,0.152587890625,-2.86865234375
0.3024999,0.6661866307258606,-0.27054479718208313,9.944316864013672,-3.11279296875,0.823974609375,3.90625
0.3074999,0.6494272351264954,-0.3770867586135864,9.66299819946289,-5.218505859375,-1.5869140625,-3.23486328125
0.3124999,0.7272387742996216,-0.36571431159973145,9.8599214553833,8.819580078125,0.396728515625,-1.007080078125
0.3174999,0.6548141837120056,-0.3561375141143799,9.896432876586914,-4.974365234375,0.335693359375,3.631591796875
0.3224999,0.730231523513794,-0.3196259140968323,9.845556259155273,8.544921875,0.732421875,-0.18310546875
0.3274999,0.730231523513794,-0.3196259140968323,9.845556259155273,8.544921875,0.732421875,-0.18310546875
0.3324999,0.6386532783508301,-0.29628247022628784,9.82759952545166,-6.134033203125,0.030517578125,3.2958984375
0.3374999,0.6787561774253845,-0.3495534360408783,9.618106842041016,-1.190185546875,-0.9765625,-4.119873046875
0.3424999,0.7206547260284424,-0.2974795699119568,9.888052940368652,7.8125,0.67138671875,0.67138671875
0.34749990000000003,0.7236474752426147,-0.31603461503982544,9.92097282409668,7.080078125,0.823974609375,1.5869140625
0.35249990000000003,0.6482301354408264,-0.31603461503982544,9.809642791748047,-8.1787109375,-0.18310546875,1.89208984375
0.3574999,0.7032967209815979,-0.3519476354122162,9.67077922821045,2.227783203125,-0.518798828125,-4.364013671875
0.3624999,0.6901286244392395,-0.24420857429504395,9.950302124023438,5.67626953125,0.8544921875,2.471923828125
0.3674999,0.6272808313369751,-0.3321954905986786,9.764751434326172,-8.7890625,-0.885009765625,1.03759765625
0.3724999,0.6937199234962463,-0.39863458275794983,9.68694019317627,3.936767578125,-0.42724609375,-4.241943359375
0.3774999,0.6865373253822327,-0.2861070930957794,9.907805442810059,4.33349609375,0.91552734375,3.021240234375
0.3824999,0.628477931022644,-0.37469255924224854,9.697115898132324,-8.60595703125,-0.67138671875,0.274658203125
0.3874999,0.6769605278968811,-0.3597288131713867,9.66299819946289,5.4931640625,-0.335693359375,-3.936767578125
0.3924999,0.679354727268219,-0.25318682193756104,9.893440246582031,2.716064453125,0.8544921875,3.2958984375
0.3974999,0.6117185354232788,-0.3214215636253357,9.665990829467773,-8.087158203125,-0.701904296875,-0.54931640625
0.4024999,0.6087257862091064,-0.3555389642715454,9.667187690734863,-7.75146484375,-1.52587890625,-1.52587890625
0.4074999,0.6979097723960876,-0.38127660751342773,9.757569313049316,7.659912109375,-0.1220703125,-2.777099609375
0.41249990000000003,0.6745663285255432,-0.3100491166114807,9.909002304077148,-1.03759765625,1.007080078125,3.96728515625
0.41749990000000003,0.6386532783508301,-0.36750996112823486,9.667187690734863,-6.622314453125,-1.312255859375,-2.3193359375
0.4224999,0.7080851793289185,-0.32620999217033386,9.797672271728516,8.48388671875,-0.244140625,-1.953125
0.4274999,0.6631938815116882,-0.2711433470249176,9.928155899047852,-2.74658203125,0.67138671875,3.7841796875
0.4324999,0.6446388363838196,-0.35913026332855225,9.660005569458008,-5.126953125,-0.396728515625,-3.021240234375
0.4374999,0.7158663272857666,-0.35733461380004883,9.846753120422363,9.033203125,0.42724609375,-1.0986328125
0.4424999,0.641047477722168,-0.353743314743042,9.913790702819824,-4.5166015625,0.762939453125,3.5400390625
0.4474999,0.6374561786651611,-0.4100070297718048,9.630077362060547,-3.936767578125,-0.6103515625,-3.5400390625
0.4524999,0.7032967209815979,-0.33997663855552673,9.86889934539795,9.002685546875,0.274658203125,-0.152587890625
0.4574999,3.7499184608459473,-1.923741102218628,11.425728797912598,47.2412109375,56.884765625,-16.265869140625
0.4624999,5.011662483215332,-2.849698543548584,11.727996826171875,84.228515625,86.7919921875,-35.21728515625
0.4674999,5.3779754638671875,-3.3704373836517334,11.934496879577637,122.98583984375,117.462158203125,-44.86083984375
0.47249990000000003,4.458601951599121,-3.62302565574646,11.444284439086914,130.340576171875,128.875732421875,-51.544189453125
0.47749990000000003,2.8455088138580322,-3.2207999229431152,10.868478775024414,144.83642578125,119.44580078125,-54.50439453125
0.4824999,0.639850378036499,-2.313995838165283,10.299257278442383,128.936767578125,90.301513671875,-39.581298828125
0.4874999,-1.6178817749023438,-1.215057373046875,9.222464561462402,91.522216796875,46.81396484375,-34.698486328125
0.4924999,-3.2998085021972656,-0.1041477769613266,8.277952194213867,81.9091796875,9.70458984375,-32.745361328125
0.4974999,-4.496310710906982,1.0947487354278564,7.346009254455566,55.206298828125,-23.193359375,-14.6484375
0.5024999,-4.942829608917236,1.7549498081207275,6.375759124755859,24.2919921875,-57.373046875,-8.23974609375
0.5074999,-4.0294413566589355,3.030460834503174,5.984307289123535,-28.3203125,-64.666748046875,9.246826171875
0.5124999,-3.268085241317749,3.378817081451416,6.2201361656188965,-58.074951171875,-48.675537109375,13.946533203125
0.5174999,-2.1350293159484863,3.949235677719116,6.879738807678223,-67.5048828125,-34.393310546875,24.2919921875
0.5224999,-1.0767922401428223,4.1629180908203125,7.767987251281738,-89.752197265625,-22.705078125,48.33984375
0.5274999,-0.3321954905986786,4.307767391204834,8.285733222961426,-90.728759765625,-12.359619140625,52.154541015625
0.5324999,0.5979518890380859,4.528632640838623,9.039907455444336,-77.972412109375,-6.072998046875,55.0537109375
0.5374999,1.1240776777267456,4.04081392288208,9.599552154541016,-90.88134765625,-5.828857421875,62.713623046875
0.5424999,1.3395558595657349,3.488950490951538,9.687539100646973,-90.301513671875,-9.1552734375,49.31640625
0.5474999,1.7968484163284302,2.632424831390381,9.893440246582031,-89.9658203125,-14.495849609375,40.95458984375
0.5524999,1.8543092012405396,1.2635399103164673,10.063427925109863,-100.03662109375,-16.78466796875,31.982421875
0.5574999,1.9470845460891724,-0.18555063009262085,10.165780067443848,-84.014892578125,-21.270751953125,4.669189453125
0.5624999,2.079364061355591,-1.9937714338302612,11.015722274780273,-60.516357421875,-23.5595703125,-13.36669921875
0.5674999000000001,1.5095441341400146,-4.688445568084717,12.09191608428955,-5.55419921875,-4.608154296875,-27.64892578125
0.5724999000000001,1.0773907899856567,-5.1367597579956055,12.108076095581055,20.660400390625,1.52587890625,-21.636962890625
0.5774999000000001,0.5764040350914001,-4.805761337280273,11.275492668151855,19.256591796875,6.500244140625,-19.59228515625
0.5824999,0.2454056739807129,-4.032433986663818,10.121487617492676,31.982421875,15.44189453125,-23.62060546875
0.5874999,0.1256955862045288,-2.45285964012146,9.676764488220215,36.590576171875,21.54541015625,-11.260986328125
0.5924999,-0.023942016065120697,-0.983418345451355,9.434351921081543,18.951416015625,23.5595703125,1.40380859375
0.5974999,-0.043095629662275314,0.07781155407428741,9.640253067016602,29.052734375,23.162841796875,5.401611328125
0.6024999,-0.13168109953403473,1.0540473461151123,10.219650268554688,34.393310546875,28.1982421875,19.256591796875
0.6074999,-0.45010992884635925,1.301847219467163,10.290877342224121,27.77099609375,30.548095703125,23.92578125
0.6124999,-0.6554127335548401,1.1851298809051514,10.268731117248535,40.252685546875,25.299072265625,23.956298828125
0.6174999,-0.9570821523666382,1.006163239479065,10.266336441040039,33.63037109375,17.547607421875,36.224365234375
0.6224999,-1.2078747749328613,0.5339069962501526,9.747992515563965,21.8505859375,5.706787109375,37.872314453125
0.6274999,-1.1629834175109863,-0.14185644686222076,9.273940086364746,16.021728515625,-12.87841796875,46.478271484375
0.6324999,-1.035492181777954,-0.6302735805511475,8.823830604553223,7.8125,-21.3623046875,45.10498046875
0.6374999,-0.7134721279144287,-0.4040215313434601,8.58381175994873,18.12744140625,-26.91650390625,44.097900390625
0.6424999,-0.3100491166114807,-0.5165489912033081,8.622118949890137,-2.532958984375,-30.1513671875,53.5888671875
0.6474999,-0.12868833541870117,-0.053270988166332245,8.309675216674805,-8.544921875,-32.745361328125,48.095703125
0.6524999,0.353743314743042,0.383670836687088,8.539519309997559,-6.072998046875,-33.99658203125,47.54638671875
0.6574999,0.6733692288398743,0.6033388376235962,8.768165588378906,-24.96337890625,-34.85107421875,53.40576171875
0.6624999,0.8367735147476196,0.5949591398239136,8.700529098510742,-27.4658203125,-35.247802734375,42.938232421875
0.6674999,1.3126211166381836,0.9307458996772766,8.946533203125,-26.42822265625,-36.7431640625,37.7197265625
0.6724999,1.4616601467132568,0.8122329115867615,9.065644264221191,-50.35400390625,-37.384033203125,35.736083984375
0.6774999,1.6406266689300537,0.9804255962371826,8.964489936828613,-48.675537109375,-37.04833984375,18.157958984375
0.6824999,1.9955670833587646,0.983418345451355,9.396642684936523,-43.243408203125,-36.62109375,7.537841796875
0.6874999,2.295440912246704,0.1472434103488922,10.107721328735352,-34.332275390625,-22.4609375,-16.845703125
0.6924999000000001,2.47560453414917,-0.7350199222564697,10.808623313903809,-12.542724609375,-10.772705078125,-13.427734375
0.6974999000000001,2.38462495803833,-1.4586673974990845,10.884639739990234,-14.373779296875,0.274658203125,-10.7421875
0.7024999000000001,2.2397756576538086,-2.2230162620544434,10.518326759338379,4.180908203125,10.650634765625,-16.021728515625
0.7074999,1.9524714946746826,-2.5707740783691406,10.357914924621582,14.0380859375,16.021728515625,-10.467529296875
0.7124999,1.5059528350830078,-2.3355438709259033,9.783307075500488,1.312255859375,16.7236328125,-10.80322265625
0.7174999,1.1324573755264282,-1.987187385559082,9.47265911102295,12.6953125,18.61572265625,-16.387939453125
0.7224999,0.8248024582862854,-1.0372878313064575,9.701305389404297,8.6669921875,16.265869140625,-9.185791015625
0.7274999,0.47884035110473633,-0.2472013235092163,9.671378135681152,-7.415771484375,13.0615234375,-9.368896484375
0.7324999,0.30466216802597046,0.3172317147254944,9.694122314453125,4.69970703125,12.664794921875,-11.65771484375
0.7374999,0.16879121959209442,0.8307880163192749,9.938331604003906,0.885009765625,10.6201171875,-1.861572265625
0.7424999,-0.015562310814857483,0.71766197681427,9.696516990661621,-11.5966796875,9.33837890625,-1.617431640625
0.7474999,0.05506663769483566,-0.5722141861915588,9.885659217834473,7.232666015625,-0.54931640625,-0.823974609375
0.7524999,0.1173158809542656,-0.557250440120697,10.073603630065918,-0.457763671875,-3.662109375,3.173828125
0.7574999,0.12030863761901855,-0.6889315247535706,9.831191062927246,-4.638671875,-5.18798828125,-4.730224609375
0.7624999,0.30945056676864624,-0.5716156363487244,9.891045570373535,8.7890625,-5.31005859375,-3.47900390625
0.7674999,0.41120412945747375,-0.26755204796791077,9.979032516479492,-3.387451171875,-6.134033203125,2.62451171875
0.7724999,0.5111620426177979,-0.29388827085494995,9.644442558288574,-3.509521484375,-5.4931640625,-3.84521484375
0.7774999,0.7110779285430908,-0.13826514780521393,9.813833236694336,6.8359375,-4.45556640625,-0.640869140625
0.7824999,0.6967126727104187,-0.05506663769483566,9.838373184204102,-7.354736328125,-4.730224609375,3.387451171875
0.7874999,0.727837324142456,-0.1933317929506302,9.636661529541016,-3.41796875,-3.509521484375,-4.180908203125
0.7924999,0.7733271718025208,-0.26815059781074524,9.88625717163086,7.415771484375,-2.50244140625,-0.30517578125
0.7974999,0.7206547260284424,-0.6200982332229614,9.689932823181152,-0.1220703125,-1.678466796875,-4.913330078125
0.8024999,0.6997054219245911,-0.47884035110473633,9.813833236694336,-7.6904296875,-0.244140625,1.52587890625
0.8074999,0.6997054219245911,-0.47884035110473633,9.813833236694336,-7.6904296875,-0.244140625,1.52587890625
0.8124999,0.7428010702133179,-0.45429977774620056,9.671976089477539,2.0751953125,1.434326171875,-4.08935546875
0.8174999000000001,0.767341673374176,-0.2406172752380371,9.909601211547852,6.195068359375,2.593994140625,2.899169921875
0.8224999000000001,0.6997054219245911,-0.20709845423698425,9.77013874053955,-8.30078125,3.326416015625,0.9765625
0.8274999000000001,0.7098808288574219,-0.32620999217033386,9.639056205749512,3.23486328125,4.45556640625,-3.692626953125
0.8324999000000001,0.6877344250679016,-0.1256955862045288,9.874286651611328,4.5166015625,4.302978515625,3.2958984375
0.8374999,0.5363011956214905,-0.243011474609375,9.648633003234863,-7.781982421875,3.662109375,-0.6103515625
0.8424999,0.5141547918319702,-0.166995570063591,9.6618013381958,5.4931640625,3.448486328125,-3.692626953125
0.8474999,0.4686649739742279,-0.1496376097202301,9.891644477844238,0.79345703125,1.434326171875,3.72314453125
0.8524999,0.3387795388698578,-0.38726213574409485,9.783905029296875,-6.53076171875,-4.058837890625,-2.99072265625
0.8574999,0.45190557837486267,-0.3669114112854004,9.84376049041748,7.62939453125,-3.753662109375,-2.13623046875
0.8624999,0.49140989780426025,-0.21009120345115662,10.000580787658691,-2.716064453125,-4.364013671875,4.08935546875
0.8674999,0.5159504413604736,-0.3513490855693817,9.676166534423828,-4.608154296875,-3.997802734375,-3.265380859375
0.8724999,0.6811503767967224,-0.34596213698387146,9.813234329223633,7.4462890625,-2.99072265625,-1.03759765625
0.8774999,0.6787561774253845,-0.26096799969673157,9.864709854125977,-5.035400390625,-2.777099609375,4.0283203125
0.8824999,0.8056488633155823,-0.38127660751342773,9.792284965515137,7.598876953125,0.67138671875,-0.244140625
0.8874999,0.8056488633155823,-0.38127660751342773,9.792284965515137,7.598876953125,0.67138671875,-0.244140625
0.8924999,0.7332242727279663,-0.304063618183136,9.792284965515137,-6.103515625,0.946044921875,3.143310546875
0.8974999,0.7374141216278076,-0.4213795065879822,9.609726905822754,0.152587890625,2.5634765625,-4.364013671875
0.9024999,0.6189011335372925,-0.44352585077285767,9.637260437011719,1.28173828125,3.41796875,-4.425048828125
0.9074999,0.5811924338340759,-0.21428105235099792,9.891644477844238,7.080078125,2.86865234375,1.739501953125
0.9124999,0.45190557837486267,-0.2992752194404602,9.807847023010254,-8.4228515625,1.007080078125,1.251220703125
0.9174999,0.44173020124435425,-0.28550854325294495,9.70549488067627,2.74658203125,0.79345703125,-4.150390625
0.9224999,0.43275195360183716,-0.19632454216480255,9.955090522766113,4.608154296875,-0.518798828125,2.99072265625
0.9274999,0.3621230125427246,-0.19273324310779572,9.787496566772461,-8.880615234375,-1.64794921875,0.152587890625
0.9324999,0.40940847992897034,-0.36092591285705566,9.686341285705566,3.662109375,-1.678466796875,-3.814697265625
0.9374999,0.4884171485900879,-0.1454477459192276,9.911396026611328,3.570556640625,-2.349853515625,3.5400390625
0.9424999000000001,0.44173020124435425,-0.3274070918560028,9.683348655700684,-8.026123046875,-3.0517578125,-1.28173828125
0.9474999000000001,0.5620388388633728,-0.1975216418504715,9.703699111938477,5.79833984375,-1.77001953125,-3.72314453125
0.9524999000000001,0.629675030708313,-0.23044191300868988,9.8970308303833,-0.42724609375,-2.01416015625,4.119873046875
0.9574999000000001,0.7015010714530945,-0.41718965768814087,9.719860076904297,7.26318359375,0.213623046875,-2.5634765625
0.9624999,0.7068880796432495,-0.29388827085494995,9.934141159057617,-0.91552734375,0,3.631591796875
0.9674999,0.6278793811798096,-0.41718965768814087,9.671378135681152,-5.92041015625,0.457763671875,-2.86865234375
0.9724999,0.6847416758537292,-0.4100070297718048,9.789292335510254,8.514404296875,1.708984375,-1.861572265625
0.9774999,0.6380547285079956,-0.25079262256622314,9.912593841552734,-3.60107421875,1.220703125,3.72314453125
0.9824999,0.5734112858772278,-0.47884035110473633,9.609726905822754,-4.913330078125,1.89208984375,-3.082275390625
0.9874999,0.6476315855979919,-0.28730419278144836,9.829395294189453,10.162353515625,2.410888671875,-0.8544921875
0.9924999,0.5422866940498352,-0.27712884545326233,9.874286651611328,-5.645751953125,0.6103515625,2.9296875
0.9974999,0.5171475410461426,-0.20111294090747833,9.64923095703125,-3.387451171875,1.129150390625,-3.753662109375
1.0024999,0.5494692921638489,-0.25737667083740234,9.903017044067383,8.1787109375,1.0986328125,0.8544921875
1.0074999000000002,0.4752490520477295,-0.20051439106464386,9.889249801635742,-6.34765625,-0.06103515625,2.716064453125
1.0124999000000001,0.5051765441894531,-0.3603273630142212,9.679159164428711,-0.579833984375,-0.18310546875,-4.2724609375
1.0174999000000002,0.5913678407669067,-0.31364041566848755,9.929352760314941,5.218505859375,-1.007080078125,1.983642578125
1.0224999000000001,0.5524620413780212,-0.2825157940387726,9.767744064331055,-8.880615234375,-1.64794921875,1.220703125
1.0274999,0.6153098344802856,-0.37828385829925537,9.663596153259277,3.72314453125,-0.244140625,-4.180908203125
1.0324999000000001,0.6482301354408264,-0.2998737692832947,9.892841339111328,4.150390625,-0.396728515625,2.716064453125
1.0374999,0.5907692909240723,-0.25737667083740234,9.727043151855469,-8.758544921875,-0.6103515625,0.091552734375
1.0424999000000001,0.6248866319656372,-0.38127660751342773,9.647436141967773,5.126953125,0.396728515625,-3.72314453125
1.0474999,0.6613982319831848,-0.1801636815071106,9.8970308303833,3.35693359375,0.457763671875,3.387451171875
1.0524999000000002,0.5662286877632141,-0.3106476664543152,9.649829864501953,-7.476806640625,0.54931640625,-1.3427734375
1.0574999,0.6236895322799683,-0.33518823981285095,9.694721221923828,6.622314453125,1.0986328125,-3.204345703125
1.0624999000000002,0.6254851818084717,-0.32680854201316833,9.738415718078613,8.544921875,1.190185546875,-2.532958984375
1.0674999,0.6057330369949341,-0.1759738177061081,9.93593692779541,-1.89208984375,0.1220703125,3.7841796875
1.0724999000000002,0.5195417404174805,-0.3363853394985199,9.664793968200684,-5.92041015625,-0.18310546875,-2.777099609375
1.0774999,0.5907692909240723,-0.30885201692581177,9.832387924194336,9.27734375,0.18310546875,-1.678466796875
1.0824999000000002,0.5380968451499939,-0.26994624733924866,9.941922187805176,-3.90625,-0.6103515625,3.5400390625
1.0874999,0.518943190574646,-0.3166331648826599,9.634267807006836,-4.33349609375,-0.48828125,-3.143310546875
1.0924999000000002,0.5913678407669067,-0.3058592677116394,9.882665634155273,9.6435546875,-0.42724609375,-0.518798828125
1.0974999,0.5261258482933044,-0.25079262256622314,9.880271911621094,-5.859375,-1.40380859375,2.8076171875
1.1024999000000002,0.5213374495506287,-0.2585737705230713,9.639654159545898,-2.899169921875,-0.91552734375,-3.90625
1.1074999,0.5847837924957275,-0.3734954595565796,9.8970308303833,8.36181640625,-0.30517578125,0.79345703125
1.1124999000000002,0.5392939448356628,-0.2669534981250763,9.82640266418457,-6.89697265625,-1.007080078125,2.74658203125
1.1174999,0.6057330369949341,-0.2867056429386139,9.668983459472656,3.90625,0.9765625,-4.241943359375
1.1224999000000002,0.6189011335372925,-0.21188685297966003,9.886856079101562,3.753662109375,0.335693359375,3.082275390625
1.1274999,0.5392939448356628,-0.1149216815829277,9.694122314453125,-8.36181640625,0.06103515625,0.06103515625
1.1324999000000002,0.5590460896492004,-0.21787235140800476,9.663596153259277,6.927490234375,0.79345703125,-3.60107421875
1.1374999000000001,0.5793967843055725,-0.18315643072128296,9.895833969116211,2.13623046875,-0.396728515625,3.448486328125
1.1424999000000002,0.4854243993759155,-0.2819172441959381,9.707889556884766,-8.1787109375,-0.396728515625,-0.885009765625
1.1474999000000001,0.5494692921638489,-0.45250412821769714,9.72285270690918,7.049560546875,-0.18310546875,-3.082275390625
1.1524999000000002,0.5752069354057312,-0.37648820877075195,9.709086418151855,-4.119873046875,-0.54931640625,-3.5400390625
1.1574999000000001,0.6554127335548401,-0.31842881441116333,9.8599214553833,8.1787109375,0.030517578125,-2.044677734375
1.1624999,0.6212953329086304,-0.2322375625371933,9.93474006652832,-4.8828125,-0.30517578125,4.33349609375
1.1674999000000001,0.595557689666748,-0.2017114907503128,9.637260437011719,-3.875732421875,0.48828125,-3.23486328125
1.1724999,0.6715735793113708,-0.2908954918384552,9.821015357971191,7.568359375,1.068115234375,-0.213623046875
1.1774999000000002,0.5829881429672241,-0.23044191300868988,9.869498252868652,-5.950927734375,-0.030517578125,3.662109375
1.1824999,0.5680243372917175,-0.4058171808719635,9.656414031982422,-0.518798828125,0.823974609375,-4.39453125
1.1874999000000002,0.6105214357376099,-0.43694180250167847,9.910798072814941,7.4462890625,0.579833984375,0.18310546875
1.1924999,0.5303156971931458,-0.3387795388698578,9.8599214553833,-7.049560546875,-0.244140625,2.655029296875
1.1974999000000002,0.6200982332229614,-0.31783026456832886,9.894637107849121,7.14111328125,0.30517578125,1.64794921875
1.2024999,0.558447539806366,-0.21128830313682556,9.838373184204102,-8.331298828125,-0.48828125,1.922607421875
1.2074999000000002,0.5811924338340759,-0.3489548861980438,9.706692695617676,2.044677734375,0.030517578125,-4.33349609375
1.2124999,0.6021417379379272,-0.2621650993824005,9.952696800231934,6.195068359375,-0.274658203125,2.38037109375
1.2174999000000002,0.5398924946784973,-0.3106476664543152,9.806051254272461,-8.697509765625,-0.91552734375,0.762939453125
1.2224999,0.6021417379379272,-0.333991140127182,9.695918083190918,4.08935546875,0.030517578125,-4.058837890625
1.2274999000000002,0.628477931022644,-0.24779987335205078,9.889249801635742,4.180908203125,-0.213623046875,3.204345703125
1.2324999,0.5446808934211731,-0.25258827209472656,9.709086418151855,-8.453369140625,-0.518798828125,-0.1220703125
1.2374999000000002,0.5835866928100586,-0.25019407272338867,9.66299819946289,7.232666015625,0.30517578125,-3.936767578125
1.2424999,0.6099228858947754,-0.23044191300868988,9.88506031036377,1.5869140625,-0.30517578125,3.23486328125
1.2474999000000002,0.5380968451499939,-0.24241292476654053,9.668983459472656,-8.636474609375,-0.244140625,-0.6103515625
1.2524999,0.6153098344802856,-0.38307225704193115,9.677363395690918,6.8359375,0.946044921875,-2.716064453125
1.2574999000000002,0.5608417391777039,-0.39624038338661194,9.66958236694336,-7.415771484375,-0.42724609375,-1.983642578125
1.2624999000000001,0.6374561786651611,-0.40282443165779114,9.77253246307373,7.75146484375,0.48828125,-2.38037109375
1.2674999000000002,0.6189011335372925,-0.24899697303771973,9.95209789276123,-1.861572265625,-0.1220703125,3.753662109375
1.2724999000000001,0.5488707423210144,-0.3579331636428833,9.689932823181152,-5.67626953125,-0.1220703125,-3.021240234375
1.2774999000000002,0.6404489278793335,-0.36152446269989014,9.830592155456543,8.575439453125,0.67138671875,-1.28173828125
1.2824999000000001,0.5704185366630554,-0.20231004059314728,9.905410766601562,-5.79833984375,-0.42724609375,3.60107421875
1.2874999,0.5704185366630554,-0.3381809890270233,9.671378135681152,-0.457763671875,-0.152587890625,-4.425048828125
1.2924999000000001,0.6212953329086304,-0.31124621629714966,9.932944297790527,7.99560546875,-0.030517578125,0.091552734375
1.2974999,0.547075092792511,-0.2693476974964142,9.851541519165039,-7.904052734375,-0.579833984375,2.99072265625
1.3024999000000002,0.6290764808654785,-0.3196259140968323,9.871294021606445,7.32421875,0.396728515625,1.373291015625
1.3074999,0.557250440120697,-0.24779987335205078,9.798270225524902,-8.392333984375,-0.6103515625,1.678466796875
1.3124999000000002,0.5877765417098999,-0.33339259028434753,9.66419506072998,3.0517578125,0.244140625,-4.425048828125
1.3174999,0.5901707410812378,-0.3058592677116394,9.91977596282959,5.218505859375,0.1220703125,2.593994140625
1.3224999000000002,0.5422866940498352,-0.24600422382354736,9.75278091430664,-9.21630859375,-0.396728515625,1.0986328125
1.3274999,0.5913678407669067,-0.3214215636253357,9.654618263244629,5.4931640625,0.732421875,-4.180908203125
1.3324999000000002,0.6159083843231201,-0.2603694200515747,9.877279281616211,3.265380859375,-0.06103515625,3.0517578125
1.3374999,0.5315127968788147,-0.23343466222286224,9.689932823181152,-9.246826171875,-0.335693359375,0.1220703125
1.3424999000000002,0.5781996846199036,-0.30945056676864624,9.700108528137207,6.622314453125,0.67138671875,-3.875732421875
1.3474999,0.5991489887237549,-0.25498247146606445,9.903017044067383,1.64794921875,-0.030517578125,3.387451171875
1.3524999000000002,0.5321113467216492,-0.28131869435310364,9.663596153259277,-8.72802734375,-0.457763671875,-0.67138671875
1.3574999,0.6075286865234375,-0.3489548861980438,9.730634689331055,8.48388671875,0.274658203125,-3.23486328125
1.3624999000000002,0.6171054840087891,-0.40521863102912903,9.771934509277344,8.97216796875,0.3662109375,-1.983642578125
1.3674999,0.596754789352417,-0.2513911724090576,9.912593841552734,-2.3193359375,-0.213623046875,3.631591796875
1.3724999000000002,0.5464765429496765,-0.36990416049957275,9.656414031982422,-6.072998046875,-0.518798828125,-2.9296875
1.3774999,0.6470330357551575,-0.40222588181495667,9.829395294189453,8.819580078125,0.30517578125,-1.220703125
1.3824999000000002,0.5847837924957275,-0.25917232036590576,9.944915771484375,-3.84521484375,-0.3662109375,3.753662109375
1.3874999000000001,0.5716156363487244,-0.3866635859012604,9.635464668273926,-2.9296875,0.06103515625,-3.7841796875
1.3924999000000002,0.6446388363838196,-0.2825157940387726,9.898826599121094,8.453369140625,0.1220703125,-0.48828125
1.3974999000000001,0.5590460896492004,-0.25917232036590576,9.865307807922363,-6.805419921875,-0.396728515625,3.509521484375
1.4024999000000002,0.5704185366630554,-0.30226796865463257,9.672574996948242,-1.220703125,0.152587890625,-3.936767578125
1.4074999000000001,0.6278793811798096,-0.39863458275794983,9.888052940368652,7.62939453125,0.3662109375,0.701904296875
1.4124999,0.5662286877632141,-0.32381579279899597,9.853337287902832,-7.26318359375,-0.732421875,2.50244140625
1.4174999000000001,0.5632359385490417,-0.3064578175544739,9.82999324798584,-8.514404296875,-0.274658203125,1.77001953125
1.4224999,0.5632359385490417,-0.3064578175544739,9.82999324798584,-8.514404296875,-0.274658203125,1.77001953125
1.4274999000000002,0.5841852426528931,-0.33698388934135437,9.678560256958008,2.532958984375,0.1220703125,-4.0283203125
1.4324999,0.5961562395095825,-0.23343466222286224,9.9185791015625,5.035400390625,-0.152587890625,2.593994140625
1.4374999000000002,0.5374982953071594,-0.3106476664543152,9.730634689331055,-8.514404296875,-0.6103515625,0.701904296875
1.4424999,0.6218938827514648,-0.21308395266532898,9.865906715393066,4.058837890625,0.18310546875,2.99072265625
1.4474999000000002,0.6218938827514648,-0.21308395266532898,9.865906715393066,4.058837890625,0.18310546875,2.99072265625
1.4524999,0.5351040959358215,-0.2968810200691223,9.674968719482422,-8.48388671875,-0.54931640625,-0.396728515625
1.4574999000000002,0.5614402890205383,-0.2579752206802368,9.67077922821045,6.16455078125,0.79345703125,-3.814697265625
1.4624999,0.5931634902954102,-0.21188685297966003,9.9000244140625,1.556396484375,0.06103515625,3.5400390625
1.4674999000000002,0.5099649429321289,-0.3274070918560028,9.677363395690918,-8.697509765625,-0.640869140625,-1.03759765625
1.4724999,0.5333084464073181,-0.33937808871269226,9.659406661987305,-6.77490234375,-0.54931640625,-2.166748046875
1.4774999000000002,0.6063315868377686,-0.3429693877696991,9.775525093078613,8.60595703125,0.396728515625,-2.38037109375
1.4824999,0.5931634902954102,-0.28550854325294495,9.921571731567383,-2.593994140625,-0.152587890625,3.84521484375
1.4874999000000002,0.5398924946784973,-0.3824737071990967,9.673172950744629,-5.767822265625,-0.30517578125,-2.685546875
1.4924999,0.6404489278793335,-0.353743314743042,9.838972091674805,8.9111328125,0.30517578125,-1.0986328125
1.4974999000000002,0.5943605899810791,-0.29867666959762573,9.914987564086914,-4.547119140625,-0.732421875,3.7841796875
1.5024999,0.5793967843055725,-0.3471592366695404,9.627683639526367,-3.936767578125,-0.54931640625,-3.509521484375
1.5074999000000002,0.6619967818260193,-0.26815059781074524,9.840168952941895,9.246826171875,0.30517578125,-0.335693359375
1.5124999000000001,0.5728127360343933,-0.2669534981250763,9.853337287902832,-6.256103515625,-0.42724609375,3.35693359375
1.5174999000000002,0.5710170865058899,-0.34656068682670593,9.63067626953125,-2.044677734375,0.213623046875,-3.90625
1.5224999000000001,0.6189011335372925,-0.3082534670829773,9.9000244140625,8.209228515625,0.457763671875,0.67138671875
1.5274999000000002,0.5901707410812378,-0.40282443165779114,9.665990829467773,0.54931640625,0.396728515625,-4.241943359375
1.5324999000000001,0.6290764808654785,-0.27653029561042786,9.896432876586914,7.659912109375,0.213623046875,1.46484375
1.5374999000000003,0.5524620413780212,-0.28790274262428284,9.841964721679688,-8.026123046875,-0.457763671875,1.89208984375
1.5424999000000001,0.5770025849342346,-0.3130418658256531,9.67077922821045,2.197265625,0.518798828125,-4.45556640625
1.5474999,0.5997475385665894,-0.19871874153614044,9.946710586547852,5.767822265625,0.18310546875,2.227783203125
1.5524999000000002,0.5327098965644836,-0.3381809890270233,9.77253246307373,-8.880615234375,-0.244140625,1.0986328125
1.5574999,0.5901707410812378,-0.37409400939941406,9.667187690734863,4.180908203125,0.18310546875,-4.150390625
1.5624999000000002,0.6159083843231201,-0.29628247022628784,9.894637107849121,4.486083984375,0.030517578125,3.082275390625
1.5674999,0.5363011956214905,-0.3519476354122162,9.70310115814209,-8.72802734375,-0.48828125,-0.030517578125
1.5724999000000002,0.579995334148407,-0.31364041566848755,9.683348655700684,5.55419921875,0.3662109375,-3.875732421875
1.5774999,0.6063315868377686,-0.21308395266532898,9.908403396606445,2.197265625,-0.335693359375,3.570556640625
1.5824999000000002,0.5309142470359802,-0.27892449498176575,9.692925453186035,-8.392333984375,-0.701904296875,-0.701904296875
1.5874999,0.6350619792938232,-0.2885012924671173,9.757569313049316,8.11767578125,0.823974609375,-2.349853515625
1.5924999000000002,0.6212953329086304,-0.25258827209472656,9.922768592834473,-1.5869140625,-0.091552734375,3.753662109375
1.5974999,0.5482721924781799,-0.3345896899700165,9.683348655700684,-5.950927734375,-0.48828125,-2.8076171875
1.6024999000000002,0.6123170852661133,-0.3280056416988373,9.819219589233398,8.941650390625,0.457763671875,-1.77001953125
1.6074999,0.578798234462738,-0.3058592677116394,9.93474006652832,-3.814697265625,-0.3662109375,3.7841796875
1.6124999000000002,0.5333084464073181,-0.4040215313434601,9.64803409576416,-4.638671875,0.18310546875,-3.143310546875
1.6174999,0.6248866319656372,-0.33279404044151306,9.832387924194336,8.85009765625,0.457763671875,-0.640869140625
1.6224999000000002,0.5428852438926697,-0.3100491166114807,9.877279281616211,-5.340576171875,-0.640869140625,3.387451171875
1.6274999,0.5440823435783386,-0.3214215636253357,9.635464668273926,-2.38037109375,-0.091552734375,-3.90625
1.6324999000000002,0.6177040338516235,-0.262763649225235,9.891644477844238,8.453369140625,0.244140625,0.213623046875
1.6374999000000001,0.5991489887237549,-0.363918662071228,9.673771858215332,-0.54931640625,0.18310546875,-4.39453125
1.6424999000000002,0.6542156338691711,-0.2908954918384552,9.904812812805176,7.781982421875,-0.06103515625,0.9765625
1.6474999000000001,0.5805938839912415,-0.3208230137825012,9.844358444213867,-7.99560546875,-0.42724609375,2.38037109375
1.6524999000000002,0.6117185354232788,-0.3423708379268646,9.657012939453125,1.556396484375,0.54931640625,-4.241943359375
1.6574999000000001,0.6266822814941406,-0.22685061395168304,9.922170639038086,6.317138671875,0.18310546875,1.922607421875
1.6624999000000003,0.545877993106842,-0.31783026456832886,9.786897659301758,-8.97216796875,-0.640869140625,1.373291015625
1.6674999000000001,0.5805938839912415,-0.3603273630142212,9.66539192199707,3.631591796875,0.42724609375,-4.33349609375
1.6724999,0.6087257862091064,-0.2801215946674347,9.907805442810059,5.2490234375,0.18310546875,2.777099609375
1.6774999000000002,0.5380968451499939,-0.3770867586135864,9.725247383117676,-8.636474609375,-0.30517578125,0.54931640625
1.6824999,0.6147112846374512,-0.3148375153541565,9.711481094360352,7.75146484375,0.335693359375,-2.86865234375
1.6874999000000002,0.6123170852661133,-0.28730419278144836,9.917980194091797,-0.518798828125,-0.640869140625,3.84521484375
1.6924999,0.5476736426353455,-0.3477577865123749,9.690531730651855,-6.500244140625,-0.213623046875,-2.25830078125
1.6974999000000002,0.606930136680603,-0.3321954905986786,9.81024169921875,8.575439453125,0.732421875,-2.01416015625
1.7024999,0.5961562395095825,-0.28969839215278625,9.95329475402832,-2.838134765625,-0.518798828125,3.662109375
1.7074999000000002,0.5416881442070007,-0.3944447338581085,9.670180320739746,-5.31005859375,-0.274658203125,-2.99072265625
1.7124999,0.6386532783508301,-0.34656068682670593,9.831789016723633,9.27734375,0.244140625,-1.15966796875
1.7174999000000002,0.5793967843055725,-0.3357867896556854,9.901819229125977,-4.39453125,-0.335693359375,3.631591796875
1.7224999,0.5614402890205383,-0.34356793761253357,9.628880500793457,-3.47900390625,0.152587890625,-3.570556640625
1.7274999000000002,0.5596446394920349,-0.25318682193756104,9.877279281616211,-6.195068359375,-0.48828125,3.143310546875
1.7324999,0.5758054852485657,-0.33099839091300964,9.68155288696289,-1.220703125,-0.1220703125,-4.150390625
1.7374999000000002,0.6308721303939819,-0.292691171169281,9.913790702819824,8.1787109375,0.335693359375,0.762939453125
1.7424999,0.5632359385490417,-0.3687070608139038,9.870096206665039,-7.38525390625,-0.640869140625,2.471923828125
1.7474999000000002,0.6051344871520996,-0.44352585077285767,9.661202430725098,0.30517578125,0.48828125,-4.364013671875
1.7524999,0.6368576288223267,-0.32860419154167175,9.898826599121094,7.32421875,0.152587890625,1.678466796875
1.7574999000000002,0.5620388388633728,-0.34835633635520935,9.824606895446777,-8.23974609375,-0.42724609375,1.64794921875
1.7624999000000001,0.5895721912384033,-0.3477577865123749,9.66419506072998,2.838134765625,0.579833984375,-4.425048828125
1.7674999000000002,0.6063315868377686,-0.2082955539226532,9.930550575256348,5.4931640625,0.3662109375,2.50244140625
1.7724999000000001,0.5488707423210144,-0.3148375153541565,9.768941879272461,-8.941650390625,-0.335693359375,1.007080078125
1.7774999000000002,0.5949591398239136,-0.333991140127182,9.658807754516602,4.21142578125,0.213623046875,-4.180908203125
1.7824999000000001,0.6200982332229614,-0.23523031175136566,9.886856079101562,4.08935546875,-0.213623046875,2.9296875
1.7874999000000003,0.6039373874664307,-0.1951274424791336,9.876680374145508,1.739501953125,-0.030517578125,3.570556640625
1.7924999000000001,0.5303156971931458,-0.3034650683403015,9.668384552001953,-8.331298828125,-0.579833984375,-0.91552734375
1.7974999,0.6129156351089478,-0.2950853705406189,9.689932823181152,7.415771484375,0.457763671875,-2.99072265625
1.8024999000000002,0.6404489278793335,-0.262763649225235,9.915586471557617,0.18310546875,-0.3662109375,3.875732421875
1.8074999,0.569819986820221,-0.34177228808403015,9.640851974487305,-7.293701171875,-0.732421875,-2.0751953125
1.8124999000000002,0.6530185341835022,-0.34356793761253357,9.756970405578613,8.453369140625,0.213623046875,-2.288818359375
1.8174999,0.6332663297653198,-0.28550854325294495,9.906607627868652,-2.38037109375,-0.579833984375,4.150390625
1.8224999000000002,0.5746083855628967,-0.3669114112854004,9.686341285705566,-6.256103515625,-0.335693359375,-2.8076171875
1.8274999,0.6560112833976746,-0.314238965511322,9.840168952941895,9.033203125,0.3662109375,-1.678466796875
1.8324999000000002,0.6075286865234375,-0.29568392038345337,9.9586820602417,-4.0283203125,-0.67138671875,3.814697265625
1.8374999,0.5776011347770691,-0.3250128924846649,9.654019355773926,-4.119873046875,-0.091552734375,-3.41796875
1.8424999000000002,0.595557689666748,-0.28730419278144836,9.9185791015625,8.544921875,0.457763671875,0.457763671875
1.8474999,0.5249287486076355,-0.3208230137825012,9.874286651611328,-7.080078125,-0.30517578125,2.8076171875
1.8524999000000002,0.5656301379203796,-0.3902548849582672,9.685144424438477,0.274658203125,0.274658203125,-4.364013671875
1.8574999,0.6165069341659546,-0.29568392038345337,9.909601211547852,7.476806640625,0.518798828125,1.312255859375
1.8624999000000002,0.7846996188163757,-0.2645592987537384,9.581595420837402,-8.4228515625,-0.640869140625,2.166748046875
1.8674999,1.702277421951294,-0.8708908557891846,9.813234329223633,6.53076171875,-1.89208984375,-19.622802734375
1.8724999000000002,2.8652608394622803,-1.4616601467132568,10.244190216064453,33.203125,43.426513671875,-38.75732421875
1.8774999,4.370016574859619,-2.959831953048706,10.842142105102539,62.6220703125,80.50537109375,-40.71044921875
1.8824999000000002,5.546766757965088,-4.076726913452148,11.854290962219238,127.44140625,120.361328125,-54.656982421875
1.8874999000000001,5.874173641204834,-4.647744178771973,13.003507614135742,171.44775390625,161.92626953125,-61.004638671875
1.8924999000000002,3.7918169498443604,-3.779845952987671,14.88475227355957,218.536376953125,166.93115234375,-82.672119140625
1.8974999000000001,1.699883222579956,-2.5037364959716797,15.144522666931152,212.615966796875,132.99560546875,-81.085205078125
1.9024999000000002,-0.45429977774620056,-1.0654197931289673,14.272435188293457,210.38818359375,103.546142578125,-91.033935546875
1.9074999000000001,-2.383427858352661,0.25318682193756104,12.707225799560547,226.104736328125,71.319580078125,-91.217041015625
1.9124999000000003,-3.8325183391571045,1.5388731956481934,10.381258964538574,213.592529296875,31.25,-79.4677734375
1.9174999000000001,-4.594472885131836,2.139817714691162,7.861959934234619,195.281982421875,-17.39501953125,-73.42529296875
1.9224999,-4.11443567276001,2.8646624088287354,4.3825860023498535,142.02880859375,-93.994140625,-29.052734375
1.9274999000000002,-3.558980941772461,2.498948097229004,3.4278981685638428,123.046875,-113.037109375,-8.544921875
1.9324999,-2.7778725624084473,2.5264813899993896,3.09151291847229,114.532470703125,-118.927001953125,17.547607421875
1.9374999000000002,-2.2577321529388428,2.205059766769409,2.9915549755096436,92.1630859375,-119.964599609375,45.7763671875
1.9424999,-1.8830395936965942,2.1727380752563477,3.2130186557769775,97.35107421875,-119.0185546875,55.6640625
1.9474999000000002,-1.3323732614517212,2.623446464538574,3.732560396194458,87.127685546875,-115.814208984375,83.55712890625
1.9524999,-1.24917471408844,2.653972625732422,4.485537052154541,91.094970703125,-110.565185546875,74.920654296875
1.9574999000000002,-1.1420341730117798,3.1076738834381104,5.918466567993164,53.619384765625,-86.12060546875,70.892333984375
1.9624999,-1.0995371341705322,3.757699489593506,7.838616371154785,-45.71533203125,-33.843994140625,61.859130859375
1.9674999000000002,-0.872686505317688,4.266467571258545,9.38048267364502,-122.589111328125,-9.307861328125,45.867919921875
1.9724999,-0.5656301379203796,5.262455463409424,10.40460205078125,-147.918701171875,-34.759521484375,50.6591796875
1.9774999000000002,-0.17477671802043915,5.937620162963867,9.876082420349121,-144.47021484375,-50.048828125,44.86083984375
1.9824999,0.22685061395168304,6.02919864654541,9.162610054016113,-132.75146484375,-44.12841796875,30.09033203125
1.9874999000000002,0.7811083197593689,6.080075263977051,8.561066627502441,-148.62060546875,-35.369873046875,29.6630859375
1.9924999,0.960673451423645,5.4893059730529785,8.008605003356934,-174.74365234375,-38.848876953125,38.75732421875
1.9974999000000002,1.313219666481018,4.612429618835449,7.771578788757324,-168.182373046875,-27.984619140625,49.530029296875
2.0024999,1.7525556087493896,1.1414356231689453,7.978677272796631,-178.03955078125,42.96875,102.081298828125
2.0074999,1.5849615335464478,0.6278793811798096,8.016386032104492,-184.08203125,53.7109375,104.278564453125
2.0124999000000003,1.5855600833892822,0.6230909824371338,8.315062522888184,-173.2177734375,62.8662109375,104.18701171875
2.0174999000000002,1.4167689085006714,0.6308721303939819,8.73344898223877,-189.453125,65.3076171875,111.4501953125
2.0224999,0.9630676507949829,0.6236895322799683,8.70950698852539,-194.39697265625,59.4482421875,99.42626953125
2.0274999,0.9373299479484558,0.7583633661270142,9.311050415039062,-187.713623046875,49.31640625,85.3271484375
2.0324999000000004,0.9253589510917664,-0.15801730751991272,10.581174850463867,-183.7158203125,31.524658203125,62.042236328125
2.0374999000000003,1.1905168294906616,-2.341529369354248,12.45822811126709,-90.14892578125,19.378662109375,3.96728515625
2.0424999,1.3509283065795898,-4.733935356140137,13.779229164123535,16.17431640625,-6.439208984375,-42.05322265625
2.0474999,1.1186907291412354,-7.271190643310547,13.667899131774902,7.8125,-29.11376953125,-60.394287109375
2.0524999,0.47824180126190186,-8.774150848388672,11.41016674041748,26.85546875,-30.45654296875,-87.46337890625
2.0574999000000003,-0.3082534670829773,-6.736684799194336,5.978321552276611,13.092041015625,1.64794921875,-92.1630859375
2.0624999,0.055665191262960434,-4.496310710906982,5.3576250076293945,-5.645751953125,13.580322265625,-70.37353515625
2.0674999,0.8792705535888672,-1.7818846702575684,6.871957302093506,0.06103515625,25.726318359375,-35.400390625
2.0724999,0.8792705535888672,-1.7818846702575684,6.871957302093506,0.06103515625,25.726318359375,-35.400390625
2.0774999000000003,1.5981296300888062,0.4213795065879822,9.003395080566406,7.659912109375,26.947021484375,-13.458251953125
2.0824999,1.8513164520263672,2.7557260990142822,11.667543411254883,8.60595703125,7.293701171875,8.6669921875
2.0874999,1.18094003200531,2.6455929279327393,11.189900398254395,-6.500244140625,5.37109375,1.46484375
2.0924999,0.38726213574409485,1.9710265398025513,10.29865837097168,-3.60107421875,-1.800537109375,-5.4931640625
2.0974999000000003,-0.22685061395168304,1.349731206893921,9.9000244140625,-11.77978515625,-6.256103515625,6.53076171875
2.1024999,-0.6242880821228027,0.3321954905986786,9.525331497192383,-16.632080078125,-6.011962890625,9.246826171875
2.1074999,-0.568622887134552,-0.4100070297718048,9.663596153259277,5.9814453125,-8.9111328125,9.063720703125
2.1124999,-0.030526071786880493,-1.268328309059143,9.833584785461426,-5.4931640625,-13.763427734375,3.5400390625
2.1174999000000003,0.36332011222839355,-1.2312182188034058,9.806051254272461,9.735107421875,-12.115478515625,-3.082275390625
2.1224999,0.706289529800415,-0.9768342971801758,9.889249801635742,-1.52587890625,-10.31494140625,0.335693359375
2.1274999,0.9427168965339661,-0.7254431247711182,9.617507934570312,-5.67626953125,-5.950927734375,-6.561279296875
2.1324999,1.2743138074874878,-0.3531447649002075,9.739013671875,9.6435546875,-0.3662109375,-4.425048828125
2.1374999000000003,1.4203602075576782,-0.10893617570400238,9.820416450500488,-4.058837890625,3.90625,2.960205078125
2.1424999000000002,1.413776159286499,-0.08140286058187485,9.487024307250977,-4.69970703125,8.209228515625,-3.23486328125
2.1474999,1.3910311460494995,-0.01735796220600605,9.671976089477539,7.4462890625,9.94873046875,-1.0986328125
2.1524999,1.0869675874710083,-0.11671733111143112,9.743204116821289,-7.110595703125,9.063720703125,3.082275390625
2.1574999000000004,0.7793126702308655,-0.28730419278144836,9.620500564575195,-1.434326171875,8.514404296875,-2.99072265625
2.1624999000000003,0.19871874153614044,-0.497395396232605,9.946710586547852,-6.195068359375,1.3427734375,2.25830078125
2.1674999,0.19871874153614044,-0.497395396232605,9.946710586547852,-6.195068359375,1.3427734375,2.25830078125
2.1724999,0.0736217051744461,-0.38546648621559143,10.014347076416016,7.049560546875,-2.899169921875,0.79345703125
2.1774999000000004,0.04668693244457245,-0.3429693877696991,9.929352760314941,-8.209228515625,-5.06591796875,1.8310546875
2.1824999000000003,0.2064998894929886,-0.262763649225235,9.756970405578613,2.5634765625,-4.82177734375,-3.631591796875
2.1874999,0.4016273319721222,-0.0867898091673851,9.975440979003906,3.753662109375,-4.669189453125,3.23486328125
2.1924999,0.5273229479789734,-0.21607670187950134,9.758766174316406,-10.284423828125,-4.0283203125,1.373291015625
2.1974999,0.7451952695846558,-0.25318682193756104,9.636063575744629,3.96728515625,-1.556396484375,-3.143310546875
2.2024999000000003,0.9038111567497253,-0.2472013235092163,9.843161582946777,3.143310546875,-0.091552734375,3.997802734375
2.2074999,0.8756792545318604,-0.39803603291511536,9.649829864501953,-8.11767578125,0.823974609375,0.335693359375
2.2124999,0.8954314589500427,-0.4255693554878235,9.653421401977539,7.568359375,2.8076171875,-3.387451171875
2.2174999,0.8583213090896606,-0.34177228808403015,9.895833969116211,1.40380859375,2.471923828125,3.082275390625
2.2224999000000003,0.6769605278968811,-0.42437225580215454,9.663596153259277,-7.171630859375,2.13623046875,-2.471923828125
2.2274999,0.6482301354408264,-0.3489548861980438,9.743204116821289,8.453369140625,2.410888671875,-3.875732421875
2.2324999,0.43095630407333374,-0.3974374830722809,9.694122314453125,-4.39453125,-1.0986328125,-2.899169921875
2.2374999,0.5638344883918762,-0.35075053572654724,9.882067680358887,9.27734375,-0.946044921875,-0.274658203125
2.2424999000000003,0.5422866940498352,-0.32381579279899597,9.906009674072266,-5.4931640625,-1.861572265625,4.119873046875
2.2474999,0.5752069354057312,-0.35494041442871094,9.66958236694336,-1.678466796875,-0.701904296875,-3.173828125
2.2524999,0.6847416758537292,-0.27413609623908997,9.910798072814941,8.72802734375,0.091552734375,0.640869140625
2.2574999,0.6500257849693298,-0.3172317147254944,9.865307807922363,-7.415771484375,-0.732421875,2.86865234375
2.2624999000000003,0.6973112225532532,-0.34835633635520935,9.671976089477539,-0.244140625,0.885009765625,-4.547119140625
2.2674999000000002,0.7463923692703247,-0.2687491476535797,9.894038200378418,6.988525390625,1.46484375,0.8544921875
2.2724999,0.6458359360694885,-0.29867666959762573,9.827000617980957,-8.36181640625,0.79345703125,1.3427734375
2.2774999,0.44831427931785583,-0.35673606395721436,9.734824180603027,-8.636474609375,-1.800537109375,0.274658203125
2.2824999000000004,0.4991910457611084,-0.2992752194404602,9.716867446899414,6.591796875,-0.54931640625,-3.631591796875
2.2874999000000003,0.5608417391777039,-0.22744916379451752,9.930550575256348,1.89208984375,-1.52587890625,3.570556640625
2.2924999,0.5279214978218079,-0.30526071786880493,9.703699111938477,-8.331298828125,-1.739501953125,-0.9765625
2.2974999,0.6404489278793335,-0.33339259028434753,9.72285270690918,7.6904296875,-0.091552734375,-3.0517578125
2.3024999000000004,0.7003039717674255,-0.2783259451389313,9.907805442810059,-0.335693359375,-0.30517578125,3.662109375
2.3074999000000003,0.6368576288223267,-0.3381809890270233,9.668983459472656,-7.080078125,0.06103515625,-2.105712890625
2.3124999,0.7152677774429321,-0.29867666959762573,9.75637149810791,8.85009765625,1.678466796875,-2.349853515625
2.3174999,0.6805518269538879,-0.25917232036590576,9.912593841552734,-2.471923828125,1.220703125,3.90625
2.3224999,0.6470330357551575,-0.31364041566848755,9.804255485534668,8.9111328125,1.495361328125,-1.3427734375
2.3274999000000003,0.557250440120697,-0.29807811975479126,9.883264541625977,-4.852294921875,-0.1220703125,3.570556640625
2.3324999,0.4920084476470947,-0.3663128614425659,9.621099472045898,-3.47900390625,-0.030517578125,-3.570556640625
2.3374999,0.5494692921638489,-0.31543606519699097,9.8599214553833,8.819580078125,-0.091552734375,-0.274658203125
2.3424999,0.47165772318840027,-0.33279404044151306,9.88745403289795,-6.317138671875,-1.678466796875,3.204345703125
2.3474999000000003,0.5003881454467773,-0.3860650360584259,9.68933391571045,-1.77001953125,-1.40380859375,-3.997802734375
2.3524999,0.6057330369949341,-0.31603461503982544,9.923367500305176,7.904052734375,-1.15966796875,0.762939453125
2.3574999,0.5835866928100586,-0.34356793761253357,9.862914085388184,-7.8125,-1.708984375,2.593994140625
2.3624999,0.6560112833976746,-0.3603273630142212,9.659406661987305,0.9765625,-0.091552734375,-4.0283203125
2.3674999000000003,0.7218518257141113,-0.24480712413787842,9.896432876586914,7.26318359375,-0.030517578125,1.77001953125
2.3724999,0.6697779297828674,-0.32620999217033386,9.646238327026367,3.173828125,0.6103515625,-4.5166015625
2.3774999,0.6727706789970398,-0.2406172752380371,9.906607627868652,5.645751953125,0.946044921875,2.38037109375
2.3824999,0.5937620401382446,-0.3818751573562622,9.739612579345703,-8.941650390625,-0.152587890625,0.8544921875
2.3874999000000003,0.6135141849517822,-0.3932476341724396,9.657610893249512,4.7607421875,1.0986328125,-4.119873046875
2.3924999000000002,0.6165069341659546,-0.2693476974964142,9.871294021606445,3.570556640625,0.518798828125,3.0517578125
2.3974999,0.50876784324646,-0.3250128924846649,9.701904296875,-8.60595703125,-0.18310546875,-0.213623046875
2.4024999,0.5279214978218079,-0.28072014451026917,9.66419506072998,6.683349609375,0.8544921875,-3.662109375
2.4074999000000004,0.5602431893348694,-0.2256535142660141,9.896432876586914,1.5869140625,-0.335693359375,3.662109375
2.4124999000000003,0.4878185987472534,-0.3321954905986786,9.671378135681152,-8.056640625,-0.79345703125,-1.068115234375
2.4174999,0.5704185366630554,-0.35673606395721436,9.718064308166504,7.6904296875,0.396728515625,-2.8076171875
2.4224999,0.5979518890380859,-0.30885201692581177,9.926959037780762,-0.762939453125,-0.762939453125,4.0283203125
2.4274999000000004,0.5351040959358215,-0.3645172119140625,9.706093788146973,-7.080078125,-0.79345703125,-2.044677734375
2.4324999000000003,0.5841852426528931,-0.3447650372982025,9.646238327026367,-3.143310546875,0.18310546875,-3.5400390625
2.4374999,0.6494272351264954,-0.2908954918384552,9.877877235412598,8.514404296875,0.732421875,-0.152587890625
2.4424999,0.5602431893348694,-0.3214215636253357,9.885659217834473,-6.4697265625,-0.732421875,3.173828125
2.4474999,0.5632359385490417,-0.3794809579849243,9.685144424438477,-1.251220703125,0.335693359375,-4.150390625
2.4524999000000003,0.6320692300796509,-0.3321954905986786,9.914987564086914,8.056640625,0.396728515625,0.579833984375
2.4574999,0.5596446394920349,-0.36152446269989014,9.858125686645508,-7.415771484375,-0.640869140625,2.50244140625
2.4624999,0.6093243360519409,-0.4129997789859772,9.67077922821045,0.701904296875,0.18310546875,-4.241943359375
2.4674999,0.6530185341835022,-0.2950853705406189,9.913191795349121,7.2021484375,0.335693359375,1.8310546875
2.4724999000000003,0.6099228858947754,-0.3381809890270233,9.68933391571045,2.685546875,0.701904296875,-4.425048828125
2.4774999,0.6266822814941406,-0.23163901269435883,9.943717956542969,5.462646484375,0.396728515625,2.288818359375
2.4824999,0.569819986820221,-0.3166331648826599,9.77133560180664,-8.97216796875,-0.396728515625,0.91552734375
2.4874999,0.6141127347946167,-0.3172317147254944,9.664793968200684,5.0048828125,0.701904296875,-3.997802734375
2.4924999000000003,0.641047477722168,-0.2059013396501541,9.890447616577148,3.90625,0.213623046875,3.082275390625
2.4974999,0.5530605912208557,-0.2902969419956207,9.702502250671387,-8.85009765625,-0.8544921875,-0.274658203125
2.5024999,0.5692214369773865,-0.27413609623908997,9.671976089477539,6.500244140625,0.91552734375,-3.90625
2.5074999,0.5973533391952515,-0.24181437492370605,9.895833969116211,1.861572265625,-0.274658203125,3.631591796875
2.5124999000000003,0.5081692934036255,-0.3627215623855591,9.677363395690918,-8.1787109375,-0.54931640625,-0.79345703125
2.5174999000000002,0.5793967843055725,-0.3878606855869293,9.707290649414062,7.6904296875,0.213623046875,-3.11279296875
2.5224999,0.6111199855804443,-0.3531447649002075,9.913790702819824,-0.54931640625,-0.579833984375,3.875732421875
2.5274999,0.5440823435783386,-0.4034229815006256,9.677961349487305,-7.232666015625,-0.823974609375,-1.953125
2.5324999000000004,0.619499683380127,-0.2867056429386139,9.929951667785645,-2.471923828125,-0.274658203125,3.96728515625
2.5374999000000003,0.5668272376060486,-0.33039984107017517,9.688735961914062,-5.859375,-0.79345703125,-2.74658203125
2.5424999,0.6518214344978333,-0.3082534670829773,9.827000617980957,9.124755859375,0.640869140625,-1.739501953125
2.5474999,0.6177040338516235,-0.28730419278144836,9.938929557800293,-3.96728515625,-0.1220703125,3.631591796875
2.5524999000000004,0.5811924338340759,-0.3561375141143799,9.653421401977539,-3.936767578125,0.3662109375,-3.23486328125
2.5574999000000003,0.6631938815116882,-0.3214215636253357,9.869498252868652,8.544921875,0.732421875,-0.518798828125
2.5624999,0.5758054852485657,-0.31842881441116333,9.899425506591797,-6.011962890625,-0.67138671875,3.143310546875
2.5674999,0.5668272376060486,-0.39803603291511536,9.677961349487305,-1.8310546875,-0.030517578125,-4.08935546875
2.5724999,0.6248866319656372,-0.33937808871269226,9.911994934082031,8.697509765625,0.42724609375,0.396728515625
2.5774999000000003,0.5644330382347107,-0.3728969097137451,9.874884605407715,-7.14111328125,-0.79345703125,2.716064453125
2.5824999,0.596754789352417,-0.39145198464393616,9.667187690734863,-0.030517578125,0.54931640625,-4.180908203125
2.5874999,0.6518214344978333,-0.29628247022628784,9.894038200378418,7.659912109375,0.274658203125,1.434326171875
2.5924999,0.5925649404525757,-0.3387795388698578,9.653421401977539,2.01416015625,0.213623046875,-4.45556640625
2.5974999000000003,0.6105214357376099,-0.23283611238002777,9.913790702819824,5.889892578125,0.30517578125,2.13623046875
2.6024999,0.5416881442070007,-0.3705027103424072,9.783307075500488,-8.48388671875,-0.6103515625,1.220703125
2.6074999,0.5961562395095825,-0.4016273319721222,9.643245697021484,4.241943359375,0.457763671875,-4.302978515625
2.6124999,0.618302583694458,-0.3321954905986786,9.895236015319824,4.57763671875,0.30517578125,2.8076171875
2.6174999000000003,0.5518634915351868,-0.37888240814208984,9.697115898132324,-8.575439453125,-0.30517578125,0.335693359375
2.6224999,0.5913678407669067,-0.33698388934135437,9.646238327026367,5.584716796875,0.579833984375,-3.814697265625
2.6274999,0.628477931022644,-0.21368250250816345,9.894637107849121,2.593994140625,-0.1220703125,3.204345703125
2.6324999,0.5363011956214905,-0.2819172441959381,9.676764488220215,-8.36181640625,-0.67138671875,-0.6103515625
2.6374999000000003,0.5901707410812378,-0.2759317457675934,9.710283279418945,6.927490234375,0.91552734375,-3.265380859375
2.6424999000000002,0.6200982332229614,-0.25079262256622314,9.920374870300293,0.701904296875,-0.18310546875,3.90625
2.6474999,0.5374982953071594,-0.33698388934135437,9.677363395690918,-7.62939453125,-0.396728515625,-1.495361328125
2.6524999,0.6153098344802856,-0.28311434388160706,9.925761222839355,-1.40380859375,-0.457763671875,3.814697265625
2.6574999000000004,0.5524620413780212,-0.3411737382411957,9.713874816894531,-6.561279296875,-0.762939453125,-2.38037109375
2.6624999000000003,0.6308721303939819,-0.2992752194404602,9.805453300476074,9.124755859375,0.30517578125,-1.983642578125
2.6674999,0.6153098344802856,-0.26396074891090393,9.938929557800293,-3.41796875,-0.396728515625,3.84521484375
2.6724999,0.579995334148407,-0.3758896589279175,9.651026725769043,-5.157470703125,0.1220703125,-3.143310546875
2.6774999000000004,0.6697779297828674,-0.3513490855693817,9.818022727966309,8.9111328125,0.3662109375,-1.03759765625
2.6824999000000003,0.6015431880950928,-0.35913026332855225,9.897629737854004,-5.126953125,-0.885009765625,3.631591796875
2.6874999,0.5626373887062073,-0.3842693865299225,9.627683639526367,-3.0517578125,0.335693359375,-3.814697265625
2.6924999,0.6224924325942993,-0.33039984107017517,9.876082420349121,8.48388671875,0.91552734375,-0.30517578125
2.6974999,0.5422866940498352,-0.31184476613998413,9.86111831665039,-6.8359375,-0.701904296875,3.204345703125
2.7024999000000003,0.5452794432640076,-0.36810851097106934,9.657610893249512,-1.03759765625,-0.030517578125,-4.0283203125
2.7074999,0.6236895322799683,-0.30885201692581177,9.8970308303833,8.23974609375,0.6103515625,1.007080078125
2.7124999,0.6476315855979919,-0.2579752206802368,9.877279281616211,7.14111328125,0.335693359375,1.739501953125
2.7174999,0.5620388388633728,-0.31783026456832886,9.774927139282227,-8.23974609375,-0.640869140625,1.861572265625
2.7224999000000003,0.6129156351089478,-0.2885012924671173,9.906607627868652,5.584716796875,0,2.25830078125
2.7274999,0.5464765429496765,-0.39803603291511536,9.778518676757812,-8.30078125,-0.67138671875,1.007080078125
2.7324999,0.5464765429496765,-0.39803603291511536,9.778518676757812,-8.30078125,-0.67138671875,1.007080078125
2.7374999,0.5949591398239136,-0.40222588181495667,9.671378135681152,4.547119140625,0.396728515625,-4.058837890625
2.7424999000000003,0.6212953329086304,-0.27892449498176575,9.9000244140625,3.5400390625,-0.030517578125,3.021240234375
2.7474999,0.5363011956214905,-0.32381579279899597,9.691129684448242,-8.97216796875,-0.42724609375,0.030517578125
2.7524999,0.5734112858772278,-0.29209262132644653,9.660603523254395,6.500244140625,0.335693359375,-3.84521484375
2.7574999,0.6147112846374512,-0.2232593148946762,9.907206535339355,1.983642578125,-0.030517578125,3.47900390625
2.7624999000000003,0.6368576288223267,-0.3100491166114807,9.944915771484375,0.06103515625,-0.579833984375,3.692626953125
2.7674999000000002,0.5608417391777039,-0.38726213574409485,9.692327499389648,-7.4462890625,-0.1220703125,-1.922607421875
2.7724999,0.6386532783508301,-0.35494041442871094,9.782708168029785,8.30078125,0.91552734375,-2.44140625
2.7774999,0.6212953329086304,-0.29568392038345337,9.943717956542969,-1.77001953125,-0.30517578125,3.997802734375
2.7824999000000004,0.5644330382347107,-0.3597288131713867,9.707290649414062,-6.04248046875,-0.18310546875,-2.38037109375
2.7874999000000003,0.6362590789794922,-0.3429693877696991,9.841365814208984,8.7890625,0.946044921875,-1.556396484375
2.7924999,0.6093243360519409,-0.314238965511322,9.948506355285645,-3.692626953125,-0.335693359375,3.5400390625
2.7974999,0.5638344883918762,-0.4100070297718048,9.656414031982422,-4.302978515625,-0.274658203125,-3.35693359375
2.8024999000000004,0.5656301379203796,-0.3495534360408783,9.884461402893066,-5.55419921875,-0.518798828125,3.631591796875
2.8074999000000003,0.5656301379203796,-0.3495534360408783,9.884461402893066,-5.55419921875,-0.518798828125,3.631591796875
2.8124999,0.5416881442070007,-0.36152446269989014,9.64564037322998,-2.716064453125,-0.06103515625,-4.0283203125
2.8174999,0.5422866940498352,-0.3076549172401428,9.856329917907715,-6.744384765625,-0.732421875,2.9296875
2.8224999,0.5889736413955688,-0.34835633635520935,9.646238327026367,-0.732421875,0.244140625,-3.96728515625
2.8274999000000003,0.6607996821403503,-0.27892449498176575,9.879075050354004,7.720947265625,0.213623046875,1.0986328125
2.8324999,0.5907692909240723,-0.30047231912612915,9.815628051757812,-7.904052734375,-0.946044921875,2.01416015625
2.8374999,0.6260837316513062,-0.3489548861980438,9.627084732055664,1.40380859375,0.396728515625,-4.45556640625
2.8424999,0.6482301354408264,-0.23942017555236816,9.898228645324707,6.4697265625,0.274658203125,2.01416015625
2.8474999000000003,0.5632359385490417,-0.35254621505737305,9.798869132995605,-8.758544921875,-0.885009765625,1.5869140625
2.8524999,0.6027402877807617,-0.37409400939941406,9.682151794433594,3.47900390625,0.457763671875,-4.33349609375
2.8574999,0.6224924325942993,-0.30466216802597046,9.948506355285645,4.974365234375,0.518798828125,2.62451171875
2.8624999,0.558447539806366,-0.3693056106567383,9.775525093078613,-8.72802734375,-0.67138671875,0.579833984375
2.8674999000000003,0.5997475385665894,-0.3429693877696991,9.674968719482422,5.279541015625,0.30517578125,-3.997802734375
2.8724999,0.6272808313369751,-0.22505496442317963,9.913790702819824,3.448486328125,0.06103515625,3.326416015625
2.8774999,0.5303156971931458,-0.3519476354122162,9.683947563171387,-7.8125,-0.8544921875,-1.28173828125
2.8824999,0.6332663297653198,-0.3274070918560028,9.792284965515137,8.9111328125,1.03759765625,-2.13623046875
2.8874999000000003,0.6177040338516235,-0.2663549482822418,9.9586820602417,-2.471923828125,-0.152587890625,3.96728515625
2.8924999000000002,0.5608417391777039,-0.3531447649002075,9.693524360656738,-5.7373046875,-0.18310546875,-2.8076171875
2.8974999,0.6512228846549988,-0.33518823981285095,9.852140426635742,9.1552734375,0.48828125,-1.434326171875
2.9024999,0.5997475385665894,-0.314238965511322,9.91738224029541,-4.364013671875,-0.396728515625,3.60107421875
2.9074999000000004,0.5704185366630554,-0.3669114112854004,9.627084732055664,-4.150390625,0.06103515625,-3.41796875
2.9124999000000003,0.5674257874488831,-0.2974795699119568,9.874286651611328,-5.859375,-0.8544921875,3.41796875
2.9174999,0.5734112858772278,-0.35075053572654724,9.66539192199707,-1.8310546875,0.1220703125,-3.997802734375
2.9224999,0.6320692300796509,-0.31783026456832886,9.913790702819824,8.392333984375,0.518798828125,0.3662109375
2.9274999000000004,0.5722141861915588,-0.36152446269989014,9.880870819091797,-7.171630859375,-0.54931640625,2.74658203125
2.9324999000000003,0.6027402877807617,-0.4255693554878235,9.676166534423828,0.213623046875,0.091552734375,-4.119873046875
2.9374999,0.6518214344978333,-0.3280056416988373,9.910199165344238,7.354736328125,0.579833984375,1.3427734375
2.9424999,0.5692214369773865,-0.3531447649002075,9.849146842956543,-8.23974609375,-0.42724609375,1.77001953125
2.9474999,0.5985504388809204,-0.3447650372982025,9.68274974822998,2.25830078125,0.274658203125,-4.21142578125
2.9524999000000003,0.6218938827514648,-0.2495955228805542,9.946112632751465,6.40869140625,0.457763671875,2.197265625
2.9574999,0.5488707423210144,-0.32620999217033386,9.814431190490723,-8.60595703125,-0.457763671875,1.28173828125
2.9624999,0.6033388376235962,-0.36750996112823486,9.677363395690918,3.90625,0.518798828125,-4.241943359375
2.9674999,0.628477931022644,-0.2579752206802368,9.904213905334473,4.45556640625,-0.213623046875,2.777099609375
2.9724999000000003,0.5309142470359802,-0.32022446393966675,9.666589736938477,-8.636474609375,-0.885009765625,-0.6103515625
2.9774999,0.5829881429672241,-0.3190273642539978,9.702502250671387,7.32421875,0.42724609375,-3.509521484375
2.9824999,0.6129156351089478,-0.27054479718208313,9.924564361572266,0.42724609375,-0.244140625,3.7841796875
2.9874999,0.536899745464325,-0.36571431159973145,9.694122314453125,-7.720947265625,-0.335693359375,-1.495361328125
2.9924999000000003,0.6278793811798096,-0.34177228808403015,9.774328231811523,8.331298828125,0.48828125,-2.86865234375
2.9974999,0.629675030708313,-0.29388827085494995,9.960477828979492,-1.46484375,-0.335693359375,3.936767578125
3.0024999,0.5632359385490417,-0.3489548861980438,9.713874816894531,-6.378173828125,-0.6103515625,-2.3193359375
3.0074999,0.6404489278793335,-0.3315969407558441,9.837775230407715,8.6669921875,0.885009765625,-1.89208984375
3.0124999000000003,0.6087257862091064,-0.30705636739730835,9.966463088989258,-3.570556640625,-0.518798828125,3.84521484375
3.0174999000000002,0.5770025849342346,-0.3597288131713867,9.653421401977539,-3.265380859375,0.091552734375,-3.753662109375
3.0224999,0.6416460275650024,-0.3034650683403015,9.888651847839355,8.6669921875,-0.06103515625,-0.18310546875
3.0274999,0.5596446394920349,-0.35075053572654724,9.895236015319824,-6.8359375,-1.190185546875,3.0517578125
3.0324999000000004,0.5781996846199036,-0.40282443165779114,9.683947563171387,-0.91552734375,0.244140625,-4.119873046875
3.0374999000000003,0.6416460275650024,-0.3519476354122162,9.910199165344238,7.781982421875,0.518798828125,0.762939453125
3.0424999,0.5722141861915588,-0.3597288131713867,9.851541519165039,-7.87353515625,-0.701904296875,2.410888671875
3.0474999,0.608127236366272,-0.4034229815006256,9.647436141967773,1.220703125,0.457763671875,-4.2724609375
3.0524999000000004,0.6440402865409851,-0.29209262132644653,9.900622367858887,6.927490234375,0.48828125,1.739501953125
3.0574999000000003,0.5596446394920349,-0.33997663855552673,9.79288387298584,-8.7890625,-0.42724609375,1.678466796875
3.0624999,0.5997475385665894,-0.34356793761253357,9.64923095703125,2.9296875,0.762939453125,-4.180908203125
3.0674999,0.5380968451499939,-0.2861070930957794,9.685144424438477,-8.36181640625,-0.3662109375,-0.1220703125
3.0724999000000004,0.5716156363487244,-0.2669534981250763,9.656414031982422,6.591796875,0.762939453125,-3.875732421875
3.0774999000000003,0.6129156351089478,-0.23104046285152435,9.88745403289795,1.8310546875,-0.06103515625,3.631591796875
3.0824999,0.5333084464073181,-0.3489548861980438,9.658807754516602,-8.270263671875,-0.579833984375,-1.03759765625
3.0874999,0.619499683380127,-0.36152446269989014,9.700108528137207,7.843017578125,0.54931640625,-3.0517578125
3.0924999,0.6404489278793335,-0.2998737692832947,9.9000244140625,-0.1220703125,-0.396728515625,3.96728515625
3.0974999000000003,0.5752069354057312,-0.3585317134857178,9.687539100646973,-7.32421875,-0.3662109375,-1.89208984375
3.1024999,0.6548141837120056,-0.2932897210121155,9.775525093078613,7.9345703125,0.152587890625,-2.38037109375
3.1074999,0.6434416770935059,-0.25019407272338867,9.9586820602417,-2.044677734375,-0.79345703125,3.90625
3.1124999,0.6266822814941406,-0.3232172429561615,9.9586820602417,-4.08935546875,-0.6103515625,3.570556640625
3.1174999000000003,0.5740098357200623,-0.40701428055763245,9.660005569458008,-4.45556640625,-0.030517578125,-3.326416015625
3.1224999,0.6500257849693298,-0.3489548861980438,9.858125686645508,9.09423828125,0.3662109375,-0.518798828125
3.1274999,0.5536591410636902,-0.3363853394985199,9.893440246582031,-5.4931640625,-0.732421875,3.387451171875
3.1324999,0.5404910445213318,-0.34356793761253357,9.658209800720215,-2.288818359375,0.30517578125,-3.96728515625
3.1374999000000003,0.608127236366272,-0.2885012924671173,9.894637107849121,8.331298828125,0.42724609375,0.42724609375
3.1424999000000002,0.5434837937355042,-0.2998737692832947,9.856329917907715,-6.8359375,-0.823974609375,2.8076171875
3.1474999,0.5895721912384033,-0.37409400939941406,9.643844604492188,-0.152587890625,0.1220703125,-4.08935546875
3.1524999,0.6584054827690125,-0.28790274262428284,9.86770248413086,7.415771484375,0.3662109375,1.3427734375
3.1574999000000004,0.5752069354057312,-0.33698388934135437,9.802460670471191,-8.392333984375,-0.946044921875,2.166748046875
3.1624999000000003,0.6159083843231201,-0.3794809579849243,9.625887870788574,1.77001953125,0.213623046875,-4.364013671875
3.1674999,0.5554547905921936,-0.3776853084564209,9.773730278015137,-8.514404296875,-0.6103515625,1.129150390625
3.1724999,0.6063315868377686,-0.38905778527259827,9.651625633239746,3.814697265625,0.67138671875,-4.302978515625
3.1774999000000004,0.629675030708313,-0.26994624733924866,9.91738224029541,4.608154296875,-0.06103515625,2.86865234375
3.1824999000000003,0.5644330382347107,-0.32022446393966675,9.738415718078613,-8.72802734375,-1.03759765625,0.3662109375
3.1874999,0.6039373874664307,-0.2777273952960968,9.674370765686035,5.615234375,0.640869140625,-3.96728515625
3.1924999,0.6362590789794922,-0.1693897694349289,9.921571731567383,2.593994140625,0.213623046875,3.2958984375
3.1974999000000004,0.5345055460929871,-0.27712884545326233,9.701904296875,-8.209228515625,0.06103515625,-0.6103515625
3.2024999000000003,0.608127236366272,-0.2861070930957794,9.926959037780762,0.946044921875,-0.1220703125,3.84521484375
3.2074999,0.5297171473503113,-0.38726213574409485,9.68155288696289,-7.049560546875,-0.06103515625,-1.556396484375
3.2124999,0.6189011335372925,-0.36571431159973145,9.732429504394531,7.9345703125,0.79345703125,-2.777099609375
3.2174999,0.6177040338516235,-0.29209262132644653,9.91977596282959,-1.312255859375,-0.732421875,3.96728515625
3.2224999000000003,0.6302735805511475,-0.3016694188117981,9.823410034179688,8.6669921875,0.274658203125,-1.8310546875
3.2274999,0.6051344871520996,-0.27413609623908997,9.963470458984375,-3.35693359375,-0.3662109375,3.90625
3.2324999,0.5692214369773865,-0.3818751573562622,9.686341285705566,-4.913330078125,0.152587890625,-3.173828125
3.2374999,0.667982280254364,-0.35733461380004883,9.859322547912598,9.124755859375,0.244140625,-1.15966796875
3.2424999000000003,0.5973533391952515,-0.33039984107017517,9.915586471557617,-4.8828125,-0.762939453125,3.41796875
3.2474999,0.5781996846199036,-0.3860650360584259,9.657610893249512,-3.082275390625,-0.457763671875,-3.753662109375
3.2524999,0.6416460275650024,-0.31783026456832886,9.881468772888184,8.636474609375,0.640869140625,-0.152587890625
3.2574999,0.5620388388633728,-0.3513490855693817,9.877279281616211,-6.622314453125,-0.54931640625,3.021240234375
3.2624999000000003,0.5835866928100586,-0.38905778527259827,9.653421401977539,-1.220703125,0.030517578125,-4.33349609375
3.2674999000000002,0.6506243348121643,-0.3387795388698578,9.885659217834473,8.11767578125,0.213623046875,0.823974609375
3.2724999,0.5889736413955688,-0.345363587141037,9.834781646728516,-7.843017578125,-0.91552734375,2.38037109375
3.2774999,0.6272808313369751,-0.3968389332294464,9.636063575744629,0.6103515625,0,-4.364013671875
3.2824999000000004,0.6242880821228027,-0.24480712413787842,9.929352760314941,5.645751953125,0.152587890625,2.5634765625
3.2874999000000003,0.5548562407493591,-0.33279404044151306,9.746196746826172,-8.72802734375,-0.42724609375,0.91552734375
3.2924999,0.6093243360519409,-0.32860419154167175,9.647436141967773,4.638671875,0.762939453125,-3.90625
3.2974999,0.6206967830657959,-0.21667525172233582,9.880271911621094,3.875732421875,0.1220703125,3.35693359375
3.3024999000000004,0.5297171473503113,-0.272938996553421,9.697713851928711,-8.758544921875,-0.457763671875,0
3.3074999000000003,0.5620388388633728,-0.2585737705230713,9.68813705444336,6.34765625,0.396728515625,-3.936767578125
3.3124999,0.5961562395095825,-0.21188685297966003,9.926959037780762,1.678466796875,0.06103515625,3.448486328125
3.3174999,0.5159504413604736,-0.33518823981285095,9.68574333190918,-8.331298828125,-0.48828125,-1.0986328125
3.3224999000000004,0.6051344871520996,-0.35673606395721436,9.728838920593262,7.354736328125,0,-3.11279296875
3.3274999000000003,0.6338648796081543,-0.3280056416988373,9.91738224029541,-0.42724609375,-0.79345703125,3.84521484375
3.3324999,2.44747257232666,-1.2880805730819702,10.433332443237305,43.51806640625,49.102783203125,-10.07080078125
3.3374999,4.122815132141113,-2.160168409347534,11.130044937133789,56.21337890625,65.24658203125,-18.829345703125
3.3424999,6.15489387512207,-3.58292293548584,11.911751747131348,93.1396484375,96.527099609375,-46.0205078125
3.3474999000000003,7.398083209991455,-4.32991361618042,13.120224952697754,166.717529296875,155.3955078125,-76.141357421875
3.3524999,7.180809497833252,-4.555567264556885,14.149133682250977,209.197998046875,197.113037109375,-100.494384765625
3.3574999,5.573102951049805,-4.098873138427734,14.785990715026855,234.832763671875,191.71142578125,-125.79345703125
3.3624999,2.9741971492767334,-2.7311856746673584,15.072696685791016,232.666015625,154.937744140625,-124.755859375
3.3674999000000003,-0.16759411990642548,-1.268328309059143,14.14673900604248,204.04052734375,122.772216796875,-113.4033203125
3.3724999,-0.16759411990642548,-1.268328309059143,14.14673900604248,204.04052734375,122.772216796875,-113.4033203125
3.3774999,-2.9299042224884033,0.10893617570400238,12.304999351501465,204.925537109375,97.381591796875,-106.689453125
3.3824999,-4.909310817718506,1.370081901550293,9.936535835266113,197.601318359375,55.572509765625,-88.37890625
3.3874999000000003,-5.913678169250488,2.1134815216064453,7.17242956161499,165.0390625,3.082275390625,-70.526123046875
3.3924999000000002,-3.934870481491089,2.390610456466675,2.7970261573791504,90.087890625,-107.086181640625,-8.11767578125
3.3974999,-3.934870481491089,2.390610456466675,2.7970261573791504,90.087890625,-107.086181640625,-8.11767578125
3.4024999,-2.676717519760132,1.9841946363449097,2.828150749206543,86.334228515625,-115.3564453125,8.72802734375
3.4074999000000004,-1.6962919235229492,1.6238672733306885,3.485957622528076,71.990966796875,-107.086181640625,44.61669921875
3.4124999000000003,-1.0229226350784302,1.0181342363357544,4.090493679046631,66.741943359375,-92.1630859375,71.10595703125
3.4174999,-0.7230489253997803,0.9750386476516724,4.638167381286621,85.479736328125,-80.01708984375,81.512451171875
3.4224999,-0.7068880796432495,0.9929951429367065,4.993706226348877,75.469970703125,-78.094482421875,99.822998046875
3.4274999000000004,-1.0797849893569946,1.4544775485992432,4.962581634521484,63.262939453125,-83.8623046875,100.372314453125
3.4324999000000003,-1.4945803880691528,2.275688648223877,5.620388507843018,54.901123046875,-84.259033203125,88.592529296875
3.4374999,-1.9081788063049316,3.1675288677215576,7.119757175445557,-15.594482421875,-61.34033203125,77.7587890625
3.4424999,-2.256535053253174,4.390965938568115,8.790909767150879,-108.70361328125,-28.289794921875,54.38232421875
3.4474999000000004,-2.035670042037964,5.931035995483398,10.272920608520508,-149.169921875,-36.68212890625,47.18017578125
3.4524999000000003,-1.1635819673538208,7.24605131149292,10.06043529510498,-157.073974609375,-73.028564453125,43.060302734375
3.4574999,-0.25019407272338867,7.511209487915039,9.055469512939453,-144.8974609375,-65.0634765625,31.6162109375
3.4624999,0.365115761756897,6.903081893920898,8.414422035217285,-170.166015625,-71.624755859375,32.470703125
3.4674999,0.8373720645904541,6.012439250946045,7.614160060882568,-192.291259765625,-74.615478515625,24.658203125
3.4724999000000003,1.6190788745880127,5.233725070953369,7.553107738494873,-197.235107421875,-68.450927734375,30.2734375
3.4774999,1.8668787479400635,3.8594532012939453,7.375338554382324,-216.156005859375,-48.76708984375,41.9921875
3.4824999,2.2212207317352295,2.716820478439331,6.95814847946167,-211.883544921875,-25.604248046875,40.34423828125
3.4874999,2.646191358566284,1.679532527923584,7.023390769958496,-215.6982421875,-6.28662109375,50.872802734375
3.4924999000000003,2.8125884532928467,0.7487865686416626,6.92881965637207,-238.76953125,8.941650390625,58.746337890625
3.4974999,2.9239187240600586,0.03711012750864029,7.0802531242370605,-236.38916015625,18.9208984375,50.445556640625
3.5024999,3.5452141761779785,-0.7996633648872375,8.739435195922852,-225.799560546875,35.888671875,49.37744140625
3.5074999,4.190451622009277,-2.759916067123413,10.855310440063477,-119.62890625,128.96728515625,35.400390625
3.5124999000000003,3.044227361679077,-9.818621635437012,12.690465927124023,19.744873046875,25.20751953125,-42.1142578125
3.5174999000000002,1.104325532913208,-9.835380554199219,9.843161582946777,51.239013671875,44.00634765625,-68.7255859375
3.5224999,-0.5602431893348694,-8.10437297821045,7.273584842681885,39.794921875,36.4990234375,-66.83349609375
3.5274999,-1.4987702369689941,-5.8442463874816895,6.059125900268555,2.99072265625,8.36181640625,-53.16162109375
3.5324999000000004,-1.6867151260375977,-3.048417329788208,6.7247138023376465,7.26318359375,11.474609375,-33.0810546875
3.5374999000000003,-1.227626919746399,-0.27234044671058655,8.782530784606934,15.80810546875,25.146484375,-7.50732421875
3.5424999,-0.8271966576576233,1.6184803247451782,10.5344877243042,9.368896484375,13.12255859375,2.655029296875
3.5474999,-0.36571431159973145,2.9101521968841553,11.4849853515625,18.829345703125,4.425048828125,5.615234375
3.5524999000000004,-0.2783259451389313,3.1902737617492676,11.425728797912598,-1.129150390625,-5.67626953125,9.735107421875
3.5574999000000003,-0.4734533727169037,2.6898856163024902,10.377667427062988,-14.83154296875,-15.7470703125,1.5869140625
3.5624999,-0.5159504413604736,1.844732403755188,9.658807754516602,-7.87353515625,-20.721435546875,2.44140625
3.5674999,0.18734627962112427,-0.5752069354057312,9.955090522766113,6.011962890625,-21.392822265625,7.8125
3.5724999000000004,0.48722004890441895,-1.1091139316558838,10.13286018371582,-4.547119140625,-22.308349609375,7.4462890625
3.5774999000000003,0.7595604658126831,-1.3365631103515625,9.856329917907715,-0.640869140625,-21.331787109375,-5.92041015625
3.5824999,1.0097545385360718,-1.3994108438491821,9.92097282409668,8.880615234375,-18.768310546875,-6.9580078125
3.5874999,1.0971429347991943,-1.0570400953292847,9.788095474243164,-5.950927734375,-16.510009765625,-6.011962890625
3.5924999,1.2324153184890747,-0.9612720012664795,9.57979965209961,0.42724609375,-11.138916015625,-11.77978515625
3.5974999000000003,1.381454348564148,-0.3627215623855591,9.810839653015137,9.27734375,-4.974365234375,-4.0283203125
3.6024999,1.348534107208252,-0.1735796183347702,9.688735961914062,-8.026123046875,-1.89208984375,-0.579833984375
3.6074999,1.3533225059509277,-0.009576806798577309,9.509769439697266,1.373291015625,2.5634765625,-3.60107421875
3.6124999,1.2952631711959839,0.17477671802043915,9.733028411865234,4.058837890625,4.94384765625,5.2490234375
3.6174999000000003,1.105522632598877,0.0005985504249110818,9.616909980773926,-9.368896484375,5.79833984375,4.425048828125
3.6224999,0.99479079246521,-0.13407529890537262,9.59715747833252,4.302978515625,8.60595703125,-1.312255859375
3.6274999,0.8834604024887085,-0.1825578808784485,9.873687744140625,3.265380859375,8.453369140625,4.0283203125
3.6324999,0.6889315247535706,-0.39205053448677063,9.718064308166504,-8.148193359375,8.1787109375,-0.732421875
3.6374999000000003,0.6254851818084717,-0.4141969084739685,9.702502250671387,7.171630859375,9.429931640625,-4.608154296875
3.6424999000000002,0.5985504388809204,-0.32620999217033386,9.916783332824707,1.77001953125,8.026123046875,2.44140625
3.6474999,0.4668693244457245,-0.38486793637275696,9.689932823181152,-7.080078125,6.8359375,-2.0751953125
3.6524999,0.4884171485900879,-0.28131869435310364,9.746794700622559,8.11767578125,6.8359375,-2.960205078125
3.6574999000000004,0.43933600187301636,-0.18555063009262085,9.925163269042969,-1.64794921875,3.631591796875,4.180908203125
3.6624999000000003,0.32022446393966675,-0.23403321206569672,9.733627319335938,-6.89697265625,1.89208984375,-2.01416015625
3.6674999,0.3519476354122162,-0.20949265360832214,9.85034465789795,7.9345703125,1.03759765625,-1.617431640625
3.6724999,0.31184476613998413,-0.24001872539520264,10.004171371459961,-3.7841796875,-2.716064453125,3.96728515625
3.6774999000000004,0.2693476974964142,-0.3968389332294464,9.733028411865234,-4.425048828125,-4.21142578125,-3.143310546875
3.6824999000000003,0.38307225704193115,-0.4016273319721222,9.924564361572266,8.85009765625,-5.126953125,-0.885009765625
3.6874999,0.363918662071228,-0.4297592043876648,9.9586820602417,-5.828857421875,-7.598876953125,3.021240234375
3.6924999,0.42616790533065796,-0.4572925269603729,9.710882186889648,-2.44140625,-7.01904296875,-4.5166015625
3.6974999000000004,0.5973533391952515,-0.36571431159973145,9.911994934082031,8.544921875,-6.195068359375,-0.335693359375
3.7024999000000003,0.6506243348121643,-0.3627215623855591,9.847352027893066,-7.354736328125,-6.500244140625,2.410888671875
3.7074999,0.7972691655158997,-0.395043283700943,9.62828254699707,-0.244140625,-3.753662109375,-4.241943359375
3.7124999,0.9427168965339661,-0.284311443567276,9.845556259155273,7.171630859375,-1.068115234375,1.434326171875
3.7174999,0.9175778031349182,-0.2944868206977844,9.746794700622559,-8.392333984375,-0.06103515625,2.25830078125
3.7224999000000003,0.950498104095459,-0.30466216802597046,9.588777542114258,2.716064453125,3.41796875,-3.84521484375
3.7274999,0.9475052952766418,-0.18794482946395874,9.851541519165039,5.92041015625,4.2724609375,2.655029296875
3.7324999,0.8236053586006165,-0.2825157940387726,9.712079048156738,-8.697509765625,4.2724609375,1.220703125
3.7374999,0.7769184708595276,-0.29628247022628784,9.631275177001953,4.852294921875,5.828857421875,-4.2724609375
3.7424999000000003,0.7146692276000977,-0.19273324310779572,9.862914085388184,3.2958984375,5.279541015625,2.838134765625
3.7474999,0.47584760189056396,-0.27892449498176575,9.684545516967773,6.378173828125,3.997802734375,-4.058837890625
3.7524999,0.45190557837486267,-0.24181437492370605,9.925761222839355,1.434326171875,1.77001953125,3.509521484375
3.7574999,0.32620999217033386,-0.3711012601852417,9.707290649414062,-8.11767578125,-0.274658203125,-1.220703125
3.7624999000000003,0.3974374830722809,-0.3705027103424072,9.765350341796875,8.026123046875,-0.3662109375,-3.23486328125
3.7674999000000002,0.42856210470199585,-0.31543606519699097,9.943120002746582,-0.6103515625,-2.655029296875,3.90625
3.7724999,0.3974374830722809,-0.3561375141143799,9.731232643127441,-6.927490234375,-3.631591796875,-1.77001953125
3.7774999,0.5297171473503113,-0.3106476664543152,9.832387924194336,8.6669921875,-3.23486328125,-2.01416015625
3.7824999000000004,0.5776011347770691,-0.2555810213088989,9.982624053955078,-3.23486328125,-4.7607421875,3.7841796875
3.7874999000000003,0.5829881429672241,-0.3447650372982025,9.701904296875,-5.37109375,-3.814697265625,-2.99072265625
3.7924999,0.7296329736709595,-0.3076549172401428,9.851541519165039,9.33837890625,-2.01416015625,-1.28173828125
3.7974999,0.71766197681427,-0.30526071786880493,9.899425506591797,-4.8828125,-2.44140625,3.387451171875
3.8024999000000004,0.7260416746139526,-0.3363853394985199,9.611522674560547,-3.2958984375,-1.129150390625,-3.936767578125
3.8074999000000003,0.7481880187988281,-0.2861070930957794,9.823410034179688,-6.683349609375,0.1220703125,3.021240234375
3.8124999,0.7451952695846558,-0.3292027413845062,9.625288963317871,-1.03759765625,1.922607421875,-4.119873046875
3.8174999,0.7829039692878723,-0.27892449498176575,9.858125686645508,7.9345703125,2.838134765625,1.007080078125
3.8224999000000004,0.6733692288398743,-0.32022446393966675,9.810839653015137,-7.965087890625,1.64794921875,2.410888671875
3.8274999000000003,0.6572083830833435,-0.3776853084564209,9.630077362060547,0.762939453125,2.44140625,-4.119873046875
3.8324999,0.646434485912323,-0.2819172441959381,9.904812812805176,6.500244140625,2.349853515625,2.0751953125
3.8374999,0.5267243981361389,-0.3429693877696991,9.805453300476074,-8.636474609375,1.03759765625,1.64794921875
3.8424999,0.524330198764801,-0.35913026332855225,9.697115898132324,3.11279296875,1.52587890625,-4.150390625
3.8474999000000003,0.545877993106842,-0.2472013235092163,9.943120002746582,5.035400390625,0.152587890625,2.50244140625
3.8524999,0.46806642413139343,-0.34596213698387146,9.762955665588379,-9.09423828125,-1.40380859375,0.48828125
3.8574999,0.5291185975074768,-0.3214215636253357,9.680954933166504,5.31005859375,-0.54931640625,-3.997802734375
3.8624999,0.5781996846199036,-0.21787235140800476,9.897629737854004,3.173828125,-1.495361328125,3.082275390625
3.8674999000000003,0.5811924338340759,-0.27054479718208313,9.695320129394531,7.171630859375,-0.54931640625,-3.5400390625
3.8724999,0.6434416770935059,-0.21188685297966003,9.913790702819824,1.251220703125,-1.77001953125,3.570556640625
3.8774999,0.5829881429672241,-0.33039984107017517,9.66539192199707,-7.87353515625,-1.922607421875,-1.52587890625
3.8824999,0.6841431260108948,-0.3280056416988373,9.714473724365234,8.30078125,0.06103515625,-2.960205078125
3.8874999000000003,0.7015010714530945,-0.2753331959247589,9.896432876586914,-1.129150390625,-0.885009765625,3.692626953125
3.8924999000000002,0.6416460275650024,-0.3447650372982025,9.674370765686035,-6.34765625,-0.54931640625,-2.44140625
3.8974999,0.7146692276000977,-0.2950853705406189,9.784503936767578,8.575439453125,0.91552734375,-1.89208984375
3.9024999,0.6931213736534119,-0.272938996553421,9.925163269042969,-3.326416015625,-0.213623046875,3.84521484375
3.9074999000000004,0.6338648796081543,-0.36571431159973145,9.637260437011719,-5.035400390625,0.732421875,-2.99072265625
3.9124999000000003,0.7230489253997803,-0.3489548861980438,9.816825866699219,8.514404296875,1.495361328125,-0.8544921875
3.9174999,0.641047477722168,-0.3519476354122162,9.8784761428833,-5.462646484375,0.30517578125,3.60107421875
3.9224999,0.6278793811798096,-0.28311434388160706,9.908403396606445,7.99560546875,0.579833984375,0.823974609375
3.9274999000000004,0.5500678420066833,-0.2861070930957794,9.851541519165039,-7.781982421875,-0.91552734375,2.410888671875
3.9324999000000003,0.5835866928100586,-0.3405751883983612,9.6618013381958,1.40380859375,0,-4.21142578125
3.9374999,0.6308721303939819,-0.2256535142660141,9.91738224029541,6.53076171875,-0.3662109375,1.861572265625
3.9424999,0.5536591410636902,-0.3292027413845062,9.813234329223633,-8.544921875,-1.3427734375,1.678466796875
3.9474999000000004,0.5997475385665894,-0.36332011222839355,9.68274974822998,3.265380859375,-0.579833984375,-4.364013671875
3.9524999000000003,0.6386532783508301,-0.2801215946674347,9.930550575256348,4.8828125,-1.220703125,2.410888671875
3.9574999,0.5877765417098999,-0.3663128614425659,9.762357711791992,-8.97216796875,-1.953125,0.701904296875
3.9624999,0.6482301354408264,-0.33099839091300964,9.659406661987305,5.279541015625,-0.030517578125,-3.814697265625
3.9674999000000004,0.702099621295929,-0.2190694510936737,9.9000244140625,3.204345703125,0,3.2958984375
3.9724999000000003,0.667982280254364,-0.2795230448246002,9.683947563171387,6.683349609375,1.129150390625,-3.41796875
3.9774999,0.7050924301147461,-0.2232593148946762,9.914389610290527,0.9765625,0.30517578125,3.60107421875
3.9824999,0.6206967830657959,-0.3447650372982025,9.682151794433594,-8.11767578125,0,-1.28173828125
3.9874999,0.6901286244392395,-0.35015198588371277,9.748590469360352,8.30078125,1.3427734375,-2.86865234375
3.9924999000000003,0.6811503767967224,-0.2950853705406189,9.920374870300293,-0.8544921875,0.1220703125,3.936767578125
3.9974999,0.5913678407669067,-0.3531447649002075,9.68933391571045,-6.805419921875,-0.30517578125,-2.105712890625
4.0024999,0.6542156338691711,-0.3124433159828186,9.854534149169922,9.002685546875,0.335693359375,-1.251220703125
4.0074999,0.596754789352417,-0.2908954918384552,9.941324234008789,-4.974365234375,-1.312255859375,3.5400390625
4.0124999,0.5692214369773865,-0.31184476613998413,9.661202430725098,-3.143310546875,-0.579833984375,-3.753662109375
4.0174999,0.669179379940033,-0.31842881441116333,9.899425506591797,8.1787109375,0.18310546875,0.79345703125
4.022499900000001,0.6057330369949341,-0.3842693865299225,9.855133056640625,-7.354736328125,-1.007080078125,2.5634765625
4.0274999000000005,0.6548141837120056,-0.4159925580024719,9.65222454071045,1.007080078125,0.1220703125,-4.5166015625
4.0324999,0.7098808288574219,-0.2902969419956207,9.892242431640625,6.8359375,0.640869140625,1.46484375
4.0374999,0.6308721303939819,-0.2992752194404602,9.828198432922363,-8.11767578125,0,1.64794921875
4.0424999,0.6619967818260193,-0.32202014327049255,9.66299819946289,2.532958984375,0.54931640625,-4.364013671875
4.0474999,0.6739677786827087,-0.2322375625371933,9.943120002746582,5.523681640625,0.1220703125,2.288818359375
4.0524999,0.6009446382522583,-0.34356793761253357,9.759963035583496,-8.758544921875,-0.244140625,0.762939453125
4.0574999,0.6009446382522583,-0.34356793761253357,9.759963035583496,-8.758544921875,-0.244140625,0.762939453125
4.062499900000001,0.6320692300796509,-0.3561375141143799,9.66539192199707,4.638671875,0.823974609375,-4.058837890625
4.0674999000000005,0.5590460896492004,-0.2825157940387726,9.696516990661621,-8.72802734375,-0.518798828125,-0.1220703125
4.0724999,0.5877765417098999,-0.24241292476654053,9.679757118225098,6.34765625,0.67138671875,-3.662109375
4.0774999,0.6236895322799683,-0.18794482946395874,9.913790702819824,2.0751953125,-0.213623046875,3.631591796875
4.0824999,0.6536170840263367,-0.30945056676864624,9.93593692779541,-0.518798828125,-0.946044921875,3.753662109375
4.0874999,0.6536170840263367,-0.30945056676864624,9.93593692779541,-0.518798828125,-0.946044921875,3.753662109375
4.0924999,0.5889736413955688,-0.3758896589279175,9.703699111938477,-7.080078125,-0.91552734375,-1.64794921875
4.0974999,0.67815762758255,-0.3315969407558441,9.781511306762695,8.72802734375,0.48828125,-2.5634765625
4.1024999,0.6733692288398743,-0.2759317457675934,9.934141159057617,-2.3193359375,-0.67138671875,3.60107421875
4.1074999000000005,0.6111199855804443,-0.30466216802597046,9.677363395690918,-5.615234375,0.06103515625,-2.8076171875
4.1124999,0.6973112225532532,-0.27473464608192444,9.797672271728516,8.85009765625,0.3662109375,-1.556396484375
4.1174999,0.6584054827690125,-0.29209262132644653,9.920374870300293,-3.936767578125,-0.6103515625,3.631591796875
4.1224999,0.7032967209815979,-0.33339259028434753,9.852738380432129,8.758544921875,1.28173828125,-0.67138671875
4.1274999,0.6117185354232788,-0.3315969407558441,9.898826599121094,-5.79833984375,-0.244140625,3.265380859375
4.1324999,0.6003460884094238,-0.3405751883983612,9.663596153259277,-2.0751953125,0.152587890625,-3.936767578125
4.1374999,0.6613982319831848,-0.29388827085494995,9.905410766601562,8.4228515625,0.823974609375,0.244140625
4.1424999,0.5997475385665894,-0.3190273642539978,9.864110946655273,-7.32421875,-1.007080078125,2.899169921875
4.147499900000001,0.629675030708313,-0.3734954595565796,9.66299819946289,-0.3662109375,0.518798828125,-4.119873046875
4.1524999000000005,0.6919242739677429,-0.2890998423099518,9.889249801635742,7.8125,0.213623046875,1.129150390625
4.1574999,0.6111199855804443,-0.314238965511322,9.838373184204102,-7.965087890625,-1.0986328125,2.0751953125
4.1624999,0.5817909836769104,-0.29209262132644653,9.794678688049316,-8.9111328125,-0.91552734375,1.28173828125
4.1674999,0.6171054840087891,-0.3429693877696991,9.675567626953125,3.60107421875,0.579833984375,-4.119873046875
4.1724999,0.5704185366630554,-0.3585317134857178,9.728838920593262,-9.002685546875,-1.129150390625,0.67138671875
4.1774999,0.6177040338516235,-0.33279404044151306,9.66299819946289,5.218505859375,0.3662109375,-3.997802734375
4.1824999,0.6482301354408264,-0.24480712413787842,9.888052940368652,3.0517578125,0,2.99072265625
4.187499900000001,0.5644330382347107,-0.2867056429386139,9.700706481933594,-8.880615234375,-1.007080078125,-0.396728515625
4.1924999000000005,0.6177040338516235,-0.284311443567276,9.68574333190918,7.14111328125,0.640869140625,-3.448486328125
4.1974999,0.6667851805686951,-0.24660277366638184,9.90241813659668,1.03759765625,-0.1220703125,3.570556640625
4.2024999,0.5991489887237549,-0.3345896899700165,9.648633003234863,-7.9345703125,-0.396728515625,-1.312255859375
4.2074999,0.6835445761680603,-0.3405751883983612,9.70429801940918,8.331298828125,0.732421875,-2.9296875
4.2124999,0.6877344250679016,-0.2795230448246002,9.893440246582031,-0.762939453125,-0.091552734375,3.84521484375
4.2174999,0.6063315868377686,-0.2974795699119568,9.656414031982422,-6.89697265625,-0.091552734375,-2.166748046875
4.2224999,0.6602011322975159,-0.2735375463962555,9.79647445678711,8.697509765625,0.6103515625,-2.3193359375
4.2274999,0.6338648796081543,-0.23942017555236816,9.939528465270996,-2.593994140625,-0.091552734375,3.662109375
4.2324999000000005,0.579995334148407,-0.4225766062736511,9.666589736938477,-3.5400390625,-0.274658203125,-3.692626953125
4.2374999,0.6745663285255432,-0.333991140127182,9.875483512878418,8.7890625,0.6103515625,-0.457763671875
4.2424999,0.5949591398239136,-0.31184476613998413,9.890447616577148,-6.103515625,-0.823974609375,3.387451171875
4.2474999,0.5973533391952515,-0.3214215636253357,9.658807754516602,-1.434326171875,0.244140625,-3.814697265625
4.2524999,0.657806932926178,-0.2819172441959381,9.901819229125977,8.026123046875,0.518798828125,0.6103515625
4.2574999,0.5895721912384033,-0.3172317147254944,9.86231517791748,-7.568359375,-1.0986328125,2.655029296875
4.2624999,0.618302583694458,-0.3824737071990967,9.672574996948242,0.518798828125,0.152587890625,-4.547119140625
4.2674999,0.6769605278968811,-0.2902969419956207,9.898228645324707,7.2021484375,0.3662109375,1.220703125
4.272499900000001,0.6075286865234375,-0.3387795388698578,9.847352027893066,-8.48388671875,-1.15966796875,2.0751953125
4.2774999000000005,0.6416460275650024,-0.34835633635520935,9.6618013381958,2.62451171875,0.79345703125,-4.180908203125
4.2824999,0.6763619780540466,-0.25438392162323,9.929352760314941,6.04248046875,0.518798828125,2.227783203125
4.2874999,0.5901707410812378,-0.3621230125427246,9.77133560180664,-8.941650390625,-0.518798828125,1.190185546875
4.2924999,0.6338648796081543,-0.3734954595565796,9.649829864501953,4.2724609375,0.67138671875,-4.150390625
4.2974999,0.6506243348121643,-0.30466216802597046,9.880271911621094,4.82177734375,0.244140625,2.9296875
4.3024999,0.5770025849342346,-0.3447650372982025,9.697115898132324,-8.85009765625,-0.335693359375,0.518798828125
4.3074999,0.6123170852661133,-0.3124433159828186,9.645041465759277,5.67626953125,0.6103515625,-4.0283203125
4.312499900000001,0.6542156338691711,-0.18555063009262085,9.899425506591797,2.532958984375,-0.06103515625,3.173828125
4.3174999000000005,0.5524620413780212,-0.27653029561042786,9.68274974822998,-8.7890625,-1.068115234375,-0.457763671875
4.3224999,0.5656301379203796,-0.3663128614425659,9.685144424438477,-7.781982421875,-0.732421875,-1.46484375
4.3274999,0.6625953316688538,-0.3315969407558441,9.749788284301758,8.11767578125,0.732421875,-2.9296875
4.3324999,0.6697779297828674,-0.2669534981250763,9.95090103149414,-1.251220703125,-0.701904296875,3.936767578125
4.3374999,0.6847416758537292,-0.2579752206802368,9.834183692932129,8.4228515625,0.8544921875,-1.922607421875
4.3424999,0.657806932926178,-0.24001872539520264,9.9586820602417,-3.0517578125,-0.640869140625,3.692626953125
4.3474999,0.5979518890380859,-0.3519476354122162,9.680954933166504,-4.82177734375,-0.244140625,-2.960205078125
4.352499900000001,0.6811503767967224,-0.36092591285705566,9.852140426635742,8.941650390625,0.946044921875,-1.03759765625
4.3574999000000005,0.6099228858947754,-0.3585317134857178,9.911994934082031,-5.0048828125,-0.457763671875,3.570556640625
4.3624999,0.585382342338562,-0.383670836687088,9.638457298278809,-2.960205078125,-0.152587890625,-3.753662109375
4.3674999,0.6607996821403503,-0.3166331648826599,9.862914085388184,8.819580078125,0.762939453125,-0.335693359375
4.3724999,0.5895721912384033,-0.2974795699119568,9.869498252868652,-6.53076171875,-0.518798828125,3.23486328125
4.3774999,0.5943605899810791,-0.3471592366695404,9.664793968200684,-1.3427734375,0.30517578125,-3.875732421875
4.3824999,0.669179379940033,-0.3166331648826599,9.901819229125977,8.4228515625,1.03759765625,0.640869140625
4.3874999,0.5961562395095825,-0.3579331636428833,9.857526779174805,-7.32421875,-0.42724609375,2.62451171875
4.3924999,0.6356605291366577,-0.41958385705947876,9.654618263244629,0.579833984375,0.1220703125,-4.364013671875
4.397499900000001,0.5895721912384033,-0.3429693877696991,9.82759952545166,-8.544921875,-0.885009765625,1.983642578125
4.4024999000000005,0.5841852426528931,-0.2998737692832947,9.759963035583496,-8.819580078125,-0.67138671875,0.885009765625
4.4074999,0.6224924325942993,-0.33039984107017517,9.66299819946289,4.119873046875,0.244140625,-4.302978515625
4.4124999,0.6607996821403503,-0.23104046285152435,9.882665634155273,4.33349609375,-0.152587890625,2.99072265625
4.4174999,0.5740098357200623,-0.3034650683403015,9.708487510681152,-8.85009765625,-0.701904296875,0.18310546875
4.4224999,0.6153098344802856,-0.28072014451026917,9.660005569458008,5.79833984375,0.79345703125,-3.96728515625
4.4274999,0.6548141837120056,-0.2041056901216507,9.898826599121094,2.532958984375,-0.1220703125,3.2958984375
4.4324999,0.5638344883918762,-0.30885201692581177,9.6803560256958,-7.9345703125,-0.335693359375,-0.762939453125
4.437499900000001,0.6248866319656372,-0.32860419154167175,9.695320129394531,7.415771484375,1.007080078125,-3.265380859375
4.4424999000000005,0.6631938815116882,-0.33698388934135437,9.747393608093262,8.514404296875,0.67138671875,-2.838134765625
4.4474999,0.6572083830833435,-0.27054479718208313,9.90122127532959,-1.52587890625,-0.48828125,3.936767578125
4.4524999,0.5883750915527344,-0.3148375153541565,9.672574996948242,-6.195068359375,-0.18310546875,-2.471923828125
4.4574999,0.6667851805686951,-0.3148375153541565,9.801861763000488,9.09423828125,0.6103515625,-1.983642578125
4.4624999,0.6458359360694885,-0.28969839215278625,9.931148529052734,-3.662109375,-0.518798828125,3.814697265625
4.4674999,0.6039373874664307,-0.39624038338661194,9.6618013381958,-4.82177734375,0.152587890625,-3.0517578125
4.4724999,0.7015010714530945,-0.33997663855552673,9.829395294189453,9.21630859375,0.457763671875,-0.9765625
4.477499900000001,0.6254851818084717,-0.3214215636253357,9.88745403289795,-5.43212890625,-1.068115234375,3.41796875
4.4824999000000005,0.6075286865234375,-0.30286651849746704,9.624691009521484,-2.777099609375,0.06103515625,-3.72314453125
4.4874999,0.6661866307258606,-0.24839842319488525,9.8599214553833,8.514404296875,0.518798828125,-0.152587890625
4.4924999,0.5931634902954102,-0.25498247146606445,9.858723640441895,-6.683349609375,-1.068115234375,3.0517578125
4.4974999,0.6649895310401917,-0.2885012924671173,9.888651847839355,7.781982421875,0.579833984375,1.007080078125
4.5024999,0.596754789352417,-0.3381809890270233,9.837775230407715,-7.8125,-0.79345703125,2.410888671875
4.5074999,0.6362590789794922,-0.3866635859012604,9.632472038269043,0.9765625,0.213623046875,-4.425048828125
4.5124999,0.6883329749107361,-0.2783259451389313,9.895833969116211,6.927490234375,0.213623046875,1.800537109375
4.5174999,0.6039373874664307,-0.3315969407558441,9.803058624267578,-8.6669921875,-1.068115234375,1.678466796875
4.522499900000001,0.6428431272506714,-0.3519476354122162,9.667786598205566,2.9296875,0.885009765625,-4.486083984375
4.5274999000000005,0.6613982319831848,-0.25438392162323,9.932944297790527,5.157470703125,0.030517578125,2.410888671875
4.5324999,0.5889736413955688,-0.35254621505737305,9.774328231811523,-8.60595703125,-0.946044921875,0.823974609375
4.5374999,0.629675030708313,-0.3381809890270233,9.670180320739746,5.096435546875,0.67138671875,-4.0283203125
4.5424999,0.6554127335548401,-0.22505496442317963,9.908403396606445,3.47900390625,0.213623046875,3.11279296875
4.5474999,0.5596446394920349,-0.27473464608192444,9.703699111938477,-8.514404296875,-0.213623046875,-0.030517578125
4.5524999,0.5943605899810791,-0.2495955228805542,9.674370765686035,6.65283203125,0.54931640625,-3.692626953125
4.5574999,0.547075092792511,-0.32202014327049255,9.670180320739746,-8.056640625,-0.518798828125,-1.129150390625
4.562499900000001,0.6380547285079956,-0.3256114423274994,9.724050521850586,7.904052734375,0.762939453125,-3.143310546875
4.5674999000000005,0.6512228846549988,-0.28371289372444153,9.914389610290527,-0.3662109375,-0.457763671875,3.875732421875
4.5724999,0.5847837924957275,-0.33518823981285095,9.683348655700684,-6.927490234375,-1.007080078125,-1.922607421875
4.5774999,0.6697779297828674,-0.28969839215278625,9.782109260559082,8.36181640625,0.701904296875,-2.349853515625
4.5824999,0.6518214344978333,-0.2651578485965729,9.953893661499023,-2.74658203125,-0.701904296875,3.84521484375
4.5874999,0.5985504388809204,-0.3292027413845062,9.697713851928711,-5.4931640625,-0.152587890625,-2.777099609375
4.5924999,0.6787561774253845,-0.3405751883983612,9.846753120422363,9.063720703125,0.732421875,-1.52587890625
4.5974999,0.6338648796081543,-0.3321954905986786,9.955689430236816,-4.180908203125,-0.762939453125,3.72314453125
4.602499900000001,0.5961562395095825,-0.38965633511543274,9.656414031982422,-3.72314453125,0,-3.448486328125
4.6074999000000005,0.6853402256965637,-0.333991140127182,9.86231517791748,8.48388671875,0.640869140625,-0.3662109375
4.6124999,0.6033388376235962,-0.31184476613998413,9.896432876586914,-6.103515625,-0.67138671875,3.204345703125
4.6174999,0.6667851805686951,-0.30705636739730835,9.904213905334473,8.9111328125,0.48828125,0.457763671875
4.6224999,0.595557689666748,-0.3489548861980438,9.864110946655273,-7.049560546875,-0.885009765625,2.716064453125
4.6274999,0.6266822814941406,-0.3944447338581085,9.660005569458008,0.030517578125,0.244140625,-4.302978515625
4.6324999,0.6865373253822327,-0.28790274262428284,9.88625717163086,7.50732421875,0.54931640625,1.28173828125
4.6374999,0.6003460884094238,-0.3034650683403015,9.827000617980957,-8.392333984375,-0.701904296875,2.13623046875
4.6424999,0.6356605291366577,-0.3214215636253357,9.655815124511719,2.38037109375,0.457763671875,-4.180908203125
4.647499900000001,0.6619967818260193,-0.2364274114370346,9.925163269042969,6.256103515625,0.18310546875,2.25830078125
4.6524999000000005,0.5805938839912415,-0.3315969407558441,9.783905029296875,-8.7890625,-1.007080078125,1.15966796875
4.6574999,0.629675030708313,-0.3585317134857178,9.658209800720215,4.21142578125,0.6103515625,-4.425048828125
4.6624999,0.6560112833976746,-0.2579752206802368,9.898826599121094,4.241943359375,0.030517578125,2.9296875
4.6674999,0.5764040350914001,-0.30047231912612915,9.689932823181152,-9.002685546875,-0.8544921875,0.518798828125
4.6724999,0.6147112846374512,-0.2645592987537384,9.645041465759277,6.317138671875,0.54931640625,-4.0283203125
4.6774999,0.6643909811973572,-0.28311434388160706,9.913790702819824,0.42724609375,-0.213623046875,3.875732421875
4.6824999,0.5883750915527344,-0.3711012601852417,9.670180320739746,-7.598876953125,-0.48828125,-1.495361328125
4.687499900000001,0.6655880808830261,-0.37409400939941406,9.768342971801758,8.4228515625,0.54931640625,-2.777099609375
4.6924999000000005,0.6506243348121643,-0.29568392038345337,9.928155899047852,-1.861572265625,-0.701904296875,3.753662109375
4.6974999,0.5776011347770691,-0.3357867896556854,9.709685325622559,-6.256103515625,-0.152587890625,-2.471923828125
4.7024999,0.6536170840263367,-0.3172317147254944,9.831789016723633,8.60595703125,0.79345703125,-1.64794921875
4.7074999,0.6248866319656372,-0.2795230448246002,9.964069366455078,-3.631591796875,-0.9765625,3.96728515625
4.7124999,0.5823895931243896,-0.37169981002807617,9.658807754516602,-4.5166015625,-0.335693359375,-3.23486328125
4.7174999,0.6757634282112122,-0.3423708379268646,9.841964721679688,9.33837890625,0.48828125,-0.885009765625
4.7224999,0.6727706789970398,-0.28550854325294495,9.849146842956543,8.72802734375,0.8544921875,0.30517578125
4.727499900000001,0.6003460884094238,-0.3016694188117981,9.834781646728516,-6.9580078125,-0.396728515625,3.173828125
4.7324999000000005,0.6236895322799683,-0.3597288131713867,9.652822494506836,-0.732421875,0.06103515625,-4.364013671875
4.7374999,0.6835445761680603,-0.30526071786880493,9.882665634155273,7.843017578125,0.152587890625,0.701904296875
4.7424999,0.5991489887237549,-0.33339259028434753,9.831789016723633,-7.904052734375,-0.946044921875,2.227783203125
4.7474999,0.628477931022644,-0.3687070608139038,9.625887870788574,1.678466796875,0.54931640625,-4.241943359375
4.7524999,0.6524199843406677,-0.26336219906806946,9.9000244140625,6.317138671875,0.274658203125,1.89208984375
4.7574999,0.5638344883918762,-0.33339259028434753,9.785700798034668,-9.033203125,-1.220703125,1.434326171875
4.7624999,0.5985504388809204,-0.34656068682670593,9.668983459472656,3.60107421875,0.335693359375,-4.21142578125
4.7674999,0.6236895322799683,-0.26336219906806946,9.934141159057617,4.69970703125,-0.030517578125,2.716064453125
4.772499900000001,0.5602431893348694,-0.3250128924846649,9.75637149810791,-8.4228515625,-1.03759765625,0.640869140625
4.7774999000000005,0.6200982332229614,-0.26815059781074524,9.68574333190918,6.89697265625,0.885009765625,-3.41796875
4.7824999,0.6200982332229614,-0.26815059781074524,9.68574333190918,6.89697265625,0.885009765625,-3.41796875
4.7874999,0.6602011322975159,-0.2579752206802368,9.913191795349121,0.823974609375,-0.244140625,3.60107421875
4.7924999,0.5740098357200623,-0.3687070608139038,9.667786598205566,-7.8125,-0.701904296875,-1.251220703125
4.7974999,0.669179379940033,-0.3878606855869293,9.753378868103027,8.575439453125,0.48828125,-2.685546875
4.8024999,0.669179379940033,-0.33518823981285095,9.93474006652832,-1.190185546875,-0.48828125,3.90625
4.8074999,0.5997475385665894,-0.3561375141143799,9.704896926879883,-6.256103515625,-0.335693359375,-2.13623046875
4.812499900000001,0.6769605278968811,-0.31603461503982544,9.833584785461426,8.9111328125,0.823974609375,-2.01416015625
4.8174999000000005,0.6500257849693298,-0.2717418968677521,9.980229377746582,-3.5400390625,-0.762939453125,3.72314453125
4.8224999,0.5973533391952515,-0.33039984107017517,9.700108528137207,-5.0048828125,-0.244140625,-3.082275390625
4.8274999,0.6973112225532532,-0.31783026456832886,9.88506031036377,9.063720703125,0.42724609375,-1.03759765625
4.8324999,0.6015431880950928,-0.33997663855552673,9.642647743225098,-2.99072265625,-0.18310546875,-3.631591796875
4.8374999,0.6649895310401917,-0.30705636739730835,9.881468772888184,9.033203125,0.54931640625,-0.244140625
4.8424999,0.585382342338562,-0.33758243918418884,9.848548889160156,-6.8359375,-0.48828125,3.021240234375
4.8474999,0.5931634902954102,-0.42377370595932007,9.649829864501953,-1.007080078125,0.640869140625,-4.0283203125
4.852499900000001,0.6637924313545227,-0.36571431159973145,9.892841339111328,8.23974609375,0.6103515625,0.762939453125
4.8574999000000005,0.5919663906097412,-0.3734954595565796,9.85034465789795,-7.99560546875,-0.6103515625,2.471923828125
4.8624999,0.6320692300796509,-0.3693056106567383,9.664793968200684,1.190185546875,0.457763671875,-4.33349609375
4.8674999,0.6745663285255432,-0.24361002445220947,9.93474006652832,6.988525390625,0.30517578125,1.89208984375
4.8724999,0.586579442024231,-0.26575639843940735,9.819219589233398,-8.575439453125,-0.79345703125,1.739501953125
4.8774999,0.6218938827514648,-0.3064578175544739,9.667786598205566,3.265380859375,0.335693359375,-4.45556640625
4.8824999,0.6727706789970398,-0.23104046285152435,9.883264541625977,3.173828125,0,3.326416015625
4.8874999,0.5781996846199036,-0.27234044671058655,9.671378135681152,-8.392333984375,-0.274658203125,-0.152587890625
4.8924999,0.6159083843231201,-0.26815059781074524,9.667786598205566,6.805419921875,0.518798828125,-3.631591796875
4.897499900000001,0.6518214344978333,-0.23762452602386475,9.901819229125977,1.28173828125,-0.3662109375,3.387451171875
4.9024999000000005,0.586579442024231,-0.35075053572654724,9.733627319335938,-7.781982421875,-0.67138671875,-1.3427734375
4.9074999,0.22505496442317963,-1.4760253429412842,8.224681854248047,-71.197509765625,0.67138671875,27.52685546875
4.9124999,-0.11252748221158981,-1.2066776752471924,6.743867874145508,-192.9931640625,101.898193359375,255.31005859375
4.9174999,-0.8876502513885498,-1.513733983039856,4.926668643951416,358.734130859375,27.52685546875,150.2685546875
4.9224999,-1.98958158493042,-1.1683704853057861,3.0567970275878906,138.092041015625,-9.552001953125,16.54052734375
4.9274999,-2.3552958965301514,-0.6542156338691711,2.4139537811279297,-166.046142578125,17.02880859375,161.224365234375
4.9324999,-2.6366145610809326,0.21847090125083923,2.625840663909912,-108.3984375,-13.36669921875,198.42529296875
4.937499900000001,-2.853289842605591,0.19931729137897491,2.7730841636657715,187.408447265625,-39.85595703125,41.259765625
4.9424999000000005,-2.211045265197754,2.3540987968444824,4.039616584777832,59.6923828125,-55.419921875,99.30419921875
4.9474999,-1.6190788745880127,2.9544448852539062,3.9695863723754883,66.314697265625,-91.339111328125,3.23486328125
4.9524999,-1.4460978507995605,2.3738510608673096,3.7930140495300293,-52.520751953125,-122.467041015625,19.775390625
4.9574999,-0.6147112846374512,3.1519665718078613,4.545392036437988,35.21728515625,-104.91943359375,70.587158203125
4.9624999,-0.37409400939941406,2.7084407806396484,4.351461410522461,16.876220703125,-82.763671875,8.72802734375
4.9674999,-0.023343466222286224,3.6349966526031494,4.619013786315918,-42.6025390625,-104.400634765625,-40.252685546875
4.9724999,0.8325836658477783,4.121618270874023,5.961562156677246,-35.09521484375,-123.84033203125,37.90283203125
4.977499900000001,1.1725603342056274,4.667496204376221,6.183624267578125,62.80517578125,-85.63232421875,57.9833984375
4.9824999000000005,1.9039889574050903,4.609436988830566,7.281365871429443,-56.671142578125,-80.963134765625,-6.805419921875
4.9874999,2.4127566814422607,4.298789024353027,7.06409215927124,-45.318603515625,-108.856201171875,-32.867431640625
4.9924999,3.3650505542755127,3.1932666301727295,7.5004353523254395,23.8037109375,-90.8203125,-0.244140625
4.9974999,4.00729513168335,2.182314872741699,6.941389083862305,38.848876953125,-30.487060546875,11.71875
5.0024999,4.7620673179626465,-0.0586579404771328,6.763619899749756,-39.36767578125,-20.69091796875,-24.200439453125
5.0074999,4.745906352996826,-1.049857497215271,7.049726963043213,14.434814453125,10.223388671875,-13.12255859375
5.0124999,4.699818134307861,-1.4425065517425537,7.55131196975708,2.288818359375,37.811279296875,-14.2822265625
5.0174999,4.587290287017822,-1.9476830959320068,8.378508567810059,-36.041259765625,49.9267578125,-18.73779296875
5.022499900000001,4.366425514221191,-1.734000563621521,9.211690902709961,3.631591796875,64.910888671875,-13.00048828125
5.0274999000000005,3.890577793121338,-1.4712369441986084,9.588179588317871,25.87890625,68.328857421875,-5.950927734375
5.0324999,3.2363622188568115,-1.1701661348342896,9.5624418258667,-15.625,68.90869140625,-15.93017578125
5.0374999,2.580350875854492,-0.6829460263252258,9.560646057128906,-17.9443359375,77.08740234375,-15.716552734375
5.0424999,1.9536685943603516,-0.27054479718208313,9.709086418151855,20.843505859375,85.723876953125,-0.701904296875
5.0474999,1.414973258972168,0.17896658182144165,9.585784912109375,2.86865234375,82.94677734375,-0.823974609375
5.0524999,1.0342950820922852,0.4297592043876648,9.656414031982422,-28.4423828125,79.28466796875,-12.8173828125
5.0574999,0.7092822790145874,0.32680854201316833,9.79408073425293,4.33349609375,83.0078125,-2.50244140625
5.062499900000001,0.26575639843940735,0.031124621629714966,9.803657531738281,-24.200439453125,70.556640625,-10.25390625
5.0674999000000005,0.06763619929552078,-0.28790274262428284,9.959280967712402,-16.143798828125,69.061279296875,-7.659912109375
5.0724999,-0.1759738177061081,-0.5081692934036255,10.20528507232666,27.77099609375,59.326171875,4.8828125
5.0774999,-0.4531026780605316,-0.5596446394920349,10.113107681274414,-3.0517578125,43.060302734375,-8.941650390625
5.0824999,-0.6619967818260193,-0.6649895310401917,10.22144603729248,-27.77099609375,38.787841796875,-11.23046875
5.0874999,-0.9361328482627869,-0.689530074596405,10.380660057067871,21.30126953125,28.99169921875,6.317138671875
5.0924999,-1.037886381149292,-0.5345055460929871,10.231620788574219,14.46533203125,10.406494140625,-3.082275390625
5.0974999,-1.0869675874710083,-0.3998316824436188,10.017339706420898,-30.1513671875,4.39453125,-11.474609375
5.102499900000001,-1.016338586807251,-0.42197805643081665,10.141838073730469,10.223388671875,-0.640869140625,6.195068359375
5.1074999000000005,-0.8445546627044678,-0.23163901269435883,10.020931243896484,22.125244140625,-14.739990234375,1.617431640625
5.1124999,-0.547075092792511,-0.1586158573627472,9.801262855529785,-30.975341796875,-16.632080078125,-10.8642578125
5.1174999,0.05985504388809204,-0.23942017555236816,9.965864181518555,30.364990234375,-26.18408203125,3.021240234375
5.1224999,0.35015198588371277,-0.20769700407981873,9.6989107131958,-27.984619140625,-24.71923828125,-10.467529296875
5.1274999,0.52552729845047,-0.38905778527259827,9.84376049041748,-7.476806640625,-19.775390625,0.91552734375
5.1324999,0.6883329749107361,-0.36571431159973145,9.943717956542969,36.346435546875,-29.449462890625,0.6103515625
5.1374999,0.7523778676986694,-0.27473464608192444,9.640253067016602,-25.0244140625,-26.947021484375,-11.65771484375
5.1424999,0.7733271718025208,-0.41778820753097534,9.812037467956543,-12.87841796875,-18.707275390625,-0.518798828125
5.147499900000001,0.8403648138046265,-0.3776853084564209,9.96945571899414,39.0625,-28.594970703125,-0.3662109375
5.1524999000000005,0.849941611289978,-0.24361002445220947,9.583989143371582,-24.322509765625,-25.665283203125,-10.528564453125
5.1574999,0.899621307849884,-0.3429693877696991,9.782109260559082,-13.824462890625,-15.13671875,1.068115234375
5.1624999,1.0199298858642578,-0.322618693113327,9.948506355285645,39.520263671875,-23.37646484375,-1.190185546875
5.1674999,1.07379949092865,-0.1412578970193863,9.548076629638672,-27.801513671875,-17.669677734375,-8.819580078125
5.1724999,1.2114660739898682,-0.31603461503982544,9.742006301879883,-10.43701171875,-5.0048828125,4.241943359375
5.1774999,1.4107834100723267,-0.21009120345115662,9.384073257446289,-33.355712890625,-3.448486328125,-5.92041015625
5.1824999,1.4903905391693115,-0.3968389332294464,9.686341285705566,-2.01416015625,8.544921875,7.537841796875
5.187499900000001,1.5328876972198486,-0.3495534360408783,9.711481094360352,34.423828125,0.18310546875,-4.0283203125
5.1924999000000005,1.4802151918411255,-0.24899697303771973,9.339780807495117,-38.9404296875,11.16943359375,-3.997802734375
5.1974999,1.4484920501708984,-0.3758896589279175,9.792284965515137,11.505126953125,19.04296875,7.8125
5.2024999,1.3958195447921753,-0.2968810200691223,9.688735961914062,23.895263671875,8.85009765625,-8.819580078125
5.2074999,1.193509578704834,-0.2041056901216507,9.45111083984375,-41.168212890625,21.881103515625,-1.251220703125
5.2124999,1.0893617868423462,-0.365115761756897,9.981427192687988,27.191162109375,20.965576171875,5.340576171875
5.2174999,0.9181763529777527,-0.23283611238002777,9.668983459472656,4.913330078125,11.3525390625,-13.031005859375
5.2224999,0.6829460263252258,-0.262763649225235,9.662399291992188,-32.89794921875,24.0478515625,3.387451171875
5.227499900000001,0.6099228858947754,-0.39205053448677063,10.143633842468262,38.330078125,13.397216796875,0.9765625
5.2324999000000005,0.45848962664604187,-0.26755204796791077,9.624092102050781,-18.61572265625,8.544921875,-12.054443359375
5.2374999,0.3705027103424072,-0.365115761756897,10.018536567687988,34.637451171875,1.922607421875,-4.8828125
5.2424999,0.2908954918384552,-0.23942017555236816,9.588777542114258,-36.07177734375,5.645751953125,-5.279541015625
5.2474999,0.3010708689689636,-0.31783026456832886,10.116100311279297,16.387939453125,6.591796875,9.8876953125
5.2524999,0.3477577865123749,-0.2322375625371933,9.861717224121094,11.749267578125,-6.53076171875,-10.43701171875
5.2574999,0.28790274262428284,-0.19871874153614044,9.778518676757812,-33.172607421875,3.35693359375,4.0283203125
