# Time (seconds),Accel_X,Accel_Y,Accel_Z,Gyro_X,Gyro_Y,Gyro_Z
0.0024999,1.7286136150360107,-0.11851298063993454,9.968857765197754,9.09423828125,12.0849609375,-10.345458984375
0.0074999,1.7286136150360107,-0.11851298063993454,9.968857765197754,9.09423828125,12.0849609375,-10.345458984375
0.012499900000000001,1.7286136150360107,-0.11851298063993454,9.968857765197754,9.09423828125,12.0849609375,-10.345458984375
0.0174999,1.6370353698730469,0.19213469326496124,10.079588890075684,4.82177734375,18.5546875,-19.134521484375
0.0224999,1.4047977924346924,0.2974795699119568,10.129268646240234,2.50244140625,21.91162109375,-16.448974609375
0.0274999,1.1516109704971313,-0.05985504388809204,10.031106948852539,8.392333984375,25.5126953125,-22.857666015625
0.0324999,0.9702502489089966,-0.23942017555236816,9.968857765197754,17.333984375,30.45654296875,-33.660888671875
0.0374999,0.058059390634298325,0.1825578808784485,9.717466354370117,-14.068603515625,-6.317138671875,-28.80859375
0.0424999,0.058059390634298325,0.1825578808784485,9.717466354370117,-14.068603515625,-6.317138671875,-28.80859375
0.0474999,-0.7104793787002563,0.6212953329086304,9.836577415466309,-16.66259765625,-8.056640625,-26.91650390625
0.0524999,-1.392826795578003,0.7595604658126831,10.056844711303711,-24.383544921875,-16.9677734375,-13.12255859375
0.0574999,-1.7417817115783691,0.4644751250743866,9.869498252868652,-34.24072265625,-20.965576171875,20.843505859375
0.0624999,-1.589151382446289,-0.06404489278793335,9.876680374145508,-23.0712890625,-43.365478515625,62.652587890625
0.0674999,-1.0636241436004639,-1.0157400369644165,9.567230224609375,-8.23974609375,-37.139892578125,49.62158203125
0.0724999,-0.18136078119277954,-1.323395013809204,9.378686904907227,7.2021484375,-14.190673828125,28.38134765625
0.0774999,0.4878185987472534,-1.6837223768234253,9.305065155029297,16.265869140625,-9.185791015625,24.4140625
0.0824999,1.268328309059143,0.3705027103424072,10.24239444732666,3.47900390625,24.383544921875,-21.270751953125
0.0874999,1.268328309059143,0.3705027103424072,10.24239444732666,3.47900390625,24.383544921875,-21.270751953125
0.0924999,1.027711033821106,0.24899697303771973,10.13166332244873,14.312744140625,31.829833984375,-39.520263671875
0.0974999,0.7769184708595276,-0.40880993008613586,9.833584785461426,12.8173828125,31.005859375,-55.48095703125
0.1024999,0.5506663918495178,-0.44412440061569214,9.553462982177734,1.190185546875,14.007568359375,-57.647705078125
0.1074999,0.2214636504650116,0.20709845423698425,9.7791166305542,-14.16015625,-5.889892578125,-33.172607421875
0.1124999,-0.4387374520301819,0.35673606395721436,9.743802070617676,-23.284912109375,-5.462646484375,-34.881591796875
0.1174999,-1.1504138708114624,1.3114240169525146,10.37108325958252,-27.099609375,-15.533447265625,-22.88818359375
0.1224999,-1.643619418144226,0.5668272376060486,10.231620788574219,-41.07666015625,-20.6298828125,14.312744140625
0.1274999,-1.4873977899551392,0.24899697303771973,10.093954086303711,-37.109375,-45.562744140625,68.54248046875
0.1324999,-0.9481038451194763,-1.2186486721038818,9.673771858215332,-13.397216796875,-43.212890625,68.450927734375
0.1374999,-0.035913024097681046,-1.8213889598846436,9.103353500366211,9.21630859375,-16.41845703125,45.074462890625
0.1424999,1.0414776802062988,-1.768117904663086,9.163806915283203,25.390625,-1.28173828125,19.805908203125
0.1474999,1.0414776802062988,-1.768117904663086,9.163806915283203,25.390625,-1.28173828125,19.805908203125
0.1524999,1.0450690984725952,-1.0462661981582642,9.59476375579834,19.622802734375,8.026123046875,2.86865234375
0.1574999,1.1342530250549316,-0.11432313174009323,10.10053825378418,9.94873046875,13.12255859375,-19.71435546875
0.1624999,1.18094003200531,0.5823895931243896,10.432733535766602,3.47900390625,20.355224609375,-24.139404296875
0.1674999,1.1839327812194824,0.7823054194450378,10.471040725708008,1.190185546875,22.52197265625,-19.622802734375
0.1724999,1.0863690376281738,0.6548141837120056,10.357316970825195,10.19287109375,29.4189453125,-35.888671875
0.17749990000000002,0.8834604024887085,-0.2669534981250763,10.035296440124512,14.312744140625,33.5693359375,-57.18994140625
0.1824999,0.7380126714706421,-0.25677812099456787,9.622895240783691,6.103515625,20.294189453125,-60.48583984375
0.1874999,0.37828385829925537,-0.48482584953308105,9.77013874053955,-10.223388671875,-1.007080078125,-39.154052734375
0.1924999,-0.15263035893440247,0.04249707981944084,9.668384552001953,-25.08544921875,-0.48828125,-44.525146484375
0.1974999,-0.9564836025238037,0.7661445140838623,10.283096313476562,-21.484375,-10.07080078125,-28.472900390625
0.2024999,-1.63344407081604,0.46986207365989685,9.96945571899414,-35.247802734375,-45.806884765625,64.422607421875
0.20749990000000001,-1.2419921159744263,-0.5692214369773865,9.66539192199707,-10.8642578125,-47.149658203125,69.15283203125
0.2124999,-0.35015198588371277,-1.1701661348342896,9.215282440185547,4.8828125,-17.27294921875,37.04833984375
0.2174999,0.49619829654693604,-1.7896658182144165,9.061454772949219,12.725830078125,-8.514404296875,24.5361328125
0.2224999,0.9133879542350769,-1.9273324012756348,8.99621295928955,26.7333984375,-5.218505859375,36.865234375
0.2274999,1.1659762859344482,-1.6124948263168335,9.214683532714844,31.402587890625,-2.50244140625,29.510498046875
0.2324999,1.1629834175109863,-1.137245774269104,9.436147689819336,20.355224609375,8.270263671875,11.138916015625
0.2374999,1.2312182188034058,-0.20290859043598175,9.921571731567383,6.866455078125,9.368896484375,-13.36669921875
0.2424999,1.3563152551651,0.7589619159698486,10.409390449523926,1.251220703125,23.406982421875,-20.08056640625
0.2474999,1.3210008144378662,0.5829881429672241,10.368688583374023,6.805419921875,27.923583984375,-30.70068359375
0.2524999,1.0648212432861328,-0.4279635548591614,10.014945983886719,14.16015625,34.24072265625,-52.734375
0.2574999,0.44771572947502136,-0.5512649416923523,9.723451614379883,-11.77978515625,4.241943359375,-52.30712890625
0.2624999,-0.06224924325942993,0.33339259028434753,9.84495735168457,-17.669677734375,-0.457763671875,-38.57421875
0.2674999,-0.9510966539382935,0.912190854549408,10.287884712219238,-19.500732421875,-8.575439453125,-28.350830078125
0.2724999,-1.7591396570205688,0.40462008118629456,10.325592994689941,-41.107177734375,-19.378662109375,-3.753662109375
0.2774999,-1.8525135517120361,0.5171475410461426,9.956287384033203,-45.257568359375,-42.144775390625,53.28369140625
0.2824999,-1.4311341047286987,-0.43275195360183716,9.813833236694336,-12.664794921875,-51.26953125,81.298828125
0.28749990000000003,-0.43035775423049927,-1.128267526626587,9.09377670288086,5.828857421875,-20.294189453125,43.701171875
0.2924999,0.6362590789794922,-1.8225860595703125,9.017162322998047,15.07568359375,-5.096435546875,21.97265625
0.2974999,1.1013327836990356,-2.3983914852142334,8.876502990722656,23.468017578125,-4.180908203125,31.494140625
0.3024999,1.2773065567016602,-1.867477297782898,9.206902503967285,33.50830078125,-1.983642578125,34.454345703125
0.3074999,1.1318588256835938,-1.566406488418579,9.469666481018066,24.017333984375,6.256103515625,12.6953125
0.3124999,1.048660397529602,-0.2819172441959381,9.877877235412598,5.79833984375,7.01904296875,-6.988525390625
0.3174999,1.2018892765045166,0.9624691009521484,10.434529304504395,2.227783203125,22.430419921875,-22.979736328125
0.3224999,1.1432312726974487,0.0628477931022644,10.189722061157227,13.824462890625,33.538818359375,-44.3115234375
0.3274999,0.9768342971801758,-0.5201402902603149,9.840767860412598,10.7421875,31.8603515625,-67.07763671875
0.3324999,0.6769605278968811,-0.6338648796081543,9.803058624267578,-1.800537109375,10.894775390625,-67.779541015625
0.3374999,0.18914192914962769,-0.4016273319721222,9.738415718078613,-15.167236328125,-3.0517578125,-42.083740234375
0.3424999,-0.608127236366272,0.6362590789794922,10.112509727478027,-16.387939453125,-5.126953125,-22.857666015625
0.34749990000000003,-1.6621745824813843,0.29149407148361206,10.351929664611816,-31.768798828125,-14.984130859375,-8.9111328125
0.35249990000000003,-1.9189527034759521,0.5728127360343933,10.014945983886719,-54.901123046875,-33.87451171875,31.341552734375
0.3574999,-1.6687586307525635,-0.005985504016280174,9.889848709106445,-22.552490234375,-57.0068359375,89.263916015625
0.3624999,-0.707486629486084,-0.8589198589324951,9.323619842529297,2.685546875,-25.604248046875,49.072265625
0.3674999,0.47584760189056396,-1.0576386451721191,9.110535621643066,11.566162109375,-4.425048828125,16.41845703125
0.3724999,0.9331400990486145,-0.800261914730072,9.576208114624023,10.833740234375,7.598876953125,2.349853515625
0.3774999,0.9313444495201111,0.004788403399288654,10.158597946166992,0.457763671875,6.65283203125,-20.294189453125
0.3824999,1.006163239479065,0.5907692909240723,10.401609420776367,3.7841796875,17.51708984375,-22.3388671875
0.3874999,1.1318588256835938,0.6039373874664307,10.40460205078125,2.5634765625,22.552490234375,-21.3623046875
0.3924999,1.149815320968628,0.43694180250167847,10.330381393432617,10.43701171875,28.99169921875,-32.989501953125
0.3974999,0.960673451423645,-0.5793967843055725,9.964667320251465,10.25390625,33.87451171875,-56.671142578125
0.4024999,0.7643488645553589,-0.41359832882881165,9.691728591918945,7.171630859375,21.270751953125,-69.51904296875
0.4074999,0.3190273642539978,-0.5650315880775452,9.693524360656738,-11.1083984375,-1.312255859375,-48.370361328125
0.41249990000000003,-0.2932897210121155,0.26156654953956604,9.665990829467773,-17.486572265625,-1.739501953125,-28.6865234375
0.41749990000000003,-1.1875240802764893,1.1546037197113037,10.356718063354492,-20.782470703125,-10.009765625,-9.979248046875
0.4224999,-1.8501193523406982,0.7775170207023621,10.302249908447266,-48.76708984375,-21.6064453125,4.39453125
0.4274999,-1.6633716821670532,0.8277952671051025,9.963470458984375,-45.166015625,-53.64990234375,68.511962890625
0.4324999,-1.0606313943862915,-0.6937199234962463,9.859322547912598,4.21142578125,-40.71044921875,69.64111328125
0.4374999,0.06524199992418289,-1.3646949529647827,9.007585525512695,7.293701171875,-4.852294921875,14.251708984375
0.4424999,1.0019733905792236,-2.249951124191284,8.995614051818848,11.29150390625,-5.79833984375,15.13671875
0.4474999,1.1264718770980835,-2.62823486328125,8.83819580078125,30.1513671875,-6.4697265625,43.76220703125
0.4524999,1.1743559837341309,-2.0422539710998535,9.227252960205078,38.330078125,0.67138671875,39.154052734375
0.4574999,0.9032126069068909,-1.2515689134597778,9.468469619750977,17.669677734375,5.7373046875,10.833740234375
0.4624999,0.9205705523490906,0.02513911761343479,9.956886291503906,1.03759765625,4.241943359375,-9.674072265625
0.4674999,1.0528502464294434,0.8493430614471436,10.412981986999512,1.495361328125,12.26806640625,-23.101806640625
0.47249990000000003,1.247977614402771,1.027711033821106,10.397418975830078,3.47900390625,20.294189453125,-18.1884765625
0.47749990000000003,1.326986312866211,0.5883750915527344,10.346542358398438,5.462646484375,25.93994140625,-24.017333984375
0.4824999,0.9774328470230103,-0.7296329736709595,9.75278091430664,6.866455078125,30.82275390625,-64.27001953125
0.4874999,0.6248866319656372,-0.27234044671058655,9.858723640441895,1.312255859375,11.016845703125,-58.563232421875
0.4924999,0.03711012750864029,-0.49140989780426025,9.706093788146973,-14.556884765625,-1.983642578125,-35.980224609375
0.4974999,-0.7416039705276489,0.6554127335548401,10.136451721191406,-19.744873046875,-5.31005859375,-20.6298828125
0.5024999,-1.6490063667297363,0.7104793787002563,10.450690269470215,-30.6396484375,-14.190673828125,-4.638671875
0.5074999,-1.8638859987258911,0.47884035110473633,10.250774383544922,-61.676025390625,-32.71484375,22.918701171875
0.5124999,-1.413776159286499,0.23283611238002777,9.94970417022705,-24.90234375,-55.938720703125,85.296630859375
0.5174999,-0.46507367491722107,-1.1959037780761719,9.514557838439941,7.568359375,-23.5595703125,49.49951171875
0.5224999,0.6242880821228027,-1.3844470977783203,8.936956405639648,7.415771484375,-3.0517578125,15.13671875
0.5274999,1.2419921159744263,-2.0272903442382812,8.772953987121582,16.143798828125,-5.096435546875,23.37646484375
0.5324999,1.171961784362793,-2.0242974758148193,8.7885160446167,35.675048828125,-4.364013671875,45.013427734375
0.5374999,1.0534487962722778,-1.6095020771026611,9.136872291564941,33.966064453125,-0.67138671875,26.2451171875
0.5424999,0.8331822156906128,-0.016160860657691956,10.09814453125,0.457763671875,7.720947265625,-18.768310546875
0.5474999,0.9612720012664795,0.628477931022644,10.500370025634766,3.35693359375,15.655517578125,-20.1416015625
0.5524999,1.1366472244262695,0.6135141849517822,10.441712379455566,2.9296875,20.477294921875,-17.15087890625
0.5574999,1.1893197298049927,0.35733461380004883,10.399214744567871,8.148193359375,28.01513671875,-31.463623046875
0.5624999,0.7894880175590515,-0.13946224749088287,9.778518676757812,3.47900390625,23.773193359375,-63.90380859375
0.5674999000000001,0.34356793761253357,-0.27473464608192444,9.86650562286377,-5.4931640625,3.84521484375,-48.980712890625
0.5724999000000001,-0.28072014451026917,0.026336219161748886,9.754576683044434,-15.2587890625,-2.25830078125,-25.115966796875
0.5774999000000001,-1.0690110921859741,0.6919242739677429,10.307038307189941,-19.927978515625,-7.965087890625,-11.810302734375
0.5824999,-1.8405425548553467,0.0077811554074287415,10.518326759338379,-41.046142578125,-18.035888671875,0.946044921875
0.5874999,-1.5957354307174683,0.45010992884635925,10.108918190002441,-60.6689453125,-46.32568359375,47.607421875
0.5924999,-1.004966139793396,-0.39564183354377747,9.8970308303833,-10.955810546875,-46.661376953125,83.92333984375
0.5974999,1.1546037197113037,-1.4036006927490234,8.731653213500977,13.275146484375,-3.326416015625,18.585205078125
0.6024999,1.3192051649093628,-1.8375498056411743,8.56765079498291,24.0478515625,-5.79833984375,33.538818359375
0.6074999,1.1839327812194824,-1.8124107122421265,8.865130424499512,34.48486328125,-5.18798828125,37.200927734375
0.6124999,0.8301894664764404,-1.2204443216323853,9.205106735229492,27.740478515625,1.40380859375,15.869140625
0.6174999,0.6805518269538879,-0.5416881442070007,9.746196746826172,11.322021484375,7.38525390625,-3.387451171875
0.6224999,0.7721300721168518,0.166995570063591,10.28249740600586,0.457763671875,8.9111328125,-21.697998046875
0.6274999,0.9672574996948242,0.6141127347946167,10.538078308105469,2.197265625,16.29638671875,-18.707275390625
0.6324999,1.0845733880996704,0.5692214369773865,10.499771118164062,2.01416015625,22.735595703125,-22.613525390625
0.6374999,1.0462661981582642,0.34416648745536804,10.34833812713623,8.758544921875,28.50341796875,-38.75732421875
0.6424999,0.7918822169303894,-0.6236895322799683,9.943717956542969,9.307861328125,30.487060546875,-54.107666015625
0.6474999,0.5261258482933044,-0.3998316824436188,9.90122127532959,0.244140625,17.669677734375,-61.248779296875
0.6524999,0.5261258482933044,-0.3998316824436188,9.90122127532959,0.244140625,17.669677734375,-61.248779296875
0.6574999,-0.5500678420066833,0.38546648621559143,9.984419822692871,-15.960693359375,-2.685546875,-17.730712890625
0.6624999,-1.2563573122024536,1.194706678390503,10.409989356994629,-23.98681640625,-10.43701171875,-5.950927734375
0.6674999,-1.5975310802459717,1.0019733905792236,10.402806282043457,-54.50439453125,-29.23583984375,15.533447265625
0.6724999,-1.0785878896713257,0.8649053573608398,9.907206535339355,-48.4619140625,-51.20849609375,71.929931640625
0.6774999,-0.32620999217033386,-0.7637503147125244,9.659406661987305,4.058837890625,-31.707763671875,67.87109375
0.6824999,0.7493851184844971,-1.5550340414047241,8.737040519714355,13.519287109375,-3.387451171875,23.162841796875
0.6874999,1.2934675216674805,-2.3582887649536133,8.565256118774414,15.68603515625,-5.096435546875,25.45166015625
0.6924999000000001,1.157596468925476,-2.601898670196533,8.591592788696289,32.318115234375,-8.23974609375,39.764404296875
0.6974999000000001,0.9241618514060974,-1.9788076877593994,8.936357498168945,32.89794921875,-3.96728515625,28.9306640625
0.7024999000000001,0.6374561786651611,-1.183334231376648,9.39784049987793,22.5830078125,5.889892578125,8.636474609375
0.7074999,0.6625953316688538,-0.12629413604736328,9.935338973999023,4.94384765625,6.439208984375,-12.786865234375
0.7124999,0.8702923059463501,0.718859076499939,10.426748275756836,0.9765625,12.14599609375,-22.3388671875
0.7174999,1.1324573755264282,0.6165069341659546,10.46206283569336,3.936767578125,24.993896484375,-27.923583984375
0.7224999,0.6374561786651611,-0.3693056106567383,9.761758804321289,6.195068359375,28.01513671875,-60.48583984375
0.7274999,0.6374561786651611,-0.3693056106567383,9.761758804321289,6.195068359375,28.01513671875,-60.48583984375
0.7324999,0.32620999217033386,-0.21787235140800476,9.854534149169922,-1.46484375,7.904052734375,-51.6357421875
0.7374999,-0.23283611238002777,-0.37409400939941406,9.66299819946289,-12.725830078125,0.06103515625,-25.87890625
0.7424999,-0.8146271109580994,0.606930136680603,10.162787437438965,-17.333984375,-4.45556640625,-9.552001953125
0.7474999,-1.5233107805252075,0.13287819921970367,10.365097999572754,-35.552978515625,-17.39501953125,2.99072265625
0.7524999,-1.3617022037506104,0.34596213698387146,10.15560531616211,-61.859130859375,-40.95458984375,37.841796875
0.7574999,-0.7930793166160583,-0.023343466222286224,9.79647445678711,-18.61572265625,-46.234130859375,83.43505859375
0.7624999,0.21607670187950134,-1.1492167711257935,9.329605102539062,11.41357421875,-13.7939453125,40.6494140625
0.7674999,1.1426327228546143,-1.2096704244613647,8.844181060791016,11.749267578125,-3.7841796875,20.32470703125
0.7724999,1.2701239585876465,-1.7208324670791626,8.720281600952148,20.1416015625,-7.476806640625,33.203125
0.7774999,0.6470330357551575,-0.5961562395095825,9.683947563171387,12.5732421875,6.8359375,-0.79345703125
0.7824999,0.7882909178733826,0.02513911761343479,10.204686164855957,0.9765625,7.904052734375,-21.3623046875
0.7874999,1.0007762908935547,0.47584760189056396,10.499173164367676,1.983642578125,17.02880859375,-22.308349609375
0.7924999,1.1324573755264282,0.47584760189056396,10.484209060668945,2.13623046875,22.76611328125,-22.064208984375
0.7974999,1.0923545360565186,0.26575639843940735,10.33098030090332,8.11767578125,28.106689453125,-34.72900390625
0.8024999,0.7625532150268555,-0.821809709072113,9.921571731567383,9.124755859375,31.158447265625,-55.023193359375
0.8074999,0.507570743560791,-0.3387795388698578,9.874884605407715,3.265380859375,18.768310546875,-60.699462890625
0.8124999,-0.01975216343998909,-0.6901286244392395,9.72285270690918,-6.744384765625,1.46484375,-36.2548828125
0.8174999000000001,-0.5033808946609497,0.5380968451499939,9.998785018920898,-15.228271484375,-1.251220703125,-11.474609375
0.8224999000000001,-1.1797429323196411,1.3048399686813354,10.45547866821289,-23.773193359375,-10.894775390625,0.885009765625
0.8274999000000001,-1.4311341047286987,1.070208191871643,10.481216430664062,-54.412841796875,-26.79443359375,12.603759765625
0.8324999000000001,-0.2172738015651703,-0.8146271109580994,9.848548889160156,5.06591796875,-29.96826171875,67.596435546875
0.8374999,0.74040687084198,-1.601720929145813,8.972270965576172,12.5732421875,-3.662109375,23.834228515625
0.8424999,1.2443863153457642,-2.3971943855285645,8.808866500854492,14.251708984375,-5.035400390625,21.30126953125
0.8474999,1.0301052331924438,-2.4372973442077637,8.631096839904785,29.23583984375,-7.32421875,37.994384765625
0.8524999,0.8690952062606812,-1.88782799243927,9.023746490478516,36.590576171875,-3.204345703125,26.763916015625
0.8574999,0.5985504388809204,-1.0773907899856567,9.3643217086792,19.34814453125,4.94384765625,4.241943359375
0.8624999,0.6991068720817566,-0.07541735470294952,9.913191795349121,2.50244140625,6.2255859375,-15.350341796875
0.8674999,0.8990227580070496,0.6775590777397156,10.470442771911621,2.62451171875,13.824462890625,-22.918701171875
0.8724999,1.0821791887283325,0.861314058303833,10.500370025634766,1.190185546875,19.1650390625,-18.280029296875
0.8774999,1.106719732284546,0.5111620426177979,10.463858604431152,4.364013671875,24.0478515625,-26.85546875
0.8824999,-0.7344213724136353,-0.28730419278144836,9.80904483795166,-10.223388671875,-43.548583984375,81.573486328125
0.8874999,0.26336219906806946,-1.212663173675537,9.305663108825684,13.702392578125,-10.55908203125,34.36279296875
0.8924999,1.0875661373138428,-1.2737152576446533,8.926182746887207,11.749267578125,-4.2724609375,15.93017578125
0.8974999,1.1546037197113037,-1.6603789329528809,8.834604263305664,21.91162109375,-7.537841796875,31.280517578125
0.9024999,0.9576807022094727,-1.6160861253738403,9.093177795410156,34.60693359375,-6.683349609375,35.94970703125
0.9074999,0.6877344250679016,-1.0091559886932373,9.332598686218262,23.8037109375,0.701904296875,14.46533203125
0.9124999,0.6913257241249084,-0.37888240814208984,9.797073364257812,7.99560546875,5.37109375,-3.2958984375
0.9174999,1.071405291557312,0.16101007163524628,10.262146949768066,7.75146484375,27.313232421875,-39.031982421875
0.9224999,0.6985083222389221,-0.8547300100326538,9.873088836669922,8.36181640625,28.74755859375,-56.884765625
0.9274999,0.3866635859012604,-0.596754789352417,9.898228645324707,2.62451171875,16.6015625,-57.403564453125
0.9324999,-0.08379705995321274,-0.6835445761680603,9.761159896850586,-8.026123046875,1.312255859375,-30.517578125
0.9374999,-0.6123170852661133,0.3208230137825012,10.066421508789062,-15.350341796875,-0.946044921875,-9.063720703125
0.9424999000000001,-1.1941081285476685,1.2791022062301636,10.466851234436035,-24.627685546875,-13.00048828125,1.64794921875
0.9474999000000001,-1.4000093936920166,0.9696516990661621,10.390236854553223,-55.389404296875,-31.585693359375,17.852783203125
0.9524999000000001,-0.8948329091072083,0.9175778031349182,9.983222961425781,-35.919189453125,-46.234130859375,71.319580078125
0.9574999000000001,-0.10833762586116791,-0.7386112213134766,9.651026725769043,8.72802734375,-24.993896484375,57.769775390625
0.9624999,0.7793126702308655,-1.48081374168396,8.89026927947998,12.451171875,-4.119873046875,19.34814453125
0.9674999,0.9768342971801758,-2.230797529220581,8.737040519714355,33.50830078125,-9.6435546875,43.0908203125
0.9724999,0.7846996188163757,-1.6741455793380737,9.041104316711426,27.740478515625,-1.77001953125,25.970458984375
0.9774999,0.6314706802368164,-0.8966285586357117,9.497200012207031,14.22119140625,6.195068359375,7.110595703125
0.9824999,0.8242039084434509,-0.06584054976701736,10.052056312561035,2.288818359375,5.37109375,-16.571044921875
0.9874999,1.1049240827560425,0.5117605924606323,10.451289176940918,2.13623046875,14.862060546875,-22.857666015625
0.9924999,1.2713210582733154,0.67815762758255,10.466851234436035,0.79345703125,21.392822265625,-19.34814453125
0.9974999,1.2120646238327026,0.38127660751342773,10.377068519592285,4.2724609375,25.604248046875,-31.768798828125
1.0024999,0.8972271084785461,-0.09157821536064148,10.130465507507324,9.307861328125,29.84619140625,-50.47607421875
1.0074999000000002,0.5416881442070007,-0.21009120345115662,9.882665634155273,5.462646484375,24.139404296875,-59.9365234375
1.0124999000000001,0.07721300423145294,-0.5776011347770691,9.906607627868652,-5.340576171875,5.218505859375,-42.755126953125
1.0174999000000002,-0.45010992884635925,-0.2190694510936737,9.955689430236816,-11.688232421875,0.030517578125,-16.29638671875
1.0224999000000001,-0.9726444482803345,0.4985924959182739,10.324995040893555,-17.364501953125,-6.927490234375,-3.570556640625
1.0274999,1.1276689767837524,-1.946485996246338,8.680776596069336,17.608642578125,-3.082275390625,21.54541015625
1.0324999000000001,1.026513934135437,-1.9381062984466553,8.626907348632812,18.341064453125,-6.28662109375,27.679443359375
1.0374999,0.8834604024887085,-1.3108254671096802,9.09497356414795,25.848388671875,-5.767822265625,24.322509765625
1.0424999000000001,0.6925228238105774,-0.9624691009521484,9.437344551086426,19.989013671875,3.143310546875,5.523681640625
1.0474999,0.8038532137870789,-0.02753331884741783,9.852738380432129,6.256103515625,6.65283203125,-11.260986328125
1.0524999000000002,1.0630255937576294,0.5404910445213318,10.35252857208252,4.5166015625,14.70947265625,-22.979736328125
1.0574999,1.2114660739898682,0.7954735159873962,10.43812084197998,0.30517578125,20.111083984375,-19.989013671875
1.0624999000000002,1.1456254720687866,0.5303156971931458,10.408791542053223,1.0986328125,22.674560546875,-27.069091796875
1.0674999,0.8607155084609985,0.09516951441764832,10.198700904846191,8.880615234375,26.947021484375,-45.166015625
1.0724999000000002,-0.3357867896556854,-0.43694180250167847,9.720458984375,-9.33837890625,0.030517578125,-19.95849609375
1.0774999,-0.7583633661270142,0.4866214990615845,10.041281700134277,-14.0380859375,-5.37109375,-5.37109375
1.0824999000000002,-1.3455413579940796,0.21547815203666687,10.47702693939209,-30.853271484375,-20.599365234375,12.87841796875
1.0874999,-1.138442873954773,0.4572925269603729,10.176554679870605,-56.396484375,-35.614013671875,33.3251953125
1.0924999000000002,-0.6500257849693298,-0.15562310814857483,9.946710586547852,-14.739990234375,-38.87939453125,74.371337890625
1.0974999,0.2232593148946762,-1.0295066833496094,9.331999778747559,20.44677734375,-19.53125,51.1474609375
1.1024999000000002,1.0013748407363892,-1.2234370708465576,8.973467826843262,19.134521484375,-6.103515625,30.33447265625
1.1074999,1.1216834783554077,-1.5221136808395386,8.890868186950684,15.655517578125,-6.561279296875,29.022216796875
1.1124999000000002,0.9810241460800171,-1.3724761009216309,9.197924613952637,21.942138671875,-5.37109375,29.815673828125
1.1174999,0.7858967185020447,-1.0259153842926025,9.462483406066895,20.965576171875,1.77001953125,14.434814453125
1.1224999000000002,1.2461819648742676,0.3603273630142212,10.355521202087402,1.0986328125,21.087646484375,-24.444580078125
1.1274999,1.2425906658172607,0.3519476354122162,10.34594440460205,0.54931640625,23.37646484375,-24.71923828125
1.1324999000000002,0.9953893423080444,0.055665191262960434,10.20887565612793,6.9580078125,26.7333984375,-41.473388671875
1.1374999000000001,0.5692214369773865,-0.2759317457675934,9.784503936767578,8.23974609375,27.801513671875,-58.197021484375
1.1424999000000002,0.20231004059314728,-0.28969839215278625,9.956886291503906,-0.457763671875,10.8642578125,-50.35400390625
1.1474999000000001,-0.333991140127182,-0.03950432687997818,9.6618013381958,-15.5029296875,2.3193359375,-28.533935546875
1.1524999000000002,-0.7691373229026794,0.4016273319721222,10.202890396118164,-12.0849609375,-5.06591796875,-10.589599609375
1.1574999000000001,-1.2509703636169434,0.3405751883983612,10.223240852355957,-26.79443359375,-18.157958984375,10.55908203125
1.1624999,-1.1324573755264282,-0.04189852997660637,10.15021800994873,-50.78125,-33.5693359375,31.890869140625
1.1674999000000001,-0.5656301379203796,-0.4339490532875061,9.749189376831055,-16.998291015625,-37.811279296875,70.037841796875
1.1724999,0.21308395266532898,-1.514931082725525,9.384672164916992,16.11328125,-19.8974609375,51.8798828125
1.1774999000000002,0.9271546006202698,-1.5436615943908691,8.954913139343262,18.6767578125,-7.50732421875,33.782958984375
1.1824999,1.0217255353927612,-1.7693150043487549,8.941145896911621,20.416259765625,-7.99560546875,35.33935546875
1.1874999000000002,0.8708908557891846,-1.5406688451766968,9.144054412841797,21.148681640625,-4.57763671875,29.815673828125
1.1924999,0.6865373253822327,-0.99479079246521,9.459490776062012,21.42333984375,3.0517578125,17.364501953125
1.1974999000000002,0.7751228213310242,-0.35434186458587646,9.85034465789795,10.8642578125,6.072998046875,-3.47900390625
1.2024999,1.2814964056015015,0.547075092792511,10.408193588256836,-0.30517578125,21.66748046875,-23.98681640625
1.2074999000000002,1.2731167078018188,0.42437225580215454,10.310629844665527,1.129150390625,23.162841796875,-24.871826171875
1.2124999,0.9995791912078857,0.009576806798577309,10.155006408691406,8.4228515625,27.496337890625,-45.196533203125
1.2174999000000002,0.5117605924606323,-0.7050924301147461,9.57321548461914,7.965087890625,26.91650390625,-60.36376953125
1.2224999,0.17477671802043915,-0.07062894850969315,9.849146842956543,-1.46484375,6.40869140625,-42.1142578125
1.2274999000000002,-0.46806642413139343,-0.3705027103424072,9.626486778259277,-17.852783203125,3.662109375,-26.885986328125
1.2324999,-0.8355764150619507,0.6931213736534119,10.073004722595215,-17.181396484375,-4.608154296875,-16.11328125
1.2374999000000002,-0.6105214357376099,-0.8810662031173706,9.654019355773926,-8.941650390625,-35.64453125,66.83349609375
1.2424999,0.21787235140800476,-1.5753847360610962,9.258378028869629,17.333984375,-19.256591796875,49.652099609375
1.2474999000000002,0.8816647529602051,-1.456871747970581,8.983044624328613,18.73779296875,-9.552001953125,38.51318359375
1.2524999,1.0773907899856567,-1.566406488418579,9.191340446472168,18.37158203125,-7.4462890625,35.64453125
1.2574999000000002,1.0773907899856567,-1.566406488418579,9.191340446472168,18.37158203125,-7.4462890625,35.64453125
1.2624999000000001,0.970848798751831,-1.1180921792984009,9.372102737426758,15.838623046875,-1.46484375,25.93994140625
1.2674999000000002,0.9085995554924011,-0.6913257241249084,9.6803560256958,17.7001953125,3.448486328125,11.688232421875
1.2724999000000001,1.0516531467437744,-0.10714052617549896,9.953893661499023,11.1083984375,6.500244140625,-11.383056640625
1.2774999000000002,1.2892776727676392,0.33698388934135437,10.23880386352539,0.946044921875,16.17431640625,-26.947021484375
1.2824999000000001,0.7972691655158997,-0.2555810213088989,9.9772367477417,9.368896484375,27.008056640625,-50.59814453125
1.2874999,-0.004788403399288654,-0.2908954918384552,9.765350341796875,-9.185791015625,3.570556640625,-35.58349609375
1.2924999000000001,-0.004788403399288654,-0.2908954918384552,9.765350341796875,-9.185791015625,3.570556640625,-35.58349609375
1.2974999,-0.6326677799224854,-0.3645172119140625,9.996390342712402,-11.1083984375,1.5869140625,-12.725830078125
1.3024999000000002,-0.9427168965339661,0.7194576263427734,10.031704902648926,-26.885986328125,-7.01904296875,-7.2021484375
1.3074999,-1.3946224451065063,-0.25258827209472656,10.705074310302734,-29.266357421875,-27.435302734375,19.500732421875
1.3124999000000002,-0.9768342971801758,-0.19572599232196808,9.937732696533203,-42.48046875,-30.09033203125,34.210205078125
1.3174999,-0.2974795699119568,-1.2395979166030884,9.82999324798584,-6.561279296875,-33.8134765625,69.000244140625
1.3224999000000002,0.5249287486076355,-1.7483657598495483,9.099761962890625,23.223876953125,-19.53125,59.173583984375
1.3274999,1.0690110921859741,-1.810615062713623,8.810662269592285,24.444580078125,-8.941650390625,44.586181640625
1.3324999000000002,1.1528080701828003,-1.5885528326034546,8.861538887023926,20.3857421875,-3.448486328125,31.341552734375
1.3374999,0.9421183466911316,-1.1180921792984009,9.263166427612305,22.03369140625,1.15966796875,22.796630859375
1.3424999000000002,0.8972271084785461,-0.45669397711753845,9.701904296875,16.9677734375,4.94384765625,7.62939453125
1.3474999,1.1510124206542969,0.2537853717803955,10.2561616897583,7.568359375,27.7099609375,-40.313720703125
1.3524999000000002,1.1510124206542969,0.2537853717803955,10.2561616897583,7.568359375,27.7099609375,-40.313720703125
1.3574999,0.6997054219245911,-0.5285200476646423,9.855133056640625,11.474609375,28.74755859375,-59.234619140625
1.3624999000000002,-0.26396074891090393,-0.24899697303771973,9.800065994262695,-14.5263671875,-0.457763671875,-27.03857421875
1.3674999,-0.26396074891090393,-0.24899697303771973,9.800065994262695,-14.5263671875,-0.457763671875,-27.03857421875
1.3724999000000002,-0.8690952062606812,0.07721300423145294,10.125677108764648,-15.899658203125,-0.67138671875,-14.190673828125
1.3774999,-1.1779472827911377,0.9415197968482971,10.27591323852539,-24.383544921875,-15.380859375,6.16455078125
1.3824999000000002,-1.3419500589370728,0.28311434388160706,10.325592994689941,-37.90283203125,-32.5927734375,26.0009765625
1.3874999000000001,-0.7164648771286011,-0.010773907415568829,9.859322547912598,-28.656005859375,-33.69140625,53.40576171875
1.3924999000000002,-0.002992752008140087,-1.3874398469924927,9.534309387207031,7.62939453125,-28.472900390625,64.94140625
1.3974999000000001,0.7493851184844971,-1.7866730690002441,8.957905769348145,22.8271484375,-14.923095703125,51.361083984375
1.4024999000000002,0.9540894031524658,-0.3130418658256531,9.871294021606445,9.521484375,5.126953125,-3.72314453125
1.4074999000000001,1.2084733247756958,0.4411316514015198,10.253169059753418,-1.434326171875,12.237548828125,-29.60205078125
1.4124999,1.3880383968353271,0.7763199210166931,10.375272750854492,-2.685546875,24.505615234375,-27.191162109375
1.4174999000000001,1.3718775510787964,0.4985924959182739,10.256759643554688,3.387451171875,27.557373046875,-32.012939453125
1.4224999,1.0205284357070923,-0.20231004059314728,9.970054626464844,12.26806640625,30.33447265625,-53.5888671875
1.4274999000000002,0.5889736413955688,-0.8529343605041504,9.613917350769043,9.429931640625,22.216796875,-59.50927734375
1.4324999,0.014365210197865963,-0.7068880796432495,9.768941879272461,-10.009765625,2.62451171875,-43.64013671875
1.4374999000000002,-0.5776011347770691,-0.42616790533065796,9.75936508178711,-14.129638671875,-0.54931640625,-14.892578125
1.4424999,0.39384618401527405,-1.4131776094436646,9.239224433898926,18.524169921875,-21.514892578125,60.36376953125
1.4474999000000002,1.0414776802062988,-1.9674352407455444,8.989628791809082,23.590087890625,-7.598876953125,46.875
1.4524999,1.213860273361206,-1.6573861837387085,8.950722694396973,21.026611328125,0.701904296875,32.745361328125
1.4574999000000002,1.092953085899353,-1.2994530200958252,9.283516883850098,21.881103515625,3.96728515625,21.331787109375
1.4624999,1.0522516965866089,-0.4297592043876648,9.689932823181152,12.725830078125,4.5166015625,2.01416015625
1.4674999000000002,1.2030863761901855,0.3878606855869293,10.118494987487793,2.716064453125,8.544921875,-24.23095703125
1.4724999,1.357512354850769,0.8289923667907715,10.389039993286133,-2.86865234375,21.484375,-27.191162109375
1.4774999000000002,1.3724761009216309,0.6165069341659546,10.25735855102539,-0.335693359375,27.587890625,-29.296875
1.4824999,1.1342530250549316,0.07721300423145294,10.105326652526855,11.474609375,31.25,-51.910400390625
1.4874999000000002,0.6835445761680603,-0.7781155705451965,9.743802070617676,13.0615234375,26.885986328125,-64.27001953125
1.4924999,0.20709845423698425,-0.6422445774078369,9.79527759552002,-2.349853515625,8.30078125,-54.534912109375
1.4974999000000002,-1.0133458375930786,0.22206220030784607,10.020931243896484,-14.251708984375,-2.532958984375,-8.697509765625
1.5024999,-1.4460978507995605,0.7398083209991455,10.13166332244873,-21.575927734375,-21.697998046875,15.899658203125
1.5074999000000002,-1.5286977291107178,-0.008978256024420261,10.093954086303711,-35.980224609375,-35.21728515625,28.961181640625
1.5124999000000001,-0.8762778043746948,-0.4776432514190674,9.7791166305542,-21.30126953125,-31.829833984375,50.201416015625
1.5174999000000002,-0.03950432687997818,-1.5693992376327515,9.419387817382812,8.453369140625,-27.4658203125,63.4765625
1.5224999000000001,0.7984662652015686,-2.1326351165771484,9.065644264221191,25.665283203125,-14.068603515625,57.159423828125
1.5274999000000002,1.1893197298049927,-2.10210919380188,8.912415504455566,23.13232421875,-0.79345703125,44.219970703125
1.5324999000000001,1.1665748357772827,-1.590348482131958,9.235034942626953,23.25439453125,5.035400390625,31.25
1.5374999000000003,1.0851719379425049,-0.7559691667556763,9.600749015808105,13.702392578125,5.31005859375,13.7939453125
1.5424999000000001,1.1881226301193237,0.28790274262428284,10.042478561401367,2.838134765625,3.631591796875,-15.167236328125
1.5474999,1.4119805097579956,0.8271966576576233,10.34714126586914,-3.021240234375,16.265869140625,-28.13720703125
1.5524999000000002,1.5119383335113525,0.7296329736709595,10.242993354797363,-0.823974609375,27.008056640625,-27.7099609375
1.5574999,-1.4323312044143677,0.3531447649002075,10.092158317565918,-17.15087890625,-12.51220703125,3.47900390625
1.5624999000000002,-1.6968904733657837,-0.005386953707784414,10.212467193603516,-30.914306640625,-33.87451171875,27.069091796875
1.5674999,-1.106719732284546,0.053270988166332245,9.913191795349121,-28.961181640625,-32.89794921875,43.365478515625
1.5724999000000002,-0.30226796865463257,-1.0301052331924438,9.635464668273926,-0.1220703125,-31.06689453125,63.262939453125
1.5774999,0.6374561786651611,-1.4724340438842773,9.19552993774414,23.3154296875,-18.61572265625,60.24169921875
1.5824999000000002,1.1450269222259521,-2.0177135467529297,8.986037254333496,25.146484375,-3.7841796875,49.37744140625
1.5874999,1.1761516332626343,-1.7166426181793213,9.126696586608887,23.5595703125,5.0048828125,35.675048828125
1.5924999000000002,1.2096704244613647,-0.33099839091300964,9.90361499786377,13.946533203125,32.5927734375,-58.563232421875
1.5974999,0.6362590789794922,-0.9229647517204285,9.644442558288574,3.936767578125,19.317626953125,-54.840087890625
1.6024999000000002,0.04908113554120064,-0.5578489899635315,9.884461402893066,-8.941650390625,1.739501953125,-45.440673828125
1.6074999,-0.7338228225708008,-0.31783026456832886,9.7605619430542,-19.012451171875,-4.57763671875,-21.240234375
1.6124999000000002,-1.292868971824646,0.31364041566848755,10.042478561401367,-13.5498046875,-6.8359375,-2.8076171875
1.6174999,-1.6543933153152466,0.46806642413139343,10.104129791259766,-21.575927734375,-27.9541015625,22.8271484375
1.6224999000000002,-1.3533225059509277,0.18555063009262085,9.951498985290527,-33.355712890625,-32.745361328125,32.2265625
1.6274999,-0.6218938827514648,-0.5871779918670654,9.764751434326172,-10.528564453125,-31.036376953125,55.2978515625
1.6324999000000002,1.3479355573654175,0.5297171473503113,10.152612686157227,-0.9765625,7.080078125,-22.4609375
1.6374999000000001,1.5388731956481934,0.8439561128616333,10.290278434753418,-2.50244140625,21.514892578125,-24.59716796875
1.6424999000000002,1.5442601442337036,0.4315548539161682,10.083779335021973,3.631591796875,28.411865234375,-31.890869140625
1.6474999000000001,1.301847219467163,-0.0520738884806633,9.997588157653809,14.16015625,33.050537109375,-55.908203125
1.6524999000000002,0.7631517648696899,-0.7936778664588928,9.662399291992188,8.453369140625,24.84130859375,-59.051513671875
1.6574999000000001,0.28371289372444153,-0.3130418658256531,9.680954933166504,-4.058837890625,5.645751953125,-48.370361328125
1.6624999000000003,-0.48961424827575684,-0.4345476031303406,9.82759952545166,-19.317626953125,-4.638671875,-28.106689453125
1.6674999000000001,-1.1121066808700562,0.22086510062217712,9.849146842956543,-15.228271484375,-3.60107421875,-7.232666015625
1.6724999,-1.6238672733306885,-0.36152446269989014,10.233416557312012,-29.327392578125,-34.423828125,29.144287109375
1.6774999000000002,-0.9175778031349182,-0.5422866940498352,9.932944297790527,-25.482177734375,-27.923583984375,38.726806640625
1.6824999,1.1420341730117798,-0.6374561786651611,9.59177017211914,9.796142578125,3.326416015625,7.171630859375
1.6874999000000002,1.235408067703247,0.4207809567451477,10.001178741455078,0.457763671875,2.166748046875,-15.93017578125
1.6924999,1.437718152999878,0.9139865040779114,10.310030937194824,-1.708984375,17.059326171875,-25.69580078125
1.6974999000000002,1.5269020795822144,0.7547720670700073,10.237008094787598,-1.3427734375,26.885986328125,-28.717041015625
1.7024999,1.3287819623947144,0.23942017555236816,10.128670692443848,8.880615234375,32.012939453125,-48.9501953125
1.7074999000000002,0.8834604024887085,-0.49320554733276367,9.844358444213867,13.61083984375,31.402587890625,-65.155029296875
1.7124999,-0.292691171169281,-0.718859076499939,9.749788284301758,-15.5029296875,-3.2958984375,-36.62109375
1.7174999000000002,-0.93254154920578,-0.42018240690231323,9.619902610778809,-17.76123046875,-2.38037109375,-12.8173828125
1.7224999,-1.4562731981277466,0.05925649031996727,9.891644477844238,-13.397216796875,-14.34326171875,7.01904296875
1.7274999000000002,-1.602918028831482,0.31783026456832886,10.086173057556152,-23.3154296875,-35.369873046875,32.470703125
1.7324999,-1.0851719379425049,0.03531447425484657,9.929352760314941,-30.70068359375,-29.052734375,30.70068359375
1.7374999000000002,-0.2017114907503128,-0.5997475385665894,9.816825866699219,-5.37109375,-26.9775390625,52.886962890625
1.7424999,0.7134721279144287,-1.43532395362854,9.370306968688965,22.064208984375,-20.3857421875,66.58935546875
1.7474999000000002,1.1875240802764893,-2.117072820663452,9.115922927856445,28.778076171875,-4.638671875,58.2275390625
1.7524999,1.1887211799621582,-1.8501193523406982,9.115324020385742,22.76611328125,7.01904296875,37.445068359375
1.7574999000000002,1.0522516965866089,-1.1653777360916138,9.493009567260742,14.2822265625,5.92041015625,16.876220703125
1.7624999000000001,-0.8086416125297546,-0.4297592043876648,9.72285270690918,-20.660400390625,-3.2958984375,-20.6298828125
1.7674999000000002,-1.3120225667953491,0.17298106849193573,9.949105262756348,-13.3056640625,-8.026123046875,-2.0751953125
1.7724999000000001,-1.659181833267212,0.4082113802433014,10.017339706420898,-18.310546875,-31.005859375,29.205322265625
1.7774999000000002,-1.3401544094085693,-0.076015904545784,9.95748519897461,-29.6630859375,-33.8134765625,32.684326171875
1.7824999000000001,-0.5045779943466187,-0.557250440120697,9.756970405578613,-16.357421875,-24.871826171875,42.8466796875
1.7874999000000003,0.4429273009300232,-1.544858694076538,9.4636812210083,14.190673828125,-23.223876953125,63.140869140625
1.7924999000000001,1.1294646263122559,-2.078765630722046,9.131484985351562,29.84619140625,-10.19287109375,63.568115234375
1.7974999,1.1294646263122559,-2.078765630722046,9.131484985351562,29.84619140625,-10.19287109375,63.568115234375
1.8024999000000002,1.1893197298049927,0.6380547285079956,10.15141487121582,-1.3427734375,5.7373046875,-21.1181640625
1.8074999,1.1893197298049927,0.6380547285079956,10.15141487121582,-1.3427734375,5.7373046875,-21.1181640625
1.8124999000000002,1.4036006927490234,0.943913996219635,10.331579208374023,-0.67138671875,22.552490234375,-26.91650390625
1.8174999,1.4622586965560913,0.6171054840087891,10.144232749938965,1.190185546875,29.632568359375,-35.33935546875
1.8224999000000002,1.2120646238327026,0.08978256583213806,10.034099578857422,11.322021484375,34.85107421875,-59.2041015625
1.8274999,0.6709750294685364,-0.707486629486084,9.694122314453125,9.674072265625,23.74267578125,-63.873291015625
1.8324999000000002,0.17417816817760468,-0.4106055796146393,9.818022727966309,-4.94384765625,3.11279296875,-50.84228515625
1.8374999,-0.5776011347770691,-0.606930136680603,9.774328231811523,-20.1416015625,-3.47900390625,-26.18408203125
1.8424999000000002,1.2401964664459229,0.50876784324646,10.055646896362305,-0.823974609375,2.38037109375,-16.7236328125
1.8474999,1.4915876388549805,0.973242998123169,10.338163375854492,-0.335693359375,18.798828125,-26.7333984375
1.8524999000000002,1.600523829460144,0.6386532783508301,10.198700904846191,-0.6103515625,28.656005859375,-31.036376953125
1.8574999,1.3958195447921753,0.1538274586200714,10.093954086303711,8.544921875,33.721923828125,-52.001953125
1.8624999000000002,0.8768763542175293,-0.5632359385490417,9.809642791748047,12.054443359375,29.052734375,-65.582275390625
1.8674999,0.29807811975479126,-0.436343252658844,9.536704063415527,-0.91552734375,7.232666015625,-55.023193359375
1.8724999000000002,-1.5155296325683594,-0.008978256024420261,9.907206535339355,-13.0615234375,-17.913818359375,12.725830078125
1.8774999,-1.5155296325683594,-0.008978256024420261,9.907206535339355,-13.0615234375,-17.913818359375,12.725830078125
1.8824999000000002,-1.5550340414047241,-0.19213469326496124,10.093954086303711,-25.604248046875,-35.552978515625,35.09521484375
1.8874999000000001,-0.945111095905304,-0.3645172119140625,9.9371337890625,-28.045654296875,-27.679443359375,33.294677734375
1.8924999000000002,-0.0975637212395668,-1.1049240827560425,9.78869342803955,2.50244140625,-26.3671875,55.999755859375
1.8974999000000001,0.7661445140838623,-1.6077064275741577,9.379284858703613,25.634765625,-17.852783203125,65.460205078125
1.9024999000000002,1.1492167711257935,-1.9788076877593994,9.175179481506348,25.390625,-1.0986328125,53.03955078125
1.9074999000000001,1.1468225717544556,-1.5101426839828491,9.276334762573242,18.890380859375,7.659912109375,31.6162109375
1.9124999000000003,1.0630255937576294,-0.7691373229026794,9.622296333312988,10.8642578125,3.173828125,11.29150390625
1.9174999000000001,1.1641805171966553,0.1215057373046875,9.920374870300293,0.732421875,0.732421875,-11.993408203125
1.9224999,-1.425148606300354,0.0017956512747332454,9.996390342712402,-10.589599609375,-11.71875,5.06591796875
1.9274999000000002,-1.6136919260025024,0.46806642413139343,10.13286018371582,-21.148681640625,-32.196044921875,32.89794921875
1.9324999,-1.2072762250900269,0.12210428714752197,10.008959770202637,-29.998779296875,-30.70068359375,29.754638671875
1.9374999000000002,-0.39863458275794983,-0.444722980260849,9.831191062927246,-6.9580078125,-25.177001953125,46.142578125
1.9424999,0.4638765752315521,-1.3850456476211548,9.449316024780273,19.4091796875,-21.331787109375,62.31689453125
1.9474999000000002,1.0426748991012573,-1.9800047874450684,9.173383712768555,25.93994140625,-5.92041015625,55.999755859375
1.9524999,1.1659762859344482,-1.8914192914962769,9.156624794006348,18.98193359375,6.561279296875,34.66796875
1.9574999000000002,1.1420341730117798,-1.1971008777618408,9.515155792236328,13.0615234375,4.302978515625,14.6484375
1.9624999,1.4299370050430298,0.5716156363487244,10.171167373657227,-0.030517578125,10.406494140625,-22.003173828125
1.9674999000000002,1.5951368808746338,0.7523778676986694,10.267534255981445,0.18310546875,23.74267578125,-25.299072265625
1.9724999,1.5304933786392212,0.46806642413139343,10.095749855041504,1.861572265625,29.1748046875,-36.56005859375
1.9774999000000002,1.1414356231689453,0.0017956512747332454,9.975440979003906,10.31494140625,33.935546875,-61.798095703125
1.9824999,0.5536591410636902,-0.7422025203704834,9.661202430725098,7.26318359375,18.829345703125,-62.042236328125
1.9874999000000002,-0.011971008032560349,-0.4818331003189087,9.833584785461426,-9.27734375,1.495361328125,-46.600341796875
1.9924999,-0.7368155717849731,-0.6129156351089478,9.713275909423828,-18.00537109375,-2.50244140625,-21.209716796875
1.9974999000000002,-1.184531331062317,-0.02693476900458336,9.955090522766113,-10.650634765625,-7.080078125,-2.044677734375
2.0024999,0.2256535142660141,-1.6508020162582397,9.515754699707031,14.70947265625,-24.169921875,60.48583984375
2.0074999,1.1659762859344482,-1.0468647480010986,9.442132949829102,15.380859375,6.072998046875,20.477294921875
2.0124999000000003,1.1300631761550903,-0.228047713637352,9.803657531738281,5.828857421875,0.67138671875,0.06103515625
2.0174999000000002,1.3293805122375488,0.608127236366272,10.120290756225586,0,6.011962890625,-19.256591796875
2.0224999,1.535880446434021,0.9600749015808105,10.326790809631348,1.0986328125,21.331787109375,-24.200439453125
2.0274999,1.5963339805603027,0.578798234462738,10.147225379943848,0.091552734375,28.350830078125,-30.975341796875
2.0324999000000004,1.30543851852417,0.10594342648983002,10.064026832580566,8.9111328125,34.11865234375,-56.854248046875
2.0374999000000003,0.7763199210166931,-0.5883750915527344,9.769539833068848,10.6201171875,25.054931640625,-66.0400390625
2.0424999,0.23762452602386475,-0.43514615297317505,9.666589736938477,-3.631591796875,4.7607421875,-53.070068359375
2.0474999,-0.5045779943466187,-0.6488286852836609,9.721057891845703,-17.730712890625,-3.204345703125,-29.9072265625
2.0524999,-1.037886381149292,-0.12988543510437012,9.746196746826172,-12.298583984375,-4.302978515625,-6.561279296875
2.0574999000000003,-1.5670050382614136,-0.0035913025494664907,9.955090522766113,-13.092041015625,-20.050048828125,17.76123046875
2.0624999,-0.9762357473373413,-0.43095630407333374,9.853337287902832,-24.444580078125,-25.909423828125,31.31103515625
2.0674999,-0.13407529890537262,-1.2533645629882812,9.732429504394531,6.683349609375,-25.604248046875,55.2978515625
2.0724999,0.7457938194274902,-1.6011223793029785,9.352949142456055,24.4140625,-15.80810546875,62.68310546875
2.0774999000000003,1.1558008193969727,-1.834557056427002,9.226056098937988,22.216796875,1.0986328125,48.4619140625
2.0824999,1.183334231376648,-0.5309142470359802,9.698312759399414,8.4228515625,1.52587890625,7.568359375
2.0874999,1.3012486696243286,0.23523031175136566,9.959280967712402,0.274658203125,2.38037109375,-14.16015625
2.0924999,1.5376760959625244,0.8146271109580994,10.238204956054688,0.885009765625,16.6015625,-23.773193359375
2.0974999000000003,1.625662922859192,0.5722141861915588,10.147225379943848,-0.67138671875,26.214599609375,-27.252197265625
2.1024999,1.392826795578003,0.21547815203666687,10.057442665100098,5.4931640625,31.31103515625,-47.9736328125
2.1074999,0.9038111567497253,-0.3256114423274994,9.855731010437012,11.474609375,29.78515625,-65.12451171875
2.1124999,0.29628247022628784,-0.557250440120697,9.525331497192383,0.67138671875,9.70458984375,-55.23681640625
2.1174999000000003,-0.9642647504806519,-0.19273324310779572,9.585784912109375,-15.0146484375,-3.2958984375,-10.19287109375
2.1224999,-1.4484920501708984,-0.06703764945268631,9.965266227722168,-11.871337890625,-14.984130859375,9.246826171875
2.1274999,-1.4772224426269531,0.2885012924671173,10.183736801147461,-24.444580078125,-34.210205078125,34.24072265625
2.1324999,-0.9768342971801758,-0.1280897855758667,10.022128105163574,-28.38134765625,-27.7099609375,30.303955078125
2.1374999000000003,-0.152031809091568,-0.7428010702133179,9.86351203918457,-0.762939453125,-25.848388671875,51.971435546875
2.1424999000000002,0.6991068720817566,-1.5598224401474,9.403825759887695,22.491455078125,-20.050048828125,65.7958984375
2.1474999,1.1264718770980835,-2.1122844219207764,9.150040626525879,25.93994140625,-2.288818359375,56.915283203125
2.1524999,1.1593921184539795,-1.8291701078414917,9.213486671447754,18.24951171875,7.2021484375,33.5693359375
2.1574999000000004,1.0935516357421875,-1.0504560470581055,9.563638687133789,11.383056640625,2.9296875,12.63427734375
2.1624999000000003,1.5957354307174683,0.707486629486084,10.244190216064453,0.396728515625,25.5126953125,-25.848388671875
2.1674999,1.4754267930984497,0.42616790533065796,10.104728698730469,3.082275390625,31.219482421875,-42.66357421875
2.1724999,1.0743980407714844,-0.053270988166332245,9.962871551513672,11.077880859375,32.928466796875,-65.673828125
2.1774999000000004,0.49320554733276367,-0.7541735172271729,9.61331844329834,4.547119140625,14.923095703125,-61.4013671875
2.1824999000000003,-0.14245499670505524,-0.6847416758537292,9.798869132995605,-12.8173828125,-0.54931640625,-44.708251953125
2.1874999,-0.7942764163017273,-0.6027402877807617,9.617507934570312,-15.045166015625,-2.74658203125,-16.632080078125
2.1924999,-1.292868971824646,-0.09576806426048279,9.93593692779541,-8.087158203125,-9.735107421875,4.425048828125
2.1974999,-1.567603588104248,0.30526071786880493,10.04427433013916,-20.263671875,-30.609130859375,32.562255859375
2.2024999000000003,-1.2384008169174194,-0.14484919607639313,9.977835655212402,-28.86962890625,-31.18896484375,30.242919921875
2.2074999,-0.48243165016174316,-0.5261258482933044,9.81143856048584,-7.598876953125,-24.871826171875,45.318603515625
2.2124999,0.3734954595565796,-1.4975731372833252,9.509170532226562,19.073486328125,-22.39990234375,62.164306640625
2.2174999,1.002571940422058,-1.8417396545410156,9.236231803894043,24.7802734375,-5.462646484375,55.908203125
2.2224999000000003,1.169567584991455,-1.680729627609253,9.246406555175781,17.08984375,5.767822265625,34.393310546875
2.2274999,1.4089876413345337,0.5985504388809204,10.139444351196289,0.8544921875,10.6201171875,-20.01953125
2.2324999,1.567603588104248,0.7727286219596863,10.242993354797363,1.434326171875,22.674560546875,-23.49853515625
2.2374999,1.470638394355774,0.4423287510871887,10.0765962600708,0.54931640625,28.50341796875,-37.200927734375
2.2424999000000003,1.0989385843276978,0.013766659423708916,9.980229377746582,8.880615234375,32.28759765625,-61.248779296875
2.2474999,0.5452794432640076,-0.7044938206672668,9.671976089477539,7.50732421875,19.073486328125,-60.882568359375
2.2524999,0.005386953707784414,-0.5710170865058899,9.827000617980957,-8.636474609375,1.983642578125,-47.332763671875
2.2574999,-0.6877344250679016,-0.7398083209991455,9.72165584564209,-16.265869140625,-2.8076171875,-20.904541015625
2.2624999000000003,-1.1264718770980835,-0.22206220030784607,9.99339771270752,-8.23974609375,-7.080078125,0.48828125
2.2674999000000002,-1.5173252820968628,0.10175357013940811,10.0580415725708,-18.035888671875,-26.397705078125,26.885986328125
2.2724999,-1.3263877630233765,-0.4878185987472534,10.143633842468262,-28.80859375,-32.40966796875,31.097412109375
2.2774999,-0.6248866319656372,-0.48303020000457764,9.779715538024902,-17.578125,-23.773193359375,37.53662109375
2.2824999000000004,0.9367313981056213,-1.6484078168869019,9.187150001525879,25.0244140625,-10.07080078125,60.150146484375
2.2874999000000003,1.1953052282333374,-1.6226701736450195,9.1662015914917,19.53125,3.7841796875,41.351318359375
2.2924999,1.2006921768188477,-0.9373299479484558,9.437943458557129,12.603759765625,3.7841796875,18.707275390625
2.2974999,1.202487826347351,-0.2819172441959381,9.781511306762695,5.79833984375,0.8544921875,-1.40380859375
2.3024999000000004,1.3449428081512451,0.3902548849582672,10.052654266357422,0.9765625,7.171630859375,-17.913818359375
2.3074999000000003,1.5490485429763794,0.7751228213310242,10.276512145996094,2.838134765625,20.416259765625,-21.484375
2.3124999,1.523909330368042,0.43933600187301636,10.125079154968262,-0.54931640625,27.435302734375,-31.67724609375
2.3174999,1.216254472732544,0.13407529890537262,10.062231063842773,6.28662109375,31.982421875,-55.0537109375
2.3224999,0.6937199234962463,-0.4513070285320282,9.791088104248047,9.70458984375,25.543212890625,-63.65966796875
2.3274999000000003,0.13287819921970367,-0.596754789352417,9.833584785461426,-2.655029296875,6.317138671875,-53.924560546875
2.3324999,-0.5345055460929871,-0.6703764796257019,9.70429801940918,-17.27294921875,-2.86865234375,-30.853271484375
2.3374999,-0.9900023937225342,-0.24600422382354736,9.914389610290527,-8.4228515625,-4.150390625,-5.706787109375
2.3424999,-0.8038532137870789,-0.2519897222518921,9.777320861816406,-25.146484375,-25.0244140625,32.2265625
2.3474999000000003,-0.002394201699644327,-1.0761936902999878,9.670180320739746,9.1552734375,-25.634765625,57.037353515625
2.3524999,0.7906851172447205,-1.5867571830749512,9.248202323913574,25.32958984375,-14.007568359375,61.5234375
2.3574999,1.1204863786697388,-1.8704700469970703,9.208099365234375,21.42333984375,0.762939453125,46.44775390625
2.3624999,1.1204863786697388,-1.8704700469970703,9.208099365234375,21.42333984375,0.762939453125,46.44775390625
2.3674999000000003,1.12467622756958,-1.3736732006072998,9.405621528625488,13.00048828125,4.150390625,22.796630859375
2.3724999,1.0923545360565186,-0.6482301354408264,9.7605619430542,8.209228515625,1.068115234375,3.662109375
2.3774999,1.1755530834197998,0.0017956512747332454,10.002376556396484,1.77001953125,3.662109375,-14.556884765625
2.3824999,1.4311341047286987,0.6811503767967224,10.2747163772583,3.082275390625,16.571044921875,-19.927978515625
2.3874999000000003,1.489791989326477,0.5476736426353455,10.210671424865723,-0.1220703125,25.2685546875,-27.4658203125
2.3924999000000002,1.2689268589019775,0.33937808871269226,10.11430549621582,2.593994140625,29.998779296875,-48.065185546875
2.3974999,-0.8026561141014099,-0.20889410376548767,9.683947563171387,-11.016845703125,-2.13623046875,-13.61083984375
2.4024999,-1.2575544118881226,-0.18136078119277954,9.909601211547852,-10.406494140625,-14.007568359375,11.29150390625
2.4074999000000004,-1.2575544118881226,-0.18136078119277954,9.909601211547852,-10.406494140625,-14.007568359375,11.29150390625
2.4124999000000003,-1.304241418838501,0.09457096457481384,10.1753568649292,-23.529052734375,-31.3720703125,33.87451171875
2.4174999,-0.9085995554924011,-0.3687070608139038,10.035895347595215,-27.89306640625,-27.83203125,30.426025390625
2.4224999,-0.16879121959209442,-0.828393816947937,9.869498252868652,-2.3193359375,-24.4140625,49.01123046875
2.4274999000000004,0.6009446382522583,-1.669357180595398,9.470264434814453,22.15576171875,-18.85986328125,62.042236328125
2.4324999000000003,1.0761936902999878,-1.8920178413391113,9.239224433898926,24.200439453125,-3.662109375,52.8564453125
2.4374999,1.1264718770980835,-1.5981296300888062,9.264962196350098,15.13671875,4.974365234375,29.571533203125
2.4424999,1.0678139925003052,-0.8146271109580994,9.611522674560547,10.040283203125,2.288818359375,9.6435546875
2.4474999,1.081580638885498,-0.13347674906253815,9.87967300415039,2.960205078125,1.190185546875,-9.82666015625
2.4524999000000003,0.9391255974769592,0.03651157766580582,9.961674690246582,7.6904296875,31.3720703125,-61.279296875
2.4574999,0.9391255974769592,0.03651157766580582,9.961674690246582,7.6904296875,31.3720703125,-61.279296875
2.4624999,0.4141969084739685,-0.5590460896492004,9.661202430725098,6.622314453125,17.486572265625,-61.187744140625
2.4674999,-0.17058686912059784,-0.6715735793113708,9.744999885559082,-11.077880859375,0.48828125,-47.4853515625
2.4724999000000003,-0.6961141228675842,-0.6536170840263367,9.66299819946289,-13.519287109375,-1.46484375,-20.233154296875
2.4774999,-1.1342530250549316,-0.3555389642715454,9.959878921508789,-7.904052734375,-9.46044921875,4.5166015625
2.4824999,-1.091755986213684,-0.6230909824371338,10.142436981201172,-28.778076171875,-30.57861328125,32.257080078125
2.4874999,-0.35673606395721436,-0.6619967818260193,9.789292335510254,-13.97705078125,-23.4375,41.56494140625
2.4924999000000003,0.4183867573738098,-1.6172832250595093,9.55466079711914,18.37158203125,-22.674560546875,62.042236328125
2.4974999,1.0576386451721191,-1.6759412288665771,9.15961742401123,25.69580078125,-8.148193359375,59.08203125
2.5024999,1.1228805780410767,-0.7930793166160583,9.481637001037598,11.749267578125,3.662109375,15.411376953125
2.5074999,1.0761936902999878,-0.14903905987739563,9.82879638671875,5.401611328125,0.701904296875,-3.90625
2.5124999000000003,1.2413935661315918,0.4884171485900879,10.085575103759766,1.40380859375,7.965087890625,-18.61572265625
2.5174999000000002,1.4389152526855469,0.828393816947937,10.304045677185059,2.74658203125,20.99609375,-22.674560546875
2.5224999,1.40180504322052,0.47824180126190186,10.161590576171875,-1.068115234375,27.03857421875,-34.24072265625
2.5274999,1.071405291557312,0.18974047899246216,10.07779312133789,5.18798828125,31.3720703125,-56.5185546875
2.5324999000000004,0.545877993106842,-0.45010992884635925,9.791088104248047,8.575439453125,23.0712890625,-64.51416015625
2.5374999000000003,0.005985504016280174,-0.6745663285255432,9.873088836669922,-4.669189453125,4.21142578125,-53.253173828125
2.5424999,-0.5740098357200623,-0.7733271718025208,9.67077922821045,-15.5029296875,-1.556396484375,-28.289794921875
2.5474999,-0.9307458996772766,-0.46627077460289,9.923966407775879,-6.7138671875,-5.706787109375,-2.227783203125
2.5524999000000004,-1.2922704219818115,-0.10354922711849213,9.932345390319824,-16.265869140625,-22.64404296875,24.810791015625
2.5574999000000003,-1.113303780555725,-0.20889410376548767,10.019734382629395,-26.2451171875,-32.04345703125,35.2783203125
2.5624999,1.0570400953292847,-1.1007342338562012,9.506776809692383,11.77978515625,3.997802734375,18.6767578125
2.5674999,1.0079588890075684,-0.4189853072166443,9.81024169921875,6.317138671875,0.518798828125,-0.8544921875
2.5724999,1.1127052307128906,0.16819266974925995,10.034099578857422,1.251220703125,5.0048828125,-16.143798828125
2.5774999000000003,1.3682862520217896,0.7308300733566284,10.268731117248535,3.0517578125,18.157958984375,-20.294189453125
2.5824999,1.390432596206665,0.4794389009475708,10.179547309875488,-0.640869140625,25.2685546875,-30.609130859375
2.5874999,1.1300631761550903,0.2819172441959381,10.092158317565918,2.410888671875,29.96826171875,-51.239013671875
2.5924999,0.6476315855979919,-0.2867056429386139,9.84256362915039,8.72802734375,26.702880859375,-64.94140625
2.5974999000000003,0.10714052617549896,-0.47584760189056396,9.838972091674805,0.762939453125,7.9345703125,-55.328369140625
2.6024999,-0.8044517636299133,-0.2472013235092163,9.864709854125977,-7.87353515625,-4.302978515625,-5.92041015625
2.6074999,-1.2222399711608887,-0.15502455830574036,9.917980194091797,-12.6953125,-18.85986328125,19.500732421875
2.6124999,-1.0893617868423462,0.15562310814857483,10.113107681274414,-25.08544921875,-31.3720703125,35.09521484375
2.6174999000000003,-0.6488286852836609,-0.28131869435310364,9.858723640441895,-25.45166015625,-25.634765625,31.982421875
2.6224999,0.07182604819536209,-0.8661024570465088,9.743802070617676,5.096435546875,-23.529052734375,52.825927734375
2.6274999,0.7661445140838623,-1.6089035272598267,9.302072525024414,23.4375,-15.44189453125,61.58447265625
2.6324999,1.0696096420288086,-1.896806240081787,9.174580574035645,21.209716796875,-1.64794921875,49.01123046875
2.6374999000000003,1.0576386451721191,-1.5179238319396973,9.301473617553711,13.458251953125,4.57763671875,25.20751953125
2.6424999000000002,1.346139907836914,0.5662286877632141,10.20887565612793,2.777099609375,15.2587890625,-20.416259765625
2.6474999,1.4443022012710571,0.5386953949928284,10.225635528564453,0.732421875,24.200439453125,-26.9775390625
2.6524999,-1.1641805171966553,-0.24480712413787842,9.881468772888184,-9.6435546875,-14.46533203125,13.702392578125
2.6574999000000004,-1.1785458326339722,-0.06584054976701736,10.110115051269531,-22.491455078125,-29.510498046875,33.87451171875
2.6624999000000003,-0.8254010081291199,-0.5656301379203796,10.004770278930664,-26.214599609375,-27.374267578125,31.3720703125
2.6674999,-0.10235211998224258,-0.9253589510917664,9.856928825378418,-2.86865234375,-21.575927734375,45.562744140625
2.6724999,0.6230909824371338,-1.692102074623108,9.501389503479004,21.209716796875,-17.791748046875,60.272216796875
2.6774999000000004,1.0809820890426636,-1.7501614093780518,9.26795482635498,22.15576171875,-3.84521484375,51.513671875
2.6824999000000003,1.1312602758407593,-1.3946224451065063,9.311649322509766,15.045166015625,4.547119140625,27.4658203125
2.6874999,1.0636241436004639,-0.6350619792938232,9.605537414550781,9.27734375,2.3193359375,5.7373046875
2.6924999,1.2826935052871704,0.6308721303939819,10.125677108764648,2.50244140625,13.671875,-19.012451171875
2.6974999,1.4083890914916992,0.729034423828125,10.217255592346191,2.044677734375,22.735595703125,-23.8037109375
2.7024999000000003,1.2497732639312744,0.42856210470199585,10.086771965026855,-0.457763671875,27.4658203125,-40.008544921875
2.7074999,0.8439561128616333,0.04429273307323456,9.967061996459961,6.591796875,30.792236328125,-62.744140625
2.7124999,0.314238965511322,-0.45190557837486267,9.707889556884766,5.950927734375,15.411376953125,-61.676025390625
2.7174999,-0.2579752206802368,-0.6859387755393982,9.6989107131958,-11.077880859375,0.3662109375,-45.41015625
2.7224999000000003,-0.706289529800415,-0.6278793811798096,9.665990829467773,-11.5966796875,-1.495361328125,-18.24951171875
2.7274999,-1.115697979927063,-0.4854243993759155,9.908403396606445,-7.38525390625,-11.077880859375,8.087158203125
2.7324999,-1.2623428106307983,-0.1825578808784485,10.046669006347656,-20.263671875,-27.77099609375,32.257080078125
2.7374999,-0.9941922426223755,-0.8098387122154236,10.102932929992676,-26.153564453125,-29.96826171875,33.14208984375
2.7424999000000003,-0.29867666959762573,-0.7906851172447205,9.800664901733398,-9.735107421875,-21.54541015625,39.947509765625
2.7474999,0.43993455171585083,-1.6065093278884888,9.600749015808105,18.646240234375,-20.050048828125,58.563232421875
2.7524999,1.4437036514282227,0.7876923680305481,10.247182846069336,2.410888671875,21.05712890625,-22.735595703125
2.7574999,1.3545196056365967,0.42197805643081665,10.081384658813477,-1.5869140625,26.031494140625,-34.423828125
2.7624999000000003,0.9612720012664795,0.07003039866685867,10.012551307678223,5.096435546875,30.181884765625,-58.013916015625
2.7674999000000002,0.4141969084739685,-0.48722004890441895,9.733028411865234,7.598876953125,19.744873046875,-61.58447265625
2.7724999,-0.16101007163524628,-0.6751648783683777,9.79647445678711,-7.9345703125,1.983642578125,-46.905517578125
2.7774999,-0.6817489266395569,-0.6919242739677429,9.68813705444336,-14.190673828125,-1.52587890625,-21.881103515625
2.7824999000000004,-1.0319008827209473,-0.44592007994651794,9.926360130310059,-8.1787109375,-9.674072265625,3.448486328125
2.7874999000000003,-1.2443863153457642,-0.11133038252592087,10.00955867767334,-18.85986328125,-25.909423828125,28.50341796875
2.7924999,-0.3016694188117981,-0.568622887134552,9.75936508178711,-15.80810546875,-21.453857421875,36.31591796875
2.7974999,0.43754035234451294,-1.4646528959274292,9.594164848327637,15.533447265625,-22.15576171875,59.02099609375
2.8024999000000004,1.1623848676681519,-1.589151382446289,9.217676162719727,19.775390625,3.41796875,39.97802734375
2.8074999000000003,1.0708067417144775,-0.9080010056495667,9.488221168518066,12.6953125,3.90625,15.655517578125
2.8124999,1.015141487121582,-0.2172738015651703,9.827000617980957,5.401611328125,-0.18310546875,-4.57763671875
2.8174999,1.1623848676681519,0.4040215313434601,10.082581520080566,1.3427734375,7.720947265625,-18.463134765625
2.8224999,1.3766659498214722,0.8559271097183228,10.323798179626465,2.62451171875,19.989013671875,-21.209716796875
2.8274999000000003,1.3581109046936035,0.5063736438751221,10.150816917419434,-1.708984375,25.81787109375,-31.982421875
2.8324999,1.0438719987869263,0.26096799969673157,10.092757225036621,3.90625,30.94482421875,-56.854248046875
2.8374999,0.5147533416748047,-0.3776853084564209,9.77672290802002,8.48388671875,23.040771484375,-64.239501953125
2.8424999,-0.025737667456269264,-0.6643909811973572,9.838373184204102,-4.33349609375,4.364013671875,-51.055908203125
2.8474999000000003,-0.9193734526634216,-0.46088382601737976,9.847949981689453,-6.9580078125,-7.01904296875,-0.79345703125
2.8524999,-1.2413935661315918,-0.18614917993545532,9.922170639038086,-14.617919921875,-22.735595703125,26.7333984375
2.8574999,-1.0013748407363892,-0.09576806426048279,9.943717956542969,-24.078369140625,-30.33447265625,34.210205078125
2.8624999,-0.44173020124435425,-0.3471592366695404,9.773730278015137,-17.7001953125,-21.728515625,32.318115234375
2.8674999000000003,0.28131869435310364,-1.0779893398284912,9.680954933166504,12.176513671875,-21.636962890625,54.931640625
2.8724999,0.9151836037635803,-1.4867992401123047,9.332598686218262,21.30126953125,-11.3525390625,57.861328125
2.8774999,1.062427043914795,-1.7088614702224731,9.336189270019531,18.37158203125,1.739501953125,40.83251953125
2.8824999,1.1342530250549316,0.1538274586200714,10.001178741455078,1.0986328125,5.9814453125,-17.27294921875
2.8874999000000003,1.391629695892334,0.7068880796432495,10.237606048583984,3.204345703125,19.012451171875,-20.3857421875
2.8924999000000002,1.4113819599151611,0.42437225580215454,10.108319282531738,-1.068115234375,24.932861328125,-29.022216796875
2.8974999,1.12467622756958,0.24121582508087158,10.064026832580566,2.532958984375,29.72412109375,-52.490234375
2.9024999,0.5991489887237549,-0.32381579279899597,9.798869132995605,8.544921875,24.90234375,-63.53759765625
2.9074999000000004,0.0454898327589035,-0.5512649416923523,9.82759952545166,-1.800537109375,6.28662109375,-51.239013671875
2.9124999000000003,-0.536899745464325,-0.778714120388031,9.658209800720215,-14.83154296875,-1.03759765625,-30.181884765625
2.9174999,-0.8601169586181641,-0.3387795388698578,9.844358444213867,-7.965087890625,-5.55419921875,-4.5166015625
2.9224999,-1.213860273361206,-0.16759411990642548,9.907206535339355,-13.214111328125,-20.20263671875,23.284912109375
2.9274999000000004,-1.0127472877502441,0.11971008777618408,10.049661636352539,-23.25439453125,-30.517578125,34.7900390625
2.9324999000000003,-0.5207388401031494,-0.24660277366638184,9.816825866699219,-20.721435546875,-22.64404296875,30.059814453125
2.9374999,0.19393034279346466,-0.8966285586357117,9.75637149810791,7.965087890625,-21.54541015625,51.3916015625
2.9424999,0.8535329103469849,-1.53707754611969,9.34397029876709,21.331787109375,-13.5498046875,58.349609375
2.9474999,1.0552444458007812,-1.8962076902389526,9.261969566345215,20.01953125,0.3662109375,43.792724609375
2.9524999000000003,1.0552444458007812,-1.8962076902389526,9.261969566345215,20.01953125,0.3662109375,43.792724609375
2.9574999,1.3628993034362793,0.6500257849693298,10.22383975982666,3.143310546875,17.303466796875,-19.53125
2.9624999,0.6955155730247498,-0.16519992053508759,9.871294021606445,8.36181640625,26.641845703125,-63.232421875
2.9674999,0.6955155730247498,-0.16519992053508759,9.871294021606445,8.36181640625,26.641845703125,-63.232421875
2.9724999000000003,0.1472434103488922,-0.3824737071990967,9.831191062927246,0.8544921875,8.544921875,-51.6357421875
2.9774999,-0.45489832758903503,-0.7499836683273315,9.694721221923828,-14.251708984375,-0.762939453125,-32.501220703125
2.9824999,-0.8140285611152649,-0.3124433159828186,9.825204849243164,-8.30078125,-4.82177734375,-6.65283203125
2.9874999,-1.2072762250900269,-0.19153612852096558,9.894038200378418,-11.5966796875,-17.88330078125,19.866943359375
2.9924999000000003,-1.103128433227539,-0.02992752194404602,10.052654266357422,-22.4609375,-30.1513671875,33.5693359375
2.9974999,-0.6476315855979919,-0.32381579279899597,9.84495735168457,-23.13232421875,-23.98681640625,28.564453125
3.0024999,0.7739257216453552,-1.5131354331970215,9.406219482421875,20.08056640625,-15.625,58.65478515625
3.0074999,1.0696096420288086,-1.7531541585922241,9.281721115112305,19.34814453125,-1.5869140625,46.2646484375
3.0124999000000003,1.0648212432861328,-1.3910311460494995,9.39903736114502,13.3056640625,4.425048828125,22.918701171875
3.0174999000000002,1.01753568649292,-0.7206547260284424,9.67077922821045,7.293701171875,-0.274658203125,2.197265625
3.0224999,1.083974838256836,-0.15981295704841614,9.904812812805176,2.044677734375,2.899169921875,-14.068603515625
3.0274999,1.3251906633377075,0.5464765429496765,10.187328338623047,3.448486328125,15.5029296875,-18.49365234375
3.0324999000000004,1.4083890914916992,0.5321113467216492,10.186729431152344,0.274658203125,22.8271484375,-24.566650390625
3.0374999000000003,1.1875240802764893,0.345363587141037,10.092158317565918,-0.579833984375,27.984619140625,-44.86083984375
3.0424999,0.2059013396501541,-0.3519476354122162,9.750386238098145,4.058837890625,11.566162109375,-53.802490234375
3.0474999,0.2059013396501541,-0.3519476354122162,9.750386238098145,4.058837890625,11.566162109375,-53.802490234375
3.0524999000000004,-0.3495534360408783,-0.729034423828125,9.619902610778809,-12.603759765625,0.640869140625,-37.2314453125
3.0574999000000003,-0.7122750282287598,-0.44771572947502136,9.701904296875,-8.880615234375,-3.570556640625,-11.138916015625
3.0624999,0.6290764808654785,-1.5568296909332275,9.552266120910645,18.24951171875,-17.63916015625,57.281494140625
3.0674999,1.0684125423431396,-1.5316904783248901,9.358335494995117,19.1650390625,-3.814697265625,47.607421875
3.0724999000000004,1.1103110313415527,-1.1528080701828003,9.421183586120605,13.73291015625,4.241943359375,25.054931640625
3.0774999000000003,1.0761936902999878,-0.4752490520477295,9.64564037322998,7.659912109375,0.335693359375,3.814697265625
3.0824999,1.091755986213684,-0.02274491637945175,9.871294021606445,2.62451171875,1.922607421875,-12.5732421875
3.0874999,1.2838906049728394,0.6129156351089478,10.129867553710938,3.387451171875,13.427734375,-17.08984375
3.0924999,1.3766659498214722,0.6554127335548401,10.183736801147461,1.190185546875,21.148681640625,-22.308349609375
3.0974999000000003,1.1881226301193237,0.35494041442871094,10.075399398803711,-1.77001953125,26.336669921875,-40.0390625
3.1024999,0.7757213711738586,-0.038307227194309235,9.9371337890625,6.317138671875,28.6865234375,-59.02099609375
3.1074999,-0.24420857429504395,-0.751779317855835,9.665990829467773,-9.979248046875,1.953125,-39.36767578125
3.1124999,-0.6500257849693298,-0.6470330357551575,9.697115898132324,-9.46044921875,-2.105712890625,-14.495849609375
3.1174999000000003,-1.0558429956436157,-0.5219359993934631,9.837775230407715,-7.232666015625,-12.420654296875,13.12255859375
3.1224999,-1.1791443824768066,-0.22505496442317963,9.983820915222168,-18.280029296875,-26.580810546875,28.86962890625
3.1274999,-0.9097966551780701,-0.8074445128440857,10.013150215148926,-23.13232421875,-26.702880859375,27.40478515625
3.1324999,-0.22864626348018646,-0.7236474752426147,9.79647445678711,-8.544921875,-19.34814453125,36.590576171875
3.1374999000000003,0.4926069974899292,-1.4903905391693115,9.650428771972656,15.869140625,-18.9208984375,55.7861328125
3.1424999000000002,1.0570400953292847,-1.4071919918060303,9.357138633728027,18.585205078125,-6.77490234375,49.468994140625
3.1474999,1.12467622756958,-1.2000936269760132,9.381080627441406,14.007568359375,2.9296875,28.228759765625
3.1524999,1.0935516357421875,-0.5003881454467773,9.602544784545898,8.209228515625,0.701904296875,6.500244140625
3.1574999000000004,1.07379949092865,-0.07481880486011505,9.808445930480957,3.60107421875,0.06103515625,-9.94873046875
3.1624999000000003,1.217451572418213,0.48722004890441895,10.052056312561035,3.2958984375,10.68115234375,-15.56396484375
3.1674999,1.227626919746399,0.3693056106567383,10.071209907531738,-2.8076171875,24.4140625,-34.820556640625
3.1724999,0.8505401611328125,0.023343466222286224,9.9772367477417,3.84521484375,27.618408203125,-53.375244140625
3.1774999000000004,0.38965633511543274,-0.46507367491722107,9.749189376831055,8.97216796875,19.256591796875,-52.337646484375
3.1824999000000003,-0.13048399984836578,-0.9026140570640564,9.718064308166504,-5.096435546875,4.638671875,-41.015625
3.1874999,-0.5374982953071594,-0.8277952671051025,9.634267807006836,-11.23046875,-0.518798828125,-20.782470703125
3.1924999,-0.8864531517028809,-0.44352585077285767,9.797672271728516,-6.256103515625,-9.27734375,7.965087890625
3.1974999000000004,-1.125873327255249,-0.1041477769613266,9.925163269042969,-15.19775390625,-23.0712890625,25.177001953125
3.2024999000000003,-0.8571242094039917,0.15263035893440247,10.013748168945312,-22.491455078125,-27.28271484375,27.34375
3.2074999,-0.29628247022628784,-0.17417816817760468,9.873088836669922,-16.082763671875,-19.83642578125,30.6396484375
3.2124999,0.4016273319721222,-0.9020155072212219,9.801262855529785,10.467529296875,-19.989013671875,53.5888671875
3.2174999,0.9828197956085205,-1.390432596206665,9.423578262329102,18.096923828125,-10.3759765625,52.734375
3.2224999000000003,1.0558429956436157,-1.7220295667648315,9.424775123596191,15.899658203125,0.946044921875,33.294677734375
3.2274999,1.082777738571167,-0.004788403399288654,9.995792388916016,3.265380859375,7.6904296875,-14.190673828125
3.2324999,1.2946646213531494,0.48901569843292236,10.184335708618164,3.72314453125,17.39501953125,-17.2119140625
3.2374999,1.2503718137741089,0.39145198464393616,10.145429611206055,-2.25830078125,22.88818359375,-30.1513671875
3.2424999000000003,0.9313444495201111,0.14604631066322327,10.031704902648926,1.495361328125,26.580810546875,-47.271728515625
3.2474999,0.5153518915176392,-0.26575639843940735,9.831191062927246,8.97216796875,22.5830078125,-53.28369140625
3.2524999,0.025737667456269264,-0.6416460275650024,9.771934509277344,0.823974609375,8.97216796875,-43.609619140625
3.2574999,-0.3968389332294464,-0.7912836670875549,9.643245697021484,-11.962890625,1.0986328125,-28.900146484375
3.2624999000000003,-0.7344213724136353,-0.39863458275794983,9.804255485534668,-6.28662109375,-5.767822265625,-0.3662109375
3.2674999000000002,-1.0528502464294434,-0.15682020783424377,9.881468772888184,-11.505126953125,-18.98193359375,22.003173828125
3.2724999,-0.9469067454338074,0.008379706181585789,10.061633110046387,-20.904541015625,-27.069091796875,27.2216796875
3.2774999,-0.4854243993759155,-0.22266076505184174,9.901819229125977,-21.087646484375,-21.697998046875,26.30615234375
3.2824999000000004,1.0797849893569946,-1.5873557329177856,9.367912292480469,17.486572265625,-2.01416015625,40.46630859375
3.2874999000000003,1.0217255353927612,-1.236605167388916,9.419986724853516,10.92529296875,2.532958984375,15.289306640625
3.2924999,0.9624691009521484,-0.7158663272857666,9.658209800720215,6.500244140625,-1.068115234375,-3.60107421875
3.2974999,0.9995791912078857,-0.1843535304069519,9.8970308303833,3.082275390625,4.21142578125,-13.3056640625
3.3024999000000004,1.2084733247756958,0.39205053448677063,10.128670692443848,4.425048828125,14.892578125,-14.739990234375
3.3074999000000003,1.2671312093734741,0.4507084786891937,10.159794807434082,-0.30517578125,21.1181640625,-25.848388671875
3.3124999,1.0001777410507202,0.17477671802043915,10.04068374633789,-0.946044921875,25.421142578125,-41.8701171875
3.3174999,0.6338648796081543,-0.1693897694349289,9.877279281616211,6.9580078125,25.0244140625,-53.619384765625
3.3224999000000004,0.16160862147808075,-0.5392939448356628,9.768941879272461,6.103515625,13.36669921875,-46.356201171875
3.3274999000000003,-0.2603694200515747,-0.750582218170166,9.623494148254395,-10.3759765625,2.532958984375,-35.400390625
3.3324999,-0.6015431880950928,-0.5261258482933044,9.745597839355469,-7.4462890625,-2.532958984375,-9.368896484375
3.3374999,-1.0127472877502441,-0.17956513166427612,9.9586820602417,-18.280029296875,-25.32958984375,26.2451171875
3.3424999,-0.7170634269714355,-0.8248024582862854,10.011953353881836,-22.27783203125,-24.35302734375,25.482177734375
3.3474999000000003,-0.03172317147254944,-0.7870938181877136,9.798869132995605,-6.622314453125,-18.798828125,40.0390625
3.3524999,0.6428431272506714,-1.5269020795822144,9.625288963317871,15.655517578125,-17.27294921875,55.908203125
3.3574999,1.0911574363708496,-1.3670891523361206,9.376891136169434,17.9443359375,-5.2490234375,47.027587890625
3.3624999,1.1779472827911377,0.4926069974899292,10.082581520080566,4.5166015625,12.5732421875,-13.24462890625
3.3674999000000003,1.279700756072998,0.6111199855804443,10.18792724609375,1.77001953125,19.59228515625,-21.54541015625
3.3724999,1.0869675874710083,0.33518823981285095,10.09814453125,-2.0751953125,24.4140625,-36.92626953125
3.3774999,-0.1430535465478897,-0.9145850539207458,9.68274974822998,-6.256103515625,4.119873046875,-41.107177734375
3.3824999,-0.48901569843292236,-0.7739257216453552,9.64683723449707,-10.43701171875,0.030517578125,-20.294189453125
3.3874999000000003,-0.8248024582862854,-0.5051765441894531,9.783307075500488,-5.340576171875,-9.82666015625,10.101318359375
3.3924999000000002,-1.026513934135437,-0.13826514780521393,9.88745403289795,-15.716552734375,-22.52197265625,24.810791015625
3.3974999,-0.7954735159873962,-0.08439560979604721,9.9586820602417,-21.97265625,-26.7333984375,27.03857421875
3.4024999,-0.20350714027881622,-0.24600422382354736,9.801861763000488,-15.5029296875,-19.59228515625,32.5927734375
3.4074999000000004,0.45250412821769714,-1.0492589473724365,9.762357711791992,12.237548828125,-19.10400390625,54.6875
3.4124999000000003,0.9971849918365479,-1.3108254671096802,9.436147689819336,18.73779296875,-8.941650390625,52.42919921875
3.4174999,1.028908133506775,-1.5682021379470825,9.48343276977539,14.129638671875,0.640869140625,31.6162109375
3.4224999,0.9528923034667969,-0.9295487999916077,9.616311073303223,8.36181640625,0.701904296875,7.14111328125
3.4274999000000004,0.9193734526634216,-0.4944026470184326,9.808445930480957,4.69970703125,-0.762939453125,-9.033203125
3.4324999000000003,1.2473790645599365,0.49978959560394287,10.181343078613281,3.265380859375,17.242431640625,-17.547607421875
3.4374999,1.1713632345199585,0.395043283700943,10.154407501220703,-2.105712890625,22.52197265625,-32.257080078125
3.4424999,0.8439561128616333,0.06763619929552078,9.995193481445312,0.946044921875,25.45166015625,-46.600341796875
3.4474999000000004,0.45010992884635925,-0.28311434388160706,9.80904483795166,9.21630859375,21.453857421875,-51.544189453125
3.4524999000000003,-0.004189853090792894,-0.729034423828125,9.725846290588379,0,7.9345703125,-43.670654296875
3.4574999,-0.37888240814208984,-0.790086567401886,9.59177017211914,-12.02392578125,1.3427734375,-27.740478515625
3.4624999,-0.6560112833976746,-0.29149407148361206,9.843161582946777,-4.82177734375,-6.591796875,3.448486328125
3.4674999,-0.9660604000091553,-0.08319851011037827,9.898228645324707,-13.24462890625,-19.1650390625,20.416259765625
3.4724999000000003,-0.812831461429596,0.22685061395168304,10.16757583618164,-22.247314453125,-26.031494140625,25.726318359375
3.4774999,-0.37648820877075195,-0.23822307586669922,9.935338973999023,-23.223876953125,-21.6064453125,28.411865234375
3.4824999,0.2783259451389313,-0.7763199210166931,9.874286651611328,5.2490234375,-21.453857421875,54.62646484375
3.4874999,0.8433575630187988,-1.468244194984436,9.43255615234375,20.416259765625,-13.18359375,59.26513671875
3.4924999000000003,0.9367313981056213,-1.2449848651885986,9.370306968688965,8.544921875,1.5869140625,15.838623046875
3.4974999,0.8984242081642151,-0.7625532150268555,9.651625633239746,6.89697265625,-1.129150390625,-3.326416015625
3.5024999,0.9666589498519897,-0.1951274424791336,9.869498252868652,3.7841796875,4.669189453125,-12.664794921875
3.5074999,1.1976994276046753,0.3076549172401428,10.121487617492676,4.669189453125,14.984130859375,-15.44189453125
3.5124999000000003,1.224035620689392,0.4315548539161682,10.181941032409668,-0.335693359375,20.904541015625,-26.702880859375
3.5174999000000002,0.9612720012664795,0.1472434103488922,10.064026832580566,-1.3427734375,24.322509765625,-40.374755859375
3.5224999,-0.25737667083740234,-0.8259995579719543,9.596558570861816,-9.82666015625,3.448486328125,-37.65869140625
3.5274999,-0.5171475410461426,-0.5237316489219666,9.751583099365234,-6.622314453125,-2.685546875,-10.19287109375
3.5324999000000004,-0.8619126081466675,-0.5069721937179565,9.857526779174805,-6.8359375,-13.336181640625,16.6015625
3.5374999000000003,-0.8649053573608398,-0.11013327538967133,9.99100399017334,-18.49365234375,-22.735595703125,23.956298828125
3.5424999,0.03411737456917763,-0.6751648783683777,9.79408073425293,-8.148193359375,-19.134521484375,42.633056640625
3.5474999,0.5883750915527344,-1.5077484846115112,9.597756385803223,18.829345703125,-18.00537109375,59.99755859375
3.5524999000000004,0.5883750915527344,-1.5077484846115112,9.597756385803223,18.829345703125,-18.00537109375,59.99755859375
3.5574999000000003,1.0121487379074097,-1.3102269172668457,9.343372344970703,19.134521484375,-5.340576171875,47.4853515625
3.5624999,0.9702502489089966,-1.106719732284546,9.36013126373291,10.009765625,1.46484375,21.8505859375
3.5674999,0.945111095905304,-0.41958385705947876,9.657012939453125,7.01904296875,-0.640869140625,0.6103515625
3.5724999000000004,0.945111095905304,-0.061052143573760986,9.853935241699219,3.72314453125,1.312255859375,-11.23046875
3.5774999000000003,1.1252747774124146,0.42856210470199585,10.095151901245117,4.8828125,11.566162109375,-12.3291015625
3.5824999,1.2515689134597778,0.5704185366630554,10.200496673583984,2.0751953125,18.73779296875,-21.636962890625
3.5874999,1.0648212432861328,0.34835633635520935,10.133459091186523,-2.3193359375,22.979736328125,-35.186767578125
3.5924999,0.6955155730247498,-0.043095629662275314,9.945513725280762,2.105712890625,24.2919921875,-46.966552734375
3.5974999000000003,0.29628247022628784,-0.4100070297718048,9.797672271728516,9.46044921875,18.402099609375,-49.530029296875
3.6024999,-0.6805518269538879,-0.35254621505737305,9.816825866699219,-3.662109375,-8.941650390625,9.246826171875
3.6074999,-0.8864531517028809,-0.04908113554120064,9.892242431640625,-15.716552734375,-19.256591796875,19.10400390625
3.6124999,-0.6919242739677429,0.07122749835252762,10.160393714904785,-22.52197265625,-25.2685546875,26.763916015625
3.6174999000000003,-0.20530278980731964,-0.262763649225235,9.837176322937012,-20.660400390625,-19.805908203125,30.792236328125
3.6224999,0.38307225704193115,-1.0594342947006226,9.838972091674805,12.664794921875,-21.087646484375,58.258056640625
3.6274999,0.882861852645874,-1.4269442558288574,9.385271072387695,21.42333984375,-10.284423828125,55.23681640625
3.6324999,0.9810241460800171,-1.5831658840179443,9.378087997436523,12.969970703125,-0.762939453125,33.660888671875
3.6374999000000003,0.9014169573783875,-0.9911994934082031,9.513958930969238,6.744384765625,0.885009765625,9.94873046875
3.6424999000000002,0.8960300087928772,-0.5722141861915588,9.758766174316406,5.55419921875,-1.220703125,-6.89697265625
3.6474999,1.0019733905792236,0.010175357572734356,9.950302124023438,3.997802734375,6.7138671875,-12.20703125
3.6524999,1.2144588232040405,0.37169981002807617,10.127472877502441,4.425048828125,16.05224609375,-16.2353515625
3.6574999000000004,0.8595184087753296,0.060453593730926514,9.99459457397461,-0.640869140625,23.529052734375,-40.008544921875
3.6624999000000003,0.49320554733276367,-0.20769700407981873,9.835380554199219,7.14111328125,21.820068359375,-49.01123046875
3.6674999,0.058059390634298325,-0.6596025824546814,9.73781681060791,5.096435546875,11.993408203125,-45.2880859375
3.6724999,-0.3172317147254944,-0.9217676520347595,9.570821762084961,-10.772705078125,3.143310546875,-34.637451171875
3.6774999000000004,-0.5297171473503113,-0.43694180250167847,9.765948295593262,-4.669189453125,-4.180908203125,-2.38037109375
3.6824999000000003,-0.8690952062606812,-0.4513070285320282,9.882665634155273,-9.033203125,-14.495849609375,15.350341796875
3.6874999,-0.7667431235313416,0.10474632680416107,10.083779335021973,-20.44677734375,-22.003173828125,22.674560546875
3.6924999,-0.5141547918319702,-0.568622887134552,10.042478561401367,-25.146484375,-23.49853515625,27.252197265625
3.6974999000000004,0.1454477459192276,-0.6242880821228027,9.81263542175293,-5.0048828125,-19.378662109375,45.71533203125
3.7024999000000003,0.6003460884094238,-1.5280991792678833,9.527127265930176,21.209716796875,-17.425537109375,59.87548828125
3.7074999,0.9528923034667969,-1.3886369466781616,9.321824073791504,17.9443359375,-4.974365234375,43.701171875
3.7124999,0.8930372595787048,-1.1402385234832764,9.345168113708496,7.080078125,0.518798828125,18.85986328125
3.7174999,0.943913996219635,-0.09277531504631042,9.847949981689453,3.84521484375,2.0751953125,-10.650634765625
3.7224999000000003,1.1558008193969727,0.32620999217033386,10.08318042755127,5.31005859375,12.3291015625,-12.87841796875
3.7274999,1.238999366760254,0.4752490520477295,10.177152633666992,1.77001953125,18.768310546875,-22.5830078125
3.7324999,1.037886381149292,0.2795230448246002,10.11550235748291,-2.166748046875,22.369384765625,-33.87451171875
3.7374999,0.6524199843406677,-0.10295066982507706,9.910798072814941,1.922607421875,23.01025390625,-44.281005859375
3.7424999000000003,0.27653029561042786,-0.4118026793003082,9.813234329223633,9.521484375,17.669677734375,-46.9970703125
3.7474999,-0.12270283699035645,-0.9481038451194763,9.618106842041016,-3.7841796875,7.38525390625,-41.595458984375
3.7524999,-0.3711012601852417,-0.7194576263427734,9.617507934570312,-9.3994140625,0.457763671875,-21.78955078125
3.7574999,-0.6141127347946167,-0.2825157940387726,9.815030097961426,-2.38037109375,-9.21630859375,11.16943359375
3.7624999000000003,-0.6129156351089478,0.06703764945268631,10.176554679870605,-21.6064453125,-24.23095703125,28.106689453125
3.7674999000000002,0.36092591285705566,-1.1438298225402832,9.855731010437012,12.63427734375,-20.56884765625,57.159423828125
3.7724999,0.7966706156730652,-1.4532804489135742,9.384073257446289,21.17919921875,-10.8642578125,52.337646484375
3.7774999,0.900818407535553,-1.5071499347686768,9.3828763961792,11.474609375,-1.708984375,30.120849609375
3.7824999000000004,0.8481459617614746,-0.8720879554748535,9.505578994750977,5.828857421875,0.213623046875,8.4228515625
3.7874999000000003,0.889445960521698,-0.5081692934036255,9.725846290588379,5.4931640625,-1.190185546875,-7.080078125
3.7924999,1.015141487121582,0.016160860657691956,9.925163269042969,4.39453125,7.26318359375,-11.474609375
3.7974999,1.2222399711608887,0.3196259140968323,10.102932929992676,4.913330078125,15.625,-15.9912109375
3.8024999000000004,1.1516109704971313,0.38965633511543274,10.165780067443848,-0.732421875,19.989013671875,-27.64892578125
3.8074999000000003,0.8331822156906128,0.028730420395731926,10.016741752624512,-1.15966796875,22.39990234375,-37.139892578125
3.8124999,0.45848962664604187,-0.20709845423698425,9.864709854125977,5.9814453125,21.240234375,-46.0205078125
3.8174999,0.06524199992418289,-0.689530074596405,9.75278091430664,6.2255859375,12.725830078125,-43.304443359375
3.8224999000000004,-0.28730419278144836,-0.9630676507949829,9.566631317138672,-9.46044921875,4.669189453125,-35.614013671875
3.8274999000000003,-0.7182605266571045,0.10235211998224258,10.00836181640625,-19.6533203125,-19.59228515625,19.256591796875
3.8324999,-0.5081692934036255,-0.5039794445037842,10.124480247497559,-23.956298828125,-23.62060546875,28.411865234375
3.8374999,0.13287819921970367,-0.29209262132644653,9.791686058044434,-9.27734375,-18.12744140625,40.557861328125
3.8424999,0.9163807034492493,-1.1127052307128906,9.374496459960938,18.00537109375,-6.34765625,43.121337890625
3.8474999000000003,0.8637082576751709,-1.138442873954773,9.384672164916992,6.622314453125,-0.18310546875,20.20263671875
3.8524999,0.8690952062606812,-0.6135141849517822,9.701904296875,7.080078125,-1.15966796875,2.01416015625
3.8574999,0.9187749028205872,-0.31783026456832886,9.801861763000488,4.058837890625,1.129150390625,-9.674072265625
3.8624999,1.1192892789840698,0.09816227108240128,10.034099578857422,5.706787109375,11.23046875,-12.63427734375
3.8674999000000003,1.2419921159744263,0.3166331648826599,10.133459091186523,2.899169921875,17.791748046875,-20.294189453125
3.8724999,1.0761936902999878,0.23822307586669922,10.129867553710938,-2.01416015625,21.17919921875,-30.57861328125
3.8774999,0.3381809890270233,-0.31364041566848755,9.855731010437012,9.09423828125,17.974853515625,-44.281005859375
3.8824999,-0.05746084079146385,-0.8146271109580994,9.661202430725098,-0.274658203125,9.735107421875,-40.374755859375
3.8874999000000003,-0.3345896899700165,-0.7793126702308655,9.643844604492188,-10.101318359375,2.25830078125,-27.313232421875
3.8924999000000002,-0.5315127968788147,-0.24001872539520264,9.85034465789795,-2.105712890625,-7.965087890625,8.97216796875
3.8974999,-0.7655459642410278,-0.18794482946395874,9.874286651611328,-12.6953125,-14.984130859375,11.871337890625
3.9024999,-0.5847837924957275,0.3256114423274994,10.176554679870605,-20.69091796875,-22.03369140625,25.87890625
3.9074999000000004,-0.27712884545326233,-0.5805938839912415,9.911396026611328,-23.834228515625,-20.172119140625,27.801513671875
3.9124999000000003,0.2777273952960968,-0.9163807034492493,9.804854393005371,4.150390625,-19.53125,51.33056640625
3.9174999,0.6512228846549988,-1.71245276927948,9.435548782348633,21.270751953125,-14.34326171875,54.229736328125
3.9224999,0.8541314601898193,-1.634641170501709,9.334992408752441,13.24462890625,-3.570556640625,33.050537109375
3.9274999000000004,0.8122329115867615,-0.9720458984375,9.404424667358398,5.55419921875,-0.091552734375,11.993408203125
3.9324999000000003,0.8804676532745361,-0.49559974670410156,9.702502250671387,6.500244140625,-1.8310546875,-4.150390625
3.9374999,1.2108675241470337,0.3064578175544739,10.061633110046387,6.04248046875,14.495849609375,-14.16015625
3.9424999,1.2294225692749023,0.4129997789859772,10.13166332244873,0.732421875,18.707275390625,-23.8037109375
3.9474999000000004,0.9349357485771179,0.15322890877723694,10.053851127624512,-2.01416015625,21.66748046875,-33.599853515625
3.9524999000000003,0.5530605912208557,-0.15023615956306458,9.874286651611328,3.2958984375,21.3623046875,-43.182373046875
3.9574999,0.16879121959209442,-0.5428852438926697,9.778518676757812,8.544921875,14.892578125,-42.266845703125
3.9624999,-0.16998831927776337,-0.9534908533096313,9.59596061706543,-5.767822265625,7.568359375,-39.1845703125
3.9674999000000004,-0.3866635859012604,-0.6883329749107361,9.631275177001953,-7.01904296875,-1.068115234375,-15.411376953125
3.9724999000000003,-0.6093243360519409,-0.39564183354377747,9.807249069213867,-2.3193359375,-10.8642578125,14.129638671875
3.9774999,-0.6997054219245911,0.02214636653661728,9.86231517791748,-16.937255859375,-16.357421875,13.763427734375
3.9824999,-0.5207388401031494,-0.1538274586200714,10.202292442321777,-21.636962890625,-23.712158203125,28.778076171875
3.9874999,-0.013766659423708916,-0.2621650993824005,9.774927139282227,-18.49365234375,-17.669677734375,31.73828125
3.9924999000000003,0.4225766062736511,-1.1677719354629517,9.879075050354004,15.472412109375,-20.3857421875,57.80029296875
3.9974999,0.8038532137870789,-0.7422025203704834,9.589376449584961,6.16455078125,-0.823974609375,5.7373046875
4.0024999,0.8607155084609985,-0.5021837949752808,9.734824180603027,4.82177734375,-0.9765625,-8.514404296875
4.0074999,1.0241197347640991,0.002394201699644327,9.950302124023438,5.035400390625,8.4228515625,-11.322021484375
4.0124999,1.206079125404358,0.2585737705230713,10.105326652526855,4.82177734375,16.204833984375,-16.326904296875
4.0174999,1.1150994300842285,0.32860419154167175,10.159195899963379,-1.068115234375,19.805908203125,-27.40478515625
4.022499900000001,0.7577648162841797,-0.04249707981944084,10.001178741455078,-1.007080078125,21.97265625,-37.53662109375
4.0274999000000005,0.41120412945747375,-0.21368250250816345,9.869498252868652,6.591796875,19.195556640625,-42.999267578125
4.0324999,0.03292027488350868,-0.7469909191131592,9.706093788146973,5.096435546875,12.542724609375,-40.313720703125
4.0374999,-0.26096799969673157,-0.9792284965515137,9.561244010925293,-8.97216796875,5.67626953125,-36.285400390625
4.0424999,-0.43694180250167847,-0.5291185975074768,9.708487510681152,-3.2958984375,-4.364013671875,-1.678466796875
4.0474999,-0.7386112213134766,-0.7194576263427734,9.888052940368652,-6.683349609375,-12.481689453125,13.18359375
4.0524999,-0.6392518281936646,0.14365209639072418,10.033500671386719,-19.1650390625,-18.463134765625,18.85986328125
4.0574999,-0.44592007994651794,-0.4489128291606903,10.131064414978027,-23.13232421875,-22.5830078125,27.9541015625
4.062499900000001,0.20470423996448517,-0.22385786473751068,9.806650161743164,-8.60595703125,-17.425537109375,41.07666015625
4.0674999000000005,0.5764040350914001,-1.0881646871566772,9.64803409576416,20.3857421875,-18.218994140625,58.4716796875
4.0724999,0.9367313981056213,-1.0708067417144775,9.369110107421875,16.510009765625,-5.43212890625,39.00146484375
4.0774999,0.8517372608184814,-1.081580638885498,9.422380447387695,5.889892578125,-0.6103515625,16.17431640625
4.0824999,0.8918401598930359,-0.33997663855552673,9.806051254272461,3.662109375,1.89208984375,-10.8642578125
4.0874999,1.0636241436004639,0.04489128291606903,10.022128105163574,6.04248046875,11.77978515625,-11.41357421875
4.0924999,1.1761516332626343,0.25498247146606445,10.11669921875,2.960205078125,16.876220703125,-19.59228515625
4.0974999,0.9750386476516724,0.19931729137897491,10.110713958740234,-1.922607421875,20.56884765625,-31.67724609375
4.1024999,0.6075286865234375,-0.12689268589019775,9.911994934082031,0.640869140625,21.30126953125,-40.496826171875
4.1074999000000005,0.2825157940387726,-0.30286651849746704,9.841365814208984,8.331298828125,16.204833984375,-40.924072265625
4.1124999,-0.7128735780715942,-0.22026655077934265,9.856928825378418,-12.359619140625,-14.678955078125,12.39013671875
4.1174999,-0.5608417391777039,0.3423708379268646,10.18792724609375,-20.08056640625,-21.453857421875,23.4375
4.1224999,-0.28131869435310364,-0.5345055460929871,9.928155899047852,-23.5595703125,-19.989013671875,26.91650390625
4.1274999,0.2645592987537384,-0.7942764163017273,9.824007987976074,2.838134765625,-20.01953125,51.6357421875
4.1324999,0.6434416770935059,-1.655590534210205,9.484031677246094,20.660400390625,-14.556884765625,54.412841796875
4.1374999,0.8541314601898193,-1.5640122890472412,9.364919662475586,12.939453125,-3.2958984375,33.050537109375
4.1424999,0.8050503134727478,-0.9630676507949829,9.44752025604248,5.43212890625,-0.8544921875,11.77978515625
4.147499900000001,0.8583213090896606,-0.5147533416748047,9.719860076904297,6.28662109375,-2.197265625,-4.7607421875
4.1524999000000005,0.9421183466911316,-0.028730420395731926,9.854534149169922,4.058837890625,4.82177734375,-11.23046875
4.1574999,0.8553285598754883,0.1843535304069519,10.073004722595215,-2.410888671875,21.331787109375,-35.0341796875
4.1624999,-0.12689268589019775,-0.9307458996772766,9.62828254699707,-4.7607421875,8.575439453125,-39.459228515625
4.1674999,-0.30286651849746704,-0.7212532758712769,9.654019355773926,-7.26318359375,-0.762939453125,-18.12744140625
4.1724999,-0.5051765441894531,-0.36571431159973145,9.824007987976074,-2.410888671875,-9.94873046875,14.34326171875
4.1774999,-0.5051765441894531,-0.36571431159973145,9.824007987976074,-2.410888671875,-9.94873046875,14.34326171875
4.1824999,-0.6242880821228027,-0.01975216343998909,9.88745403289795,-16.41845703125,-16.41845703125,14.22119140625
4.187499900000001,-0.46746787428855896,-0.06883329898118973,10.22503662109375,-21.148681640625,-22.4609375,26.06201171875
4.1924999000000005,-0.008379706181585789,-0.28730419278144836,9.821015357971191,-20.233154296875,-17.974853515625,31.829833984375
4.1974999,0.44532153010368347,-1.1569979190826416,9.88386344909668,13.336181640625,-21.392822265625,59.478759765625
4.2024999,0.8194155097007751,-0.5386953949928284,9.710882186889648,5.92041015625,-0.732421875,-7.965087890625
4.2074999,0.9469067454338074,-0.013168109580874443,9.932345390319824,5.06591796875,8.056640625,-11.8408203125
4.2124999,1.139639973640442,0.3058592677116394,10.11550235748291,4.608154296875,15.350341796875,-15.472412109375
4.2174999,1.0642226934432983,0.38546648621559143,10.16877269744873,-1.220703125,19.22607421875,-27.252197265625
4.2224999,0.7338228225708008,0.020949264988303185,10.035296440124512,-1.068115234375,21.697998046875,-38.482666015625
4.2274999,0.3998316824436188,-0.1885433793067932,9.88386344909668,6.011962890625,18.98193359375,-43.701171875
4.2324999000000005,0.03172317147254944,-0.7224503755569458,9.745597839355469,5.096435546875,12.63427734375,-41.473388671875
4.2374999,-0.23762452602386475,-0.9714473485946655,9.57860279083252,-8.697509765625,5.0048828125,-36.407470703125
4.2424999,-0.3944447338581085,-0.5961562395095825,9.716269493103027,-3.570556640625,-4.119873046875,-3.082275390625
4.2474999,-0.6721721291542053,-0.6865373253822327,9.865307807922363,-6.16455078125,-13.24462890625,15.655517578125
4.2524999,0.5638344883918762,-1.193509578704834,9.662399291992188,20.172119140625,-18.73779296875,59.14306640625
4.2574999,0.9091981053352356,-1.1103110313415527,9.39365005493164,16.54052734375,-4.730224609375,41.259765625
4.2624999,0.8349778652191162,-1.0336965322494507,9.419387817382812,6.34765625,-0.579833984375,18.402099609375
4.2674999,0.849941611289978,-0.5135562419891357,9.698312759399414,6.378173828125,-1.77001953125,-0.06103515625
4.272499900000001,0.8930372595787048,-0.1933317929506302,9.814431190490723,3.875732421875,1.251220703125,-9.796142578125
4.2774999000000005,1.080383539199829,0.18375498056411743,10.033500671386719,5.2490234375,10.955810546875,-11.871337890625
4.2824999,1.2030863761901855,0.365115761756897,10.11430549621582,2.288818359375,16.632080078125,-19.561767578125
4.2874999,1.0001777410507202,0.2555810213088989,10.110713958740234,-2.288818359375,20.050048828125,-32.1044921875
4.2924999,0.6272808313369751,-0.09816227108240128,9.915586471557617,0.457763671875,20.477294921875,-40.771484375
4.2974999,0.2801215946674347,-0.35494041442871094,9.834781646728516,7.659912109375,17.059326171875,-43.45703125
4.3024999,-0.4602852761745453,-0.3124433159828186,9.847949981689453,-2.410888671875,-7.171630859375,8.1787109375
4.3074999,-0.4602852761745453,-0.3124433159828186,9.847949981689453,-2.410888671875,-7.171630859375,8.1787109375
4.312499900000001,-0.6763619780540466,-0.17537526786327362,9.882067680358887,-12.237548828125,-15.5029296875,15.0146484375
4.3174999000000005,-0.5398924946784973,0.2801215946674347,10.20767879486084,-19.744873046875,-21.026611328125,22.674560546875
4.3224999,0.3064578175544739,-0.800261914730072,9.870695114135742,4.08935546875,-21.17919921875,53.5888671875
4.3274999,0.7200561761856079,-1.6376339197158813,9.444527626037598,21.1181640625,-13.336181640625,56.610107421875
4.3324999,0.8882488012313843,-1.5897499322891235,9.32541561126709,14.46533203125,-2.9296875,37.29248046875
4.3374999,0.8224082589149475,-1.1073182821273804,9.390059471130371,6.927490234375,0.518798828125,12.5732421875
4.3424999,0.8367735147476196,-0.5991489887237549,9.66419506072998,6.805419921875,-1.5869140625,-4.058837890625
4.3474999,0.9217676520347595,-0.08499415963888168,9.847352027893066,3.936767578125,4.425048828125,-11.23046875
4.352499900000001,1.1492167711257935,0.3076549172401428,10.066421508789062,5.157470703125,13.85498046875,-14.2822265625
4.3574999000000005,-0.38965633511543274,-0.6673837304115295,9.714473724365234,-7.6904296875,-1.8310546875,-15.472412109375
4.3624999,-0.6554127335548401,-0.6482301354408264,9.857526779174805,-4.669189453125,-11.322021484375,14.16015625
4.3674999,-0.6949170231819153,-0.07541735470294952,9.95209789276123,-17.76123046875,-18.890380859375,18.98193359375
4.3724999,-0.5207388401031494,-0.46327802538871765,10.147225379943848,-22.27783203125,-22.857666015625,26.55029296875
4.3774999,0.02753331884741783,-0.2687491476535797,9.749189376831055,-15.594482421875,-18.829345703125,37.261962890625
4.3824999,0.5117605924606323,-1.2180501222610474,9.716269493103027,17.2119140625,-21.453857421875,61.065673828125
4.3874999,0.9493009448051453,-1.193509578704834,9.299677848815918,20.233154296875,-7.4462890625,52.18505859375
4.3924999,0.9331400990486145,-1.3192051649093628,9.333795547485352,11.627197265625,0.06103515625,29.327392578125
4.397499900000001,0.8661024570465088,-0.3908534348011017,9.768342971801758,5.92041015625,-0.030517578125,-6.805419921875
4.4024999000000005,0.7661445140838623,0.12210428714752197,10.005967140197754,-0.335693359375,22.613525390625,-42.633056640625
4.4074999,0.34835633635520935,-0.2064998894929886,9.858723640441895,6.8359375,20.56884765625,-52.91748046875
4.4124999,-0.08499415963888168,-0.6344634294509888,9.754576683044434,0.42724609375,9.27734375,-48.40087890625
4.4174999,-0.375291109085083,-0.8152256608009338,9.618705749511719,-11.322021484375,1.922607421875,-33.99658203125
4.4224999,-0.5333084464073181,-0.3932476341724396,9.833584785461426,-3.72314453125,-5.767822265625,0.732421875
4.4274999,-0.7523778676986694,-0.2819172441959381,9.86889934539795,-10.80322265625,-15.56396484375,18.768310546875
4.4324999,-0.5925649404525757,0.06883329898118973,10.141838073730469,-19.927978515625,-22.27783203125,25.604248046875
4.437499900000001,-0.2645592987537384,-0.48243165016174316,9.919178009033203,-23.25439453125,-20.721435546875,28.350830078125
4.4424999000000005,0.3100491166114807,-0.8248024582862854,9.841365814208984,3.90625,-21.270751953125,54.0771484375
4.4474999,0.7817068696022034,-1.5861586332321167,9.444527626037598,21.78955078125,-14.22119140625,60.302734375
4.4524999,0.9666589498519897,-1.5885528326034546,9.306262016296387,16.4794921875,-2.166748046875,42.205810546875
4.4574999,0.8816647529602051,-1.1641805171966553,9.378686904907227,9.1552734375,2.01416015625,16.387939453125
4.4624999,0.8409633636474609,-0.6248866319656372,9.665990829467773,7.4462890625,-0.67138671875,-2.044677734375
4.4674999,0.9139865040779114,-0.07721300423145294,9.870695114135742,3.753662109375,3.5400390625,-11.71875
4.4724999,1.1432312726974487,0.3800795078277588,10.107122421264648,4.5166015625,14.2822265625,-15.533447265625
4.477499900000001,1.2090718746185303,0.5249287486076355,10.181941032409668,0.091552734375,20.44677734375,-25.390625
4.4824999000000005,0.9564836025238037,0.24361002445220947,10.056245803833008,-1.40380859375,23.040771484375,-37.2314453125
4.4874999,0.5596446394920349,-0.08319851011037827,9.897629737854004,4.608154296875,23.651123046875,-51.971435546875
4.4924999,0.11013327538967133,-0.4812345504760742,9.802460670471191,6.378173828125,13.5498046875,-52.032470703125
4.4974999,-0.29807811975479126,-0.9235633015632629,9.608530044555664,-9.46044921875,3.631591796875,-42.90771484375
4.5024999,-0.7823054194450378,-0.10115502029657364,10.003573417663574,-18.12744140625,-21.05712890625,22.735595703125
4.5074999,-0.5728127360343933,-0.6943184733390808,10.110713958740234,-23.651123046875,-23.834228515625,26.336669921875
4.5124999,0.01735796220600605,-0.49799394607543945,9.79408073425293,-9.765625,-19.53125,41.07666015625
4.5174999,0.5279214978218079,-1.3964180946350098,9.62947940826416,19.989013671875,-20.233154296875,61.798095703125
4.522499900000001,0.9558850526809692,-1.24917471408844,9.319430351257324,18.6767578125,-6.134033203125,51.025390625
4.5274999000000005,0.9367313981056213,-1.1468225717544556,9.329605102539062,9.46044921875,1.434326171875,28.50341796875
4.5324999,0.9103952050209045,-0.5321113467216492,9.625887870788574,8.453369140625,0.152587890625,7.659912109375
4.5374999,0.9133879542350769,-0.14784196019172668,9.821015357971191,4.547119140625,-0.18310546875,-7.080078125
4.5424999,1.1180921792984009,0.3208230137825012,10.040084838867188,3.96728515625,9.1552734375,-14.5263671875
4.5474999,1.282094955444336,0.5386953949928284,10.180145263671875,2.044677734375,18.646240234375,-21.148681640625
4.5524999,1.1569979190826416,0.3818751573562622,10.105326652526855,-2.62451171875,21.575927734375,-29.96826171875
4.5574999,-0.639850378036499,-0.3705027103424072,9.835979461669922,-3.72314453125,-8.4228515625,6.256103515625
4.562499900000001,-0.7912836670875549,-0.15502455830574036,9.906607627868652,-14.251708984375,-17.88330078125,20.32470703125
4.5674999000000005,-0.5536591410636902,0.11791443079710007,10.163984298706055,-21.54541015625,-23.712158203125,27.618408203125
4.5724999,-0.12749123573303223,-0.3082534670829773,9.873687744140625,-20.99609375,-19.561767578125,30.82275390625
4.5774999,0.414795458316803,-0.9600749015808105,9.807249069213867,11.383056640625,-22.15576171875,58.380126953125
4.5824999,0.900818407535553,-1.5005658864974976,9.382277488708496,22.186279296875,-11.566162109375,58.53271484375
4.5874999,0.9516952037811279,-1.6962919235229492,9.272743225097656,14.70947265625,0.091552734375,38.63525390625
4.5924999,0.8984242081642151,-1.2018892765045166,9.46607494354248,9.94873046875,2.8076171875,14.2822265625
4.5974999,0.8361749649047852,-0.6416460275650024,9.692925453186035,6.591796875,-0.823974609375,-3.72314453125
4.602499900000001,0.5081692934036255,-0.1388636976480484,9.883264541625977,6.28662109375,23.712158203125,-56.671142578125
4.6074999000000005,0.02753331884741783,-0.5105634927749634,9.820416450500488,2.899169921875,10.101318359375,-51.57470703125
4.6124999,-0.383670836687088,-0.8595184087753296,9.607931137084961,-11.688232421875,2.86865234375,-38.604736328125
4.6174999,-0.5710170865058899,-0.43933600187301636,9.798270225524902,-5.523681640625,-4.5166015625,-6.34765625
4.6224999,-0.8667010068893433,-0.4016273319721222,9.861717224121094,-8.85009765625,-14.83154296875,18.12744140625
4.6274999,-0.7433996200561523,-0.06224924325942993,10.055646896362305,-19.744873046875,-23.040771484375,26.3671875
4.6324999,-0.46986207365989685,-0.6422445774078369,9.93593692779541,-23.223876953125,-22.430419921875,27.374267578125
4.6374999,0.15083470940589905,-0.8457517623901367,9.804255485534668,-0.6103515625,-20.263671875,48.9501953125
4.6424999,0.9684545993804932,-0.0293289702385664,9.88745403289795,3.60107421875,1.708984375,-11.627197265625
4.647499900000001,1.1749545335769653,0.4465186297893524,10.108319282531738,3.936767578125,13.427734375,-16.632080078125
4.6524999000000005,1.2761094570159912,0.5871779918670654,10.188525199890137,1.129150390625,20.416259765625,-21.97265625
4.6574999,1.0678139925003052,0.32680854201316833,10.07779312133789,-2.349853515625,23.345947265625,-35.247802734375
4.6624999,0.6380547285079956,0.015562310814857483,9.931747436523438,3.387451171875,25.970458984375,-55.60302734375
4.6674999,0.16340427100658417,-0.3495534360408783,9.803058624267578,6.378173828125,14.70947265625,-55.908203125
4.6724999,-0.3010708689689636,-0.8565256595611572,9.660603523254395,-9.27734375,3.35693359375,-45.989990234375
4.6774999,-0.5327098965644836,-0.6613982319831848,9.70310115814209,-9.521484375,-0.885009765625,-20.751953125
4.6824999,-0.8212111592292786,-0.707486629486084,9.864709854125977,-4.913330078125,-11.474609375,12.115478515625
4.687499900000001,-0.8367735147476196,-0.228047713637352,9.932944297790527,-17.608642578125,-21.240234375,25.32958984375
4.6924999000000005,-0.03411737456917763,-0.5165489912033081,9.718064308166504,-12.176513671875,-18.646240234375,37.506103515625
4.6974999,0.524330198764801,-1.3742717504501343,9.638457298278809,18.585205078125,-20.599365234375,60.6689453125
4.7024999,1.0079588890075684,-1.3299790620803833,9.291297912597656,20.263671875,-6.744384765625,51.788330078125
4.7074999,1.0019733905792236,-1.2838906049728394,9.364919662475586,13.153076171875,3.35693359375,29.96826171875
4.7124999,0.9457096457481384,-0.639850378036499,9.630077362060547,8.6669921875,1.251220703125,7.38525390625
4.7174999,0.912190854549408,-0.1628057211637497,9.837775230407715,4.39453125,-0.518798828125,-9.1552734375
4.7224999,1.07379949092865,0.34177228808403015,10.068815231323242,3.41796875,9.765625,-15.899658203125
4.727499900000001,1.2449848651885986,0.6350619792938232,10.209474563598633,2.899169921875,18.73779296875,-18.5546875
4.7324999000000005,1.1677719354629517,0.41958385705947876,10.10053825378418,-2.410888671875,22.52197265625,-30.914306640625
4.7374999,0.7817068696022034,0.12629413604736328,10.000580787658691,1.373291015625,26.397705078125,-52.490234375
4.7424999,0.34356793761253357,-0.26156654953956604,9.784503936767578,7.293701171875,18.85986328125,-58.502197265625
4.7474999,-0.15562310814857483,-0.7422025203704834,9.737217903137207,-4.547119140625,4.0283203125,-48.248291015625
4.7524999,-0.6841431260108948,0.08619125932455063,10.092757225036621,-22.552490234375,-25.726318359375,28.62548828125
4.7574999,-0.21308395266532898,-0.3214215636253357,9.82759952545166,-19.256591796875,-20.1416015625,31.707763671875
4.7624999,0.38965633511543274,-0.960673451423645,9.768941879272461,12.6953125,-22.308349609375,58.990478515625
4.7674999,0.9241618514060974,-1.5107412338256836,9.378087997436523,21.78955078125,-10.986328125,58.2275390625
4.772499900000001,0.9744400978088379,-1.7513585090637207,9.30925464630127,15.472412109375,1.64794921875,39.4287109375
4.7774999000000005,0.9074024558067322,-1.213860273361206,9.518148422241211,10.223388671875,2.62451171875,15.7470703125
4.7824999,0.851138710975647,-0.5991489887237549,9.744999885559082,6.011962890625,-1.708984375,-3.265380859375
4.7874999,0.9959878921508789,0.0293289702385664,9.970054626464844,2.74658203125,5.157470703125,-15.045166015625
4.7924999,1.238999366760254,0.5608417391777039,10.189722061157227,3.265380859375,16.632080078125,-18.157958984375
4.7974999,-0.43275195360183716,-0.8242039084434509,9.617507934570312,-12.8173828125,1.220703125,-35.15625
4.8024999,-0.8684966564178467,-0.2992752194404602,9.8599214553833,-11.3525390625,-17.059326171875,20.965576171875
4.8074999,-0.8684966564178467,-0.2992752194404602,9.8599214553833,-11.3525390625,-17.059326171875,20.965576171875
4.812499900000001,-0.6919242739677429,-0.02992752194404602,10.087968826293945,-20.99609375,-24.444580078125,28.13720703125
4.8174999000000005,-0.32620999217033386,-0.4920084476470947,9.862914085388184,-22.27783203125,-20.965576171875,28.106689453125
4.8224999,0.26994624733924866,-0.899621307849884,9.79647445678711,5.767822265625,-22.03369140625,55.206298828125
4.8274999,0.8170213103294373,-1.6101006269454956,9.403825759887695,21.942138671875,-14.434814453125,61.767578125
4.8324999,1.002571940422058,-1.6597803831100464,9.273940086364746,17.486572265625,-0.18310546875,44.952392578125
4.8374999,0.8702923059463501,-0.5877765417098999,9.66958236694336,7.01904296875,-1.007080078125,-0.457763671875
4.8424999,0.9516952037811279,-0.02992752194404602,9.923367500305176,2.777099609375,3.387451171875,-14.16015625
4.8474999,1.1827356815338135,0.5398924946784973,10.1753568649292,3.692626953125,15.0146484375,-16.54052734375
4.852499900000001,1.2892776727676392,0.5841852426528931,10.22264289855957,-0.3662109375,20.782470703125,-23.74267578125
4.8574999000000005,1.0229226350784302,0.3034650683403015,10.092158317565918,-1.3427734375,25.32958984375,-43.0908203125
4.8624999,0.5943605899810791,-0.07003039866685867,9.919178009033203,5.767822265625,25.543212890625,-60.11962890625
4.8674999,0.10534487664699554,-0.4411316514015198,9.792284965515137,4.0283203125,10.528564453125,-53.131103515625
4.8724999,-0.3705027103424072,-0.8924387097358704,9.605537414550781,-11.505126953125,1.3427734375,-41.656494140625
4.8774999,-0.5650315880775452,-0.5249287486076355,9.726444244384766,-6.7138671875,-2.960205078125,-11.41357421875
4.8824999,-0.5829881429672241,-0.7763199210166931,9.965266227722168,-23.223876953125,-23.590087890625,26.580810546875
4.8874999,1.0259153842926025,-1.1210849285125732,9.39903736114502,11.749267578125,4.180908203125,27.40478515625
4.8924999,0.9846154451370239,-0.424970805644989,9.6803560256958,7.75146484375,-0.030517578125,5.096435546875
4.897499900000001,0.9977835416793823,0.03531447425484657,9.894038200378418,3.2958984375,1.220703125,-11.688232421875
4.9024999000000005,1.1851298809051514,0.5811924338340759,10.121487617492676,3.387451171875,12.39013671875,-16.05224609375
4.9074999,1.3198037147521973,0.6961141228675842,10.216058731079102,1.0986328125,19.6533203125,-20.660400390625
4.9124999,1.1180921792984009,0.40880993008613586,10.087369918823242,-2.685546875,24.4140625,-37.994384765625
4.9174999,0.6967126727104187,0.0628477931022644,9.963470458984375,3.47900390625,26.641845703125,-58.16650390625
4.9224999,0.19033902883529663,-0.37229835987091064,9.758167266845703,5.950927734375,14.58740234375,-54.840087890625
4.9274999,-0.3010708689689636,-0.8708908557891846,9.663596153259277,-9.185791015625,2.197265625,-45.0439453125
4.9324999,-0.5554547905921936,-0.7350199222564697,9.655815124511719,-9.979248046875,-1.495361328125,-20.233154296875
4.937499900000001,-0.851138710975647,-0.2585737705230713,9.932345390319824,-17.9443359375,-22.4609375,26.580810546875
4.9424999000000005,-0.6230909824371338,-0.7882909178733826,10.04846477508545,-22.430419921875,-24.59716796875,28.167724609375
4.9474999,-0.038307227194309235,-0.5680243372917175,9.70549488067627,-10.80322265625,-19.744873046875,39.00146484375
4.9524999,0.5416881442070007,-1.4317326545715332,9.606734275817871,18.85986328125,-20.843505859375,61.58447265625
4.9574999,1.0372878313064575,-1.3539210557937622,9.254786491394043,20.01953125,-5.43212890625,53.3447265625
4.9624999,0.9666589498519897,-0.5841852426528931,9.600749015808105,8.9111328125,1.251220703125,9.33837890625
4.9674999,0.9307458996772766,-0.12689268589019775,9.838373184204102,4.302978515625,-0.18310546875,-9.063720703125
4.9724999,1.0761936902999878,0.41120412945747375,10.083779335021973,2.99072265625,9.33837890625,-15.9912109375
4.977499900000001,1.2749123573303223,0.67815762758255,10.241796493530273,2.471923828125,18.646240234375,-18.61572265625
4.9824999000000005,1.1779472827911377,0.4118026793003082,10.122086524963379,-2.86865234375,24.0478515625,-34.5458984375
4.9874999,0.8092401623725891,0.11312603205442429,10.020931243896484,2.105712890625,27.34375,-55.938720703125
4.9924999,-0.17896658182144165,-0.8595184087753296,9.688735961914062,-5.126953125,3.387451171875,-47.7294921875
4.9974999,-0.5021837949752808,-0.838569164276123,9.57860279083252,-11.322021484375,-1.129150390625,-26.2451171875
5.0024999,-0.7481880187988281,-0.5704185366630554,9.778518676757812,-4.119873046875,-7.99560546875,7.293701171875
5.0074999,-0.9163807034492493,-0.21847090125083923,9.88625717163086,-15.655517578125,-20.355224609375,24.71923828125
5.0124999,-0.6979097723960876,-0.13108254969120026,10.02571964263916,-22.186279296875,-25.390625,28.50341796875
5.0174999,-0.2059013396501541,-0.29807811975479126,9.779715538024902,-16.78466796875,-20.32470703125,33.447265625
5.022499900000001,0.3944447338581085,-1.0690110921859741,9.737217903137207,15.045166015625,-22.552490234375,60.028076171875
5.0274999000000005,0.9642647504806519,-1.3946224451065063,9.374496459960938,20.8740234375,-7.99560546875,56.7626953125
5.0324999,1.036689281463623,-1.5741876363754272,9.412205696105957,14.70947265625,2.471923828125,38.055419921875
5.0374999,0.9804255962371826,-0.9882067441940308,9.603741645812988,9.552001953125,2.716064453125,14.5263671875
5.0424999,0.9313444495201111,-0.4231751561164856,9.822811126708984,5.37109375,-0.244140625,-5.4931640625
5.0474999,1.0438719987869263,0.14365209639072418,10.020332336425781,2.685546875,6.744384765625,-15.716552734375
5.0524999,-0.07841010391712189,-0.595557689666748,9.77133560180664,-1.922607421875,5.615234375,-51.20849609375
5.0574999,-0.4926069974899292,-0.829590916633606,9.571419715881348,-13.153076171875,-0.8544921875,-34.027099609375
5.062499900000001,-0.6955155730247498,-0.3669114112854004,9.831789016723633,-4.638671875,-6.2255859375,-0.335693359375
5.0674999000000005,-0.9594763517379761,-0.28072014451026917,9.86111831665039,-12.87841796875,-18.096923828125,22.247314453125
5.0724999,-0.7493851184844971,0.05386953800916672,10.120290756225586,-20.782470703125,-25.5126953125,29.4189453125
5.0774999,-0.3519476354122162,-0.4572925269603729,9.84495735168457,-19.805908203125,-21.209716796875,28.99169921875
5.0824999,0.23582886159420013,-0.9445125460624695,9.81143856048584,10.223388671875,-22.39990234375,55.450439453125
5.0874999,0.8212111592292786,-1.6059107780456543,9.41400146484375,21.8505859375,-11.474609375,58.319091796875
5.0924999,0.9780313968658447,-1.7004817724227905,9.336788177490234,15.533447265625,0.762939453125,42.083740234375
5.0974999,0.9247604012489319,-0.5494692921638489,9.734824180603027,6.072998046875,0,-1.3427734375
5.102499900000001,1.0223240852355957,0.02992752194404602,9.948506355285645,2.410888671875,4.241943359375,-14.129638671875
5.1074999000000005,1.2677297592163086,0.5931634902954102,10.183138847351074,3.662109375,15.44189453125,-16.54052734375
5.1124999,1.3102269172668457,0.5333084464073181,10.180145263671875,-1.40380859375,22.186279296875,-27.740478515625
5.1174999,1.0247182846069336,0.2801215946674347,10.079588890075684,-0.91552734375,26.06201171875,-46.38671875
5.1224999,0.5722141861915588,-0.13706804811954498,9.859322547912598,6.256103515625,23.92578125,-58.074951171875
5.1274999,0.05925649031996727,-0.4812345504760742,9.819219589233398,1.983642578125,8.36181640625,-51.69677734375
5.1324999,-0.43275195360183716,-0.9193734526634216,9.582792282104492,-12.6953125,-0.1220703125,-38.177490234375
5.1374999,-0.6254851818084717,-0.43514615297317505,9.79288387298584,-5.767822265625,-4.486083984375,-6.2255859375
5.1424999,-0.9684545993804932,-0.414795458316803,9.818022727966309,-9.8876953125,-15.2587890625,19.1650390625
5.147499900000001,-0.8457517623901367,-0.05985504388809204,10.046669006347656,-19.805908203125,-24.688720703125,28.533935546875
5.1524999000000005,-0.558447539806366,-0.646434485912323,9.871891975402832,-22.3388671875,-22.857666015625,26.947021484375
5.1574999,0.9882067441940308,-1.5568296909332275,9.36013126373291,16.815185546875,-1.0986328125,47.42431640625
5.1624999,1.003769040107727,-1.1025298833847046,9.45410442352295,10.101318359375,3.2958984375,25.45166015625
5.1674999,0.9762357473373413,-0.45429977774620056,9.717466354370117,7.38525390625,0.457763671875,3.997802734375
5.1724999,1.0259153842926025,0.008379706181585789,9.900622367858887,2.9296875,1.8310546875,-11.77978515625
5.1774999,1.2575544118881226,0.5494692921638489,10.121487617492676,3.662109375,13.275146484375,-16.265869140625
