# Time (seconds),Accel_X,Accel_Y,Accel_Z,Gyro_X,Gyro_Y,Gyro_Z
0.0024999,-2.580949544906616,1.0007762908935547,10.112509727478027,-20.32470703125,-39.154052734375,46.08154296875
0.0074999,-2.580949544906616,1.0007762908935547,10.112509727478027,-20.32470703125,-39.154052734375,46.08154296875
0.012499900000000001,-2.0805611610412598,0.19153612852096558,9.821614265441895,-21.1181640625,-34.576416015625,47.088623046875
0.0174999,0.5410895943641663,-1.8495208024978638,9.369110107421875,23.98681640625,-19.775390625,78.887939453125
0.0224999,1.5723919868469238,-2.453458309173584,9.045293807983398,29.388427734375,7.4462890625,60.546875
0.0274999,2.2667105197906494,-2.0620062351226807,9.190741539001465,18.6767578125,17.7001953125,7.049560546875
0.0324999,2.5923218727111816,-1.3048399686813354,9.520543098449707,9.82666015625,21.331787109375,-44.036865234375
0.0374999,2.6599581241607666,-0.4842272996902466,9.851541519165039,9.368896484375,33.69140625,-39.642333984375
0.0424999,2.22660756111145,-0.025737667456269264,9.990405082702637,7.9345703125,33.3251953125,-40.435791015625
0.0474999,1.368884801864624,0.5297171473503113,10.229227066040039,3.753662109375,25.299072265625,-70.00732421875
0.0524999,-0.15801730751991272,0.5746083855628967,10.27591323852539,-17.7001953125,-1.28173828125,-64.727783203125
0.0574999,-1.6340426206588745,1.0067617893218994,10.17176628112793,-23.773193359375,-8.453369140625,-30.364990234375
0.0624999,-2.3570916652679443,1.0223240852355957,10.241796493530273,-22.52197265625,-29.47998046875,29.47998046875
0.0674999,-2.3127987384796143,0.49559974670410156,10.08437728881836,-20.172119140625,-37.29248046875,50.018310546875
0.0724999,1.2144588232040405,-2.343923568725586,9.118915557861328,32.40966796875,-4.7607421875,70.98388671875
0.0774999,1.2144588232040405,-2.343923568725586,9.118915557861328,32.40966796875,-4.7607421875,70.98388671875
0.0824999,1.9925743341445923,-2.337339401245117,9.003395080566406,23.590087890625,15.869140625,26.85546875
0.0874999,2.318784236907959,-1.5843629837036133,9.320627212524414,12.939453125,17.608642578125,-30.94482421875
0.0924999,2.3912088871002197,-0.7846996188163757,9.715670585632324,9.613037109375,29.1748046875,-44.49462890625
0.0974999,2.181716203689575,0.013766659423708916,9.926360130310059,8.331298828125,32.89794921875,-32.5927734375
0.1024999,1.5556325912475586,0.3250128924846649,9.93474006652832,7.354736328125,30.487060546875,-61.126708984375
0.1074999,0.3705027103424072,0.707486629486084,10.087369918823242,-9.857177734375,6.561279296875,-70.61767578125
0.1124999,-1.146224021911621,0.8104372620582581,10.029909133911133,-21.240234375,-5.92041015625,-46.0205078125
0.1174999,-2.0422539710998535,1.0043675899505615,10.062829971313477,-23.681640625,-19.927978515625,9.8876953125
0.1224999,-2.3702597618103027,0.7326257228851318,10.295066833496094,-19.378662109375,-37.567138671875,49.072265625
0.1274999,-1.6250643730163574,-0.14903905987739563,9.923966407775879,-19.8974609375,-30.609130859375,44.98291015625
0.1324999,1.6765397787094116,-2.476801633834839,9.078812599182129,25.81787109375,10.8642578125,42.90771484375
0.1374999,2.183511972427368,-1.845929503440857,9.299677848815918,14.83154296875,14.95361328125,-12.359619140625
0.1424999,2.43011474609375,-1.0809820890426636,9.652822494506836,9.063720703125,23.86474609375,-45.83740234375
0.1474999,2.38462495803833,-0.2124854028224945,9.9401273727417,8.1787109375,31.829833984375,-32.04345703125
0.1524999,1.9117701053619385,-0.16340427100658417,10.092757225036621,7.38525390625,31.25,-49.591064453125
0.1574999,0.9115923047065735,0.6805518269538879,10.157999038696289,-1.77001953125,15.655517578125,-69.51904296875
0.1624999,-0.6374561786651611,0.5297171473503113,10.196306228637695,-19.4091796875,-4.425048828125,-51.513671875
0.1674999,-1.7519570589065552,1.1605892181396484,9.942521095275879,-23.5595703125,-13.275146484375,-3.997802734375
0.1724999,-2.274491548538208,1.094150185585022,10.129268646240234,-20.660400390625,-35.308837890625,43.88427734375
0.17749990000000002,-1.889025092124939,0.1472434103488922,9.831789016723633,-19.53125,-31.402587890625,45.34912109375
0.1824999,-0.6769605278968811,-0.8906430602073669,9.47265911102295,-7.6904296875,-25.2685546875,51.177978515625
0.1874999,2.008136749267578,-2.008735179901123,9.186552047729492,16.845703125,14.22119140625,-0.3662109375
0.1924999,2.3092074394226074,-1.183334231376648,9.569025993347168,9.46044921875,20.08056640625,-43.9453125
0.1974999,2.476203203201294,-0.34835633635520935,9.904812812805176,8.087158203125,29.998779296875,-34.60693359375
0.2024999,2.0207061767578125,0.005386953707784414,10.068815231323242,7.415771484375,30.45654296875,-42.266845703125
0.20749990000000001,1.2515689134597778,0.6847416758537292,10.211270332336426,3.387451171875,21.3623046875,-68.756103515625
0.2124999,-0.3603273630142212,0.6254851818084717,10.192715644836426,-17.822265625,-3.509521484375,-54.412841796875
0.2174999,-1.6514005661010742,1.148618221282959,9.956287384033203,-22.8271484375,-10.19287109375,-13.031005859375
0.2224999,-2.2822728157043457,1.0755951404571533,10.046669006347656,-22.674560546875,-33.355712890625,39.337158203125
0.2274999,-1.96683669090271,0.33698388934135437,9.784503936767578,-19.47021484375,-32.65380859375,46.173095703125
0.2324999,-0.943913996219635,-0.7996633648872375,9.423578262329102,-11.962890625,-26.3671875,49.591064453125
0.2374999,0.3687070608139038,-1.7884687185287476,9.312247276306152,18.73779296875,-18.951416015625,73.577880859375
0.2424999,2.1703438758850098,-1.5191209316253662,9.528923034667969,12.298583984375,18.5546875,-37.4755859375
0.2474999,2.2894554138183594,-0.52552729845047,9.802460670471191,10.345458984375,29.571533203125,-41.595458984375
0.2524999,1.9458874464035034,0.21966800093650818,10.017339706420898,5.645751953125,26.0009765625,-25.87890625
0.2574999,1.1180921792984009,0.7523778676986694,10.353126525878906,0.732421875,20.5078125,-51.8798828125
0.2624999,-0.0586579404771328,0.9516952037811279,10.26394271850586,-11.16943359375,4.058837890625,-50.4150390625
0.2674999,-1.2258312702178955,0.9558850526809692,10.263343811035156,-17.486572265625,-7.4462890625,-17.822265625
0.2724999,-1.7711106538772583,0.8708908557891846,10.210073471069336,-20.416259765625,-24.139404296875,26.580810546875
0.2774999,-1.780089020729065,0.2717418968677521,10.040084838867188,-18.798828125,-28.839111328125,40.83251953125
0.2824999,-1.0696096420288086,-0.5752069354057312,9.684545516967773,-14.95361328125,-25.69580078125,41.534423828125
0.28749990000000003,0.011372458189725876,-1.5298948287963867,9.464279174804688,7.171630859375,-20.93505859375,53.741455078125
0.2924999,0.8050503134727478,-2.1493945121765137,9.220669746398926,23.162841796875,-6.7138671875,53.8330078125
0.2974999,2.0147206783294678,-1.4437036514282227,9.422979354858398,11.53564453125,12.603759765625,-27.252197265625
0.3024999,2.1924901008605957,-0.7044938206672668,9.719860076904297,7.965087890625,22.613525390625,-37.04833984375
0.3074999,2.163759708404541,0,9.955090522766113,6.439208984375,27.34375,-27.77099609375
0.3124999,1.6071078777313232,0.0071826050989329815,10.087369918823242,6.561279296875,27.130126953125,-53.955078125
0.3174999,0.6476315855979919,0.6021417379379272,10.108319282531738,-4.638671875,11.993408203125,-60.821533203125
0.3224999,-0.7422025203704834,0.557250440120697,10.199298858642578,-16.693115234375,-3.387451171875,-31.707763671875
0.3274999,-1.6101006269454956,1.0217255353927612,10.078392028808594,-22.88818359375,-18.096923828125,15.31982421875
0.3324999,-1.9877859354019165,0.8224082589149475,10.254365921020508,-20.721435546875,-32.073974609375,41.6259765625
0.3374999,-1.4933832883834839,-0.01975216343998909,9.917980194091797,-19.83642578125,-27.4658203125,42.633056640625
0.3424999,-0.3106476664543152,-1.1222820281982422,9.564237594604492,-1.068115234375,-23.345947265625,55.72509765625
0.34749990000000003,0.6542156338691711,-2.053027868270874,9.291297912597656,25.2685546875,-10.650634765625,68.603515625
0.35249990000000003,1.502361536026001,-2.404975652694702,9.012971878051758,25.054931640625,9.6435546875,39.12353515625
0.3574999,2.207453966140747,-0.9852139949798584,9.59177017211914,9.429931640625,21.728515625,-44.43359375
0.3624999,2.169146776199341,-0.17717093229293823,9.900622367858887,6.988525390625,28.62548828125,-29.9072265625
0.3674999,1.7513585090637207,-0.08978256583213806,10.074202537536621,6.744384765625,29.205322265625,-50.59814453125
0.3724999,0.8445546627044678,0.6105214357376099,10.104129791259766,-1.861572265625,15.045166015625,-71.197509765625
0.3774999,-0.5781996846199036,0.41958385705947876,10.144830703735352,-18.24951171875,-3.5400390625,-48.64501953125
0.3824999,-1.5723919868469238,0.9852139949798584,9.870695114135742,-23.92578125,-13.7939453125,1.312255859375
0.3874999,-2.0260932445526123,0.9421183466911316,10.090363502502441,-20.782470703125,-33.416748046875,44.43359375
0.3924999,-1.668160080909729,0.03651157766580582,9.800065994262695,-20.965576171875,-29.4189453125,45.562744140625
0.3974999,-0.4106055796146393,-0.973242998123169,9.402628898620605,-7.232666015625,-23.92578125,55.023193359375
0.4024999,2.074575662612915,-0.22864626348018646,9.972448348999023,6.927490234375,28.167724609375,-32.501220703125
0.4074999,1.657984733581543,-0.03531447425484657,10.160991668701172,6.561279296875,29.6630859375,-50.689697265625
0.41249990000000003,0.8319851160049438,0.7487865686416626,10.188525199890137,-0.885009765625,14.984130859375,-75.592041015625
0.41749990000000003,-0.6422445774078369,0.4465186297893524,10.196905136108398,-19.805908203125,-5.279541015625,-55.633544921875
0.4224999,-1.635838270187378,1.0097545385360718,9.854534149169922,-24.749755859375,-13.73291015625,-4.669189453125
0.4274999,-2.072181463241577,0.8637082576751709,10.0765962600708,-21.54541015625,-35.15625,45.074462890625
0.4324999,-1.7190368175506592,-0.047884032130241394,9.764751434326172,-20.263671875,-30.670166015625,47.8515625
0.4374999,-0.3842693865299225,-1.0809820890426636,9.36013126373291,-8.331298828125,-24.322509765625,56.854248046875
0.4424999,0.7122750282287598,-2.1422119140625,9.269750595092773,26.06201171875,-13.36669921875,80.810546875
0.4474999,1.5711948871612549,-2.6420016288757324,8.916605949401855,30.792236328125,11.41357421875,55.694580078125
0.4524999,2.0464439392089844,-2.0590133666992188,9.138668060302734,17.333984375,14.984130859375,-5.828857421875
0.4574999,2.191891670227051,-1.182137131690979,9.592369079589844,9.8876953125,20.050048828125,-48.919677734375
0.4624999,-0.707486629486084,0.444722980260849,10.204087257385254,-20.599365234375,-6.011962890625,-58.16650390625
0.4674999,-1.7298107147216797,1.003769040107727,9.838972091674805,-25.2685546875,-14.373779296875,-6.65283203125
0.47249990000000003,-2.1517887115478516,0.8086416125297546,10.059837341308594,-21.087646484375,-36.102294921875,45.8984375
0.47749990000000003,-1.7597382068634033,-0.0999579206109047,9.707889556884766,-19.34814453125,-31.18896484375,49.4384765625
0.4824999,-0.3597288131713867,-1.1444283723831177,9.346364974975586,-6.866455078125,-24.4140625,59.26513671875
0.4874999,0.730231523513794,-2.1547815799713135,9.261969566345215,27.2216796875,-13.031005859375,84.320068359375
0.4924999,1.5945383310317993,-2.625242233276367,8.946533203125,30.45654296875,12.969970703125,60.302734375
0.4974999,2.0679917335510254,-1.9835960865020752,9.17936897277832,17.15087890625,15.106201171875,-1.953125
0.5024999,2.212242364883423,-1.1510124206542969,9.613917350769043,9.09423828125,19.378662109375,-49.9267578125
0.5074999,1.7423802614212036,-0.05506663769483566,10.139444351196289,6.8359375,30.731201171875,-51.300048828125
0.5124999,0.9217676520347595,0.8188169598579407,10.131064414978027,-1.556396484375,14.129638671875,-77.2705078125
0.5174999,-0.729034423828125,0.3932476341724396,10.130465507507324,-21.97265625,-6.927490234375,-59.967041015625
0.5224999,-1.7962498664855957,0.993593692779541,9.730035781860352,-25.93994140625,-14.801025390625,-8.544921875
0.5274999,-2.23199462890625,0.7493851184844971,9.980828285217285,-21.514892578125,-37.322998046875,46.112060546875
0.5324999,-1.7986440658569336,-0.12030863761901855,9.641449928283691,-19.561767578125,-31.67724609375,50.048828125
0.5374999,-0.31364041566848755,-1.171961784362793,9.301473617553711,-7.568359375,-24.017333984375,60.760498046875
0.5424999,0.8182184100151062,-2.1703438758850098,9.238027572631836,28.411865234375,-13.214111328125,88.165283203125
0.5474999,1.679532527923584,-2.650381326675415,8.923190116882324,31.8603515625,14.83154296875,64.697265625
0.5524999,2.121262788772583,-2.0189106464385986,9.154230117797852,17.486572265625,15.960693359375,-1.0986328125
0.5574999,2.121262788772583,-2.0189106464385986,9.154230117797852,17.486572265625,15.960693359375,-1.0986328125
0.5624999,-1.8872294425964355,1.05105459690094,9.70549488067627,-26.85546875,-14.190673828125,-14.617919921875
0.5674999000000001,-2.3086090087890625,0.7236474752426147,9.930550575256348,-22.03369140625,-38.055419921875,45.0439453125
0.5724999000000001,-1.845929503440857,-0.12449848651885986,9.630077362060547,-19.989013671875,-32.2265625,51.361083984375
0.5774999000000001,-0.2801215946674347,-1.2072762250900269,9.255385398864746,-9.70458984375,-23.8037109375,60.272216796875
0.5824999,0.9229647517204285,-2.188898801803589,9.206902503967285,28.045654296875,-14.16015625,89.66064453125
0.5874999,1.7597382068634033,-2.693476915359497,8.89565658569336,34.48486328125,14.068603515625,67.19970703125
0.5924999,2.1565771102905273,-2.078765630722046,9.105149269104004,18.646240234375,16.90673828125,-0.152587890625
0.5974999,2.203263998031616,-1.2102689743041992,9.599552154541016,9.94873046875,20.3857421875,-52.276611328125
0.6024999,2.11946702003479,-0.15143325924873352,10.017938613891602,8.209228515625,30.517578125,-37.200927734375
0.6074999,0.8445546627044678,1.0582371950149536,10.272322654724121,-1.28173828125,14.46533203125,-81.60400390625
0.6124999,-0.7870938181877136,0.6955155730247498,10.249577522277832,-23.284912109375,-7.659912109375,-69.488525390625
0.6174999,-1.9075802564620972,1.3682862520217896,9.86650562286377,-27.252197265625,-13.3056640625,-20.1416015625
0.6224999,-2.2876596450805664,1.0223240852355957,10.078990936279297,-23.3154296875,-37.9638671875,42.54150390625
0.6274999,-1.7717092037200928,0.10175357013940811,9.787496566772461,-21.240234375,-32.806396484375,52.06298828125
0.6324999,-0.20111294090747833,-1.0773907899856567,9.320627212524414,-13.092041015625,-23.590087890625,59.295654296875
0.6374999,1.1115081310272217,-2.205658197402954,9.188945770263672,26.123046875,-15.56396484375,90.423583984375
0.6424999,1.8734627962112427,-2.83174204826355,8.834604263305664,37.65869140625,12.359619140625,71.4111328125
0.6474999,2.1811177730560303,-2.320580005645752,8.960299491882324,20.965576171875,18.12744140625,3.84521484375
0.6524999,2.1314380168914795,-1.3772644996643066,9.521739959716797,11.29150390625,20.32470703125,-51.7578125
0.6574999,1.997362732887268,-0.25318682193756104,9.948506355285645,8.056640625,29.693603515625,-39.093017578125
0.6624999,1.5466543436050415,0.17417816817760468,10.203489303588867,5.859375,31.158447265625,-46.600341796875
0.6674999,-0.7134721279144287,0.7410054206848145,10.317811965942383,-22.03369140625,-6.561279296875,-73.577880859375
0.6724999,-1.8567034006118774,1.2850877046585083,9.952696800231934,-27.191162109375,-11.810302734375,-28.01513671875
0.6774999,-2.231395959854126,0.9427168965339661,10.116100311279297,-23.681640625,-35.614013671875,37.90283203125
0.6824999,-1.6944962739944458,0.1215057373046875,9.810839653015137,-20.81298828125,-33.69140625,54.01611328125
0.6874999,-0.2603694200515747,-1.0552444458007812,9.340977668762207,-15.19775390625,-24.200439453125,57.647705078125
0.6924999000000001,1.1180921792984009,-2.1739351749420166,9.147645950317383,23.834228515625,-16.815185546875,88.226318359375
0.6974999000000001,1.7729063034057617,-2.851494312286377,8.878896713256836,39.520263671875,9.94873046875,74.462890625
0.7024999000000001,2.0655975341796875,-2.387019157409668,8.946533203125,22.247314453125,18.218994140625,9.46044921875
0.7074999,2.0225019454956055,-1.4143747091293335,9.543288230895996,11.199951171875,18.890380859375,-49.407958984375
0.7124999,2.013523578643799,-0.3016694188117981,10.020332336425781,8.056640625,28.778076171875,-40.22216796875
0.7174999,1.568800687789917,0.25318682193756104,10.208277702331543,6.04248046875,30.70068359375,-42.8466796875
0.7224999,0.9349357485771179,0.9852139949798584,10.416572570800781,1.708984375,19.34814453125,-80.01708984375
0.7274999,-1.8632874488830566,1.2880805730819702,9.998186111450195,-27.03857421875,-10.955810546875,-33.660888671875
0.7324999,-2.248155355453491,1.0869675874710083,10.061034202575684,-24.84130859375,-34.271240234375,33.0810546875
0.7374999,-1.7208324670791626,0.3711012601852417,9.840168952941895,-20.538330078125,-34.3017578125,53.985595703125
0.7424999,-0.37409400939941406,-0.851138710975647,9.328408241271973,-17.51708984375,-24.505615234375,56.09130859375
0.7474999,1.1180921792984009,-1.9889830350875854,9.1662015914917,20.1416015625,-18.12744140625,87.5244140625
0.7524999,1.7244237661361694,-2.8179752826690674,8.883685111999512,40.313720703125,7.26318359375,80.474853515625
0.7574999,2.033874273300171,-2.494159698486328,8.9064302444458,24.322509765625,18.98193359375,17.88330078125
0.7624999,1.998559832572937,-1.5412673950195312,9.472060203552246,11.77978515625,18.00537109375,-46.905517578125
0.7674999,1.955464243888855,-0.4273650050163269,9.943717956542969,8.60595703125,28.62548828125,-42.938232421875
0.7724999,1.592742681503296,0.23523031175136566,10.145429611206055,6.2255859375,31.036376953125,-39.093017578125
0.7774999,0.9995791912078857,0.8020575642585754,10.347740173339844,3.41796875,22.308349609375,-78.369140625
0.7824999,-0.4339490532875061,0.8038532137870789,10.284892082214355,-19.866943359375,-5.157470703125,-79.28466796875
0.7874999,1.701080322265625,-2.7054479122161865,8.926182746887207,40.71044921875,3.2958984375,84.991455078125
0.7924999,2.099116325378418,-2.5145103931427,8.859743118286133,26.67236328125,19.378662109375,27.28271484375
0.7974999,2.079962730407715,-1.5933412313461304,9.395445823669434,12.63427734375,17.425537109375,-42.3583984375
0.8024999,-0.2902969419956207,0.7344213724136353,10.211869239807129,-18.463134765625,-3.631591796875,-83.67919921875
0.8074999,-1.6627731323242188,0.8493430614471436,10.029311180114746,-26.702880859375,-9.033203125,-51.81884765625
0.8124999,-0.6476315855979919,-0.6105214357376099,9.48762321472168,-21.6064453125,-26.275634765625,53.802490234375
0.8174999000000001,0.9552865028381348,-1.6837223768234253,9.199121475219727,9.613037109375,-19.805908203125,81.268310546875
0.8224999000000001,1.7477672100067139,-2.695871114730835,8.970475196838379,41.351318359375,-0.579833984375,90.087890625
0.8274999000000001,2.1332337856292725,-2.652775526046753,8.783727645874023,30.364990234375,19.683837890625,38.330078125
0.8324999000000001,2.0476410388946533,-1.73519766330719,9.279925346374512,13.885498046875,16.754150390625,-35.736083984375
0.8374999,1.8309657573699951,-0.6655880808830261,9.79408073425293,9.27734375,26.641845703125,-50.140380859375
0.8424999,1.5963339805603027,0.3010708689689636,10.037690162658691,6.7138671875,31.036376953125,-33.99658203125
0.8474999,1.048660397529602,0.7793126702308655,10.053253173828125,5.157470703125,27.52685546875,-71.35009765625
0.8524999,-0.07182604819536209,0.9971849918365479,10.140042304992676,-15.31982421875,-0.9765625,-85.601806640625
0.8574999,-1.5286977291107178,1.0660183429718018,10.019734382629395,-26.397705078125,-8.087158203125,-59.967041015625
0.8624999,-2.145803213119507,1.1288660764694214,9.992799758911133,-27.83203125,-24.47509765625,4.2724609375
0.8674999,1.6615760326385498,-2.565387010574341,9.146449089050293,38.665771484375,-5.950927734375,93.56689453125
0.8724999,2.140416383743286,-2.761711597442627,8.841188430786133,33.172607421875,18.951416015625,50.628662109375
0.8774999,2.1092917919158936,-1.9309237003326416,9.153631210327148,15.5029296875,16.54052734375,-25.2685546875
0.8824999,1.9147628545761108,-0.9205705523490906,9.697115898132324,9.796142578125,25.421142578125,-53.802490234375
0.8874999,1.6741455793380737,0.15322890877723694,9.985616683959961,7.354736328125,31.219482421875,-33.355712890625
0.8924999,1.202487826347351,0.3315969407558441,10.196905136108398,5.31005859375,29.541015625,-63.934326171875
0.8974999,0.1496376097202301,0.8649053573608398,10.22144603729248,-10.894775390625,3.2958984375,-87.432861328125
0.9024999,-1.3557167053222656,0.7140706777572632,10.217854499816895,-25.299072265625,-8.331298828125,-67.657470703125
0.9074999,-2.141613483428955,1.0845733880996704,9.9401273727417,-28.38134765625,-20.660400390625,-8.270263671875
0.9124999,-1.1773487329483032,0.02693476900458336,9.687539100646973,-22.39990234375,-29.632568359375,54.046630859375
0.9174999,0.518943190574646,-1.236605167388916,9.353547096252441,-3.936767578125,-21.42333984375,70.98388671875
0.9224999,1.557428240776062,-2.2810757160186768,9.061454772949219,35.7666015625,-11.04736328125,95.947265625
0.9274999,2.078166961669922,-2.7904419898986816,8.789712905883789,36.43798828125,17.51708984375,63.41552734375
0.9324999,2.1278467178344727,-2.1074960231781006,9.064447402954102,17.486572265625,17.02880859375,-11.322021484375
0.9374999,1.9967641830444336,-1.1683704853057861,9.674370765686035,9.735107421875,23.193359375,-54.99267578125
0.9424999000000001,1.875258445739746,0.013168109580874443,10.017938613891602,8.026123046875,31.67724609375,-34.759521484375
0.9474999000000001,1.414973258972168,0.09457096457481384,10.259753227233887,5.767822265625,31.31103515625,-55.84716796875
0.9524999000000001,0.5440823435783386,1.0241197347640991,10.26394271850586,-5.950927734375,9.246826171875,-87.5244140625
0.9574999000000001,-1.1079168319702148,0.6302735805511475,10.253169059753418,-24.932861328125,-8.1787109375,-75.225830078125
0.9624999,-2.1284453868865967,1.2318167686462402,9.868300437927246,-28.900146484375,-15.869140625,-23.529052734375
0.9674999,-2.324171304702759,0.9217676520347595,10.126874923706055,-22.3388671875,-39.00146484375,42.694091796875
0.9724999,0.1777694821357727,-1.1240776777267456,9.337387084960938,-12.63427734375,-22.0947265625,64.39208984375
0.9774999,1.4245500564575195,-2.2260091304779053,9.099761962890625,29.266357421875,-16.265869140625,96.710205078125
0.9824999,2.0649988651275635,-2.869450807571411,8.777742385864258,41.50390625,12.87841796875,76.47705078125
0.9874999,2.1912930011749268,-2.3457190990448,8.869918823242188,22.27783203125,19.317626953125,4.57763671875
0.9924999,2.031480073928833,-1.400607943534851,9.513360023498535,11.260986328125,21.30126953125,-54.107666015625
0.9974999,1.8608932495117188,-0.2322375625371933,9.995193481445312,8.575439453125,31.463623046875,-40.191650390625
1.0024999,1.4449007511138916,0.22924481332302094,10.255562782287598,6.011962890625,32.1044921875,-46.722412109375
1.0074999000000002,0.7523778676986694,1.0845733880996704,10.387842178344727,-0.885009765625,16.29638671875,-85.87646484375
1.0124999000000001,-0.8170213103294373,0.7314286231994629,10.357914924621582,-23.590087890625,-7.8125,-82.611083984375
1.0174999000000002,-2.0248961448669434,1.2216414213180542,9.976638793945312,-28.350830078125,-12.14599609375,-40.71044921875
1.0224999000000001,-2.33913516998291,0.861314058303833,10.112509727478027,-23.895263671875,-35.58349609375,30.914306640625
1.0274999,-1.6956933736801147,0.14604631066322327,9.865307807922363,-21.148681640625,-35.430908203125,56.182861328125
1.0324999000000001,1.3988122940063477,-2.0913352966308594,9.140463829040527,20.20263671875,-19.256591796875,91.278076171875
1.0374999,1.9853917360305786,-2.872443437576294,8.864531517028809,43.243408203125,5.31005859375,85.75439453125
1.0424999000000001,2.1326351165771484,-2.538452386856079,8.830414772033691,26.85546875,20.538330078125,23.406982421875
1.0474999,1.9470845460891724,-1.5652093887329102,9.39365005493164,11.932373046875,17.9443359375,-46.38671875
1.0524999000000002,1.7824832201004028,-0.45190557837486267,9.934141159057617,8.85009765625,29.449462890625,-46.93603515625
1.0574999,1.4598644971847534,0.3381809890270233,10.137049674987793,6.34765625,32.2265625,-38.055419921875
1.0624999000000002,0.8888474106788635,0.7589619159698486,10.390236854553223,3.2958984375,23.956298828125,-77.484130859375
1.0674999,-0.4854243993759155,0.8481459617614746,10.331579208374023,-20.32470703125,-4.8828125,-85.44921875
1.0724999000000002,-1.8920178413391113,1.0594342947006226,10.15021800994873,-27.52685546875,-9.552001953125,-54.046630859375
1.0774999,-2.321777105331421,1.0648212432861328,10.105925559997559,-27.40478515625,-30.914306640625,15.380859375
1.0824999000000002,-1.9596540927886963,0.6189011335372925,10.063427925109863,-20.8740234375,-38.909912109375,55.11474609375
1.0874999,-0.49320554733276367,-0.5500678420066833,9.519346237182617,-23.345947265625,-25.390625,55.755615234375
1.0924999000000002,1.9309237003326416,-2.7706899642944336,8.884284019470215,44.0673828125,-3.265380859375,96.221923828125
1.0974999,2.1942858695983887,-2.7778725624084473,8.692748069763184,33.447265625,20.8740234375,45.10498046875
1.1024999000000002,2.0003554821014404,-1.8489222526550293,9.174580574035645,14.2822265625,16.326904296875,-32.867431640625
1.1074999,1.7513585090637207,-0.7601590156555176,9.792284965515137,9.33837890625,26.763916015625,-54.107666015625
1.1124999000000002,1.544858694076538,0.3082534670829773,10.074800491333008,6.8359375,31.707763671875,-34.088134765625
1.1174999,1.0558429956436157,0.6889315247535706,10.105925559997559,4.547119140625,28.900146484375,-66.650390625
1.1224999000000002,-0.04908113554120064,0.9528923034667969,10.213066101074219,-14.0380859375,1.861572265625,-86.5478515625
1.1274999,-1.568800687789917,0.9355342984199524,10.095151901245117,-25.5126953125,-7.62939453125,-65.61279296875
1.1324999000000002,-2.2254104614257812,1.0468647480010986,10.031704902648926,-28.289794921875,-23.773193359375,-4.0283203125
1.1374999000000001,-2.1320366859436035,0.6685808300971985,10.400412559509277,-20.843505859375,-40.618896484375,50.35400390625
1.1424999000000002,-0.9385270476341248,-0.23044191300868988,9.88625717163086,-24.261474609375,-28.13720703125,54.74853515625
1.1474999000000001,0.8331822156906128,-1.427542805671692,9.504382133483887,-2.685546875,-21.575927734375,75.958251953125
1.1524999000000002,2.1739351749420166,-2.890998601913452,8.7669677734375,38.0859375,18.24951171875,63.751220703125
1.1574999000000001,2.101510524749756,-2.1278467178344727,8.983044624328613,17.730712890625,17.4560546875,-14.068603515625
1.1624999,1.8932149410247803,-1.1318588256835938,9.622895240783691,9.8876953125,23.834228515625,-56.976318359375
1.1674999000000001,1.754351258277893,0.08619125932455063,9.995193481445312,7.6904296875,31.982421875,-35.614013671875
1.1724999,1.754351258277893,0.08619125932455063,9.995193481445312,7.6904296875,31.982421875,-35.614013671875
1.1774999000000002,1.3066356182098389,0.2322375625371933,10.233416557312012,4.8828125,31.097412109375,-55.0537109375
1.1824999,0.40880993008613586,1.0103530883789062,10.337564468383789,-6.866455078125,9.796142578125,-87.310791015625
1.1874999000000002,-1.2395979166030884,0.6961141228675842,10.3148193359375,-24.017333984375,-6.866455078125,-76.5380859375
1.1924999,-2.2224178314208984,1.194706678390503,10.00836181640625,-28.80859375,-16.876220703125,-25.299072265625
1.1974999000000002,-2.322375535964966,0.9199720025062561,10.280701637268066,-23.01025390625,-39.764404296875,41.290283203125
1.2024999,0.3561375141143799,-1.1091139316558838,9.423578262329102,-13.427734375,-21.728515625,66.162109375
1.2074999000000002,0.3561375141143799,-1.1091139316558838,9.423578262329102,-13.427734375,-21.728515625,66.162109375
1.2124999,2.1110873222351074,-2.9251158237457275,8.736441612243652,43.64013671875,11.77978515625,80.322265625
1.2174999000000002,2.1589713096618652,-2.4205379486083984,8.795100212097168,23.4375,19.683837890625,7.9345703125
1.2224999,1.931522250175476,-1.445499300956726,9.445125579833984,10.955810546875,20.1416015625,-54.38232421875
1.2274999000000002,1.8279730081558228,-0.25258827209472656,10.003573417663574,8.331298828125,31.06689453125,-42.266845703125
1.2324999,1.4197616577148438,0.2753331959247589,10.230423927307129,5.37109375,31.73828125,-43.51806640625
1.2374999000000002,0.7846996188163757,1.0492589473724365,10.413579940795898,-0.244140625,18.9208984375,-82.977294921875
1.2424999,-0.788889467716217,0.7613561153411865,10.323798179626465,-22.0947265625,-5.67626953125,-83.953857421875
1.2474999000000002,-2.05781626701355,1.2042834758758545,9.962273597717285,-27.77099609375,-11.627197265625,-44.952392578125
1.2524999,-2.346317768096924,0.9032126069068909,10.063427925109863,-24.7802734375,-34.97314453125,25.93994140625
1.2574999000000002,-1.668160080909729,0.2825157940387726,9.909601211547852,-21.3623046875,-35.888671875,56.33544921875
1.2624999000000001,-0.1412578970193863,-0.8852560520172119,9.416994094848633,-20.782470703125,-23.37646484375,58.624267578125
1.2674999000000002,1.4419080018997192,-1.9901801347732544,9.16201114654541,17.669677734375,-21.087646484375,91.85791015625
1.2724999000000001,0.8732850551605225,0.7398083209991455,10.268731117248535,3.35693359375,26.123046875,-73.638916015625
1.2774999000000002,-0.3429693877696991,0.9313444495201111,10.274118423461914,-18.00537109375,-1.953125,-86.97509765625
1.2824999000000001,-1.7531541585922241,1.0755951404571533,10.135852813720703,-26.458740234375,-8.697509765625,-59.9365234375
1.2874999,-2.227206230163574,1.128267526626587,10.070012092590332,-27.191162109375,-28.106689453125,6.561279296875
1.2924999000000001,-1.9434932470321655,0.7272387742996216,10.196905136108398,-20.32470703125,-39.093017578125,53.64990234375
1.2974999,-0.5829881429672241,-0.38905778527259827,9.6618013381958,-23.37646484375,-25.970458984375,55.694580078125
1.3024999000000002,1.1007342338562012,-1.5526398420333862,9.320028305053711,5.584716796875,-21.575927734375,82.550048828125
1.3074999,1.8656816482543945,-2.648585557937622,8.974066734313965,42.05322265625,-6.988525390625,98.419189453125
1.3124999000000002,2.014122247695923,-1.9267338514328003,9.113529205322266,14.862060546875,16.082763671875,-24.84130859375
1.3174999,2.014122247695923,-1.9267338514328003,9.113529205322266,14.862060546875,16.082763671875,-24.84130859375
1.3224999000000002,1.799242615699768,-0.872686505317688,9.733627319335938,8.819580078125,24.90234375,-55.48095703125
1.3274999,1.6190788745880127,0.2454056739807129,10.056245803833008,6.9580078125,31.494140625,-33.203125
1.3324999000000002,1.169567584991455,0.37469255924224854,10.289680480957031,4.5166015625,29.815673828125,-60.943603515625
1.3374999,0.12509703636169434,0.9062053561210632,10.311227798461914,-10.498046875,5.7373046875,-87.58544921875
1.3424999000000002,-1.4329297542572021,0.7344213724136353,10.311826705932617,-24.5361328125,-6.805419921875,-71.22802734375
1.3474999,-2.212242364883423,1.115697979927063,10.014945983886719,-28.472900390625,-20.355224609375,-14.251708984375
1.3524999000000002,-2.187103271484375,0.8319851160049438,10.290278434753418,-21.3623046875,-39.886474609375,46.051025390625
1.3574999,-1.095347285270691,0.10773907601833344,9.7791166305542,-23.529052734375,-29.144287109375,55.084228515625
1.3624999000000002,0.6494272351264954,-1.2192472219467163,9.37629222869873,-6.4697265625,-21.42333984375,71.197509765625
1.3674999,1.7004817724227905,-2.2643163204193115,9.02135181427002,35.064697265625,-15.19775390625,98.93798828125
1.3724999000000002,-1.0319008827209473,0.7320271730422974,10.291476249694824,-23.345947265625,-6.53076171875,-80.62744140625
1.3774999,-2.1062989234924316,1.2886791229248047,9.907805442810059,-28.50341796875,-14.190673828125,-35.46142578125
1.3824999000000002,-2.2685060501098633,0.8984242081642151,10.140042304992676,-23.74267578125,-37.322998046875,33.02001953125
1.3874999000000001,-1.5029600858688354,0.076015904545784,9.883264541625977,-21.820068359375,-33.0810546875,55.938720703125
1.3924999000000002,0.16759411990642548,-1.0893617868423462,9.402029991149902,-16.998291015625,-22.15576171875,62.225341796875
1.3974999000000001,1.5280991792678833,-2.250549554824829,9.130887031555176,24.35302734375,-20.1416015625,96.25244140625
1.4024999000000002,1.998559832572937,-2.918531894683838,8.802282333374023,44.097900390625,7.4462890625,87.7685546875
1.4074999000000001,1.8692729473114014,-1.5041571855545044,9.402628898620605,10.955810546875,17.303466796875,-49.49951171875
1.4124999,1.754351258277893,-0.34835633635520935,9.943120002746582,8.209228515625,29.78515625,-45.5322265625
1.4174999000000001,1.4640543460845947,0.375291109085083,10.162787437438965,5.706787109375,31.73828125,-38.238525390625
1.4224999,0.8768763542175293,0.8643068075180054,10.411784172058105,2.044677734375,22.94921875,-79.7119140625
1.4274999000000002,-0.5345055460929871,0.8732850551605225,10.34833812713623,-20.5078125,-3.936767578125,-87.70751953125
1.4324999,-1.92134690284729,1.1450269222259521,10.149619102478027,-27.313232421875,-10.009765625,-55.17578125
1.4374999000000002,-2.27748441696167,1.0911574363708496,10.104728698730469,-26.55029296875,-30.76171875,14.404296875
1.4424999,1.9614497423171997,-2.782660961151123,8.884882926940918,44.830322265625,-2.62451171875,98.08349609375
1.4474999000000002,2.160767078399658,-2.7748796939849854,8.69214916229248,33.203125,21.42333984375,44.921875
1.4524999,1.6968904733657837,-0.7416039705276489,9.810839653015137,9.002685546875,26.67236328125,-53.436279296875
1.4574999000000002,1.4957774877548218,0.31184476613998413,10.083779335021973,6.4697265625,31.31103515625,-32.867431640625
1.4624999,0.9894038438796997,0.6829460263252258,10.116100311279297,3.814697265625,27.9541015625,-67.9931640625
1.4674999000000002,-0.13168109953403473,0.9445125460624695,10.210073471069336,-14.373779296875,1.556396484375,-90.728759765625
1.4724999,-1.6250643730163574,0.9331400990486145,10.111910820007324,-25.848388671875,-7.568359375,-69.793701171875
1.4774999000000002,-2.234388828277588,1.0372878313064575,10.034697532653809,-28.656005859375,-23.040771484375,-8.331298828125
1.4824999,-2.057217836380005,0.6440402865409851,10.412981986999512,-20.355224609375,-39.642333984375,49.37744140625
1.4874999000000002,-0.8277952671051025,-0.23762452602386475,9.86650562286377,-23.74267578125,-27.618408203125,55.96923828125
1.4924999,0.9516952037811279,-1.468244194984436,9.477447509765625,-2.410888671875,-21.087646484375,76.751708984375
1.4974999000000002,1.8483237028121948,-2.495356798171997,9.050082206726074,39.00146484375,-12.20703125,101.25732421875
1.5024999,2.165555477142334,-2.9083564281463623,8.741230010986328,39.276123046875,18.218994140625,66.619873046875
1.5074999000000002,2.0428526401519775,-2.1098902225494385,8.984840393066406,17.974853515625,17.578125,-12.26806640625
1.5124999000000001,1.6735470294952393,0.14185644686222076,10.028712272644043,6.89697265625,30.914306640625,-34.820556640625
1.5174999000000002,1.24917471408844,0.28311434388160706,10.271124839782715,4.486083984375,30.548095703125,-53.497314453125
1.5224999000000001,0.39624038338661194,1.1174936294555664,10.334571838378906,-6.103515625,10.7421875,-88.104248046875
1.5274999000000002,-1.215057373046875,0.7469909191131592,10.317214012145996,-24.10888671875,-6.622314453125,-78.67431640625
1.5324999000000001,-2.1984755992889404,1.2856862545013428,9.95090103149414,-29.327392578125,-16.17431640625,-30.303955078125
1.5374999000000003,-2.252943754196167,0.9528923034667969,10.204087257385254,-23.01025390625,-38.299560546875,36.865234375
1.5424999000000001,-1.4155718088150024,0.1107318252325058,9.864709854125977,-22.613525390625,-31.402587890625,56.396484375
1.5474999,0.3776853084564209,-1.1180921792984009,9.364919662475586,-14.22119140625,-21.54541015625,66.619873046875
1.5524999000000002,1.601720929145813,-2.2894554138183594,9.068038940429688,28.62548828125,-19.134521484375,100.311279296875
1.5574999,2.0655975341796875,-2.941276788711548,8.716690063476562,44.464111328125,10.589599609375,85.418701171875
1.5624999000000002,2.1086931228637695,-2.4438812732696533,8.768763542175293,24.383544921875,20.416259765625,13.3056640625
1.5674999,1.8746598958969116,-1.4419080018997192,9.424775123596191,10.498046875,18.035888671875,-52.42919921875
1.5724999000000002,1.4305355548858643,-1.912368655204773,9.121908187866211,15.31982421875,-21.820068359375,91.552734375
1.5774999,1.964442491531372,-2.866457939147949,8.819042205810547,45.22705078125,0.030517578125,96.923828125
1.5824999000000002,2.11946702003479,-2.7030537128448486,8.700529098510742,31.219482421875,22.186279296875,40.069580078125
1.5874999,1.9488801956176758,-1.7088614702224731,9.258976936340332,12.39013671875,15.93017578125,-38.4521484375
1.5924999000000002,1.73519766330719,-0.5895721912384033,9.854534149169922,8.392333984375,27.557373046875,-51.239013671875
1.5974999,1.5783774852752686,0.3998316824436188,10.112509727478027,6.439208984375,32.135009765625,-32.77587890625
1.6024999000000002,1.028908133506775,0.8146271109580994,10.154407501220703,3.936767578125,27.130126953125,-70.73974609375
1.6074999,-0.17717093229293823,1.0091559886932373,10.195109367370605,-16.082763671875,0.244140625,-90.576171875
1.6124999000000002,-1.698686122894287,1.0720038414001465,10.087369918823242,-26.641845703125,-8.056640625,-68.05419921875
1.6174999,-2.274491548538208,1.0995371341705322,10.010157585144043,-28.656005859375,-24.200439453125,-4.913330078125
1.6224999000000002,-2.03507137298584,0.6386532783508301,10.34953498840332,-20.477294921875,-39.031982421875,50.872802734375
1.6274999,-0.7254431247711182,-0.3531447649002075,9.84615421295166,-24.169921875,-26.3671875,55.96923828125
1.6324999000000002,1.0773907899856567,-1.5735890865325928,9.443329811096191,-0.732421875,-20.751953125,78.9794921875
1.6374999000000001,1.9231425523757935,-2.6198551654815674,9.038111686706543,40.71044921875,-11.444091796875,101.74560546875
1.6424999000000002,2.1912930011749268,-2.955641984939575,8.714295387268066,39.36767578125,18.890380859375,62.164306640625
1.6474999000000001,2.0189106464385986,-2.0907366275787354,8.98005199432373,17.27294921875,17.608642578125,-18.12744140625
1.6524999000000002,1.7561469078063965,-1.028908133506775,9.640851974487305,9.33837890625,23.223876953125,-56.671142578125
1.6574999000000001,1.5969325304031372,0.21009120345115662,10.020931243896484,6.77490234375,31.280517578125,-33.905029296875
1.6624999000000003,0.30526071786880493,1.0115501880645752,10.326191902160645,-7.049560546875,8.9111328125,-91.552734375
1.6674999000000001,-1.3120225667953491,0.6272808313369751,10.289081573486328,-24.444580078125,-7.049560546875,-80.352783203125
1.6724999,-2.2379801273345947,1.0887632369995117,9.93593692779541,-28.6865234375,-16.9677734375,-28.839111328125
1.6774999000000002,-2.2697031497955322,0.7996633648872375,10.195708274841309,-21.78955078125,-39.154052734375,39.36767578125
1.6824999,-1.3784615993499756,0.04489128291606903,9.820416450500488,-22.369384765625,-31.18896484375,56.2744140625
1.6874999000000002,0.4279635548591614,-1.161187767982483,9.38167953491211,-12.725830078125,-21.575927734375,66.497802734375
1.6924999,1.6112977266311646,-2.2637176513671875,9.091382026672363,30.1513671875,-18.6767578125,99.91455078125
1.6974999000000002,2.0829553604125977,-2.872443437576294,8.771756172180176,43.212890625,11.505126953125,83.831787109375
1.7024999,2.123656988143921,-2.3104045391082764,8.860342025756836,23.0712890625,20.477294921875,11.65771484375
1.7074999000000002,1.92134690284729,-1.3239935636520386,9.48882007598877,9.307861328125,18.12744140625,-52.6123046875
1.7124999,1.9033904075622559,-0.16579847037792206,10.005967140197754,7.26318359375,30.426025390625,-41.56494140625
1.7174999000000002,1.4867992401123047,0.3770867586135864,10.211869239807129,5.2490234375,31.707763671875,-41.351318359375
1.7224999,-0.7469909191131592,0.778714120388031,10.3549222946167,-22.3388671875,-5.401611328125,-86.822509765625
1.7274999000000002,-2.1098902225494385,1.1516109704971313,10.088567733764648,-28.350830078125,-10.955810546875,-51.3916015625
1.7324999,-2.3798365592956543,0.9253589510917664,10.131064414978027,-25.87890625,-33.477783203125,19.378662109375
1.7374999000000002,-1.7334020137786865,0.363918662071228,9.96945571899414,-20.5078125,-35.919189453125,55.7861328125
1.7424999,-0.15143325924873352,-0.8421604633331299,9.418789863586426,-21.026611328125,-23.040771484375,58.746337890625
1.7474999000000002,1.488594889640808,-1.9572598934173584,9.096170425415039,15.93017578125,-21.331787109375,92.437744140625
1.7524999,2.036867141723633,-2.9029695987701416,8.812458038330078,46.112060546875,0.244140625,97.83935546875
1.7574999000000002,2.1583728790283203,-2.7126305103302,8.703521728515625,31.646728515625,22.705078125,39.55078125
1.7624999000000001,1.9590555429458618,-1.6980875730514526,9.27334213256836,12.603759765625,16.815185546875,-38.970947265625
1.7674999000000002,1.7345991134643555,-0.5596446394920349,9.873088836669922,8.6669921875,28.3203125,-50.994873046875
1.7724999000000001,1.7345991134643555,-0.5596446394920349,9.873088836669922,8.6669921875,28.3203125,-50.994873046875
1.7774999000000002,-0.060453593730926514,0.7870938181877136,10.09814453125,-15.899658203125,-1.3427734375,-93.8720703125
1.7824999000000001,-1.5897499322891235,0.657806932926178,9.959878921508789,-26.06201171875,-7.50732421875,-72.265625
1.7874999000000003,-2.30022931098938,0.7948749661445618,9.832986831665039,-26.67236328125,-21.881103515625,-9.979248046875
1.7924999000000001,-2.1948843002319336,0.45669397711753845,10.24538803100586,-17.364501953125,-39.1845703125,49.957275390625
1.7974999,-1.0360907316207886,-0.3148375153541565,9.741408348083496,-21.3623046875,-27.40478515625,53.619384765625
1.8024999000000002,0.71766197681427,-1.4209587574005127,9.496601104736328,-1.007080078125,-20.20263671875,71.6552734375
1.8074999,1.646013617515564,-2.316988706588745,9.17936897277832,36.224365234375,-12.0849609375,95.03173828125
1.8124999000000002,2.079962730407715,-2.6443958282470703,8.921394348144531,34.881591796875,16.41845703125,61.09619140625
1.8174999,2.10210919380188,-1.8656816482543945,9.163806915283203,16.05224609375,17.02880859375,-13.3056640625
1.8224999000000002,1.9889830350875854,-0.9594763517379761,9.708487510681152,8.087158203125,23.101806640625,-53.253173828125
1.8274999,1.9141643047332764,0.08918401598930359,10.015543937683105,7.75146484375,32.77587890625,-32.440185546875
1.8324999000000002,0.6506243348121643,0.970848798751831,10.186729431152344,-4.82177734375,9.613037109375,-89.080810546875
1.8374999,-1.036689281463623,0.5410895943641663,10.157401084899902,-25.20751953125,-8.48388671875,-80.047607421875
1.8424999000000002,-2.183511972427368,1.1456254720687866,9.767744064331055,-28.01513671875,-13.702392578125,-34.66796875
1.8474999,-2.4223334789276123,0.7835025191307068,10.02811336517334,-21.97265625,-37.65869140625,34.0576171875
1.8524999000000002,-1.742978811264038,-0.0011971008498221636,9.807847023010254,-20.8740234375,-33.50830078125,54.26025390625
1.8574999,-0.05267243832349777,-1.0672154426574707,9.393052101135254,-16.05224609375,-22.308349609375,59.2041015625
1.8624999000000002,1.316810965538025,-2.1368250846862793,9.20211410522461,24.35302734375,-20.8740234375,95.062255859375
1.8674999,1.9165585041046143,-2.7437551021575928,8.878896713256836,41.748046875,6.805419921875,88.531494140625
1.8724999000000002,2.126051187515259,-2.3325510025024414,8.904036521911621,24.35302734375,20.3857421875,23.3154296875
1.8774999,2.029085874557495,-1.4155718088150024,9.421183586120605,9.613037109375,17.059326171875,-46.844482421875
1.8824999000000002,1.9267338514328003,-0.406415730714798,9.935338973999023,8.209228515625,30.853271484375,-45.10498046875
1.8874999000000001,1.6597803831100464,0.314238965511322,10.086173057556152,6.866455078125,33.0810546875,-35.858154296875
1.8924999000000002,-0.43514615297317505,0.7158663272857666,10.24119758605957,-20.477294921875,-4.39453125,-88.104248046875
1.8974999000000001,-1.9051860570907593,0.8918401598930359,10.098742485046387,-27.557373046875,-9.307861328125,-59.783935546875
1.9024999000000002,-2.3475148677825928,0.9199720025062561,10.053253173828125,-26.885986328125,-28.99169921875,8.087158203125
1.9074999000000001,-1.974617838859558,0.5632359385490417,10.072406768798828,-20.263671875,-38.39111328125,53.955078125
1.9124999000000003,-0.5183446407318115,-0.5093663930892944,9.585186958312988,-23.834228515625,-25.20751953125,54.99267578125
1.9174999000000001,1.173158884048462,-1.590348482131958,9.2033109664917,6.622314453125,-22.125244140625,84.5947265625
1.9224999,1.9829975366592407,-1.866280198097229,9.113529205322266,14.495849609375,16.143798828125,-25.299072265625
1.9274999000000002,1.7753005027770996,-0.8343793153762817,9.757569313049316,8.331298828125,25.360107421875,-55.023193359375
1.9324999,1.6208745241165161,0.27473464608192444,10.070611000061035,6.89697265625,32.40966796875,-32.40966796875
1.9374999000000002,1.1785458326339722,0.2693476974964142,10.287884712219238,4.2724609375,29.693603515625,-59.63134765625
1.9424999,-1.4538789987564087,0.6302735805511475,10.283096313476562,-25.32958984375,-7.293701171875,-75.3173828125
1.9474999000000002,-2.2888567447662354,1.1037269830703735,9.9401273727417,-29.60205078125,-18.98193359375,-22.308349609375
1.9524999,-2.214038133621216,0.8738836050033569,10.244190216064453,-22.3388671875,-39.642333984375,42.41943359375
1.9574999000000002,-1.138442873954773,0.1711854189634323,9.839570045471191,-24.84130859375,-29.72412109375,56.09130859375
1.9624999,0.6805518269538879,-1.1121066808700562,9.38167953491211,-11.627197265625,-21.575927734375,70.80078125
1.9674999000000002,1.7741034030914307,-2.2200236320495605,8.996811866760254,33.5693359375,-19.287109375,104.79736328125
1.9724999,2.1272482872009277,-2.9053637981414795,8.683171272277832,45.684814453125,12.786865234375,85.052490234375
1.9774999000000002,2.0410568714141846,-2.390610456466675,8.756793022155762,22.94921875,19.287109375,7.9345703125
1.9824999,1.777694821357727,-1.4293384552001953,9.44752025604248,9.58251953125,19.22607421875,-55.419921875
1.9874999000000002,1.7178397178649902,-0.23343466222286224,10.028712272644043,7.568359375,31.25,-41.778564453125
1.9924999,1.337161660194397,0.3034650683403015,10.253767013549805,4.791259765625,31.585693359375,-41.717529296875
1.9974999000000002,0.7032967209815979,1.0576386451721191,10.471040725708008,-0.48828125,18.798828125,-81.9091796875
2.0024999,-1.566406488418579,0.3387795388698578,9.960477828979492,-21.026611328125,-35.125732421875,56.640625
2.0074999,0.005386953707784414,-0.8684966564178467,9.428366661071777,-21.30126953125,-23.0712890625,60.882568359375
2.0124999000000003,1.5604209899902344,-1.9818004369735718,9.10574722290039,16.78466796875,-22.491455078125,94.451904296875
2.0174999000000002,1.997362732887268,-2.874837636947632,8.808267593383789,46.661376953125,-0.06103515625,99.578857421875
2.0224999,2.058414936065674,-2.695272445678711,8.695141792297363,31.341552734375,21.78955078125,40.6494140625
2.0274999,1.8626888990402222,-1.703474521636963,9.265560150146484,11.810302734375,15.68603515625,-39.36767578125
2.0324999000000004,1.656787633895874,-0.585382342338562,9.872490882873535,8.087158203125,28.50341796875,-52.18505859375
2.0374999000000003,1.5263035297393799,0.3902548849582672,10.123882293701172,6.2255859375,32.501220703125,-33.02001953125
2.0424999,0.9876081943511963,0.8092401623725891,10.168174743652344,3.5400390625,27.496337890625,-69.4580078125
2.0474999,-0.22206220030784607,1.0097545385360718,10.217854499816895,-15.80810546875,0.457763671875,-90.51513671875
2.0524999,-2.3104045391082764,1.1007342338562012,10.030508041381836,-28.533935546875,-23.834228515625,-9.765625
2.0574999000000003,-2.033275842666626,0.6380547285079956,10.38724422454834,-19.83642578125,-39.24560546875,49.896240234375
2.0624999,-0.7200561761856079,-0.2950853705406189,9.855133056640625,-23.590087890625,-26.9775390625,57.647705078125
2.0674999,1.062427043914795,-1.5316904783248901,9.46487808227539,-1.3427734375,-21.484375,79.498291015625
2.0724999,1.8782511949539185,-2.5276784896850586,9.039308547973633,40.618896484375,-13.5498046875,104.766845703125
2.0774999000000003,2.118269920349121,-2.9059622287750244,8.732851028442383,40.069580078125,18.096923828125,69.549560546875
2.0824999,1.9829975366592407,-2.078166961669922,8.97885513305664,17.364501953125,17.02880859375,-11.29150390625
2.0874999,1.7741034030914307,-1.0558429956436157,9.636063575744629,8.36181640625,22.064208984375,-57.0068359375
2.0924999,1.6873136758804321,0.13946224749088287,10.038289070129395,6.988525390625,32.012939453125,-34.942626953125
2.0974999000000003,1.2958617210388184,0.2968810200691223,10.264541625976562,4.425048828125,31.06689453125,-51.849365234375
2.1024999,0.43275195360183716,1.1432312726974487,10.360309600830078,-5.340576171875,11.749267578125,-88.2568359375
2.1074999,-1.2066776752471924,0.7805097699165344,10.338163375854492,-24.627685546875,-6.65283203125,-82.061767578125
2.1124999,-2.275090217590332,0.9726444482803345,10.24239444732666,-23.3154296875,-37.78076171875,32.04345703125
2.1174999000000003,-1.3724761009216309,0.11432313174009323,9.951498985290527,-22.125244140625,-32.16552734375,57.67822265625
2.1224999,0.39564183354377747,-1.1073182821273804,9.426570892333984,-16.11328125,-21.575927734375,65.887451171875
2.1274999,1.701080322265625,-2.3116016387939453,9.0859956741333,27.252197265625,-21.392822265625,101.287841796875
2.1324999,2.078166961669922,-2.9765913486480713,8.758588790893555,47.119140625,7.8125,92.987060546875
2.1374999000000003,2.0679917335510254,-2.5145103931427,8.739435195922852,26.458740234375,21.78955078125,22.52197265625
2.1424999000000002,1.8375498056411743,-1.4814122915267944,9.396044731140137,9.8876953125,16.78466796875,-50.079345703125
2.1474999,1.7220295667648315,-0.2992752194404602,9.967659950256348,7.62939453125,30.33447265625,-45.71533203125
2.1524999,1.4766238927841187,0.47225627303123474,10.179547309875488,5.7373046875,32.684326171875,-37.04833984375
2.1574999000000004,0.9103952050209045,0.7463923692703247,10.367491722106934,2.50244140625,23.49853515625,-79.254150390625
2.1624999000000003,1.9159599542617798,-1.9081788063049316,9.071630477905273,14.5263671875,16.021728515625,-25.81787109375
2.1674999,1.6717513799667358,-0.8463503122329712,9.750386238098145,8.30078125,24.5361328125,-56.793212890625
2.1724999,1.53707754611969,0.2885012924671173,10.090363502502441,6.500244140625,31.951904296875,-32.928466796875
2.1774999000000004,1.1468225717544556,0.2890998423099518,10.299856185913086,4.08935546875,30.242919921875,-60.48583984375
2.1824999000000003,0.12270283699035645,0.8858546018600464,10.330381393432617,-9.94873046875,6.134033203125,-91.1865234375
2.1874999,-1.45806884765625,0.6177040338516235,10.304644584655762,-25.543212890625,-7.171630859375,-79.40673828125
2.1924999,-1.080383539199829,0.1430535465478897,9.810839653015137,-22.979736328125,-29.541015625,57.952880859375
2.1974999,0.7727286219596863,-1.138442873954773,9.360730171203613,-10.528564453125,-20.965576171875,71.71630859375
2.2024999000000003,1.8531121015548706,-2.234987258911133,9.000402450561523,33.935546875,-18.829345703125,104.888916015625
2.2074999,2.144606113433838,-2.868852138519287,8.701725959777832,45.0439453125,13.214111328125,85.357666015625
2.2124999,2.0219032764434814,-2.297835111618042,8.797493934631348,22.39990234375,19.805908203125,8.453369140625
2.2174999,1.7471686601638794,-1.3275848627090454,9.484031677246094,9.002685546875,18.12744140625,-55.48095703125
2.2224999000000003,1.6944962739944458,-0.14065934717655182,10.037092208862305,7.32421875,31.18896484375,-40.863037109375
2.2274999,1.3539210557937622,0.3687070608139038,10.253169059753418,4.974365234375,32.073974609375,-42.29736328125
2.2324999,0.730231523513794,1.0193313360214233,10.475829124450684,-0.213623046875,18.5546875,-84.41162109375
2.2374999,-0.8637082576751709,0.811634361743927,10.369287490844727,-23.406982421875,-5.859375,-88.470458984375
2.2424999000000003,1.6160861253738403,-1.9518729448318481,9.059659004211426,15.9912109375,-23.0712890625,95.550537109375
2.2474999,2.081159830093384,-2.894589900970459,8.786720275878906,47.2412109375,-1.03759765625,103.607177734375
2.2524999,2.1134815216064453,-2.735974073410034,8.672396659851074,32.77587890625,23.162841796875,46.7529296875
2.2574999,1.8932149410247803,-1.7256208658218384,9.233837127685547,11.932373046875,15.380859375,-36.4990234375
2.2624999000000003,1.670554280281067,-0.6021417379379272,9.88386344909668,7.965087890625,27.77099609375,-54.229736328125
2.2674999000000002,1.5412673950195312,0.43694180250167847,10.114903450012207,6.683349609375,33.355712890625,-32.562255859375
2.2724999,1.0540473461151123,0.6374561786651611,10.132261276245117,3.753662109375,28.289794921875,-68.389892578125
2.2774999,-0.13826514780521393,0.9157821536064148,10.185532569885254,-14.923095703125,0.946044921875,-93.505859375
2.2824999000000004,-1.7064672708511353,0.8289923667907715,10.073603630065918,-27.008056640625,-7.843017578125,-76.019287109375
2.2874999000000003,-2.361281394958496,0.9666589498519897,9.952696800231934,-29.1748046875,-21.942138671875,-17.242431640625
2.2924999,1.9979612827301025,-2.385822057723999,8.989029884338379,38.51318359375,-16.448974609375,106.903076171875
2.2974999,2.2008697986602783,-2.9161376953125,8.73344898223877,43.304443359375,17.02880859375,77.69775390625
2.3024999000000004,2.009932279586792,-2.2014684677124023,8.902240753173828,19.805908203125,18.9208984375,-3.509521484375
2.3074999000000003,1.7148469686508179,-1.2234370708465576,9.624092102050781,8.7890625,20.751953125,-57.830810546875
2.3124999,1.568800687789917,-0.025737667456269264,10.06582260131836,7.110595703125,32.1044921875,-37.689208984375
2.3174999,1.236605167388916,0.32680854201316833,10.293869972229004,4.57763671875,31.646728515625,-48.004150390625
2.3224999,0.4920084476470947,1.2030863761901855,10.383652687072754,-3.082275390625,14.190673828125,-89.2333984375
2.3274999000000003,-1.0773907899856567,0.8732850551605225,10.32978343963623,-24.078369140625,-6.561279296875,-88.2568359375
2.3324999,-2.1996726989746094,1.426345705986023,9.97484302520752,-28.6865234375,-12.908935546875,-48.33984375
2.3374999,-2.2822728157043457,1.0271124839782715,10.162787437438965,-23.4375,-36.0107421875,25.146484375
2.3424999,2.05781626701355,-2.9083564281463623,8.828020095825195,46.234130859375,3.082275390625,98.602294921875
2.3474999000000003,2.0039467811584473,-2.6126725673675537,8.771756172180176,29.022216796875,22.52197265625,36.529541015625
2.3524999,1.754351258277893,-1.592742681503296,9.345168113708496,10.31494140625,14.58740234375,-42.3583984375
2.3574999,1.5556325912475586,-0.4710591733455658,9.917980194091797,7.415771484375,28.228759765625,-50.628662109375
2.3624999,1.5556325912475586,-0.4710591733455658,9.917980194091797,7.415771484375,28.228759765625,-50.628662109375
2.3674999000000003,1.4347254037857056,0.45489832758903503,10.13286018371582,5.92041015625,32.53173828125,-33.782958984375
2.3724999,0.9139865040779114,0.750582218170166,10.182539939880371,3.387451171875,26.42822265625,-72.3876953125
2.3774999,-0.3429693877696991,0.9032126069068909,10.17296314239502,-17.669677734375,-0.8544921875,-91.12548828125
2.3824999,-1.8183962106704712,0.9564836025238037,10.08318042755127,-27.252197265625,-8.270263671875,-69.82421875
2.3874999000000003,-2.3133974075317383,0.9415197968482971,9.973047256469727,-28.717041015625,-25.57373046875,-7.14111328125
2.3924999000000002,-0.5428852438926697,-0.46327802538871765,9.757569313049316,-23.468017578125,-25.93994140625,58.59375
2.3974999,1.2635399103164673,-1.656787633895874,9.376891136169434,1.220703125,-22.064208984375,83.3740234375
2.4024999,2.162562608718872,-2.9083564281463623,8.694543838500977,40.679931640625,20.355224609375,71.4111328125
2.4074999000000004,2.162562608718872,-2.9083564281463623,8.694543838500977,40.679931640625,20.355224609375,71.4111328125
2.4124999000000003,1.9482816457748413,-2.0165164470672607,8.975862503051758,16.845703125,17.27294921875,-11.962890625
2.4174999,1.7016788721084595,-0.9714473485946655,9.655815124511719,8.026123046875,21.6064453125,-58.074951171875
2.4224999,1.6112977266311646,0.23044191300868988,10.035895347595215,6.988525390625,32.623291015625,-35.430908203125
2.4274999000000004,1.2348095178604126,0.32381579279899597,10.261548042297363,4.57763671875,31.6162109375,-53.680419921875
2.4324999000000003,0.4076128304004669,1.0809820890426636,10.320206642150879,-5.523681640625,10.986328125,-90.667724609375
2.4374999,-1.2545616626739502,0.6506243348121643,10.273519515991211,-24.993896484375,-6.927490234375,-84.381103515625
2.4424999,-2.273294448852539,1.1288660764694214,9.917980194091797,-28.6865234375,-15.0146484375,-39.97802734375
2.4474999,-2.29484224319458,0.7577648162841797,10.132261276245117,-22.186279296875,-37.750244140625,31.219482421875
2.4524999000000003,0.37888240814208984,-1.1671733856201172,9.402029991149902,-14.892578125,-21.575927734375,65.49072265625
2.4574999,0.37888240814208984,-1.1671733856201172,9.402029991149902,-14.892578125,-21.575927734375,65.49072265625
2.4624999,1.6687586307525635,-2.251746654510498,9.131484985351562,26.153564453125,-22.0947265625,100.52490234375
2.4674999,2.0416555404663086,-2.83174204826355,8.821435928344727,43.914794921875,7.354736328125,94.29931640625
2.4724999000000003,2.0470423698425293,-2.3570916652679443,8.834604263305664,25.5126953125,22.308349609375,28.289794921875
2.4774999,1.8513164520263672,-1.3760673999786377,9.39365005493164,8.9111328125,15.31982421875,-47.271728515625
2.4824999,1.533486247062683,0.42676645517349243,10.090363502502441,6.28662109375,32.958984375,-35.614013671875
2.4874999,0.9283517003059387,0.7026981711387634,10.256759643554688,2.532958984375,24.017333984375,-77.056884765625
2.4924999000000003,-0.4638765752315521,0.8649053573608398,10.227431297302246,-20.294189453125,-3.143310546875,-91.827392578125
2.4974999,-1.9279309511184692,1.0360907316207886,10.114903450012207,-27.83203125,-8.941650390625,-66.253662109375
2.5024999,-2.3582887649536133,1.0348936319351196,10.0765962600708,-27.34375,-27.64892578125,0.274658203125
2.5074999,-1.9189527034759521,0.6051344871520996,10.198101997375488,-18.9208984375,-38.39111328125,53.192138671875
2.5124999000000003,1.2982559204101562,-1.644816517829895,9.304466247558594,6.103515625,-22.216796875,85.052490234375
2.5174999000000002,1.2982559204101562,-1.644816517829895,9.304466247558594,6.103515625,-22.216796875,85.052490234375
2.5224999,1.9937714338302612,-2.653972625732422,8.945934295654297,43.548583984375,-9.674072265625,104.6142578125
2.5274999,2.1128830909729004,-2.7976245880126953,8.723274230957031,36.56005859375,21.484375,62.56103515625
2.5324999000000004,1.9183541536331177,-1.8698714971542358,9.088988304138184,14.58740234375,16.143798828125,-19.34814453125
2.5374999000000003,1.7064672708511353,-0.8301894664764404,9.730634689331055,7.354736328125,22.857666015625,-56.94580078125
2.5424999,1.6466121673583984,0.29568392038345337,10.05923843383789,6.77490234375,32.8369140625,-33.416748046875
2.5474999,1.2539631128311157,0.2801215946674347,10.269330024719238,4.608154296875,30.8837890625,-57.403564453125
2.5524999000000004,0.3256114423274994,0.9481038451194763,10.308834075927734,-8.056640625,8.148193359375,-91.61376953125
2.5574999000000003,-1.3335703611373901,0.5925649404525757,10.287884712219238,-25.57373046875,-6.866455078125,-81.695556640625
2.5624999,1.7106571197509766,-2.275090217590332,9.057265281677246,30.120849609375,-21.209716796875,102.874755859375
2.5674999,1.7106571197509766,-2.275090217590332,9.057265281677246,30.120849609375,-21.209716796875,102.874755859375
2.5724999,2.0835540294647217,-2.869450807571411,8.754997253417969,44.952392578125,9.979248046875,90.606689453125
2.5774999000000003,2.0470423698425293,-2.31758713722229,8.804078102111816,23.86474609375,21.484375,19.561767578125
2.5824999,1.8124107122421265,-1.3227964639663696,9.440337181091309,8.72802734375,16.082763671875,-51.666259765625
2.5874999,1.7142484188079834,-0.18555063009262085,9.970054626464844,7.50732421875,30.70068359375,-44.921875
2.5924999,1.460463047027588,0.45010992884635925,10.164583206176758,5.523681640625,32.28759765625,-38.14697265625
2.5974999000000003,0.8643068075180054,0.7864952683448792,10.406397819519043,1.617431640625,22.186279296875,-80.963134765625
2.6024999,-0.6063315868377686,0.7823054194450378,10.308235168457031,-21.636962890625,-4.0283203125,-90.8203125
2.6074999,-2.0183119773864746,0.9762357473373413,10.1568021774292,-28.25927734375,-9.613037109375,-61.46240234375
2.6124999,-2.3265655040740967,0.9074024558067322,10.056844711303711,-26.85546875,-29.84619140625,6.9580078125
2.6174999000000003,-1.7848774194717407,0.49380409717559814,10.040084838867188,-19.34814453125,-37.322998046875,54.656982421875
2.6224999,2.1128830909729004,-2.7700912952423096,8.693944931030273,35.919189453125,22.491455078125,56.854248046875
2.6274999,1.8632874488830566,-1.8046295642852783,9.139266014099121,13.61083984375,15.625,-26.9775390625
2.6324999,1.6208745241165161,-0.7374141216278076,9.808445930480957,7.568359375,24.749755859375,-56.7626953125
2.6374999000000003,1.5047557353973389,0.3860650360584259,10.097545623779297,6.28662109375,32.623291015625,-33.050537109375
2.6424999000000002,1.12467622756958,0.34835633635520935,10.301651000976562,3.60107421875,29.78515625,-62.103271484375
2.6474999,0.06404489278793335,0.9241618514060974,10.310030937194824,-11.23046875,5.279541015625,-93.8720703125
2.6524999,-1.5119383335113525,0.6482301354408264,10.293869972229004,-26.458740234375,-6.927490234375,-81.390380859375
2.6574999000000004,-2.340332269668579,1.0881646871566772,9.946710586547852,-30.670166015625,-18.85986328125,-28.6865234375
2.6624999000000003,-2.169146776199341,0.7972691655158997,10.24538803100586,-22.15576171875,-39.642333984375,40.283203125
2.6674999,-1.0097545385360718,0.05985504388809204,9.797672271728516,-23.468017578125,-29.4189453125,58.9599609375
2.6724999,2.0452468395233154,-2.339733600616455,8.749011993408203,23.529052734375,21.484375,10.8642578125
2.6774999000000004,1.7064672708511353,-1.3198037147521973,9.487024307250977,9.09423828125,18.280029296875,-56.09130859375
2.6824999000000003,1.6400281190872192,-0.09816227108240128,10.056245803833008,7.38525390625,31.585693359375,-42.999267578125
2.6874999,1.2934675216674805,0.48482584953308105,10.272322654724121,4.638671875,32.3486328125,-42.327880859375
2.6924999,0.727837324142456,1.0013748407363892,10.471639633178711,-0.42724609375,19.012451171875,-86.212158203125
2.6974999,-0.8571242094039917,0.788889467716217,10.367491722106934,-23.8037109375,-5.523681640625,-92.529296875
2.7024999000000003,-2.212242364883423,1.07379949092865,10.068815231323242,-29.571533203125,-10.589599609375,-59.783935546875
2.7074999,-2.4145524501800537,0.8158242106437683,10.056245803833008,-26.702880859375,-32.440185546875,11.138916015625
2.7124999,-1.6938977241516113,0.2908954918384552,9.947309494018555,-20.263671875,-36.9873046875,56.365966796875
2.7174999,-0.010773907415568829,-0.8792705535888672,9.419387817382812,-22.613525390625,-22.796630859375,61.46240234375
2.7224999000000003,1.802833914756775,-1.754351258277893,9.148244857788086,12.87841796875,15.350341796875,-32.012939453125
2.7274999,1.5298948287963867,-0.6230909824371338,9.844358444213867,7.537841796875,25.665283203125,-56.304931640625
2.7324999,1.4000093936920166,0.47165772318840027,10.122086524963379,6.16455078125,32.745361328125,-33.5693359375
2.7374999,1.0133458375930786,0.558447539806366,10.31601619720459,3.326416015625,29.1748046875,-65.85693359375
2.7424999000000003,-0.060453593730926514,0.960673451423645,10.292074203491211,-13.153076171875,3.387451171875,-94.329833984375
2.7474999,-1.5945383310317993,0.7835025191307068,10.286687850952148,-26.79443359375,-7.01904296875,-79.65087890625
2.7524999,-2.3050177097320557,1.0672154426574707,9.958083152770996,-29.510498046875,-19.622802734375,-24.23095703125
2.7574999,-2.074575662612915,0.7206547260284424,10.27890682220459,-20.660400390625,-39.703369140625,43.0908203125
2.7624999000000003,-0.8056488633155823,0.005386953707784414,9.78869342803955,-22.94921875,-28.076171875,58.563232421875
2.7674999000000002,1.0408791303634644,-1.3096283674240112,9.368511199951172,-7.843017578125,-20.233154296875,74.798583984375
2.7724999,1.9776105880737305,-2.256535053253174,8.841787338256836,21.54541015625,20.660400390625,4.180908203125
2.7774999,1.6286556720733643,-1.268328309059143,9.543288230895996,8.85009765625,19.22607421875,-56.5185546875
2.7824999000000004,1.5155296325683594,-0.04489128291606903,10.061633110046387,7.171630859375,31.890869140625,-40.46630859375
2.7874999000000003,1.20368492603302,0.4082113802433014,10.266935348510742,4.7607421875,32.135009765625,-45.379638671875
2.7924999,0.5847837924957275,1.1192892789840698,10.45966911315918,-1.190185546875,16.7236328125,-88.958740234375
2.7974999,-0.9528923034667969,0.8415619134902954,10.351929664611816,-24.47509765625,-6.744384765625,-91.85791015625
2.8024999000000004,-1.5610195398330688,0.3579331636428833,9.932345390319824,-20.294189453125,-35.94970703125,56.427001953125
2.8074999000000003,0.1041477769613266,-0.872686505317688,9.416994094848633,-21.697998046875,-22.216796875,60.546875
2.8124999,1.7369933128356934,-1.9835960865020752,9.085396766662598,15.625,-22.5830078125,95.64208984375
2.8174999,2.1122844219207764,-2.759916067123413,8.69214916229248,33.599853515625,23.37646484375,47.36328125
2.8224999,1.7956513166427612,-1.7220295667648315,9.230246543884277,12.237548828125,15.5029296875,-34.912109375
2.8274999000000003,1.5161281824111938,-0.586579442024231,9.889848709106445,7.568359375,26.458740234375,-54.290771484375
2.8324999,1.3724761009216309,0.46327802538871765,10.119691848754883,6.317138671875,32.470703125,-33.50830078125
2.8374999,0.9361328482627869,0.6117185354232788,10.247182846069336,3.509521484375,28.472900390625,-68.328857421875
2.8424999,-0.17477671802043915,1.0133458375930786,10.257957458496094,-14.190673828125,1.28173828125,-93.68896484375
2.8474999000000003,-1.7070658206939697,0.9157821536064148,10.213066101074219,-26.947021484375,-7.14111328125,-76.47705078125
2.8524999,-2.342127799987793,1.1761516332626343,10.004770278930664,-29.083251953125,-21.54541015625,-18.73779296875
2.8574999,-2.075772762298584,0.7763199210166931,10.337564468383789,-20.93505859375,-40.496826171875,44.586181640625
2.8624999,-0.7416039705276489,0.010773907415568829,9.806051254272461,-23.86474609375,-27.557373046875,57.342529296875
2.8674999000000003,1.1085153818130493,-1.3539210557937622,9.414599418640137,-6.16455078125,-21.270751953125,76.904296875
2.8724999,2.0685901641845703,-2.364274263381958,8.956708908081055,38.02490234375,-17.547607421875,108.45947265625
2.8774999,1.9794062376022339,-2.227804660797119,8.876502990722656,20.599365234375,19.927978515625,3.11279296875
2.8824999,-2.2248120307922363,1.2425906658172607,9.983820915222168,-29.144287109375,-11.627197265625,-53.863525390625
2.8874999000000003,-2.3235726356506348,0.8577227592468262,10.0765962600708,-24.96337890625,-34.48486328125,18.4326171875
2.8924999000000002,-1.4586673974990845,0.21428105235099792,9.904213905334473,-20.721435546875,-34.820556640625,56.793212890625
2.8974999,0.22026655077934265,-1.0079588890075684,9.39784049987793,-21.148681640625,-21.728515625,61.82861328125
2.9024999,1.8213889598846436,-2.10210919380188,9.055469512939453,17.4560546875,-22.76611328125,97.137451171875
2.9074999000000004,2.187103271484375,-2.9700071811676025,8.769960403442383,48.370361328125,-1.068115234375,103.02734375
2.9124999000000003,1.7753005027770996,-1.6777368783950806,9.249998092651367,12.14599609375,15.93017578125,-38.299560546875
2.9174999,1.4945803880691528,-0.5195417404174805,9.88625717163086,7.87353515625,27.64892578125,-53.497314453125
2.9224999,1.3628993034362793,0.49320554733276367,10.137049674987793,6.317138671875,32.77587890625,-33.69140625
2.9274999000000004,0.912190854549408,0.6512228846549988,10.13166332244873,3.2958984375,27.64892578125,-70.86181640625
2.9324999000000003,-0.21128830313682556,0.8858546018600464,10.168174743652344,-15.228271484375,0.18310546875,-96.038818359375
2.9374999,-1.7172411680221558,0.7631517648696899,10.04427433013916,-26.580810546875,-7.293701171875,-77.117919921875
2.9424999,-2.3133974075317383,0.9205705523490906,9.9185791015625,-27.923583984375,-22.216796875,-16.326904296875
2.9474999,-2.0434510707855225,0.5518634915351868,10.314221382141113,-20.01953125,-40.191650390625,46.81396484375
2.9524999000000003,-0.7230489253997803,-0.14006079733371735,9.825204849243164,-23.773193359375,-27.130126953125,56.976318359375
2.9574999,1.0899603366851807,-1.3988122940063477,9.465476036071777,-5.06591796875,-21.270751953125,76.446533203125
2.9624999,2.0027496814727783,-2.3529016971588135,9.02015495300293,38.2080078125,-16.90673828125,106.38427734375
2.9674999,1.678335428237915,-1.170764684677124,9.618705749511719,7.8125,19.53125,-56.793212890625
2.9724999000000003,1.678335428237915,-1.170764684677124,9.618705749511719,7.8125,19.53125,-56.793212890625
2.9774999,1.5705963373184204,0.020949264988303185,10.044873237609863,6.683349609375,31.829833984375,-38.14697265625
2.9824999,1.2485761642456055,0.383670836687088,10.273519515991211,4.638671875,31.55517578125,-46.234130859375
2.9874999,0.5422866940498352,1.0863690376281738,10.361506462097168,-2.349853515625,15.594482421875,-87.432861328125
2.9924999000000003,-1.0229226350784302,0.7547720670700073,10.299856185913086,-24.322509765625,-6.53076171875,-87.158203125
2.9974999,-2.182314872741699,1.1959037780761719,9.975440979003906,-28.38134765625,-11.993408203125,-48.370361328125
3.0024999,-2.273294448852539,0.7960720658302307,10.113706588745117,-24.35302734375,-35.675048828125,22.064208984375
3.0074999,-1.3964180946350098,0.12449848651885986,9.91738224029541,-20.8740234375,-33.905029296875,55.877685546875
3.0124999000000003,0.23403321206569672,-1.0875661373138428,9.430161476135254,-19.317626953125,-21.8505859375,61.676025390625
3.0174999000000002,1.7393875122070312,-2.1703438758850098,9.103353500366211,20.263671875,-23.193359375,97.259521484375
3.0224999,1.9853917360305786,-2.649782657623291,8.736441612243652,30.242919921875,22.76611328125,40.435791015625
3.0274999,1.7489643096923828,-1.5855600833892822,9.304466247558594,10.6201171875,14.34326171875,-39.581298828125
3.0324999000000004,1.5532383918762207,-0.44592007994651794,9.897629737854004,7.2021484375,27.801513671875,-51.910400390625
3.0374999000000003,1.469441294670105,0.48901569843292236,10.122086524963379,6.2255859375,32.562255859375,-32.5927734375
3.0424999,-0.2148796021938324,0.8553285598754883,10.163984298706055,-15.44189453125,0.152587890625,-91.24755859375
3.0474999,-1.7196353673934937,0.8050503134727478,10.037092208862305,-26.30615234375,-7.537841796875,-70.770263671875
3.0524999000000004,-2.2475569248199463,0.8774749040603638,9.98681354522705,-27.7099609375,-23.49853515625,-9.82666015625
3.0574999000000003,-1.954267144203186,0.47884035110473633,10.35252857208252,-19.683837890625,-38.909912109375,47.66845703125
3.0624999,-0.6356605291366577,-0.35494041442871094,9.827000617980957,-22.705078125,-26.06201171875,56.365966796875
3.0674999,1.1037269830703735,-1.5628151893615723,9.485228538513184,-0.946044921875,-21.91162109375,78.369140625
3.0724999000000004,1.9003976583480835,-2.497152328491211,9.042301177978516,39.73388671875,-14.7705078125,104.827880859375
3.0774999000000003,1.6855180263519287,0.10773907601833344,10.070012092590332,7.01904296875,33.111572265625,-35.308837890625
3.0824999,1.357512354850769,0.3363853394985199,10.237606048583984,5.0048828125,31.67724609375,-50.018310546875
3.0874999,0.5476736426353455,1.1432312726974487,10.315418243408203,-3.387451171875,12.75634765625,-89.41650390625
3.0924999,-1.0863690376281738,0.7733271718025208,10.250176429748535,-24.96337890625,-6.9580078125,-85.14404296875
3.0974999000000003,-2.208052635192871,1.3006501197814941,9.881468772888184,-28.25927734375,-12.3291015625,-43.609619140625
3.1024999,-2.3056161403656006,0.8643068075180054,10.06462574005127,-23.3154296875,-36.19384765625,26.79443359375
3.1074999,-1.413776159286499,0.06763619929552078,9.832387924194336,-20.1416015625,-32.65380859375,55.511474609375
3.1124999,0.2687491476535797,-1.139639973640442,9.386467933654785,-17.608642578125,-21.484375,61.1572265625
3.1174999000000003,1.6974890232086182,-2.2379801273345947,9.100360870361328,22.8271484375,-22.186279296875,97.2900390625
3.1224999,2.029085874557495,-2.93888258934021,8.850765228271484,45.41015625,3.662109375,95.306396484375
3.1274999,1.746570110321045,-1.4867992401123047,9.404424667358398,9.857177734375,14.7705078125,-43.853759765625
3.1324999,1.557428240776062,-0.3693056106567383,9.922768592834473,7.2021484375,28.839111328125,-48.27880859375
3.1374999000000003,1.45806884765625,0.48722004890441895,10.10173511505127,6.103515625,32.5927734375,-34.1796875
3.1424999000000002,0.9235633015632629,0.8056488633155823,10.093356132507324,3.448486328125,25.787353515625,-75.408935546875
3.1474999,-0.34356793761253357,0.9714473485946655,10.111910820007324,-18.463134765625,-2.716064453125,-91.85791015625
3.1524999,-1.8225860595703125,1.0642226934432983,10.015543937683105,-27.801513671875,-7.415771484375,-68.389892578125
3.1574999000000004,-2.3032219409942627,1.0522516965866089,9.984419822692871,-28.6865234375,-25.57373046875,-4.82177734375
3.1624999000000003,-1.9410990476608276,0.5752069354057312,10.321403503417969,-20.599365234375,-39.215087890625,49.774169921875
3.1674999,-0.5225345492362976,-0.4638765752315521,9.838373184204102,-24.322509765625,-25.20751953125,56.793212890625
3.1724999,1.2934675216674805,-1.6418237686157227,9.405621528625488,0.18310546875,-22.0947265625,83.160400390625
3.1774999000000004,2.0458452701568604,-2.6653449535369873,8.993818283081055,42.96875,-13.275146484375,108.88671875
3.1824999000000003,2.1787235736846924,-2.956839084625244,8.668207168579102,40.924072265625,19.805908203125,70.831298828125
3.1874999,1.6418237686157227,-1.016338586807251,9.654618263244629,8.026123046875,22.4609375,-58.319091796875
3.1924999,1.5233107805252075,0.18974047899246216,10.058639526367188,6.317138671875,32.2265625,-35.675048828125
3.1974999000000004,1.139639973640442,0.36810851097106934,10.295665740966797,3.662109375,30.57861328125,-53.52783203125
3.2024999000000003,0.3010708689689636,1.1683704853057861,10.385448455810547,-6.072998046875,10.955810546875,-92.254638671875
3.2074999,-1.3180080652236938,0.8469488620758057,10.331579208374023,-25.604248046875,-6.591796875,-86.3037109375
3.2124999,-2.299032211303711,1.3784615993499756,10.003573417663574,-30.364990234375,-14.739990234375,-41.19873046875
3.2174999,-2.229600429534912,0.9965864419937134,10.229227066040039,-24.4140625,-38.116455078125,30.1513671875
3.2224999000000003,-1.2012907266616821,0.15263035893440247,9.941922187805176,-23.5595703125,-31.951904296875,58.013916015625
3.2274999,0.6338648796081543,-1.1109095811843872,9.402029991149902,-18.5546875,-21.240234375,67.93212890625
3.2324999,1.9710265398025513,-2.3271639347076416,8.971074104309082,26.06201171875,-23.162841796875,105.3466796875
3.2374999,2.2385785579681396,-3.0567970275878906,8.648454666137695,50.72021484375,5.645751953125,99.822998046875
3.2424999000000003,2.0440497398376465,-2.6414029598236084,8.587403297424316,29.6630859375,22.613525390625,28.961181640625
3.2474999,0.6314706802368164,0.8750807046890259,10.48061752319336,1.434326171875,24.444580078125,-77.545166015625
3.2524999,-0.6290764808654785,0.9738415479660034,10.407594680786133,-19.378662109375,-1.678466796875,-92.8955078125
3.2574999,-1.9847931861877441,1.0540473461151123,10.240599632263184,-28.74755859375,-9.09423828125,-67.596435546875
3.2624999000000003,-2.236783027648926,0.9846154451370239,10.11550235748291,-28.9306640625,-27.801513671875,-2.0751953125
3.2674999000000002,-1.653794765472412,0.5392939448356628,10.179547309875488,-21.514892578125,-38.299560546875,52.42919921875
3.2724999,-0.07242459803819656,-0.5380968451499939,9.640851974487305,-25.543212890625,-24.139404296875,61.4013671875
3.2774999,1.6843209266662598,-1.7525556087493896,9.184157371520996,3.72314453125,-22.308349609375,90.362548828125
3.2824999000000004,2.2230162620544434,-3.02327823638916,8.516175270080566,42.816162109375,20.965576171875,66.802978515625
3.2874999000000003,1.8303672075271606,-2.0638017654418945,8.902240753173828,16.693115234375,17.2119140625,-20.355224609375
3.2924999,1.3491326570510864,0.3770867586135864,10.11789608001709,5.645751953125,31.524658203125,-36.07177734375
3.2974999,0.9660604000091553,0.5225345492362976,10.339958190917969,2.716064453125,29.876708984375,-58.04443359375
3.3024999000000004,0.09038111567497253,1.1390414237976074,10.45547866821289,-8.6669921875,8.7890625,-93.68896484375
3.3074999000000003,-1.4832079410552979,0.8307880163192749,10.405200958251953,-25.604248046875,-6.2255859375,-85.3271484375
3.3124999,-2.315791606903076,1.2330138683319092,10.06043529510498,-30.517578125,-16.510009765625,-37.4755859375
3.3174999,-2.097919225692749,0.9139865040779114,10.325592994689941,-22.52197265625,-38.39111328125,34.3017578125
3.3224999000000004,-0.9923965930938721,0.10953472554683685,9.921571731567383,-23.37646484375,-30.2734375,60.577392578125
3.3274999000000003,0.9229647517204285,-1.1803414821624756,9.3828763961792,-14.5263671875,-20.355224609375,72.784423828125
3.3324999,2.0458452701568604,-2.380434989929199,8.933364868164062,30.914306640625,-21.1181640625,107.48291015625
3.3374999,2.258330821990967,-3.047220230102539,8.62630844116211,49.98779296875,9.490966796875,93.963623046875
3.3424999,2.0201077461242676,-2.499546527862549,8.597578048706055,26.79443359375,21.728515625,18.1884765625
3.3474999000000003,1.6370353698730469,-1.4227544069290161,9.363722801208496,9.82666015625,17.51708984375,-53.89404296875
3.3524999,0.6111199855804443,1.1049240827560425,10.5344877243042,0.3662109375,21.240234375,-83.49609375
3.3574999,-0.8445546627044678,0.961870551109314,10.427347183227539,-21.8505859375,-4.058837890625,-94.05517578125
3.3624999,-2.3265655040740967,0.9726444482803345,10.122684478759766,-26.824951171875,-30.21240234375,5.0048828125
3.3674999000000003,-1.6071078777313232,0.4357447028160095,10.02811336517334,-20.355224609375,-37.200927734375,55.145263671875
3.3724999,0.0999579206109047,-0.7523778676986694,9.498994827270508,-23.4375,-22.796630859375,62.07275390625
3.3774999,1.7747019529342651,-1.911171555519104,9.070432662963867,10.162353515625,-22.39990234375,93.536376953125
3.3824999,2.2888567447662354,-2.919728994369507,8.756793022155762,47.821044921875,-6.561279296875,107.696533203125
3.3874999000000003,2.185307502746582,-2.911947727203369,8.567051887512207,38.238525390625,22.369384765625,56.884765625
3.3924999000000002,1.8195933103561401,-1.8620903491973877,9.065644264221191,14.312744140625,16.357421875,-28.594970703125
3.3974999,-0.02454056777060032,0.9487023949623108,10.356119155883789,-11.53564453125,4.21142578125,-96.0693359375
3.4024999,-1.5610195398330688,0.6560112833976746,10.317214012145996,-26.702880859375,-6.622314453125,-83.160400390625
3.4074999000000004,-2.3080103397369385,1.0181342363357544,9.938929557800293,-29.632568359375,-18.24951171875,-29.144287109375
3.4124999000000003,-2.0847511291503906,0.7398083209991455,10.228628158569336,-21.484375,-39.73388671875,40.130615234375
3.4174999,-0.8672995567321777,0.04967968538403511,9.79408073425293,-24.10888671875,-28.717041015625,58.77685546875
3.4224999,1.0271124839782715,-1.2336124181747437,9.352350234985352,-11.3525390625,-20.416259765625,74.005126953125
3.4274999000000004,2.079962730407715,-2.315791606903076,8.94533634185791,34.36279296875,-19.8974609375,107.452392578125
3.4324999000000003,2.2619221210479736,-2.9694087505340576,8.655038833618164,47.2412109375,12.420654296875,87.46337890625
3.4374999,2.0039467811584473,-2.367266893386841,8.724471092224121,23.92578125,20.965576171875,9.765625
3.4424999,1.6184803247451782,-1.334767460823059,9.450512886047363,9.185791015625,18.463134765625,-55.84716796875
3.4474999000000004,1.1330559253692627,0.5099649429321289,10.271124839782715,3.96728515625,30.94482421875,-43.0908203125
3.4524999000000003,0.5554547905921936,1.1893197298049927,10.509347915649414,-0.9765625,18.707275390625,-86.60888671875
3.4574999,-0.9846154451370239,0.9588778018951416,10.40579891204834,-22.88818359375,-5.096435546875,-92.132568359375
3.4624999,-2.231395959854126,1.3365631103515625,10.119093894958496,-28.80859375,-10.711669921875,-57.830810546875
3.4674999,-2.293645143508911,0.9870096445083618,10.128670692443848,-25.543212890625,-32.958984375,13.214111328125
3.4724999000000003,-1.4754267930984497,0.35015198588371277,9.96825885772705,-20.416259765625,-35.2783203125,56.70166015625
3.4774999,0.2106897532939911,-0.9247604012489319,9.425373077392578,-21.728515625,-21.91162109375,62.774658203125
3.4824999,1.7962498664855957,-2.078166961669922,9.057863235473633,15.5029296875,-22.76611328125,96.221923828125
3.4874999,2.1727380752563477,-3.0184898376464844,8.780136108398438,48.33984375,-2.593994140625,104.91943359375
3.4924999000000003,2.0620062351226807,-2.8341362476348877,8.644864082336426,34.48486328125,22.88818359375,48.88916015625
3.4974999,1.7298107147216797,-1.7274165153503418,9.231443405151367,12.39013671875,15.289306640625,-34.149169921875
3.5024999,1.445499300956726,-0.5279214978218079,9.88745403289795,6.744384765625,25.787353515625,-54.656982421875
3.5074999,-0.21607670187950134,1.0546458959579468,10.262146949768066,-13.5498046875,2.227783203125,-93.292236328125
3.5124999000000003,-1.7040730714797974,0.9187749028205872,10.211270332336426,-26.3671875,-6.9580078125,-76.446533203125
3.5174999000000002,-2.276885747909546,1.1552022695541382,10.004171371459961,-28.74755859375,-21.17919921875,-19.073486328125
3.5224999,2.102707624435425,-2.366668462753296,8.956110000610352,37.933349609375,-17.059326171875,107.48291015625
3.5274999,2.22660756111145,-2.9496564865112305,8.702324867248535,43.8232421875,16.66259765625,80.780029296875
3.5324999000000004,1.9847931861877441,-2.2427685260772705,8.862137794494629,20.355224609375,19.317626953125,0.335693359375
3.5374999000000003,1.6573861837387085,-1.2431892156600952,9.586981773376465,8.36181640625,20.20263671875,-57.43408203125
3.5424999,1.5328876972198486,-0.020949264988303185,10.04307746887207,6.744384765625,31.951904296875,-38.909912109375
3.5474999,-2.1954829692840576,1.1875240802764893,9.959280967712402,-28.289794921875,-11.5966796875,-51.20849609375
3.5524999000000004,-2.276287317276001,0.7876923680305481,10.059837341308594,-23.773193359375,-34.759521484375,21.087646484375
3.5574999000000003,-1.3880383968353271,0.1472434103488922,9.86770248413086,-20.20263671875,-33.905029296875,56.70166015625
3.5624999,0.26815059781074524,-1.0564415454864502,9.390657424926758,-19.683837890625,-21.331787109375,61.8896484375
3.5674999,1.7956513166427612,-2.122459888458252,9.078214645385742,19.439697265625,-22.430419921875,96.771240234375
3.5724999000000004,2.1164743900299072,-2.9490580558776855,8.814253807067871,46.38671875,1.617431640625,98.724365234375
3.5774999000000003,2.1164743900299072,-2.9490580558776855,8.814253807067871,46.38671875,1.617431640625,98.724365234375
3.5824999,2.0416555404663086,-2.6581623554229736,8.734646797180176,30.45654296875,22.76611328125,37.841796875
3.5874999,1.7549498081207275,-1.6214730739593506,9.316437721252441,11.16943359375,16.082763671875,-41.19873046875
3.5924999,1.5298948287963867,-0.4692635238170624,9.899425506591797,7.659912109375,28.62548828125,-50.96435546875
3.5974999000000003,0.9080010056495667,0.7080851793289185,10.086771965026855,3.387451171875,26.30615234375,-73.974609375
3.6024999,-0.2711433470249176,0.8738836050033569,10.11550235748291,-16.845703125,-2.166748046875,-94.78759765625
3.6074999,-1.7782933712005615,0.8331822156906128,10.001777648925781,-26.702880859375,-7.50732421875,-72.784423828125
3.6124999,-2.315791606903076,0.8936358094215393,9.919178009033203,-27.4658203125,-23.74267578125,-10.833740234375
3.6174999000000003,-2.01232647895813,0.4734533727169037,10.31242561340332,-18.768310546875,-39.24560546875,47.79052734375
3.6224999,-0.6685808300971985,-0.363918662071228,9.791686058044434,-22.613525390625,-25.970458984375,56.21337890625
3.6274999,1.1456254720687866,-1.5298948287963867,9.475651741027832,-0.762939453125,-21.17919921875,78.4912109375
3.6324999,1.9512743949890137,-2.4618380069732666,9.062053680419922,39.4287109375,-13.73291015625,104.1259765625
3.6374999000000003,2.1487960815429688,-2.786850690841675,8.795698165893555,38.421630859375,18.096923828125,71.441650390625
3.6424999000000002,1.9764134883880615,-1.9626468420028687,9.038111686706543,16.998291015625,17.08984375,-7.415771484375
3.6474999,1.73519766330719,-0.9989806413650513,9.655217170715332,7.232666015625,20.56884765625,-56.15234375
3.6524999,1.63344407081604,0.1215057373046875,10.06043529510498,6.927490234375,32.28759765625,-35.70556640625
3.6574999000000004,0.45848962664604187,1.1677719354629517,10.323199272155762,-4.058837890625,11.871337890625,-88.653564453125
3.6624999000000003,-1.1659762859344482,0.8074445128440857,10.268132209777832,-24.59716796875,-7.049560546875,-83.770751953125
3.6674999,-2.2206220626831055,1.4197616577148438,9.925163269042969,-28.13720703125,-13.641357421875,-40.802001953125
3.6724999,-2.2691047191619873,0.9678560495376587,10.126276016235352,-22.76611328125,-36.468505859375,27.679443359375
3.6774999000000004,-1.37906014919281,0.1215057373046875,9.86770248413086,-19.775390625,-32.1044921875,55.60302734375
3.6824999000000003,2.0177135467529297,-2.44747257232666,8.875904083251953,25.5126953125,21.820068359375,29.937744140625
3.6874999,1.7980455160140991,-1.4281413555145264,9.452308654785156,9.09423828125,15.167236328125,-44.61669921875
3.6924999,1.6412252187728882,-0.33937808871269226,9.97065258026123,7.171630859375,29.60205078125,-47.36328125
3.6974999000000004,1.5029600858688354,0.44831427931785583,10.128071784973145,6.561279296875,32.89794921875,-34.912109375
3.7024999000000003,-1.8489222526550293,0.8678981065750122,9.934141159057617,-26.641845703125,-8.1787109375,-66.131591796875
3.7074999,-2.3337481021881104,0.8786720037460327,9.895236015319824,-26.763916015625,-26.18408203125,-2.13623046875
3.7124999,-1.977012038230896,0.44771572947502136,10.190919876098633,-18.61572265625,-38.0859375,49.774169921875
3.7174999,-0.5668272376060486,-0.5345055460929871,9.730634689331055,-22.186279296875,-24.749755859375,55.389404296875
3.7224999000000003,1.1893197298049927,-1.6376339197158813,9.413402557373047,3.936767578125,-22.003173828125,82.061767578125
3.7274999,1.9195512533187866,-2.5965118408203125,9.07222843170166,41.473388671875,-10.6201171875,103.546142578125
3.7324999,2.1074960231781006,-2.7497406005859375,8.814851760864258,35.70556640625,20.599365234375,64.788818359375
3.7374999,1.9596540927886963,-1.8453309535980225,9.123106002807617,14.617919921875,16.021728515625,-15.167236328125
3.7424999000000003,1.7723077535629272,-0.8649053573608398,9.709685325622559,7.171630859375,22.4609375,-55.755615234375
3.7474999,1.7154455184936523,0.24660277366638184,10.014347076416016,7.01904296875,32.958984375,-33.3251953125
3.7524999,1.280897855758667,0.23283611238002777,10.22144603729248,5.06591796875,31.1279296875,-55.7861328125
3.7574999,-2.253542423248291,1.1222820281982422,9.901819229125977,-27.9541015625,-15.350341796875,-33.905029296875
3.7624999000000003,-2.2661118507385254,0.7284358739852905,10.147225379943848,-20.99609375,-37.200927734375,33.02001953125
3.7674999000000002,-1.4101848602294922,-0.0736217051744461,9.828198432922363,-19.866943359375,-30.609130859375,55.17578125
3.7724999,0.38965633511543274,-1.2342109680175781,9.398438453674316,-12.603759765625,-21.1181640625,64.605712890625
3.7774999,1.589151382446289,-2.256535053253174,9.14345645904541,27.9541015625,-20.81298828125,99.18212890625
3.7824999000000004,2.0236990451812744,-2.804807186126709,8.84058952331543,41.351318359375,9.307861328125,88.134765625
3.7874999000000003,2.078765630722046,-2.2385785579681396,8.89146614074707,22.64404296875,20.782470703125,20.965576171875
3.7924999,1.898003339767456,-1.2749123573303223,9.441534042358398,8.148193359375,16.387939453125,-48.4619140625
3.7974999,1.8267759084701538,-0.23283611238002777,9.946710586547852,7.476806640625,30.914306640625,-44.0673828125
3.8024999000000004,1.5508441925048828,0.39863458275794983,10.101137161254883,6.683349609375,32.684326171875,-37.506103515625
3.8074999000000003,-2.0027496814727783,0.933738648891449,10.014945983886719,-27.557373046875,-8.85009765625,-61.4013671875
3.8124999,-2.367865562438965,0.9457096457481384,10.005967140197754,-25.909423828125,-28.80859375,5.340576171875
3.8174999,-1.8974047899246216,0.5165489912033081,10.075998306274414,-17.9443359375,-36.9873046875,52.30712890625
3.8224999000000004,-0.3555389642715454,-0.6093243360519409,9.584588050842285,-20.965576171875,-23.4375,56.15234375
3.8274999000000003,1.3299790620803833,-1.6861165761947632,9.26675796508789,9.1552734375,-22.186279296875,86.639404296875
3.8324999,1.9841946363449097,-2.6563668251037598,8.988431930541992,43.365478515625,-6.77490234375,102.386474609375
3.8374999,2.1086931228637695,-2.648585557937622,8.80467700958252,32.65380859375,21.881103515625,56.427001953125
3.8424999,1.7184382677078247,-0.7140706777572632,9.807249069213867,7.01904296875,24.658203125,-54.50439453125
3.8474999000000003,1.6154875755310059,0.30885201692581177,10.062829971313477,7.26318359375,33.38623046875,-32.623291015625
3.8524999,1.1869255304336548,0.18495208024978638,10.232817649841309,5.157470703125,30.181884765625,-61.70654296875
3.8574999,-1.4688427448272705,0.46986207365989685,10.218452453613281,-26.4892578125,-7.9345703125,-79.376220703125
3.8624999,-2.320580005645752,0.9546879529953003,9.891045570373535,-28.38134765625,-18.06640625,-26.885986328125
3.8674999000000003,-2.2457611560821533,0.6631938815116882,10.15021800994873,-20.5078125,-39.48974609375,38.87939453125
3.8724999,-1.1725603342056274,-0.03232172131538391,9.737217903137207,-21.05712890625,-29.388427734375,55.572509765625
3.8774999,0.6787561774253845,-1.2629413604736328,9.336189270019531,-9.21630859375,-21.331787109375,70.068359375
3.8824999,1.7848774194717407,-2.249951124191284,9.068038940429688,33.447265625,-19.256591796875,104.644775390625
3.8874999000000003,2.1051018238067627,-2.828150749206543,8.793304443359375,42.022705078125,14.434814453125,87.5244140625
3.8924999000000002,2.0452468395233154,-2.1757307052612305,8.92917537689209,20.904541015625,20.355224609375,15.045166015625
3.8974999,1.7950527667999268,-1.2449848651885986,9.513958930969238,7.75146484375,17.02880859375,-51.7578125
3.9024999,1.7962498664855957,-0.12449848651885986,10.038289070129395,7.537841796875,31.951904296875,-42.144775390625
3.9074999000000004,1.4526818990707397,0.36332011222839355,10.156203269958496,6.317138671875,32.65380859375,-41.3818359375
3.9124999000000003,0.8367735147476196,0.7583633661270142,10.377068519592285,1.312255859375,18.768310546875,-83.6181640625
3.9174999,-2.4229321479797363,0.8415619134902954,9.949105262756348,-24.71923828125,-32.257080078125,12.0849609375
3.9224999,-0.19572599232196808,-0.8026561141014099,9.375694274902344,-19.4091796875,-22.64404296875,57.861328125
3.9274999000000004,1.4335283041000366,-1.8525135517120361,9.148842811584473,14.46533203125,-22.735595703125,90.6982421875
3.9324999000000003,1.9620482921600342,-2.7485435009002686,8.935160636901855,43.39599609375,-1.708984375,101.13525390625
3.9374999,2.0667946338653564,-2.583343744277954,8.841188430786133,30.120849609375,22.76611328125,50.933837890625
3.9424999,1.9033904075622559,-1.5795745849609375,9.330802917480469,10.92529296875,14.251708984375,-27.64892578125
3.9474999000000004,1.7310078144073486,-0.579995334148407,9.87967300415039,6.561279296875,25.81787109375,-52.978515625
3.9524999000000003,1.6268600225448608,0.37828385829925537,10.062231063842773,7.38525390625,33.172607421875,-32.04345703125
3.9574999,1.1899182796478271,0.15562310814857483,10.193313598632812,4.852294921875,28.717041015625,-63.507080078125
3.9624999,0.06404489278793335,0.7936778664588928,10.217255592346191,-11.962890625,1.64794921875,-89.630126953125
3.9674999000000004,-2.2685060501098633,1.0809820890426636,9.943717956542969,-27.801513671875,-19.744873046875,-18.9208984375
3.9724999000000003,-2.1583728790283203,0.821809709072113,10.219650268554688,-19.378662109375,-38.6962890625,42.17529296875
3.9774999,-1.0103530883789062,0.11192893236875534,9.727043151855469,-20.660400390625,-27.435302734375,54.168701171875
3.9824999,0.7589619159698486,-1.192312479019165,9.383475303649902,-5.4931640625,-20.69091796875,70.526123046875
3.9874999,1.7591396570205688,-2.1589713096618652,9.083600997924805,34.576416015625,-16.387939453125,101.07421875
3.9924999000000003,2.053626537322998,-2.7275943756103516,8.826823234558105,38.2080078125,15.380859375,76.751708984375
3.9974999,2.0033483505249023,-2.052429437637329,9.032125473022461,18.24951171875,18.24951171875,4.150390625
4.0024999,1.8058266639709473,-1.138442873954773,9.602544784545898,7.293701171875,18.096923828125,-52.459716796875
4.0074999,1.7926585674285889,-0.07781155407428741,10.041281700134277,6.866455078125,31.3720703125,-37.750244140625
4.0124999,1.445499300956726,0.304063618183136,10.187328338623047,6.04248046875,31.341552734375,-43.15185546875
4.0174999,0.761954665184021,0.823006808757782,10.34953498840332,-0.18310546875,16.815185546875,-83.587646484375
4.022499900000001,-0.8307880163192749,0.6356605291366577,10.250176429748535,-23.49853515625,-6.561279296875,-84.014892578125
4.0274999000000005,1.956661343574524,-2.80899715423584,8.886079788208008,43.243408203125,1.3427734375,93.56689453125
4.0324999,2.0165164470672607,-2.493561029434204,8.83819580078125,27.099609375,21.514892578125,35.614013671875
4.0374999,1.8100165128707886,-1.4598644971847534,9.403825759887695,10.25390625,14.862060546875,-37.90283203125
4.0424999,1.6112977266311646,-0.4100070297718048,9.899425506591797,6.65283203125,26.885986328125,-48.309326171875
4.0474999,1.4933832883834839,0.45489832758903503,10.089764595031738,6.622314453125,31.585693359375,-32.623291015625
4.0524999,0.9852139949798584,0.4985924959182739,10.029311180114746,4.608154296875,26.611328125,-71.319580078125
4.0574999,-0.18734627962112427,0.7523778676986694,10.050858497619629,-15.7470703125,-1.739501953125,-90.301513671875
4.062499900000001,-1.6891093254089355,0.6661866307258606,9.9401273727417,-26.67236328125,-7.50732421875,-68.511962890625
4.0674999000000005,-2.007538080215454,0.52552729845047,10.250176429748535,-19.22607421875,-38.51318359375,47.454833984375
4.0724999,-0.7068880796432495,-0.3693056106567383,9.776124000549316,-22.03369140625,-25.390625,54.26025390625
4.0774999,1.0773907899856567,-1.4963760375976562,9.425373077392578,-0.244140625,-21.209716796875,77.94189453125
4.0824999,1.611896276473999,0.10474632680416107,10.062231063842773,6.77490234375,31.341552734375,-34.48486328125
4.0874999,1.2216414213180542,0.2406172752380371,10.256759643554688,5.462646484375,30.731201171875,-51.544189453125
4.0924999,0.4141969084739685,1.095347285270691,10.307038307189941,-4.180908203125,11.322021484375,-89.080810546875
4.0974999,-1.1953052282333374,0.7170634269714355,10.265738487243652,-24.871826171875,-7.415771484375,-82.366943359375
4.1024999,-2.1924901008605957,1.3239935636520386,9.877279281616211,-28.1982421875,-14.2822265625,-37.933349609375
4.1074999000000005,0.4106055796146393,-1.2042834758758545,9.375694274902344,-14.129638671875,-20.843505859375,63.90380859375
4.1124999,1.6741455793380737,-2.2858641147613525,9.1260986328125,26.85546875,-20.5078125,100.006103515625
4.1174999,2.053626537322998,-2.871246337890625,8.846575736999512,43.182373046875,8.7890625,91.217041015625
4.1224999,2.049436569213867,-2.3110032081604004,8.87291145324707,23.468017578125,21.453857421875,24.47509765625
4.1274999,1.8040310144424438,-1.3006501197814941,9.44752025604248,8.36181640625,15.07568359375,-46.38671875
4.1324999,1.6723499298095703,-0.25019407272338867,9.958083152770996,6.89697265625,29.083251953125,-45.318603515625
4.1374999,1.4185645580291748,0.4471171796321869,10.117298126220703,6.40869140625,31.890869140625,-36.895751953125
4.1424999,0.8337807655334473,0.7170634269714355,10.231620788574219,2.960205078125,22.8271484375,-79.16259765625
4.147499900000001,-0.5895721912384033,0.8571242094039917,10.217854499816895,-20.93505859375,-4.913330078125,-90.02685546875
4.1524999000000005,-2.0009541511535645,1.0582371950149536,10.049062728881836,-27.679443359375,-8.9111328125,-62.103271484375
4.1574999,-2.316988706588745,1.0564415454864502,10.053253173828125,-26.91650390625,-29.6630859375,4.69970703125
4.1624999,2.1278467178344727,-2.738966703414917,8.7484130859375,33.38623046875,22.918701171875,56.121826171875
4.1674999,2.1278467178344727,-2.738966703414917,8.7484130859375,33.38623046875,22.918701171875,56.121826171875
4.1724999,1.8944120407104492,-1.7028759717941284,9.21827507019043,12.359619140625,15.045166015625,-24.383544921875
4.1774999,1.646013617515564,-0.667982280254364,9.808445930480957,6.866455078125,24.10888671875,-54.3212890625
4.1824999,1.5257049798965454,0.38965633511543274,10.061633110046387,6.988525390625,32.379150390625,-32.562255859375
4.187499900000001,1.114500880241394,0.24839842319488525,10.237008094787598,5.126953125,29.754638671875,-63.29345703125
4.1924999000000005,0.09816227108240128,0.839766263961792,10.267534255981445,-10.528564453125,3.204345703125,-92.95654296875
4.1974999,-1.5119383335113525,0.5213374495506287,10.233416557312012,-27.069091796875,-7.6904296875,-79.1015625
4.2024999,0.8595184087753296,-1.3263877630233765,9.283516883850098,-7.904052734375,-20.263671875,72.021484375
4.2074999,1.9297266006469727,-2.3110032081604004,8.986037254333496,35.186767578125,-17.242431640625,105.5908203125
4.2124999,2.18770170211792,-2.867655038833618,8.759186744689941,42.48046875,16.143798828125,83.8623046875
4.2174999,2.053027868270874,-2.145803213119507,8.920795440673828,19.561767578125,20.233154296875,8.453369140625
4.2224999,1.745373010635376,-1.1857284307479858,9.59476375579834,7.50732421875,18.00537109375,-53.375244140625
4.2274999,1.6891093254089355,-0.05027823522686958,10.070012092590332,7.171630859375,31.707763671875,-40.283203125
4.2324999000000005,1.3437457084655762,0.38486793637275696,10.225635528564453,6.28662109375,32.3486328125,-44.189453125
4.2374999,0.706289529800415,0.7960720658302307,10.341753959655762,-0.030517578125,16.78466796875,-87.890625
4.2424999,-1.657984733581543,0.19572599232196808,9.813833236694336,-18.5546875,-35.58349609375,55.450439453125
4.2474999,0.01735796220600605,-0.9427168965339661,9.326014518737793,-19.439697265625,-21.54541015625,58.990478515625
4.2524999,1.670554280281067,-1.9716250896453857,9.09497356414795,16.937255859375,-21.575927734375,93.841552734375
4.2574999,2.1146786212921143,-2.823961019515991,8.89146614074707,45.0439453125,0.9765625,100.341796875
4.2624999,2.11946702003479,-2.5731682777404785,8.810063362121582,29.47998046875,23.223876953125,44.12841796875
4.2674999,1.8166005611419678,-1.53707754611969,9.374496459960938,10.55908203125,14.34326171875,-34.332275390625
4.272499900000001,1.5400702953338623,-0.4710591733455658,9.911994934082031,6.805419921875,25.634765625,-51.45263671875
4.2774999000000005,1.3748703002929688,0.4734533727169037,10.102334022521973,6.500244140625,31.402587890625,-32.501220703125
4.2824999,0.9085995554924011,0.4686649739742279,10.224438667297363,4.302978515625,27.069091796875,-68.634033203125
4.2874999,-0.21667525172233582,0.8595184087753296,10.180744171142578,-14.556884765625,-0.396728515625,-91.064453125
4.2924999,-1.7070658206939697,0.7272387742996216,10.169970512390137,-26.641845703125,-7.568359375,-71.77734375
4.2974999,-2.2673089504241943,1.0181342363357544,9.938929557800293,-28.167724609375,-23.284912109375,-13.18359375
4.3024999,-0.7224503755569458,-0.14604631066322327,9.675567626953125,-21.697998046875,-26.092529296875,55.84716796875
4.3074999,1.092953085899353,-1.3934253454208374,9.357138633728027,-1.8310546875,-21.148681640625,77.606201171875
4.312499900000001,1.9410990476608276,-2.364872694015503,8.987235069274902,38.818359375,-14.09912109375,106.0791015625
4.3174999000000005,2.137423515319824,-2.7886464595794678,8.78073501586914,38.87939453125,19.439697265625,76.019287109375
4.3224999,1.2623428106307983,0.2902969419956207,10.245985984802246,5.55419921875,31.158447265625,-48.187255859375
4.3274999,0.5015852451324463,0.9929951429367065,10.293869972229004,-2.899169921875,13.48876953125,-88.623046875
4.3324999,-1.106719732284546,0.6727706789970398,10.229825019836426,-25.421142578125,-7.87353515625,-85.44921875
4.3374999,-2.182913303375244,1.1797429323196411,9.883264541625977,-29.083251953125,-13.24462890625,-44.952392578125
4.3424999,-2.227206230163574,0.7410054206848145,10.041281700134277,-23.98681640625,-36.4990234375,25.08544921875
4.3474999,0.44412440061569214,-1.206079125404358,9.340977668762207,-17.63916015625,-20.843505859375,63.29345703125
4.352499900000001,1.8806453943252563,-2.2822728157043457,9.032724380493164,23.49853515625,-21.91162109375,100.7080078125
4.3574999000000005,2.161365509033203,-2.9712042808532715,8.819640159606934,46.844482421875,5.79833984375,98.7548828125
4.3624999,2.0446481704711914,-2.5306711196899414,8.787917137145996,27.557373046875,22.918701171875,33.38623046875
4.3674999,1.692102074623108,-1.4544775485992432,9.430760383605957,9.735107421875,14.923095703125,-43.212890625
4.3724999,1.4215573072433472,-0.33997663855552673,9.962273597717285,7.2021484375,28.106689453125,-49.072265625
4.3774999,1.2731167078018188,0.5542576909065247,10.144232749938965,6.2255859375,31.6162109375,-34.393310546875
4.3824999,0.7386112213134766,0.8571242094039917,10.116100311279297,3.509521484375,24.90234375,-75.897216796875
4.3874999,-0.4710591733455658,1.0067617893218994,10.140641212463379,-18.341064453125,-3.5400390625,-93.32275390625
4.3924999,-1.8836381435394287,1.1001356840133667,9.998186111450195,-27.64892578125,-8.23974609375,-69.549560546875
4.397499900000001,-2.2601263523101807,1.0672154426574707,9.98681354522705,-27.923583984375,-26.092529296875,-5.584716796875
4.4024999000000005,-1.8285715579986572,0.5680243372917175,10.295066833496094,-19.195556640625,-38.238525390625,50.018310546875
4.4074999,1.413776159286499,-1.680729627609253,9.425373077392578,2.960205078125,-20.99609375,84.228515625
4.4124999,2.0871453285217285,-2.675520420074463,9.06863784790039,42.755126953125,-10.3759765625,107.269287109375
4.4174999,2.182913303375244,-2.868852138519287,8.76337718963623,37.750244140625,21.3623046875,67.0166015625
4.4224999,1.9033904075622559,-1.9087773561477661,9.080608367919922,15.106201171875,16.4794921875,-14.2822265625
4.4274999,1.5963339805603027,-0.8762778043746948,9.694721221923828,7.38525390625,21.453857421875,-56.243896484375
4.4324999,1.4772224426269531,0.29628247022628784,10.034099578857422,6.53076171875,31.280517578125,-34.60693359375
4.437499900000001,1.049857497215271,0.3357867896556854,10.248978614807129,4.547119140625,29.9072265625,-55.23681640625
4.4424999000000005,0.24181437492370605,1.091755986213684,10.284892082214355,-6.561279296875,8.819580078125,-92.254638671875
4.4474999,-1.370081901550293,0.6733692288398743,10.26274585723877,-26.123046875,-7.50732421875,-83.984375
4.4524999,-2.248155355453491,1.1857284307479858,9.910199165344238,-29.35791015625,-15.716552734375,-37.29248046875
4.4574999,-2.141613483428955,0.767341673374176,10.139444351196289,-22.613525390625,-38.2080078125,32.3486328125
4.4624999,-1.1725603342056274,-0.09038111567497253,9.840767860412598,-21.087646484375,-30.364990234375,57.2509765625
4.4674999,2.18770170211792,-2.9730000495910645,8.754997253417969,46.20361328125,10.711669921875,94.7265625
4.4724999,2.0691888332366943,-2.358887195587158,8.766369819641113,24.4140625,21.942138671875,23.62060546875
4.477499900000001,1.7148469686508179,-1.3000515699386597,9.461885452270508,8.72802734375,15.716552734375,-48.736572265625
4.4824999000000005,1.2443863153457642,0.5638344883918762,10.172364234924316,5.706787109375,30.914306640625,-37.65869140625
4.4874999,0.6751648783683777,0.7601590156555176,10.287884712219238,2.01416015625,22.003173828125,-81.11572265625
4.4924999,-0.7128735780715942,0.8553285598754883,10.220847129821777,-21.6064453125,-5.126953125,-92.498779296875
4.4974999,-2.056619167327881,0.9684545993804932,10.029909133911133,-28.86962890625,-9.185791015625,-64.3310546875
4.5024999,-2.272696018218994,0.9528923034667969,9.993996620178223,-27.679443359375,-29.6630859375,2.86865234375
4.5074999,-1.6777368783950806,0.5021837949752808,10.066421508789062,-19.59228515625,-37.078857421875,53.1005859375
4.5124999,-0.055665191262960434,-0.6416460275650024,9.573814392089844,-22.94921875,-23.0712890625,59.783935546875
4.5174999,2.2176294326782227,-2.7982232570648193,8.89685344696045,46.2646484375,-6.500244140625,109.619140625
4.522499900000001,2.1942858695983887,-2.853289842605591,8.681375503540039,37.2314453125,22.94921875,61.248779296875
4.5274999000000005,1.8261773586273193,-1.8381483554840088,9.125499725341797,13.885498046875,15.655517578125,-23.101806640625
4.5324999,1.4963760375976562,-0.7655459642410278,9.79408073425293,7.659912109375,23.681640625,-56.7626953125
4.5374999,1.3515268564224243,0.4082113802433014,10.113706588745117,6.378173828125,31.3720703125,-33.935546875
4.5424999,0.9289502501487732,0.38905778527259827,10.286687850952148,3.60107421875,28.6865234375,-60.72998046875
4.5474999,-0.0065840547904372215,1.006163239479065,10.341753959655762,-9.8876953125,5.584716796875,-94.23828125
4.5524999,-1.569997787475586,0.6949170231819153,10.29746150970459,-26.458740234375,-7.598876953125,-82.03125
4.5574999,-2.3068132400512695,1.1342530250549316,9.963470458984375,-30.09033203125,-18.310546875,-31.18896484375
4.562499900000001,-0.9097966551780701,0.02992752194404602,9.77791976928711,-22.125244140625,-28.6865234375,58.990478515625
4.5674999000000005,2.2397756576538086,-2.9735984802246094,8.7268648147583,46.600341796875,14.2822265625,90.02685546875
4.5724999,2.014122247695923,-2.2882583141326904,8.802881240844727,22.64404296875,20.93505859375,13.671875
4.5774999,1.6442179679870605,-1.2521674633026123,9.536105155944824,8.48388671875,16.845703125,-52.79541015625
4.5824999,1.5693992376327515,-0.04249707981944084,10.065223693847656,6.65283203125,30.21240234375,-42.877197265625
4.5874999,1.2030863761901855,0.5500678420066833,10.26274585723877,4.94384765625,31.06689453125,-41.68701171875
4.5924999,0.6278793811798096,1.0301052331924438,10.47942066192627,0.6103515625,19.439697265625,-85.845947265625
4.5974999,-0.9074024558067322,0.9349357485771179,10.365097999572754,-23.49853515625,-6.195068359375,-92.28515625
4.602499900000001,-2.2373814582824707,1.2312182188034058,10.128670692443848,-29.266357421875,-10.223388671875,-60.760498046875
4.6074999000000005,-2.3475148677825928,1.0259153842926025,10.0765962600708,-26.611328125,-31.951904296875,8.514404296875
4.6124999,-1.5921441316604614,0.44412440061569214,9.965864181518555,-19.4091796875,-36.285400390625,55.17578125
4.6174999,0.11552023142576218,-0.8134300112724304,9.421183586120605,-21.575927734375,-22.064208984375,61.82861328125
4.6224999,2.231395959854126,-2.9328970909118652,8.819042205810547,47.943115234375,-2.716064453125,109.19189453125
4.6274999,2.142810583114624,-2.801215887069702,8.664017677307129,34.912109375,24.139404296875,55.633544921875
4.6324999,1.7675193548202515,-1.7076643705368042,9.222464561462402,12.0849609375,14.7705078125,-28.228759765625
4.6374999,1.4359225034713745,-0.5835866928100586,9.876680374145508,6.8359375,24.688720703125,-55.633544921875
4.6424999,-0.16400282084941864,0.8870517015457153,10.276512145996094,-13.031005859375,2.62451171875,-95.855712890625
4.647499900000001,-1.6561890840530396,0.5913678407669067,10.254365921020508,-28.167724609375,-7.568359375,-81.512451171875
4.6524999000000005,-2.3145945072174072,0.9528923034667969,9.904812812805176,-31.25,-19.805908203125,-28.4423828125
4.6574999,-1.9877859354019165,0.6476315855979919,10.184335708618164,-22.064208984375,-39.825439453125,39.337158203125
4.6624999,-0.6631938815116882,-0.0694318488240242,9.736021041870117,-23.651123046875,-27.77099609375,59.906005859375
4.6674999,1.2850877046585083,-1.3988122940063477,9.279327392578125,-9.552001953125,-20.01953125,78.2470703125
4.6724999,2.383427858352661,-3.066972494125366,8.650849342346191,49.74365234375,16.326904296875,91.12548828125
4.6774999,2.0039467811584473,-2.346317768096924,8.729259490966797,23.468017578125,21.820068359375,10.07080078125
4.6824999,1.50355863571167,-1.2749123573303223,9.546878814697266,9.033203125,18.37158203125,-55.48095703125
4.687499900000001,1.3329718112945557,0.0065840547904372215,10.118494987487793,6.744384765625,30.120849609375,-43.02978515625
4.6924999000000005,0.9630676507949829,0.619499683380127,10.317811965942383,4.180908203125,30.792236328125,-44.403076171875
4.6974999,0.41958385705947876,1.1432312726974487,10.472238540649414,-1.068115234375,17.578125,-89.4775390625
4.7024999,-1.0516531467437744,0.8918401598930359,10.359111785888672,-25.0244140625,-6.866455078125,-94.54345703125
4.7074999,-2.27748441696167,1.1546037197113037,10.008959770202637,-31.1279296875,-10.7421875,-62.530517578125
4.7124999,-2.2906525135040283,0.8080430626869202,10.016142845153809,-27.64892578125,-32.53173828125,7.080078125
4.7174999,-1.41257905960083,0.21966800093650818,9.904812812805176,-20.843505859375,-36.43798828125,55.84716796875
4.7224999,1.6741455793380737,-1.8668787479400635,9.11113452911377,14.068603515625,16.2353515625,-30.33447265625
4.727499900000001,1.2054805755615234,-0.6434416770935059,9.881468772888184,7.9345703125,24.444580078125,-57.06787109375
4.7324999000000005,0.982221245765686,0.578798234462738,10.208277702331543,5.06591796875,30.029296875,-34.820556640625
4.7374999,0.5985504388809204,0.6805518269538879,10.432733535766602,2.38037109375,27.923583984375,-65.97900390625
4.7424999,-0.35434186458587646,1.0923545360565186,10.375871658325195,-13.00048828125,3.021240234375,-95.794677734375
4.7474999,-1.746570110321045,0.8122329115867615,10.351929664611816,-27.801513671875,-7.720947265625,-81.634521484375
4.7524999,-2.294243812561035,1.0414776802062988,9.962273597717285,-31.55517578125,-20.20263671875,-30.09033203125
4.7574999,-2.294243812561035,1.0414776802062988,9.962273597717285,-31.55517578125,-20.20263671875,-30.09033203125
4.7624999,-1.8567034006118774,0.6446388363838196,10.24000072479248,-21.8505859375,-39.581298828125,37.506103515625
4.7674999,-0.5117605924606323,-0.11791443079710007,9.774927139282227,-23.37646484375,-28.25927734375,61.70654296875
4.772499900000001,1.4155718088150024,-1.4520833492279053,9.299677848815918,-9.21630859375,-20.477294921875,80.078125
4.7774999000000005,1.025316834449768,0.656609833240509,10.31242561340332,3.7841796875,30.792236328125,-42.694091796875
4.7824999,0.4800374507904053,1.1414356231689453,10.47942066192627,-0.9765625,18.524169921875,-87.127685546875
4.7874999,-1.0181342363357544,0.9050082564353943,10.369287490844727,-24.261474609375,-5.67626953125,-94.1162109375
4.7924999,-2.2822728157043457,1.1228805780410767,10.063427925109863,-31.1279296875,-10.986328125,-63.720703125
4.7974999,-2.2864625453948975,0.7727286219596863,10.022727012634277,-27.801513671875,-30.82275390625,3.2958984375
4.8024999,-1.3952209949493408,0.1843535304069519,9.914987564086914,-19.927978515625,-35.858154296875,55.0537109375
4.8074999,0.4082113802433014,-1.0330979824066162,9.396044731140137,-22.674560546875,-21.54541015625,65.36865234375
4.812499900000001,2.0925323963165283,-2.1302409172058105,8.948927879333496,11.8408203125,-21.78955078125,98.08349609375
4.8174999000000005,1.2078747749328613,-0.5877765417098999,9.88506031036377,7.720947265625,24.261474609375,-56.5185546875
4.8224999,0.9971849918365479,0.6224924325942993,10.192715644836426,5.218505859375,30.21240234375,-33.935546875
4.8274999,0.6434416770935059,0.5620388388633728,10.378265380859375,2.38037109375,28.13720703125,-66.375732421875
4.8324999,-0.28550854325294495,1.049857497215271,10.35372543334961,-12.481689453125,3.082275390625,-97.686767578125
4.8374999,-1.6735470294952393,0.6637924313545227,10.290877342224121,-28.106689453125,-7.293701171875,-83.8623046875
4.8424999,-2.2900538444519043,1.0181342363357544,9.914987564086914,-31.707763671875,-18.280029296875,-33.69140625
4.8474999,-1.8932149410247803,0.6859387755393982,10.202292442321777,-21.697998046875,-38.848876953125,35.15625
4.852499900000001,-0.6105214357376099,-0.060453593730926514,9.758766174316406,-22.8271484375,-28.533935546875,61.065673828125
4.8574999000000005,1.337161660194397,-1.3563152551651,9.305065155029297,-11.566162109375,-19.6533203125,77.2705078125
4.8624999,2.3517045974731445,-2.4175450801849365,8.871115684509277,34.7900390625,-19.989013671875,112.060546875
4.8674999,1.4814122915267944,-1.2826935052871704,9.488221168518066,9.21630859375,17.333984375,-54.01611328125
4.8724999,1.2976573705673218,-0.0005985504249110818,10.075998306274414,6.591796875,29.23583984375,-44.98291015625
4.8774999,0.9157821536064148,0.6859387755393982,10.29746150970459,3.692626953125,30.2734375,-41.93115234375
4.8824999,0.39803603291511536,1.2042834758758545,10.525508880615234,-0.30517578125,19.195556640625,-87.310791015625
4.8874999,-1.0342950820922852,1.0582371950149536,10.418967247009277,-23.86474609375,-5.889892578125,-96.00830078125
4.8924999,-2.3032219409942627,1.3012486696243286,10.180145263671875,-30.82275390625,-10.07080078125,-66.34521484375
4.897499900000001,-2.3235726356506348,1.027711033821106,10.095749855041504,-28.1982421875,-30.059814453125,0.274658203125
4.9024999000000005,-1.4712369441986084,0.4165911078453064,10.022128105163574,-19.989013671875,-37.109375,53.89404296875
4.9074999,0.3100491166114807,-0.8122329115867615,9.472060203552246,-23.956298828125,-22.4609375,64.727783203125
4.9124999,2.0374655723571777,-2.0033483505249023,9.024344444274902,8.97216796875,-22.52197265625,97.47314453125
4.9174999,2.5025393962860107,-3.008913040161133,8.725667953491211,50.262451171875,-6.89697265625,114.92919921875
4.9224999,1.24917471408844,-0.7140706777572632,9.804255485534668,7.965087890625,23.284912109375,-58.685302734375
4.9274999,1.0522516965866089,0.5632359385490417,10.153210639953613,5.218505859375,30.2734375,-34.698486328125
4.9324999,0.6602011322975159,0.5913678407669067,10.369287490844727,2.105712890625,28.4423828125,-61.859130859375
4.937499900000001,-0.18375498056411743,1.1432312726974487,10.398616790771484,-10.55908203125,5.55419921875,-96.466064453125
4.9424999000000005,-1.6352397203445435,0.7350199222564697,10.351929664611816,-27.252197265625,-6.988525390625,-85.44921875
4.9474999,-2.3092074394226074,1.0755951404571533,9.95209789276123,-31.67724609375,-17.120361328125,-38.726806640625
4.9524999,-1.9363106489181519,0.6871358752250671,10.185532569885254,-21.942138671875,-37.994384765625,30.70068359375
4.9574999,-0.7583633661270142,-0.11911153793334961,9.765350341796875,-21.1181640625,-29.510498046875,60.943603515625
4.9624999,0.5434837937355042,0.9457096457481384,10.377068519592285,0.8544921875,21.54541015625,-82.58056640625
4.9674999,-0.7942764163017273,0.9199720025062561,10.274118423461914,-22.39990234375,-4.425048828125,-95.184326171875
4.9724999,-2.1086931228637695,0.9385270476341248,10.090961456298828,-30.181884765625,-9.063720703125,-69.366455078125
4.977499900000001,-2.2589292526245117,0.8134300112724304,9.954492568969727,-29.23583984375,-27.2216796875,-7.01904296875
4.9824999000000005,-1.5245078802108765,0.29867666959762573,10.056844711303711,-19.10400390625,-37.109375,50.6591796875
4.9874999,0.14245499670505524,-0.7547720670700073,9.540295600891113,-23.0712890625,-23.040771484375,63.29345703125
4.9924999,1.9285295009613037,-1.912368655204773,9.123703956604004,5.096435546875,-21.209716796875,91.85791015625
4.9974999,2.474407434463501,-2.850895643234253,8.791508674621582,47.36328125,-10.101318359375,112.73193359375
5.0024999,0.7242460250854492,0.5793967843055725,10.37228012084961,2.716064453125,29.052734375,-58.837890625
5.0074999,-0.03950432687997818,1.3084312677383423,10.402207374572754,-8.453369140625,6.89697265625,-97.47314453125
5.0124999,-1.5729905366897583,0.8391677141189575,10.345345497131348,-27.557373046875,-7.843017578125,-89.324951171875
5.0174999,-2.380434989929199,1.269525408744812,9.946112632751465,-31.92138671875,-14.923095703125,-46.20361328125
5.022499900000001,-2.081159830093384,0.7948749661445618,10.1382474899292,-23.3154296875,-37.322998046875,24.688720703125
5.0274999000000005,-0.8864531517028809,-0.053270988166332245,9.799467086791992,-20.93505859375,-31.06689453125,59.600830078125
5.0324999,1.027711033821106,-1.3114240169525146,9.30925464630127,-16.571044921875,-19.775390625,70.892333984375
5.0374999,2.3098061084747314,-2.4361002445220947,8.91421127319336,27.03857421875,-22.3388671875,108.0322265625
5.0424999,2.4378957748413086,-3.090914487838745,8.694543838500977,51.3916015625,6.866455078125,102.752685546875
5.0474999,1.5376760959625244,-1.4425065517425537,9.385271072387695,10.589599609375,15.93017578125,-46.356201171875
5.0524999,1.1492167711257935,-0.2148796021938324,10.016741752624512,7.14111328125,27.679443359375,-50.018310546875
5.0574999,0.9427168965339661,0.7242460250854492,10.202292442321777,4.547119140625,30.242919921875,-35.7666015625
5.062499900000001,0.44771572947502136,0.9870096445083618,10.251373291015625,1.64794921875,23.468017578125,-79.071044921875
5.0674999000000005,-0.6955155730247498,1.0241197347640991,10.18493366241455,-20.5078125,-3.326416015625,-97.16796875
5.0724999,-1.9955670833587646,0.9786299467086792,10.034697532653809,-29.96826171875,-8.30078125,-74.76806640625
5.0774999,-2.2242133617401123,0.8259995579719543,9.890447616577148,-30.6396484375,-24.688720703125,-15.2587890625
5.0824999,-1.5933412313461304,0.25737667083740234,10.18912410736084,-19.744873046875,-38.4521484375,47.088623046875
5.0874999,-0.01975216343998909,-0.6985083222389221,9.66419506072998,-23.468017578125,-24.47509765625,62.8662109375
5.0924999,1.8381483554840088,-1.9069817066192627,9.26795482635498,-0.18310546875,-20.782470703125,88.470458984375
5.0974999,2.477998733520508,-2.8095955848693848,8.841787338256836,45.135498046875,-14.09912109375,115.234375
5.102499900000001,2.3535003662109375,-3.0807390213012695,8.620922088623047,46.417236328125,20.8740234375,78.30810546875
5.1074999000000005,1.313219666481018,-0.9534908533096313,9.68574333190918,8.148193359375,19.989013671875,-58.41064453125
5.1124999,1.0845733880996704,0.3627215623855591,10.136451721191406,5.43212890625,29.205322265625,-37.322998046875
5.1174999,0.7098808288574219,0.6302735805511475,10.37228012084961,2.410888671875,29.083251953125,-51.788330078125
5.1224999,0.04249707981944084,1.490989089012146,10.451289176940918,-5.218505859375,11.932373046875,-92.8955078125
5.1274999,-1.380257248878479,1.026513934135437,10.42076301574707,-26.30615234375,-6.65283203125,-89.874267578125
5.1324999,-2.2918496131896973,1.502361536026001,10.021530151367188,-31.79931640625,-13.24462890625,-52.79541015625
5.1374999,-2.0404584407806396,0.922366201877594,10.171167373657227,-24.7802734375,-34.515380859375,16.357421875
5.1424999,-0.8547300100326538,0.07721300423145294,9.909601211547852,-19.500732421875,-32.745361328125,58.837890625
5.147499900000001,0.9259575009346008,-1.2988544702529907,9.37629222869873,-18.49365234375,-19.989013671875,69.2138671875
5.1524999000000005,2.3810336589813232,-2.405574083328247,8.945934295654297,21.942138671875,-22.308349609375,105.010986328125
5.1574999,2.4636335372924805,-3.1956608295440674,8.728660583496094,52.093505859375,3.021240234375,106.3232421875
5.1624999,2.0488381385803223,-2.7778725624084473,8.604162216186523,33.447265625,25.299072265625,40.557861328125
5.1674999,0.4531026780605316,0.9546879529953003,10.15021800994873,1.861572265625,25.146484375,-75.836181640625
5.1724999,-0.5811924338340759,1.0696096420288086,10.14782428741455,-18.157958984375,-1.922607421875,-98.44970703125
