# Time (seconds),Accel_X,Accel_Y,Accel_Z,Gyro_X,Gyro_Y,Gyro_Z
0.0024999,0.8301894664764404,1.3766659498214722,6.717531204223633,-42.266845703125,73.974609375,-128.692626953125
0.0074999,0.8301894664764404,1.3766659498214722,6.717531204223633,-42.266845703125,73.974609375,-128.692626953125
0.012499900000000001,1.217451572418213,1.9375077486038208,8.06666374206543,-74.920654296875,88.68408203125,-124.8779296875
0.0174999,1.5436615943908691,2.3936030864715576,9.129091262817383,-104.3701171875,98.297119140625,-113.8916015625
0.0224999,1.8070237636566162,2.697068214416504,9.773730278015137,-129.791259765625,105.40771484375,-94.818115234375
0.0274999,2.0045454502105713,2.8407204151153564,10.052056312561035,-145.111083984375,106.231689453125,-69.305419921875
0.0324999,2.094327926635742,2.78086519241333,10.07779312133789,-149.658203125,100.677490234375,-39.276123046875
0.0374999,2.054224967956543,2.5683798789978027,10.023324966430664,-142.76123046875,89.691162109375,-2.5634765625
0.0424999,1.8986018896102905,2.208651065826416,10.018536567687988,-119.781494140625,69.732666015625,41.015625
0.0474999,1.6310498714447021,1.703474521636963,10.17296314239502,-73.883056640625,37.17041015625,89.019775390625
0.0524999,1.2761094570159912,1.1426327228546143,10.521918296813965,-6.317138671875,-4.058837890625,133.544921875
0.0574999,0.823006808757782,0.4537012279033661,11.13962173461914,70.404052734375,-44.342041015625,168.670654296875
0.0624999,0.28311434388160706,-0.15981295704841614,12.05839729309082,138.580322265625,-78.643798828125,188.8427734375
0.0674999,-0.39564183354377747,-0.6673837304115295,13.207613945007324,172.821044921875,-100.860595703125,190.97900390625
0.0724999,-1.1827356815338135,-0.9570821523666382,14.441824913024902,164.276123046875,-111.602783203125,175.23193359375
0.0774999,-2.056619167327881,-1.0773907899856567,15.402498245239258,125.48828125,-114.990234375,146.42333984375
0.0824999,-3.624821424484253,-1.357512354850769,15.000870704650879,46.20361328125,-106.8115234375,66.95556640625
0.0874999,-4.075530052185059,-1.6154875755310059,13.37281322479248,33.172607421875,-96.8017578125,19.04296875
0.0924999,-3.9025487899780273,-2.1308395862579346,8.626907348632812,16.815185546875,-54.962158203125,-68.511962890625
0.0974999,-3.308786630630493,-2.121861219406128,6.393715858459473,13.5498046875,-30.181884765625,-96.038818359375
0.1024999,-2.5282769203186035,-1.8626888990402222,4.7135844230651855,17.486572265625,-8.819580078125,-112.213134765625
0.1074999,-1.690904974937439,-1.3664906024932861,3.8127663135528564,21.881103515625,9.857177734375,-118.83544921875
0.1124999,-0.8750807046890259,-0.7146692276000977,3.7906198501586914,18.49365234375,26.702880859375,-122.039794921875
0.1174999,-0.16998831927776337,-0.002394201699644327,4.535815238952637,2.532958984375,44.097900390625,-124.81689453125
0.1224999,0.40521863102912903,0.6955155730247498,5.816712856292725,-24.444580078125,64.300537109375,-128.60107421875
0.1274999,0.8547300100326538,1.3395558595657349,7.260416507720947,-56.243896484375,82.09228515625,-129.82177734375
0.1324999,1.2348095178604126,1.9165585041046143,8.56765079498291,-87.066650390625,94.90966796875,-125.54931640625
0.1374999,1.5693992376327515,2.3576900959014893,9.510966300964355,-116.51611328125,105.3466796875,-114.19677734375
0.1424999,1.84233820438385,2.676118850708008,10.055048942565918,-138.702392578125,111.2060546875,-94.17724609375
0.1474999,2.0464439392089844,2.7892448902130127,10.272322654724121,-150.604248046875,109.375,-67.93212890625
0.1524999,1.8956091403961182,2.1320366859436035,10.319009780883789,-112.4267578125,60.60791015625,52.24609375
0.1574999,1.622071623802185,1.6178817749023438,10.489596366882324,-57.159423828125,23.74267578125,101.959228515625
0.1624999,1.247977614402771,1.0283095836639404,10.869675636291504,17.4560546875,-18.37158203125,145.93505859375
0.1674999,0.7811083197593689,0.3208230137825012,11.53885555267334,96.282958984375,-57.708740234375,178.619384765625
0.1724999,0.1777694821357727,-0.29628247022628784,12.504915237426758,156.585693359375,-88.7451171875,193.939208984375
0.17749990000000002,-0.5680243372917175,-0.7469909191131592,13.691841125488281,176.422119140625,-107.48291015625,190.399169921875
0.1824999,-1.4389152526855469,-0.9738415479660034,14.866795539855957,156.524658203125,-114.8681640625,169.61669921875
0.1874999,-1.4389152526855469,-0.9738415479660034,14.866795539855957,156.524658203125,-114.8681640625,169.61669921875
0.1924999,-2.3540987968444824,-1.0528502464294434,15.653290748596191,114.31884765625,-114.92919921875,137.451171875
0.1974999,-3.202244758605957,-1.1336544752120972,15.665261268615723,71.075439453125,-110.7177734375,98.358154296875
0.2024999,-3.8594532012939453,-1.337161660194397,14.68902587890625,44.37255859375,-104.278564453125,54.01611328125
0.20749990000000001,-3.821744441986084,-2.078765630722046,7.9409685134887695,17.822265625,-48.9501953125,-76.7822265625
0.2124999,-3.821744441986084,-2.078765630722046,7.9409685134887695,17.822265625,-48.9501953125,-76.7822265625
0.2174999,-3.1507694721221924,-2.051830768585205,5.801749229431152,16.082763671875,-25.32958984375,-99.79248046875
0.2224999,-2.3517045974731445,-1.7591396570205688,4.284423828125,20.8740234375,-5.67626953125,-112.97607421875
0.2274999,-1.534683346748352,-1.236605167388916,3.576937437057495,24.0478515625,12.298583984375,-120.086669921875
0.2324999,-0.7679402232170105,-0.5710170865058899,3.7050271034240723,17.76123046875,29.78515625,-125.18310546875
0.2374999,-0.1388636976480484,0.1777694821357727,4.546588897705078,-1.03759765625,48.309326171875,-129.730224609375
0.2424999,0.8379706144332886,1.5400702953338623,7.289745807647705,-61.370849609375,82.94677734375,-132.598876953125
0.2474999,1.2545616626739502,2.0853497982025146,8.577826499938965,-93.3837890625,95.489501953125,-126.46484375
0.2524999,1.6214730739593506,2.5246856212615967,9.503783226013184,-123.931884765625,106.048583984375,-111.328125
0.2574999,1.9333178997039795,2.8006174564361572,10.036493301391602,-144.805908203125,109.832763671875,-88.348388671875
0.2624999,1.9027918577194214,2.1086931228637695,10.212467193603516,-109.283447265625,55.755615234375,66.10107421875
0.2674999,1.9027918577194214,2.1086931228637695,10.212467193603516,-109.283447265625,55.755615234375,66.10107421875
0.2724999,1.5717934370040894,1.5436615943908691,10.407594680786133,-49.468994140625,16.90673828125,114.2578125
0.2774999,1.1408370733261108,0.8433575630187988,10.846332550048828,27.923583984375,-25.7568359375,155.792236328125
0.2824999,0.6117185354232788,0.10534487664699554,11.590330123901367,108.5205078125,-66.10107421875,184.50927734375
0.28749990000000003,-0.041299980133771896,-0.5404910445213318,12.62043571472168,165.191650390625,-95.916748046875,195.9228515625
0.2924999,-0.8254010081291199,-0.9792284965515137,13.84147834777832,178.8330078125,-112.152099609375,188.690185546875
0.2974999,-1.699883222579956,-1.1988965272903442,15.009848594665527,154.815673828125,-118.2861328125,165.069580078125
0.3024999,-2.609081268310547,-1.256955862045288,15.716736793518066,110.504150390625,-117.767333984375,131.561279296875
0.3074999,-3.4063503742218018,-1.3533225059509277,15.597026824951172,66.864013671875,-113.34228515625,92.132568359375
0.3124999,-3.9905357360839844,-1.558625340461731,14.462774276733398,40.22216796875,-106.50634765625,48.03466796875
0.3174999,-4.121618270874023,-2.0817582607269287,9.974244117736816,26.824951171875,-75.0732421875,-46.783447265625
0.3224999,-3.687669277191162,-2.138620615005493,7.473500728607178,17.822265625,-49.774169921875,-80.26123046875
0.3274999,-2.96162748336792,-1.9877859354019165,5.370792865753174,16.29638671875,-26.763916015625,-101.837158203125
0.3324999,-2.1326351165771484,-1.6101006269454956,3.9659950733184814,21.636962890625,-5.67626953125,-113.189697265625
0.3374999,-1.2910733222961426,-1.0414776802062988,3.4189200401306152,23.681640625,14.251708984375,-118.408203125
0.3424999,-0.5153518915176392,-0.363918662071228,3.7421371936798096,14.34326171875,31.768798828125,-121.490478515625
0.34749990000000003,0.10833762586116791,0.34596213698387146,4.784213542938232,-7.843017578125,49.62158203125,-125.6103515625
0.35249990000000003,0.6248866319656372,1.002571940422058,6.225522994995117,-37.109375,66.619873046875,-129.241943359375
0.3574999,1.026513934135437,1.6370353698730469,7.724891662597656,-68.4814453125,80.596923828125,-128.41796875
0.3624999,1.4065934419631958,2.1320366859436035,8.965686798095703,-101.531982421875,94.1162109375,-122.283935546875
0.3674999,1.7232266664505005,2.5282769203186035,9.809642791748047,-130.401611328125,105.04150390625,-107.086181640625
0.3724999,1.975814938545227,2.7509377002716064,10.256759643554688,-148.86474609375,109.2529296875,-85.44921875
0.3774999,2.103306293487549,2.6563668251037598,10.442909240722656,-159.271240234375,100.89111328125,-24.96337890625
0.3824999,1.953070044517517,2.3732523918151855,10.459070205688477,-145.44677734375,84.5947265625,16.021728515625
0.3874999,1.6867151260375977,1.9141643047332764,10.556633949279785,-109.283447265625,54.01611328125,62.92724609375
0.3924999,1.3335703611373901,1.3515268564224243,10.767922401428223,-48.2177734375,12.5732421875,109.771728515625
0.3974999,0.8978256583213806,0.6715735793113708,11.160571098327637,31.036376953125,-31.79931640625,151.092529296875
0.4024999,-0.2082955539226532,-0.6344634294509888,12.682684898376465,167.266845703125,-102.23388671875,190.85693359375
0.4074999,-0.2082955539226532,-0.6344634294509888,12.682684898376465,167.266845703125,-102.23388671875,190.85693359375
0.41249990000000003,-0.9175778031349182,-1.0313023328781128,13.745112419128418,180.11474609375,-117.5537109375,184.814453125
0.41749990000000003,-1.7196353673934937,-1.1839327812194824,14.74409294128418,157.28759765625,-122.802734375,163.482666015625
0.4224999,-2.5480291843414307,-1.191115379333496,15.298949241638184,114.56298828125,-121.27685546875,132.568359375
0.4274999,-3.287837505340576,-1.2306196689605713,15.078083992004395,71.77734375,-116.180419921875,95.672607421875
0.4324999,-3.8355112075805664,-1.3988122940063477,13.872603416442871,45.59326171875,-107.0556640625,53.680419921875
0.4374999,-3.9827544689178467,-1.9147628545761108,9.489418029785156,33.5693359375,-69.183349609375,-41.44287109375
0.4424999,-3.5901055335998535,-1.9907786846160889,7.159860134124756,21.209716796875,-41.473388671875,-76.690673828125
0.4474999,-2.913743495941162,-1.8716671466827393,5.303755283355713,15.2587890625,-16.754150390625,-99.884033203125
0.4524999,-2.1134815216064453,-1.5083470344543457,4.14795446395874,16.4794921875,5.157470703125,-113.83056640625
0.4574999,-1.2677297592163086,-0.9498994946479797,3.8157589435577393,15.56396484375,24.200439453125,-121.88720703125
0.4624999,-0.4836287498474121,-0.27653029561042786,4.278438568115234,5.31005859375,40.6494140625,-126.800537109375
0.4674999,0.181959331035614,0.40880993008613586,5.357026100158691,-14.923095703125,57.18994140625,-130.31005859375
0.47249990000000003,0.7015010714530945,1.0271124839782715,6.785766124725342,-39.337158203125,72.540283203125,-132.14111328125
0.47749990000000003,1.0965443849563599,1.6083049774169922,8.204330444335938,-66.83349609375,86.456298828125,-130.706787109375
0.4824999,1.4101848602294922,2.0398597717285156,9.361329078674316,-98.388671875,99.334716796875,-124.420166015625
0.4874999,1.6663644313812256,2.38462495803833,10.124480247497559,-125.48828125,107.208251953125,-110.565185546875
0.4924999,1.8608932495117188,2.5779566764831543,10.49677848815918,-144.47021484375,109.100341796875,-89.78271484375
0.4974999,1.9800047874450684,2.6198551654815674,10.581772804260254,-156.646728515625,106.14013671875,-61.82861328125
0.5024999,2.006340980529785,2.541445016860962,10.504559516906738,-160.003662109375,98.236083984375,-26.06201171875
0.5074999,1.8962076902389526,2.299032211303711,10.395624160766602,-146.17919921875,80.413818359375,16.90673828125
0.5124999,1.6831238269805908,1.9207483530044556,10.338761329650879,-108.001708984375,47.698974609375,65.0634765625
0.5174999,1.3778630495071411,1.3748703002929688,10.378864288330078,-44.73876953125,5.767822265625,113.555908203125
0.5224999,0.9780313968658447,0.7003039717674255,10.65359878540039,37.7197265625,-38.116455078125,155.6396484375
0.5274999,0.5273229479789734,-0.02693476900458336,11.224616050720215,120.1171875,-78.399658203125,184.173583984375
0.5324999,-0.031124621629714966,-0.6392518281936646,12.128427505493164,174.37744140625,-106.50634765625,196.2890625
0.5374999,-0.7326257228851318,-1.028908133506775,13.259089469909668,185.821533203125,-120.9716796875,190.97900390625
0.5424999,-1.5316904783248901,-1.1905168294906616,14.34785270690918,161.529541015625,-125.9765625,169.61669921875
0.5474999,-2.388216257095337,-1.1869255304336548,15.016432762145996,116.69921875,-123.199462890625,137.939453125
0.5524999,-3.1531636714935303,-1.2635399103164673,14.870387077331543,70.556640625,-115.478515625,100.09765625
0.5574999,-3.99532413482666,-1.734000563621521,11.860875129699707,37.9638671875,-86.48681640625,5.859375
0.5624999,-3.8959646224975586,-2.0219032764434814,9.529520988464355,30.029296875,-62.896728515625,-45.867919921875
0.5674999000000001,-3.5248634815216064,-2.098517894744873,7.293935298919678,14.70947265625,-35.614013671875,-82.855224609375
0.5724999000000001,-2.828749418258667,-1.946485996246338,5.503072738647461,6.9580078125,-12.847900390625,-106.414794921875
0.5774999000000001,-2.0171148777008057,-1.5526398420333862,4.400542736053467,7.6904296875,8.056640625,-121.2158203125
0.5824999,-1.1605892181396484,-0.9558850526809692,4.059967517852783,7.171630859375,27.40478515625,-128.997802734375
0.5874999,-0.37169981002807617,-0.26336219906806946,4.478354454040527,-2.01416015625,44.525146484375,-132.720947265625
0.5924999,0.2908954918384552,0.4207809567451477,5.493495941162109,-19.4091796875,60.455322265625,-134.521484375
0.5974999,0.7960720658302307,1.0654197931289673,6.843226909637451,-40.771484375,74.737548828125,-134.70458984375
0.6024999,1.1755530834197998,1.600523829460144,8.201936721801758,-68.84765625,89.53857421875,-133.087158203125
0.6074999,1.4532804489135742,2.0691888332366943,9.320627212524414,-100.9521484375,103.271484375,-125.79345703125
0.6124999,1.6723499298095703,2.4019827842712402,10.095749855041504,-128.387451171875,111.175537109375,-111.297607421875
0.6174999,1.92134690284729,2.692878246307373,10.644620895385742,-162.2314453125,108.734130859375,-59.38720703125
0.6224999,1.922544002532959,2.6114754676818848,10.614693641662598,-164.764404296875,98.785400390625,-21.97265625
0.6274999,1.809417963027954,2.342726469039917,10.520720481872559,-148.25439453125,78.857421875,21.820068359375
0.6324999,1.5861586332321167,1.9093759059906006,10.454880714416504,-106.75048828125,46.417236328125,70.648193359375
0.6374999,1.278503656387329,1.2731167078018188,10.49677848815918,-40.069580078125,5.18798828125,120.17822265625
0.6424999,-0.9373299479484558,-1.1767501831054688,13.4105224609375,188.385009765625,-121.52099609375,192.87109375
0.6474999,-1.7764976024627686,-1.2874820232391357,14.470555305480957,161.651611328125,-125.6103515625,170.440673828125
0.6524999,-2.649782657623291,-1.2551602125167847,15.103222846984863,114.07470703125,-123.565673828125,137.63427734375
0.6574999,-3.423708438873291,-1.279700756072998,14.905102729797363,65.85693359375,-116.69921875,98.724365234375
0.6624999,-3.70742130279541,-2.122459888458252,7.231087684631348,12.542724609375,-38.330078125,-82.6416015625
0.6674999,-2.9903578758239746,-1.9728221893310547,5.463568210601807,6.744384765625,-14.22119140625,-105.16357421875
0.6724999,-2.139219284057617,-1.6077064275741577,4.387374401092529,9.33837890625,7.843017578125,-121.124267578125
0.6774999,-1.2665326595306396,-1.006163239479065,4.077325344085693,9.552001953125,27.069091796875,-130.126953125
0.6824999,-0.4554968774318695,-0.304063618183136,4.514267444610596,0.457763671875,44.98291015625,-134.3994140625
0.6874999,0.2322375625371933,0.38307225704193115,5.546766757965088,-16.021728515625,60.9130859375,-136.90185546875
0.6924999000000001,0.7643488645553589,1.0426748991012573,6.888716697692871,-37.567138671875,76.416015625,-137.8173828125
0.6974999000000001,1.1414356231689453,1.5921441316604614,8.221090316772461,-67.718505859375,92.864990234375,-136.29150390625
0.7024999000000001,1.4197616577148438,2.0655975341796875,9.328408241271973,-100.15869140625,105.46875,-129.5166015625
0.7074999,1.6370353698730469,2.4163479804992676,10.072406768798828,-127.50244140625,111.26708984375,-115.8447265625
0.7124999,1.9925743341445923,2.449268341064453,10.509946823120117,-145.01953125,78.79638671875,21.697998046875
0.7174999,1.8183962106704712,2.033275842666626,10.478822708129883,-102.630615234375,45.745849609375,71.83837890625
0.7224999,1.0971429347991943,0.6787561774253845,10.877456665039062,51.422119140625,-40.8935546875,164.0625
0.7274999,0.5740098357200623,-0.08978256583213806,11.501745223999023,132.26318359375,-82.03125,191.7724609375
0.7324999,-0.07481880486011505,-0.7344213724136353,12.422914505004883,182.342529296875,-110.015869140625,203.43017578125
0.7374999,-0.8672995567321777,-1.1324573755264282,13.541604995727539,191.0400390625,-124.755859375,197.601318359375
0.7424999,-1.7471686601638794,-1.2856862545013428,14.582484245300293,164.55078125,-129.45556640625,175.018310546875
0.7474999,-2.654571056365967,-1.2701239585876465,15.179238319396973,115.53955078125,-127.288818359375,142.27294921875
0.7524999,-3.426102638244629,-1.30543851852417,14.969746589660645,65.673828125,-119.598388671875,103.21044921875
0.7574999,-4.265270233154297,-1.777096152305603,11.79443645477295,35.400390625,-90.75927734375,5.67626953125
0.7624999,-4.1425676345825195,-2.0817582607269287,9.40023422241211,28.86962890625,-67.93212890625,-47.2412109375
0.7674999,-3.7487213611602783,-2.167351007461548,7.122750282287598,12.3291015625,-40.802001953125,-83.19091796875
0.7724999,-3.0526070594787598,-1.9943699836730957,5.3145294189453125,5.035400390625,-14.862060546875,-105.65185546875
0.7774999,-2.204461097717285,-1.6238672733306885,4.21080207824707,6.65283203125,7.99560546875,-121.826171875
0.7824999,-1.3491326570510864,-1.0570400953292847,3.8564603328704834,6.65283203125,28.717041015625,-130.401611328125
0.7874999,-0.5476736426353455,-0.3926490843296051,4.280832767486572,-1.3427734375,46.173095703125,-133.514404296875
0.7924999,0.14664486050605774,0.2753331959247589,5.315127849578857,-15.31982421875,61.187744140625,-135.19287109375
0.7974999,0.6901286244392395,0.9103952050209045,6.703764915466309,-35.58349609375,77.239990234375,-136.505126953125
0.8024999,1.083974838256836,1.4718354940414429,8.128314971923828,-64.727783203125,94.085693359375,-135.6201171875
0.8074999,1.3808557987213135,1.9446903467178345,9.337985038757324,-95.794677734375,106.01806640625,-129.45556640625
0.8124999,1.591545581817627,2.2876596450805664,10.201693534851074,-123.046875,110.626220703125,-116.2109375
0.8174999000000001,1.9363106489181519,2.586336374282837,10.82239055633545,-165.71044921875,99.12109375,-25.238037109375
0.8224999000000001,1.9363106489181519,2.586336374282837,10.82239055633545,-165.71044921875,99.12109375,-25.238037109375
0.8274999000000001,1.8824410438537598,2.3924059867858887,10.6925048828125,-149.444580078125,77.789306640625,18.585205078125
0.8324999000000001,1.73519766330719,2.0027496814727783,10.563218116760254,-108.978271484375,45.806884765625,67.7490234375
0.8374999,1.4748282432556152,1.4203602075576782,10.545860290527344,-41.9921875,4.82177734375,117.85888671875
0.8424999,1.091755986213684,0.7152677774429321,10.749366760253906,44.61669921875,-40.313720703125,159.66796875
0.8474999,0.618302583694458,-0.04728548228740692,11.267112731933594,126.40380859375,-80.780029296875,187.713623046875
0.8524999,0.002394201699644327,-0.6835445761680603,12.126032829284668,180.419921875,-108.062744140625,200.653076171875
0.8574999,-0.7553706169128418,-1.094150185585022,13.205219268798828,193.939208984375,-123.321533203125,196.502685546875
0.8624999,-1.622071623802185,-1.2425906658172607,14.267646789550781,170.440673828125,-128.570556640625,175.018310546875
0.8674999,-2.519298791885376,-1.2204443216323853,14.935628890991211,122.1923828125,-126.373291015625,143.524169921875
0.8724999,-4.182071685791016,-1.7435773611068726,11.884218215942383,36.468505859375,-90.301513671875,9.613037109375
0.8774999,-4.182071685791016,-1.7435773611068726,11.884218215942383,36.468505859375,-90.301513671875,9.613037109375
0.8824999,-3.7199909687042236,-2.1511902809143066,7.338826656341553,11.444091796875,-40.191650390625,-80.291748046875
0.8874999,-3.7199909687042236,-2.1511902809143066,7.338826656341553,11.444091796875,-40.191650390625,-80.291748046875
0.8924999,-3.050212860107422,-1.9800047874450684,5.55514669418335,2.50244140625,-13.275146484375,-104.98046875
0.8974999,-2.2014684677124023,-1.601720929145813,4.406527996063232,3.143310546875,9.857177734375,-122.86376953125
0.9024999,-1.3437457084655762,-1.027711033821106,4.010886192321777,3.35693359375,30.853271484375,-132.904052734375
0.9074999,-0.5231330990791321,-0.35733461380004883,4.369418144226074,-2.685546875,47.36328125,-136.566162109375
0.9124999,0.17537526786327362,0.3208230137825012,5.366602897644043,-14.58740234375,61.859130859375,-138.00048828125
0.9174999,0.7236474752426147,0.9475052952766418,6.740874767303467,-34.637451171875,78.765869140625,-139.373779296875
0.9224999,1.106719732284546,1.4927847385406494,8.184578895568848,-63.507080078125,95.88623046875,-138.5498046875
0.9274999,1.6765397787094116,2.515108823776245,10.863091468811035,-146.026611328125,113.189697265625,-97.35107421875
0.9324999,1.7717092037200928,2.6569652557373047,11.036072731018066,-164.00146484375,109.893798828125,-65.887451171875
0.9374999,1.8225860595703125,2.631826162338257,10.964845657348633,-167.8466796875,97.930908203125,-27.4658203125
0.9424999000000001,1.7794904708862305,2.453458309173584,10.782885551452637,-150.421142578125,75.68359375,17.39501953125
0.9474999000000001,1.6514005661010742,2.0476410388946533,10.582969665527344,-109.344482421875,44.036865234375,68.206787109375
0.9524999000000001,1.4047977924346924,1.437718152999878,10.512341499328613,-40.618896484375,2.960205078125,120.025634765625
0.9574999000000001,1.027711033821106,0.7038952708244324,10.67514705657959,47.515869140625,-41.961669921875,163.0859375
0.9624999,0.5566518902778625,-0.09457096457481384,11.165359497070312,129.69970703125,-82.45849609375,191.83349609375
0.9674999,-0.0694318488240242,-0.7428010702133179,12.019491195678711,185.089111328125,-111.14501953125,204.864501953125
0.9724999,-0.839766263961792,-1.149815320968628,13.09029769897461,199.462890625,-127.532958984375,200.25634765625
0.9774999,-1.7094600200653076,-1.2737152576446533,14.16409683227539,175.384521484375,-133.056640625,178.955078125
0.9824999,-3.934870481491089,-1.389235496520996,13.676279067993164,43.51806640625,-107.757568359375,63.4765625
0.9874999,-4.224568843841553,-1.668160080909729,11.783063888549805,38.63525390625,-90.27099609375,12.451171875
0.9924999,-4.116231441497803,-1.9907786846160889,9.458293914794922,33.294677734375,-67.3828125,-40.58837890625
0.9974999,-3.754108190536499,-2.117671489715576,7.2125325202941895,16.265869140625,-38.787841796875,-78.61328125
1.0024999,-3.089118719100952,-1.9979612827301025,5.464765548706055,5.767822265625,-11.23046875,-103.515625
1.0074999000000002,-2.2601263523101807,-1.644816517829895,4.368220806121826,5.615234375,12.39013671875,-121.612548828125
1.0124999000000001,-1.4209587574005127,-1.1013327836990356,4.024054527282715,5.889892578125,31.79931640625,-131.988525390625
1.0174999000000002,-0.6206967830657959,-0.44831427931785583,4.400542736053467,0.79345703125,44.708251953125,-135.68115234375
1.0224999000000001,0.076015904545784,0.2322375625371933,5.380369663238525,-11.444091796875,56.060791015625,-137.51220703125
1.0274999,0.6446388363838196,0.8780734539031982,6.711545944213867,-32.77587890625,72.113037109375,-139.892578125
1.0324999000000001,1.0881646871566772,1.468244194984436,8.102577209472656,-61.6455078125,87.890625,-140.2587890625
1.0374999,1.7232266664505005,2.364274263381958,10.138845443725586,-120.60546875,106.842041015625,-121.612548828125
1.0424999000000001,1.9602526426315308,2.65097975730896,10.619482040405273,-145.5078125,113.067626953125,-99.273681640625
1.0474999,2.139219284057617,2.823362350463867,10.791265487670898,-164.306640625,113.922119140625,-67.901611328125
1.0524999000000002,2.2224178314208984,2.803011655807495,10.762535095214844,-169.7998046875,105.16357421875,-29.11376953125
1.0574999,2.1745336055755615,2.630629062652588,10.667963981628418,-154.9072265625,84.228515625,15.0146484375
1.0624999000000002,1.9835960865020752,2.2230162620544434,10.564414978027344,-117.645263671875,52.459716796875,65.185546875
1.0674999,1.6633716821670532,1.6023194789886475,10.579379081726074,-52.703857421875,9.735107421875,116.485595703125
1.0724999000000002,1.2030863761901855,0.8631097078323364,10.780491828918457,32.5927734375,-37.384033203125,159.912109375
1.0774999,0.6673837304115295,-0.004788403399288654,11.259930610656738,115.936279296875,-79.1015625,190.12451171875
1.0824999000000002,0.031124621629714966,-0.7212532758712769,12.049418449401855,176.666259765625,-109.0087890625,204.65087890625
1.0874999,-0.7487865686416626,-1.212663173675537,13.0513916015625,198.089599609375,-126.46484375,201.84326171875
1.0924999000000002,-1.602918028831482,-1.3976151943206787,14.05994987487793,178.924560546875,-133.6669921875,181.793212890625
1.0974999,-3.296217203140259,-1.2982559204101562,14.714164733886719,78.79638671875,-122.4365234375,111.328125
1.1024999000000002,-3.8738183975219727,-1.4179660081863403,13.73852825164795,44.61669921875,-108.306884765625,66.650390625
1.1074999,-4.20421838760376,-1.66696298122406,11.958438873291016,35.888671875,-91.033935546875,16.17431640625
1.1124999000000002,-4.1431660652160645,-1.9692308902740479,9.729436874389648,30.975341796875,-69.244384765625,-36.92626953125
1.1174999,-3.799597978591919,-2.1284453868865967,7.527968883514404,14.22119140625,-40.8935546875,-77.239990234375
1.1224999000000002,-0.04967968538403511,0.1496376097202301,5.4677581787109375,-10.711669921875,54.718017578125,-137.420654296875
1.1274999,0.5111620426177979,0.7990648150444031,6.767210960388184,-30.426025390625,72.08251953125,-140.19775390625
1.1324999000000002,0.9498994946479797,1.391629695892334,8.140884399414062,-57.2509765625,88.165283203125,-141.571044921875
1.1374999000000001,1.5143325328826904,2.2834699153900146,10.229227066040039,-116.0888671875,108.82568359375,-125.152587890625
1.1424999000000002,1.7118542194366455,2.589329242706299,10.757746696472168,-143.73779296875,114.410400390625,-104.248046875
1.1474999000000001,1.857301950454712,2.7670986652374268,10.951677322387695,-165.130615234375,114.1357421875,-73.394775390625
1.1524999000000002,1.923741102218628,2.764704465866089,10.913370132446289,-172.210693359375,103.759765625,-34.97314453125
1.1574999000000001,1.8932149410247803,2.6024973392486572,10.753557205200195,-159.423828125,83.67919921875,9.09423828125
1.1624999,1.734000563621521,2.189497470855713,10.565013885498047,-124.32861328125,54.595947265625,60.272216796875
1.1674999000000001,1.4538789987564087,1.5867571830749512,10.502165794372559,-60.11962890625,13.458251953125,112.24365234375
1.1724999,1.0492589473724365,0.8601169586181641,10.6524019241333,24.383544921875,-32.440185546875,156.036376953125
1.1774999000000002,0.5590460896492004,-0.004189853090792894,11.116278648376465,109.100341796875,-73.089599609375,187.347412109375
1.1824999,-0.04369417950510979,-0.7194576263427734,11.904569625854492,174.041748046875,-103.790283203125,203.643798828125
1.1874999000000002,-0.7841010689735413,-1.2192472219467163,12.934076309204102,200.98876953125,-123.748779296875,202.08740234375
1.1924999,-1.63344407081604,-1.3946224451065063,13.990517616271973,186.1572265625,-132.38525390625,183.074951171875
1.1974999000000002,-3.3213562965393066,-1.2336124181747437,14.81352424621582,89.29443359375,-124.0234375,114.19677734375
1.2024999,-3.8959646224975586,-1.2982559204101562,13.91510009765625,51.788330078125,-112.1826171875,70.80078125
1.2074999000000002,-4.218583583831787,-1.5364789962768555,12.121843338012695,39.306640625,-95.64208984375,22.552490234375
1.2124999,-4.169502258300781,-1.7866730690002441,9.803657531738281,36.224365234375,-74.21875,-28.778076171875
1.2174999000000002,-3.8151605129241943,-2.0248961448669434,7.473500728607178,22.4609375,-44.98291015625,-70.9228515625
1.2224999,-3.1902737617492676,-1.9446903467178345,5.55514669418335,9.063720703125,-14.58740234375,-97.930908203125
1.2274999000000002,-2.366668462753296,-1.6992846727371216,4.3406877517700195,5.31005859375,12.115478515625,-117.7978515625
1.2324999,-1.5101426839828491,-1.2144588232040405,3.9013516902923584,5.18798828125,32.562255859375,-131.072998046875
1.2374999000000002,-0.6871358752250671,-0.5728127360343933,4.245518207550049,1.434326171875,44.921875,-136.566162109375
1.2424999,0.013168109580874443,0.10773907601833344,5.2247467041015625,-10.19287109375,57.06787109375,-139.373779296875
1.2474999000000002,0.5979518890380859,0.7697358727455139,6.599018573760986,-30.059814453125,72.021484375,-142.547607421875
1.2524999,1.0324994325637817,1.359906554222107,8.048707962036133,-55.450439453125,85.296630859375,-143.829345703125
1.2574999000000002,1.644816517829895,2.252943754196167,10.228029251098633,-111.81640625,103.179931640625,-129.425048828125
1.2624999000000001,1.8914192914962769,2.5905263423919678,10.754754066467285,-139.801025390625,111.083984375,-110.107421875
1.2674999000000002,2.100912094116211,2.805405855178833,10.951078414916992,-162.628173828125,113.58642578125,-81.024169921875
1.2724999000000001,2.2236149311065674,2.874837636947632,10.899004936218262,-173.675537109375,105.804443359375,-43.76220703125
1.2774999000000002,2.2260091304779053,2.804208755493164,10.720038414001465,-167.022705078125,88.531494140625,-0.244140625
1.2824999000000001,-0.6189011335372925,-1.1959037780761719,12.467804908752441,198.30322265625,-121.307373046875,207.1533203125
1.2874999,-1.4766238927841187,-1.53707754611969,13.526640892028809,193.634033203125,-133.30078125,191.71142578125
1.2924999000000001,-2.387019157409668,-1.5909470319747925,14.405313491821289,154.296875,-134.1552734375,162.17041015625
1.2974999,-3.245939016342163,-1.4802151918411255,14.72793197631836,101.1962890625,-126.28173828125,125.1220703125
1.3024999000000002,-3.889380693435669,-1.4987702369689941,14.182652473449707,55.96923828125,-113.58642578125,82.275390625
1.3074999,-4.30058479309082,-1.6729484796524048,12.708422660827637,34.210205078125,-96.61865234375,34.912109375
1.3124999000000002,-4.371812343597412,-1.856104850769043,10.63624095916748,30.487060546875,-75.86669921875,-16.29638671875
1.3174999,-4.077325344085693,-2.1045033931732178,8.353968620300293,19.1650390625,-47.943115234375,-64.117431640625
1.3224999000000002,-3.534440279006958,-2.051830768585205,6.379350662231445,3.265380859375,-17.852783203125,-95.21484375
1.3274999,-2.7329812049865723,-1.8339585065841675,4.970362663269043,-2.777099609375,8.087158203125,-116.668701171875
1.3324999000000002,-1.8680758476257324,-1.4089876413345337,4.285022258758545,-0.91552734375,27.008056640625,-131.622314453125
1.3374999,-1.0319008827209473,-0.8044517636299133,4.337096214294434,-0.42724609375,39.85595703125,-138.24462890625
1.3424999000000002,-0.2890998423099518,-0.13168109953403473,5.055356979370117,-7.6904296875,53.070068359375,-141.326904296875
1.3474999,0.3250128924846649,0.5398924946784973,6.246472358703613,-24.47509765625,68.9697265625,-144.34814453125
1.3524999000000002,1.88782799243927,2.787449359893799,10.862493515014648,-163.39111328125,118.46923828125,-92.22412109375
1.3574999,2.0488381385803223,2.932298421859741,10.933121681213379,-177.490234375,113.1591796875,-55.450439453125
1.3624999000000002,2.117671489715576,2.868852138519287,10.836156845092773,-175.018310546875,98.7548828125,-12.542724609375
1.3674999,2.0248961448669434,2.582146644592285,10.67634391784668,-151.123046875,73.974609375,37.689208984375
1.3724999000000002,1.7651251554489136,2.0470423698425293,10.552444458007812,-97.5341796875,35.369873046875,91.4306640625
1.3774999,1.357512354850769,1.282094955444336,10.554239273071289,-19.134521484375,-12.359619140625,140.0146484375
1.3824999000000002,0.8319851160049438,0.406415730714798,10.82239055633545,71.71630859375,-59.051513671875,178.131103515625
1.3874999000000001,0.2454056739807129,-0.47405192255973816,11.362282752990723,152.89306640625,-97.625732421875,202.362060546875
1.3924999000000002,-0.45848962664604187,-1.1354501247406006,12.22299861907959,202.850341796875,-123.931884765625,209.869384765625
1.3974999000000001,-3.6355953216552734,-1.2755109071731567,14.38376522064209,68.084716796875,-122.283935546875,99.9755859375
1.4024999000000002,-4.081515312194824,-1.4245500564575195,13.110648155212402,35.82763671875,-106.109619140625,54.412841796875
1.4074999000000001,-4.279036998748779,-1.6831238269805908,11.111490249633789,30.670166015625,-86.24267578125,5.126953125
1.4124999,-4.084507942199707,-1.9847931861877441,8.794501304626465,25.726318359375,-59.5703125,-46.93603515625
1.4174999000000001,-3.639785051345825,-2.1068975925445557,6.665457725524902,7.62939453125,-27.069091796875,-84.65576171875
1.4224999,-2.9472622871398926,-1.956661343574524,5.115810394287109,-4.791259765625,2.685546875,-108.21533203125
1.4274999000000002,-2.121861219406128,-1.5981296300888062,4.298789024353027,-5.67626953125,24.505615234375,-125.396728515625
1.4324999,-1.3150153160095215,-1.0540473461151123,4.232349872589111,-3.875732421875,39.337158203125,-135.009765625
1.4374999000000002,-1.3150153160095215,-1.0540473461151123,4.232349872589111,-3.875732421875,39.337158203125,-135.009765625
1.4424999,0.08259996026754379,0.23942017555236816,5.985504150390625,-20.355224609375,67.138671875,-144.1650390625
1.4474999000000002,1.013944387435913,1.3694833517074585,8.707711219787598,-61.82861328125,91.033935546875,-146.91162109375
1.4524999,1.013944387435913,1.3694833517074585,8.707711219787598,-61.82861328125,91.033935546875,-146.91162109375
1.4574999000000002,1.304241418838501,1.8213889598846436,9.807847023010254,-90.728759765625,102.020263671875,-142.27294921875
1.4624999,1.5442601442337036,2.2146365642547607,10.573991775512695,-124.3896484375,111.87744140625,-129.21142578125
1.4674999000000002,1.7609353065490723,2.5127146244049072,10.977415084838867,-155.670166015625,117.218017578125,-106.048583984375
1.4724999,1.9291280508041382,2.7222073078155518,11.091139793395996,-175.96435546875,114.44091796875,-72.296142578125
1.4774999000000002,2.0464439392089844,2.7706899642944336,10.973224639892578,-180.999755859375,103.851318359375,-31.402587890625
1.4824999,2.029085874557495,2.5989060401916504,10.755352973937988,-166.900634765625,84.5947265625,16.845703125
1.4874999000000002,1.835754156112671,2.185307502746582,10.524312019348145,-124.481201171875,51.513671875,70.068359375
1.4924999,1.4856021404266357,1.4957774877548218,10.406397819519043,-54.74853515625,6.866455078125,121.15478515625
1.4974999000000002,0.9864110946655273,0.6799532771110535,10.519523620605469,33.50830078125,-39.520263671875,164.0625
1.5024999,0.4010287821292877,-0.28131869435310364,10.907383918762207,122.314453125,-81.451416015625,193.878173828125
1.5074999000000002,-3.3865983486175537,-1.3281834125518799,14.593856811523438,93.8720703125,-128.662109375,117.3095703125
1.5124999000000001,-3.3865983486175537,-1.3281834125518799,14.593856811523438,93.8720703125,-128.662109375,117.3095703125
1.5174999000000002,-3.914519786834717,-1.316810965538025,13.843873023986816,47.91259765625,-115.05126953125,75.347900390625
1.5224999000000001,-4.186860084533691,-1.6825252771377563,9.990405082702637,29.937744140625,-76.446533203125,-22.27783203125
1.5274999000000002,-4.186860084533691,-1.6825252771377563,9.990405082702637,29.937744140625,-76.446533203125,-22.27783203125
1.5324999000000001,-3.8109705448150635,-1.9494787454605103,7.688978672027588,16.7236328125,-45.7763671875,-68.66455078125
1.5374999000000003,-3.225588321685791,-1.8656816482543945,5.829282760620117,-0.946044921875,-11.444091796875,-97.625732421875
1.5424999000000001,-2.406771183013916,-1.6651673316955566,4.638765811920166,-7.171630859375,15.777587890625,-117.00439453125
1.5474999,-1.5753847360610962,-1.2575544118881226,4.225766181945801,-5.2490234375,34.1796875,-129.852294921875
1.5524999000000002,-0.8170213103294373,-0.6853402256965637,4.532223701477051,-6.256103515625,47.8515625,-136.16943359375
1.5574999,0.3908534348011017,0.52552729845047,6.707954406738281,-28.3203125,73.211669921875,-142.39501953125
1.5624999000000002,0.7948749661445618,1.0606313943862915,8.069656372070312,-46.93603515625,83.709716796875,-144.012451171875
1.5674999,1.083974838256836,1.5077484846115112,9.29309368133545,-72.44873046875,94.3603515625,-143.096923828125
1.5724999000000002,1.3102269172668457,1.9375077486038208,10.237606048583984,-105.987548828125,105.95703125,-135.80322265625
1.5774999,1.525106430053711,2.2840683460235596,10.847529411315918,-140.7470703125,115.814208984375,-119.293212890625
1.5824999000000002,1.7172411680221558,2.559401512145996,11.126453399658203,-167.510986328125,118.65234375,-91.4306640625
1.5874999,1.9003976583480835,2.7269957065582275,11.12765121459961,-181.33544921875,112.091064453125,-54.901123046875
1.5924999000000002,1.9806033372879028,2.6833014488220215,10.930129051208496,-178.863525390625,97.7783203125,-10.467529296875
1.5974999,1.9033904075622559,2.4378957748413086,10.646416664123535,-150.2685546875,69.854736328125,40.191650390625
1.6024999000000002,1.668160080909729,1.9231425523757935,10.409989356994629,-93.597412109375,29.1748046875,92.10205078125
1.6074999,1.2743138074874878,1.1528080701828003,10.326790809631348,-12.298583984375,-16.90673828125,140.167236328125
1.6124999000000002,0.7769184708595276,0.2825157940387726,10.535684585571289,81.634521484375,-62.042236328125,178.16162109375
1.6174999,-0.46806642413139343,-1.2288240194320679,11.928511619567871,211.5478515625,-125.457763671875,208.770751953125
1.6224999000000002,-1.2473790645599365,-1.514931082725525,12.971186637878418,213.592529296875,-139.6484375,198.974609375
1.6274999,-2.0907366275787354,-1.5107412338256836,13.953407287597656,179.6875,-141.11328125,173.919677734375
1.6324999000000002,-2.942473888397217,-1.3353660106658936,14.515446662902832,124.8779296875,-134.552001953125,140.869140625
1.6374999000000001,-3.642777919769287,-1.2234370708465576,14.31014347076416,69.091796875,-122.74169921875,102.752685546875
1.6424999000000002,-4.0982747077941895,-1.3880383968353271,13.130400657653809,32.989501953125,-107.91015625,58.746337890625
1.6474999000000001,-4.303577423095703,-1.6549919843673706,11.21204662322998,28.350830078125,-88.775634765625,9.3994140625
1.6524999000000002,-4.10246467590332,-1.9752163887023926,8.9680814743042,25.543212890625,-61.981201171875,-44.189453125
1.6574999000000001,-3.6379895210266113,-2.1134815216064453,6.861782073974609,5.523681640625,-28.01513671875,-84.320068359375
1.6624999000000003,-2.9251158237457275,-1.9399019479751587,5.331887245178223,-8.60595703125,2.838134765625,-107.757568359375
1.6674999000000001,-2.0673930644989014,-1.568800687789917,4.487931251525879,-9.063720703125,25.390625,-124.237060546875
1.6724999,-1.256955862045288,-1.0235211849212646,4.367622375488281,-6.439208984375,41.778564453125,-134.307861328125
1.6774999000000002,1.1174936294555664,1.6035165786743164,9.777320861816406,-87.0361328125,101.837158203125,-142.88330078125
1.6824999,1.7363947629928589,2.584540843963623,11.240777015686035,-176.33056640625,117.24853515625,-80.2001953125
1.6874999000000002,1.920149803161621,2.6886885166168213,11.150994300842285,-185.150146484375,108.94775390625,-40.557861328125
1.6924999,1.9752163887023926,2.6126725673675537,10.922348022460938,-172.36328125,90.33203125,6.622314453125
1.6974999000000002,1.8632874488830566,2.275688648223877,10.651803016662598,-132.87353515625,57.31201171875,57.861328125
1.7024999,1.580173134803772,1.6633716821670532,10.44470500946045,-66.89453125,14.190673828125,109.4970703125
1.7074999000000002,1.1192892789840698,0.9032126069068909,10.440515518188477,21.17919921875,-33.0810546875,155.21240234375
1.7124999,-0.7433996200561523,-1.3545196056365967,12.158953666687012,218.841552734375,-132.293701171875,207.489013671875
1.7174999000000002,-1.5203180313110352,-1.5837644338607788,13.150751113891602,209.930419921875,-141.571044921875,192.901611328125
1.7224999,-2.3367409706115723,-1.489791989326477,14.014459609985352,169.586181640625,-140.899658203125,164.9169921875
1.7274999000000002,-3.116652011871338,-1.2557587623596191,14.386757850646973,112.091064453125,-132.843017578125,130.584716796875
1.7324999,-3.709815502166748,-1.1773487329483032,13.958794593811035,58.59375,-119.354248046875,91.30859375
1.7374999000000002,-4.083311080932617,-1.3569138050079346,12.611457824707031,31.097412109375,-102.325439453125,46.356201171875
1.7424999,-4.211999416351318,-1.6148890256881714,10.663175582885742,31.280517578125,-81.72607421875,-4.974365234375
1.7474999000000002,-3.9683892726898193,-1.9243396520614624,8.47906494140625,21.30126953125,-52.67333984375,-57.159423828125
1.7524999,-3.510498285293579,-2.0177135467529297,6.582259178161621,-1.129150390625,-20.294189453125,-91.156005859375
1.7574999000000002,-2.7982232570648193,-1.8411411046981812,5.242702960968018,-12.359619140625,7.14111328125,-110.870361328125
1.7624999000000001,-0.46627077460289,-0.3519476354122162,5.1146135330200195,-12.298583984375,57.952880859375,-139.862060546875
1.7674999000000002,0.1412578970193863,0.23283611238002777,6.1734490394592285,-21.453857421875,69.122314453125,-142.15087890625
1.7724999000000001,0.6105214357376099,0.7823054194450378,7.470507621765137,-35.919189453125,80.108642578125,-144.34814453125
1.7774999000000002,0.9433154463768005,1.2563573122024536,8.753800392150879,-60.1806640625,94.268798828125,-146.30126953125
1.7824999000000001,1.1683704853057861,1.7016788721084595,9.860519409179688,-94.635009765625,108.58154296875,-142.822265625
1.7874999000000003,1.3605051040649414,2.0913352966308594,10.655394554138184,-131.622314453125,118.194580078125,-130.18798828125
1.7924999000000001,1.533486247062683,2.454056739807129,11.124059677124023,-161.62109375,120.880126953125,-106.3232421875
1.7974999,1.7274165153503418,2.6833014488220215,11.243769645690918,-182.464599609375,117.37060546875,-72.052001953125
1.8024999000000002,1.8626888990402222,2.758718967437744,11.102511405944824,-186.981201171875,106.201171875,-27.862548828125
1.8074999,1.8734627962112427,2.5761611461639404,10.809222221374512,-166.259765625,82.45849609375,21.942138671875
1.8124999000000002,1.7220295667648315,2.1290438175201416,10.488399505615234,-119.20166015625,46.08154296875,74.249267578125
1.8174999,-0.26396074891090393,-1.104325532913208,11.432312965393066,201.873779296875,-117.12646484375,210.906982421875
1.8224999000000002,-1.0031704902648926,-1.5652093887329102,12.414534568786621,223.052978515625,-135.467529296875,207.733154296875
1.8274999,-1.8393454551696777,-1.647210717201233,13.465588569641113,204.681396484375,-142.27294921875,187.652587890625
1.8324999000000002,-2.689286947250366,-1.449090600013733,14.282609939575195,156.341552734375,-140.838623046875,156.585693359375
1.8374999,-3.448249101638794,-1.1965023279190063,14.526819229125977,95.001220703125,-133.1787109375,120.60546875
1.8424999000000002,-3.971980571746826,-1.1623848676681519,13.872603416442871,43.914794921875,-119.537353515625,79.345703125
1.8474999,-4.2527008056640625,-1.367687702178955,12.310386657714844,24.96337890625,-101.593017578125,32.470703125
1.8524999000000002,-4.23773717880249,-1.5885528326034546,10.216657638549805,27.64892578125,-78.582763671875,-20.6298828125
1.8574999,-3.8510735034942627,-1.9069817066192627,7.9744873046875,14.129638671875,-47.332763671875,-69.610595703125
1.8624999000000002,-3.2824504375457764,-1.8872294425964355,6.169857978820801,-6.591796875,-15.228271484375,-97.59521484375
1.8674999,-0.1825578808784485,-0.14484919607639313,5.340266704559326,-10.80322265625,59.5703125,-137.87841796875
1.8724999000000002,0.3693056106567383,0.4076128304004669,6.493074893951416,-18.85986328125,69.39697265625,-139.09912109375
1.8774999,0.7583633661270142,0.8948329091072083,7.82305383682251,-34.088134765625,80.99365234375,-141.387939453125
1.8824999000000002,1.0091559886932373,1.335964560508728,9.103952407836914,-61.126708984375,95.306396484375,-143.524169921875
1.8874999000000001,1.1755530834197998,1.7334020137786865,10.153809547424316,-98.297119140625,108.428955078125,-140.045166015625
1.8924999000000002,1.313219666481018,2.09672212600708,10.878653526306152,-135.68115234375,115.90576171875,-126.3427734375
1.8974999000000001,1.478419542312622,2.4355015754699707,11.232397079467773,-165.771484375,117.3095703125,-102.325439453125
1.9024999000000002,1.678335428237915,2.631227731704712,11.223419189453125,-186.981201171875,114.56298828125,-67.138671875
1.9074999000000001,1.8142063617706299,2.6827030181884766,10.961852073669434,-188.78173828125,102.874755859375,-23.193359375
1.9124999000000003,1.8351556062698364,2.472013235092163,10.566210746765137,-165.95458984375,78.30810546875,24.7802734375
1.9174999000000001,1.3724761009216309,1.2958617210388184,9.963470458984375,-40.557861328125,-1.678466796875,127.01416015625
1.9224999,0.9421183466911316,0.444722980260849,10.028712272644043,54.107666015625,-47.05810546875,168.548583984375
1.9274999000000002,0.42616790533065796,-0.43035775423049927,10.4542818069458,143.00537109375,-86.7919921875,196.258544921875
1.9324999,-0.19033902883529663,-1.148618221282959,11.25214958190918,203.91845703125,-115.020751953125,208.31298828125
1.9374999000000002,-0.9205705523490906,-1.5322890281677246,12.312182426452637,224.212646484375,-131.134033203125,204.681396484375
1.9424999,-1.7501614093780518,-1.5999252796173096,13.435062408447266,205.2001953125,-138.336181640625,185.05859375
1.9474999000000002,-2.6174609661102295,-1.3946224451065063,14.31134033203125,155.33447265625,-137.176513671875,155.029296875
1.9524999,-3.3919851779937744,-1.1426327228546143,14.599842071533203,93.017578125,-130.218505859375,119.720458984375
1.9574999000000002,-3.9396588802337646,-1.1366472244262695,13.965378761291504,42.755126953125,-117.340087890625,78.43017578125
1.9624999,-4.255693435668945,-1.3569138050079346,12.435483932495117,24.7802734375,-100.52490234375,32.2265625
1.9674999000000002,-4.247313976287842,-1.61069917678833,10.354323387145996,26.42822265625,-78.18603515625,-20.81298828125
1.9724999,-3.883395195007324,-1.9512743949890137,8.15524959564209,11.04736328125,-48.7060546875,-68.359375
1.9774999000000002,-2.5145103931427,-1.764526605606079,5.099649429321289,-14.70947265625,9.46044921875,-113.250732421875
1.9824999,-1.6765397787094116,-1.3862427473068237,4.52803373336792,-10.68115234375,31.494140625,-127.8076171875
1.9874999000000002,-0.9002198576927185,-0.8367735147476196,4.604648590087891,-8.056640625,46.630859375,-134.246826171875
1.9924999,-0.20709845423698425,-0.23104046285152435,5.295974254608154,-10.406494140625,57.891845703125,-136.90185546875
1.9974999000000002,0.35434186458587646,0.3585317134857178,6.443395137786865,-18.585205078125,68.9697265625,-139.09912109375
2.0024999,0.7535749673843384,0.8804676532745361,7.797316551208496,-35.94970703125,82.763671875,-142.51708984375
2.0074999,0.9929951429367065,1.3527239561080933,9.116521835327148,-64.483642578125,98.785400390625,-145.56884765625
2.0124999000000003,1.1390414237976074,1.7537527084350586,10.207080841064453,-101.837158203125,111.572265625,-142.333984375
2.0174999000000002,1.2557587623596191,2.123058319091797,10.956465721130371,-137.420654296875,118.2861328125,-128.90625
2.0224999,1.413776159286499,2.42472767829895,11.301230430603027,-167.205810546875,120.513916015625,-104.18701171875
2.0274999,1.5933412313461304,2.61087703704834,11.27070426940918,-187.6220703125,117.0654296875,-67.718505859375
2.0324999000000004,1.7268179655075073,2.6437971591949463,10.970232009887695,-187.68310546875,101.98974609375,-24.10888671875
2.0374999000000003,0.4429273009300232,-0.375291109085083,10.348937034606934,142.02880859375,-84.28955078125,196.929931640625
2.0424999,0.4429273009300232,-0.375291109085083,10.348937034606934,142.02880859375,-84.28955078125,196.929931640625
2.0474999,-0.1496376097202301,-1.0911574363708496,11.14381217956543,203.155517578125,-111.602783203125,209.47265625
2.0524999,-0.8774749040603638,-1.4993687868118286,12.218210220336914,225.76904296875,-127.86865234375,206.35986328125
2.0574999000000003,-1.71245276927948,-1.566406488418579,13.357251167297363,207.489013671875,-135.894775390625,187.408447265625
2.0624999,-2.5941176414489746,-1.3611036539077759,14.27782154083252,157.40966796875,-136.29150390625,157.867431640625
2.0674999,-3.404554843902588,-1.1150994300842285,14.633959770202637,94.696044921875,-130.340576171875,123.10791015625
2.0724999,-3.997119665145874,-1.1073182821273804,14.086285591125488,43.731689453125,-119.2626953125,81.878662109375
2.0774999000000003,-4.350862979888916,-1.3395558595657349,12.618041038513184,24.200439453125,-103.912353515625,34.7900390625
2.0824999,-3.4087445735931396,-1.9512743949890137,6.536170482635498,-9.27734375,-22.4609375,-95.794677734375
2.0874999,-2.562992811203003,-1.7070658206939697,5.249885559082031,-14.495849609375,7.8125,-114.44091796875
2.0924999,-1.6597803831100464,-1.2898762226104736,4.614225387573242,-10.8642578125,31.158447265625,-128.509521484375
2.0974999000000003,-0.8619126081466675,-0.7475894689559937,4.636371612548828,-7.9345703125,46.38671875,-134.063720703125
2.1024999,-0.1825578808784485,-0.17836803197860718,5.270236492156982,-8.819580078125,56.82373046875,-135.162353515625
2.1074999,0.3423708379268646,0.3447650372982025,6.357802391052246,-15.838623046875,68.05419921875,-136.810302734375
2.1124999,0.6883329749107361,0.8146271109580994,7.666234016418457,-32.5927734375,82.000732421875,-140.0146484375
2.1174999000000003,0.8930372595787048,1.2348095178604126,8.951321601867676,-60.943603515625,97.2900390625,-143.585205078125
2.1224999,1.0145429372787476,1.6095020771026611,10.033500671386719,-97.320556640625,108.58154296875,-141.021728515625
2.1274999,1.137245774269104,1.9991583824157715,10.796053886413574,-132.568359375,114.56298828125,-128.72314453125
2.1324999,1.710058569908142,2.0242974758148193,10.272920608520508,-126.3427734375,50.018310546875,66.58935546875
2.1374999000000003,1.4431051015853882,1.3646949529647827,10.04427433013916,-54.290771484375,9.185791015625,117.889404296875
2.1424999000000002,1.0319008827209473,0.5345055460929871,10.073603630065918,37.41455078125,-35.003662109375,160.82763671875
2.1474999,0.5261258482933044,-0.34656068682670593,10.42076301574707,127.166748046875,-75.01220703125,190.24658203125
2.1524999,-0.08858546614646912,-1.1306617259979248,11.1102933883667,194.64111328125,-104.3701171875,204.803466796875
2.1574999000000004,-0.8164227604866028,-1.5879542827606201,12.085929870605469,225.7080078125,-123.992919921875,203.704833984375
2.1624999000000003,-1.6525976657867432,-1.690904974937439,13.167510986328125,214.53857421875,-134.3994140625,187.347412109375
2.1674999,-2.520495891571045,-1.4802151918411255,14.10962963104248,168.548583984375,-135.8642578125,159.332275390625
2.1724999,-3.3081881999969482,-1.1492167711257935,14.570512771606445,107.36083984375,-130.889892578125,125.54931640625
2.1774999000000004,-4.182071685791016,-1.1342530250549316,12.89217758178711,28.01513671875,-106.597900390625,40.771484375
2.1824999000000003,-4.200028419494629,-1.3796586990356445,10.969035148620605,27.069091796875,-87.21923828125,-10.07080078125
2.1874999,-3.866037130355835,-1.6849194765090942,8.795698165893555,14.892578125,-59.6923828125,-58.41064453125
2.1924999,-3.290830135345459,-1.7687164545059204,6.874950408935547,-5.4931640625,-27.587890625,-89.019775390625
2.1974999,-2.5258827209472656,-1.5921441316604614,5.464765548706055,-14.251708984375,4.2724609375,-107.7880859375
2.2024999000000003,-1.6723499298095703,-1.2701239585876465,4.662707805633545,-11.04736328125,29.541015625,-121.856689453125
2.2074999,-0.9139865040779114,-0.8068459630012512,4.5172600746154785,-5.584716796875,44.708251953125,-128.509521484375
2.2124999,-0.26994624733924866,-0.2908954918384552,5.011064052581787,-4.33349609375,53.22265625,-130.0048828125
2.2174999,0.22685061395168304,0.2064998894929886,6.035183906555176,-10.589599609375,62.19482421875,-132.476806640625
2.2224999000000003,0.5656301379203796,0.6685808300971985,7.338826656341553,-27.313232421875,74.310302734375,-137.26806640625
2.2274999,0.7757213711738586,1.105522632598877,8.69095230102539,-55.206298828125,88.7451171875,-141.9677734375
2.2324999,0.9074024558067322,1.4951789379119873,9.845556259155273,-90.667724609375,100.860595703125,-141.2353515625
2.2374999,1.6597803831100464,2.5713725090026855,10.916961669921875,-191.650390625,108.09326171875,-39.825439453125
2.2424999000000003,1.0360907316207886,0.6320692300796509,9.765948295593262,17.76123046875,-26.947021484375,152.099609375
2.2474999,0.5596446394920349,-0.25079262256622314,10.04846477508545,111.2060546875,-69.366455078125,184.5703125
2.2524999,-0.008379706181585789,-1.0558429956436157,10.689512252807617,187.8662109375,-101.07421875,203.43017578125
2.2574999,-0.6721721291542053,-1.589151382446289,11.661558151245117,230.16357421875,-121.917724609375,206.6650390625
2.2624999000000003,-1.446696400642395,-1.7369933128356934,12.810774803161621,228.45458984375,-134.307861328125,193.878173828125
2.2674999000000002,-2.275688648223877,-1.5424644947052002,13.906720161437988,187.713623046875,-138.5498046875,168.426513671875
2.2724999,-3.737947463989258,-0.9421183466911316,14.568119049072266,65.185546875,-125.6103515625,99.2431640625
2.2774999,-4.14795446395874,-1.0576386451721191,13.525444030761719,27.618408203125,-111.968994140625,56.243896484375
2.2824999000000004,-4.3209357261657715,-1.3251906633377075,11.75672721862793,21.881103515625,-94.7265625,8.056640625
2.2874999000000003,-4.141968727111816,-1.63344407081604,9.570222854614258,15.838623046875,-71.075439453125,-42.877197265625
2.2924999,-3.6774938106536865,-1.913565754890442,7.51659631729126,-3.265380859375,-39.4287109375,-80.596923828125
2.2974999,-2.985569477081299,-1.7950527667999268,5.892130374908447,-15.960693359375,-6.805419921875,-102.783203125
2.3024999000000004,-2.1320366859436035,-1.5640122890472412,4.866813659667969,-14.5263671875,20.538330078125,-118.7744140625
2.3074999000000003,-1.3048399686813354,-1.139639973640442,4.492120742797852,-7.38525390625,38.57421875,-128.35693359375
2.3124999,-0.5871779918670654,-0.5614402890205383,4.771045207977295,-3.326416015625,49.224853515625,-131.256103515625
2.3174999,-0.0017956512747332454,0.005985504016280174,5.6443305015563965,-7.354736328125,60.24169921875,-133.48388671875
2.3224999,0.41958385705947876,0.5279214978218079,6.885724067687988,-22.003173828125,74.066162109375,-137.725830078125
2.3274999000000003,0.6709750294685364,0.9911994934082031,8.246828079223633,-47.42431640625,89.29443359375,-143.310546875
2.3324999,0.945111095905304,1.7836803197860718,10.450092315673828,-115.936279296875,111.053466796875,-138.85498046875
2.3374999,1.116895079612732,2.11946702003479,11.03906536102295,-151.9775390625,119.68994140625,-121.39892578125
2.3424999,1.346139907836914,2.4139537811279297,11.256937980651855,-179.473876953125,122.55859375,-92.6513671875
2.3474999000000003,1.5693992376327515,2.542642116546631,11.142614364624023,-191.619873046875,115.53955078125,-56.09130859375
2.3524999,1.7154455184936523,2.491166830062866,10.830769538879395,-184.906005859375,99.029541015625,-13.885498046875
2.3574999,1.701080322265625,2.2146365642547607,10.432733535766602,-156.3720703125,72.540283203125,34.759521484375
2.3624999,1.533486247062683,1.7088614702224731,10.086771965026855,-99.456787109375,34.515380859375,86.578369140625
2.3674999000000003,1.2030863761901855,1.0342950820922852,9.92097282409668,-15.93017578125,-11.444091796875,134.3994140625
2.3724999,0.7733271718025208,0.18555063009262085,10.02811336517334,79.010009765625,-56.915283203125,171.356201171875
2.3774999,0.26755204796791077,-0.6500257849693298,10.496180534362793,165.130615234375,-93.26171875,195.556640625
2.3824999,-0.3280056416988373,-1.3162124156951904,11.304821968078613,222.83935546875,-118.896484375,205.291748046875
2.3874999000000003,-1.036689281463623,-1.6310498714447021,12.387001037597656,237.518310546875,-134.8876953125,199.3408203125
2.3924999000000002,-3.3854012489318848,-0.9307458996772766,14.645331382751465,89.111328125,-130.859375,116.51611328125
2.3974999,-3.8989574909210205,-0.9169792532920837,13.958794593811035,40.496826171875,-117.67578125,75.68359375
2.4024999,-4.200626850128174,-1.158793568611145,12.401366233825684,23.49853515625,-101.07421875,30.120849609375
2.4074999000000004,-4.192845821380615,-1.535880446434021,10.311227798461914,22.3388671875,-80.56640625,-20.81298828125
2.4124999000000003,-3.8307228088378906,-1.8225860595703125,8.127716064453125,6.866455078125,-51.300048828125,-66.741943359375
2.4174999,-3.2369606494903564,-1.8932149410247803,6.313509941101074,-10.894775390625,-17.974853515625,-94.451904296875
2.4224999,-2.4187421798706055,-1.6496049165725708,5.056553840637207,-15.7470703125,11.932373046875,-111.846923828125
2.4274999000000004,-1.5568296909332275,-1.2629413604736328,4.458601951599121,-10.711669921875,33.172607421875,-124.359130859375
2.4324999000000003,-0.7894880175590515,-0.7433996200561523,4.534617900848389,-5.279541015625,45.501708984375,-129.45556640625
2.4374999,-0.15263035893440247,-0.17298106849193573,5.237914562225342,-6.561279296875,56.732177734375,-131.9580078125
2.4424999,0.3381809890270233,0.35913026332855225,6.402693748474121,-17.425537109375,70.098876953125,-135.986328125
2.4474999,0.8451532125473022,1.2527660131454468,9.099761962890625,-66.192626953125,96.49658203125,-145.172119140625
2.4524999000000003,0.9690531492233276,1.659181833267212,10.200496673583984,-99.578857421875,105.621337890625,-142.425537109375
2.4574999,1.114500880241394,2.006939649581909,10.92534065246582,-137.054443359375,115.936279296875,-130.218505859375
2.4624999,1.2994530200958252,2.341529369354248,11.267711639404297,-168.88427734375,121.734619140625,-106.170654296875
2.4674999,1.5179238319396973,2.5438392162323,11.250353813171387,-187.225341796875,117.67578125,-73.211669921875
2.4724999000000003,1.6891093254089355,2.5953147411346436,10.971428871154785,-189.117431640625,105.010986328125,-33.599853515625
2.4774999,1.746570110321045,2.430713176727295,10.573991775512695,-171.478271484375,83.92333984375,13.3056640625
2.4824999,0.49140989780426025,-0.27473464608192444,10.199897766113281,127.532958984375,-76.812744140625,188.78173828125
2.4874999,-0.08978256583213806,-1.0630255937576294,10.863091468811035,200.714111328125,-107.574462890625,205.230712890625
2.4924999000000003,-1.5646108388900757,-1.6627731323242188,12.950237274169922,222.96142578125,-138.24462890625,191.070556640625
2.4974999,-2.403179883956909,-1.4550760984420776,13.965378761291504,176.788330078125,-139.678955078125,164.97802734375
2.5024999,-3.181894063949585,-1.127070426940918,14.544177055358887,115.17333984375,-134.185791015625,132.720947265625
2.5074999,-3.795408248901367,-0.9600749015808105,14.320319175720215,58.746337890625,-122.86376953125,93.780517578125
2.5124999000000003,-4.171298027038574,-1.1216834783554077,13.150751113891602,26.4892578125,-107.818603515625,49.74365234375
2.5174999000000002,-4.3191399574279785,-1.4167689085006714,11.323376655578613,22.39990234375,-89.84375,1.190185546875
2.5224999,-4.095282077789307,-1.7262194156646729,9.151237487792969,14.312744140625,-64.544677734375,-49.652099609375
2.5274999,-3.618835926055908,-1.9291280508041382,7.199963092803955,-5.31005859375,-32.562255859375,-85.845947265625
2.5324999000000004,-2.895188331604004,-1.755548357963562,5.68084192276001,-17.08984375,-1.953125,-105.804443359375
2.5374999000000003,-2.036867141723633,-1.4544775485992432,4.796782970428467,-14.923095703125,22.613525390625,-120.54443359375
2.5424999,-1.204882025718689,-0.9726444482803345,4.5388078689575195,-6.988525390625,37.628173828125,-128.72314453125
2.5474999,0.8164227604866028,1.058835744857788,8.480860710144043,-49.957275390625,90.02685546875,-143.98193359375
2.5524999000000004,0.9457096457481384,1.470638394355774,9.702502250671387,-80.902099609375,100.52490234375,-145.050048828125
2.5574999000000003,1.0606313943862915,1.835754156112671,10.607510566711426,-119.56787109375,111.907958984375,-137.8173828125
2.5624999,1.215057373046875,2.20924973487854,11.135432243347168,-156.280517578125,119.171142578125,-119.171142578125
2.5674999,1.4233529567718506,2.4839842319488525,11.267711639404297,-181.70166015625,117.828369140625,-90.4541015625
2.5724999,1.6328455209732056,2.6204538345336914,11.084555625915527,-192.657470703125,109.43603515625,-53.619384765625
2.5774999000000003,1.7549498081207275,2.5558102130889893,10.700285911560059,-186.187744140625,94.3603515625,-9.063720703125
2.5824999,1.725022315979004,2.2487540245056152,10.266935348510742,-155.6396484375,68.634033203125,41.534423828125
2.5874999,1.5257049798965454,1.699883222579956,9.908403396606445,-96.3134765625,30.731201171875,93.841552734375
2.5924999,1.1635819673538208,0.9762357473373413,9.765948295593262,-12.237548828125,-13.580322265625,140.56396484375
2.5974999000000003,-1.9800047874450684,-1.5837644338607788,13.42668342590332,204.315185546875,-138.458251953125,177.337646484375
2.6024999,-2.7766754627227783,-1.2551602125167847,14.285602569580078,149.749755859375,-135.31494140625,147.735595703125
2.6074999,-3.4590229988098145,-0.9540894031524658,14.539986610412598,89.813232421875,-125.9765625,112.579345703125
2.6124999,-3.937863349914551,-0.9481038451194763,13.894150733947754,42.327880859375,-113.311767578125,71.563720703125
2.6174999000000003,-4.215590476989746,-1.20368492603302,12.42111873626709,23.3154296875,-97.71728515625,26.91650390625
2.6224999,-4.172494888305664,-1.5077484846115112,10.4542818069458,20.660400390625,-77.392578125,-24.2919921875
2.6274999,-3.8157589435577393,-1.8136078119277954,8.386289596557617,3.662109375,-48.15673828125,-69.88525390625
2.6324999,-3.2297780513763428,-1.8058266639709473,6.658873558044434,-15.594482421875,-17.578125,-96.099853515625
2.6374999000000003,-2.426523447036743,-1.5849615335464478,5.431845188140869,-20.050048828125,7.598876953125,-112.701416015625
2.6424999000000002,0.6829460263252258,0.7691373229026794,7.536946773529053,-36.07177734375,84.228515625,-139.251708984375
2.6474999,0.6829460263252258,0.7691373229026794,7.536946773529053,-36.07177734375,84.228515625,-139.251708984375
2.6524999,0.839766263961792,1.1988965272903442,8.832808494567871,-62.225341796875,95.88623046875,-143.157958984375
2.6574999000000004,0.9433154463768005,1.567603588104248,9.940725326538086,-98.236083984375,108.428955078125,-141.754150390625
2.6624999000000003,1.05105459690094,1.9692308902740479,10.749366760253906,-137.725830078125,118.560791015625,-129.486083984375
2.6674999,1.225232720375061,2.292448043823242,11.17972469329834,-168.8232421875,121.03271484375,-107.208251953125
2.6724999,1.447893500328064,2.5079262256622314,11.250353813171387,-187.56103515625,115.936279296875,-76.35498046875
2.6774999000000004,1.6238672733306885,2.564189910888672,11.053430557250977,-192.169189453125,105.224609375,-36.9873046875
2.6824999000000003,1.7004817724227905,2.3983914852142334,10.682928085327148,-176.81884765625,86.73095703125,9.613037109375
2.6874999,1.3551181554794312,1.400607943534851,10.010157585144043,-63.934326171875,11.90185546875,110.3515625
2.6924999,0.9636662006378174,0.6045359373092651,9.932944297790527,27.28271484375,-33.782958984375,152.984619140625
2.6974999,0.4908113479614258,-0.2819172441959381,10.160991668701172,122.955322265625,-75.25634765625,184.75341796875
2.7024999000000003,-0.06165069341659546,-1.0708067417144775,10.743980407714844,199.188232421875,-107.5439453125,201.873779296875
2.7074999,-0.7164648771286011,-1.5705963373184204,11.654375076293945,236.053466796875,-129.21142578125,204.1015625
2.7124999,-1.4616601467132568,-1.6813281774520874,12.757503509521484,229.00390625,-140.19775390625,191.680908203125
2.7174999,-2.2667105197906494,-1.460463047027588,13.800777435302734,187.103271484375,-141.845703125,167.41943359375
2.7224999000000003,-4.069544315338135,-0.9852139949798584,13.32073974609375,27.313232421875,-109.4970703125,56.94580078125
2.7274999,-4.247313976287842,-1.2216414213180542,11.59631633758545,20.81298828125,-91.97998046875,9.82666015625
2.7324999,-4.073135852813721,-1.546055793762207,9.493608474731445,15.31982421875,-67.68798828125,-42.41943359375
2.7374999,-2.9484593868255615,-1.688510775566101,5.9753289222717285,-20.050048828125,-6.988525390625,-101.287841796875
2.7424999000000003,-2.096123695373535,-1.4736311435699463,5.000888824462891,-18.310546875,15.899658203125,-115.53955078125
2.7474999,-1.2874820232391357,-1.0779893398284912,4.647744178771973,-9.33837890625,33.02001953125,-124.51171875
2.7524999,-0.557250440120697,-0.5518634915351868,4.90571928024292,-5.096435546875,47.4853515625,-128.0517578125
2.7574999,0.040701430290937424,-0.016759412363171577,5.720944881439209,-9.6435546875,63.079833984375,-131.28662109375
2.7624999000000003,0.46806642413139343,0.4596867263317108,6.903680801391602,-23.3154296875,77.423095703125,-135.7421875
2.7674999000000002,0.71766197681427,0.9091981053352356,8.22767448425293,-43.45703125,88.8671875,-140.716552734375
2.7724999,0.838569164276123,1.3036428689956665,9.455301284790039,-73.974609375,101.043701171875,-143.829345703125
2.7774999,0.9169792532920837,1.6932991743087769,10.415974617004395,-113.739013671875,113.128662109375,-138.916015625
2.7824999000000004,1.0307037830352783,2.0482394695281982,11.010334968566895,-150.543212890625,119.44580078125,-123.4130859375
2.7874999000000003,1.2204443216323853,2.3343467712402344,11.2282075881958,-177.1240234375,117.73681640625,-97.991943359375
2.7924999,1.4425065517425537,2.4815900325775146,11.1102933883667,-191.253662109375,111.297607421875,-62.744140625
2.7974999,1.6819267272949219,2.2188265323638916,10.3549222946167,-164.154052734375,75.836181640625,28.9306640625
2.8024999000000004,1.5604209899902344,1.7525556087493896,9.985616683959961,-111.083984375,39.825439453125,79.89501953125
2.8074999000000003,1.2713210582733154,1.0785878896713257,9.77672290802002,-31.982421875,-3.204345703125,127.62451171875
2.8124999,0.8481459617614746,0.2346317619085312,9.860519409179688,63.568115234375,-46.783447265625,166.900634765625
2.8174999,0.3315969407558441,-0.6111199855804443,10.281899452209473,154.35791015625,-84.869384765625,192.87109375
2.8224999,-0.2651578485965729,-1.2982559204101562,11.068394660949707,216.6748046875,-112.945556640625,203.79638671875
2.8274999000000003,-0.9702502489089966,-1.6376339197158813,12.135011672973633,237.213134765625,-130.889892578125,200.01220703125
2.8324999,-1.7507599592208862,-1.6101006269454956,13.280037879943848,217.71240234375,-139.251708984375,182.525634765625
2.8374999,-2.565387010574341,-1.3162124156951904,14.21916389465332,168.45703125,-138.275146484375,155.3955078125
2.8424999,-3.2992098331451416,-0.961870551109314,14.642937660217285,107.025146484375,-131.011962890625,122.589111328125
2.8474999000000003,-3.845088005065918,-0.8565256595611572,14.210783958435059,51.7578125,-119.7509765625,83.92333984375
2.8524999,-4.166509628295898,-1.0462661981582642,12.882600784301758,23.345947265625,-104.91943359375,40.618896484375
2.8574999,-3.4338839054107666,-1.8567034006118774,6.986878871917725,-11.016845703125,-27.801513671875,-88.37890625
2.8624999,-2.689286947250366,-1.6603789329528809,5.603030681610107,-18.6767578125,-1.129150390625,-105.5908203125
2.8674999000000003,-1.820790410041809,-1.348534107208252,4.822520732879639,-13.48876953125,20.1416015625,-118.438720703125
2.8724999,-1.0103530883789062,-0.8571242094039917,4.624999046325684,-6.16455078125,36.9873046875,-126.03759765625
2.8774999,-0.304063618183136,-0.2849099934101105,5.0469770431518555,-5.645751953125,52.459716796875,-129.8828125
2.8824999,0.24839842319488525,0.23702596127986908,5.972336292266846,-14.312744140625,67.352294921875,-134.002685546875
2.8874999000000003,0.6111199855804443,0.6973112225532532,7.195773124694824,-29.144287109375,79.437255859375,-138.12255859375
2.8924999000000002,0.8206126093864441,1.12467622756958,8.497021675109863,-52.06298828125,91.400146484375,-142.7001953125
2.8974999,0.9229647517204285,1.4891934394836426,9.648633003234863,-87.21923828125,105.712890625,-143.4326171875
2.9024999,1.0217255353927612,1.8692729473114014,10.516530990600586,-126.312255859375,116.63818359375,-135.101318359375
2.9074999000000004,1.1749545335769653,2.1954829692840576,11.036072731018066,-159.576416015625,121.185302734375,-117.034912109375
2.9124999000000003,1.5933412313461304,2.5474305152893066,11.092934608459473,-194.39697265625,112.518310546875,-49.74365234375
2.9174999,1.7172411680221558,2.4606409072875977,10.793660163879395,-186.065673828125,96.5576171875,-5.4931640625
2.9224999,1.677138328552246,2.1499931812286377,10.434529304504395,-152.679443359375,67.901611328125,43.15185546875
2.9274999000000004,1.4676456451416016,1.6095020771026611,10.129268646240234,-91.6748046875,28.38134765625,92.864990234375
2.9324999000000003,1.1037269830703735,0.8601169586181641,9.990405082702637,-6.744384765625,-15.289306640625,138.85498046875
2.9374999,0.6206967830657959,-0.01975216343998909,10.120888710021973,90.33203125,-58.624267578125,174.25537109375
2.9424999,0.06404489278793335,-0.8744821548461914,10.583568572998047,174.4384765625,-95.245361328125,196.014404296875
2.9474999,-0.5829881429672241,-1.499967336654663,11.364078521728516,225.341796875,-121.15478515625,203.216552734375
2.9524999000000003,-1.3090298175811768,-1.756745457649231,12.381613731384277,235.04638671875,-137.39013671875,195.953369140625
2.9574999,-2.0865468978881836,-1.6388310194015503,13.402142524719238,207.122802734375,-142.669677734375,176.20849609375
2.9624999,-2.8604724407196045,-1.280897855758667,14.164695739746094,153.717041015625,-139.434814453125,147.88818359375
2.9674999,-3.250727415084839,-1.8531121015548706,6.478111267089844,-12.14599609375,-18.00537109375,-92.742919921875
2.9724999000000003,-2.4893712997436523,-1.6023194789886475,5.343259811401367,-17.364501953125,6.988525390625,-107.7880859375
2.9774999,-1.6466121673583984,-1.2282254695892334,4.850652694702148,-12.63427734375,27.587890625,-119.903564453125
2.9824999,-0.8637082576751709,-0.707486629486084,4.911106109619141,-7.843017578125,43.27392578125,-127.0751953125
2.9874999,-0.2059013396501541,-0.14844051003456116,5.527613162994385,-9.70458984375,58.2275390625,-131.195068359375
2.9924999000000003,0.3172317147254944,0.3477577865123749,6.5493388175964355,-18.00537109375,71.1669921875,-134.46044921875
2.9974999,0.6590040326118469,0.7918822169303894,7.793126583099365,-31.890869140625,82.6416015625,-138.214111328125
3.0024999,0.8523358106613159,1.170764684677124,9.05487060546875,-56.182861328125,96.466064453125,-143.06640625
3.0074999,1.3670891523361206,2.427121877670288,11.569380760192871,-183.10546875,117.73681640625,-83.92333984375
3.0124999000000003,1.5328876972198486,2.540846586227417,11.350910186767578,-193.023681640625,107.452392578125,-44.00634765625
3.0174999000000002,1.6047136783599854,2.4426841735839844,10.927136421203613,-181.2744140625,86.669921875,1.953125
3.0224999,1.5209165811538696,2.1314380168914795,10.415974617004395,-143.218994140625,53.985595703125,52.032470703125
3.0274999,1.292868971824646,1.5490485429763794,9.961075782775879,-77.45361328125,12.481689453125,103.118896484375
3.0324999000000004,0.9247604012489319,0.7954735159873962,9.715071678161621,12.63427734375,-32.470703125,148.834228515625
3.0374999000000003,0.46746787428855896,-0.12689268589019775,9.798270225524902,109.4970703125,-74.493408203125,181.732177734375
3.0424999,-0.06344634294509888,-0.9612720012664795,10.251373291015625,188.446044921875,-107.208251953125,201.11083984375
3.0474999,-0.6751648783683777,-1.5723919868469238,11.08635139465332,232.97119140625,-129.21142578125,206.085205078125
3.0524999000000004,-1.3736732006072998,-1.7824832201004028,12.153566360473633,237.48779296875,-141.876220703125,196.563720703125
3.0574999000000003,-2.8670566082000732,-1.217451572418213,14.018649101257324,149.627685546875,-136.8408203125,144.195556640625
3.0624999,-3.490746021270752,-0.8702923059463501,14.193426132202148,87.09716796875,-125.1220703125,108.245849609375
3.0674999,-3.886986494064331,-0.8637082576751709,13.453019142150879,39.794921875,-109.130859375,66.40625
3.0724999000000004,-4.10366153717041,-1.0540473461151123,11.960234642028809,26.275634765625,-90.33203125,19.71435546875
3.0774999000000003,-4.013280391693115,-1.414973258972168,9.990405082702637,22.216796875,-68.206787109375,-32.257080078125
3.0824999,-3.6565444469451904,-1.634641170501709,8.007407188415527,1.3427734375,-39.337158203125,-75.62255859375
3.0874999,-3.0334534645080566,-1.6831238269805908,6.441000938415527,-14.7705078125,-11.71875,-99.761962890625
3.0924999,-2.2409727573394775,-1.3952209949493408,5.368398666381836,-17.51708984375,13.702392578125,-112.945556640625
3.0974999000000003,-1.3760673999786377,-1.0199298858642578,4.898536682128906,-11.199951171875,33.477783203125,-123.138427734375
3.1024999,-0.6177040338516235,-0.5033808946609497,5.0014872550964355,-6.683349609375,47.607421875,-128.814697265625
3.1074999,0.005985504016280174,0.03172317147254944,5.653907299041748,-9.46044921875,58.10546875,-130.950927734375
3.1124999,0.4704606235027313,0.5027823448181152,6.716932773590088,-18.73779296875,67.596435546875,-132.99560546875
3.1174999000000003,0.8978256583213806,1.282094955444336,9.159018516540527,-66.436767578125,92.28515625,-141.693115234375
3.1224999,0.9756371974945068,1.625662922859192,10.13525390625,-102.996826171875,105.194091796875,-139.801025390625
3.1274999,1.0887632369995117,1.9518729448318481,10.804433822631836,-138.641357421875,112.73193359375,-128.173828125
3.1324999,1.2731167078018188,2.249951124191284,11.1102933883667,-168.701171875,116.546630859375,-105.65185546875
3.1374999000000003,1.5083470344543457,2.471414804458618,11.090540885925293,-190.5517578125,116.180419921875,-72.998046875
3.1424999000000002,1.7016788721084595,2.53725528717041,10.83436107635498,-196.4111328125,107.48291015625,-32.77587890625
3.1474999,1.755548357963562,2.3798365592956543,10.46086597442627,-180.084228515625,86.700439453125,12.451171875
3.1524999,1.6226701736450195,2.009333848953247,10.10173511505127,-138.0615234375,53.955078125,60.821533203125
3.1574999000000004,1.3365631103515625,1.367687702178955,9.852738380432129,-69.122314453125,13.458251953125,110.198974609375
3.1624999000000003,0.9038111567497253,0.5877765417098999,9.822212219238281,23.01025390625,-30.914306640625,151.9775390625
3.1674999,0.3932476341724396,-0.3256114423274994,10.092158317565918,117.340087890625,-72.6318359375,180.999755859375
3.1724999,-0.16101007163524628,-1.1210849285125732,10.672154426574707,191.95556640625,-104.583740234375,196.6552734375
3.1774999000000004,-1.5275006294250488,-1.8022353649139404,12.589909553527832,232.36083984375,-137.75634765625,187.8662109375
3.1824999000000003,-2.2870612144470215,-1.5735890865325928,13.55896282196045,196.59423828125,-139.95361328125,164.1845703125
3.1874999,-3.028066635131836,-1.158793568611145,14.190433502197266,137.63427734375,-135.223388671875,133.85009765625
3.1924999,-3.6164417266845703,-0.8271966576576233,14.151527404785156,75.68359375,-124.847412109375,98.419189453125
3.1974999000000004,-3.976170539855957,-0.8523358106613159,13.206416130065918,32.04345703125,-108.7646484375,56.976318359375
3.2024999000000003,-3.9636008739471436,-1.4059948921203613,9.546280860900879,16.571044921875,-67.32177734375,-37.2314453125
3.2074999,-3.536834478378296,-1.611896276473999,7.629123687744141,-2.86865234375,-37.90283203125,-75.958251953125
3.2124999,-2.8808231353759766,-1.5873557329177856,6.170456409454346,-16.510009765625,-9.552001953125,-97.503662109375
3.2174999,-2.078765630722046,-1.303044319152832,5.273828029632568,-18.280029296875,16.693115234375,-110.595703125
3.2224999000000003,-1.260547161102295,-0.8756792545318604,4.9817352294921875,-13.092041015625,36.773681640625,-120.66650390625
3.2274999,-0.5554547905921936,-0.3585317134857178,5.2450971603393555,-10.223388671875,50.628662109375,-126.8310546875
3.2324999,0.6619967818260193,0.9241618514060974,8.264185905456543,-37.506103515625,82.6416015625,-136.3525390625
3.2374999,0.7781155705451965,1.2497732639312744,9.370306968688965,-65.97900390625,95.184326171875,-140.472412109375
3.2424999000000003,0.8409633636474609,1.5652093887329102,10.266935348510742,-101.593017578125,105.40771484375,-138.36669921875
3.2474999,0.9498994946479797,1.899200439453125,10.886435508728027,-136.53564453125,112.3046875,-126.52587890625
3.2524999,1.137245774269104,2.2008697986602783,11.189301490783691,-167.724609375,116.63818359375,-103.607177734375
3.2574999,1.3934253454208374,2.4361002445220947,11.174936294555664,-189.422607421875,115.3564453125,-70.9228515625
3.2624999000000003,1.5939397811889648,2.5031378269195557,10.927735328674316,-195.098876953125,105.621337890625,-31.097412109375
3.2674999000000002,1.5939397811889648,2.5031378269195557,10.927735328674316,-195.098876953125,105.621337890625,-31.097412109375
3.2724999,1.678335428237915,2.360682964324951,10.541071891784668,-178.52783203125,84.3505859375,13.36669921875
3.2774999,1.568800687789917,1.9692308902740479,10.13525390625,-137.115478515625,53.40576171875,62.103271484375
3.2824999000000004,-1.5909470319747925,-1.8273744583129883,12.460622787475586,236.572265625,-138.702392578125,187.56103515625
3.2874999000000003,-2.337339401245117,-1.5682021379470825,13.454216003417969,200.653076171875,-141.571044921875,164.00146484375
3.2924999,-3.0561983585357666,-1.114500880241394,14.124592781066895,140.716552734375,-136.962890625,133.880615234375
3.2974999,-3.642179250717163,-0.7799112200737,14.158710479736328,78.55224609375,-125.701904296875,98.907470703125
3.3024999000000004,-4.006097793579102,-0.800261914730072,13.298593521118164,33.99658203125,-109.649658203125,58.16650390625
3.3074999000000003,-4.1844658851623535,-1.028908133506775,11.737573623657227,21.392822265625,-91.12548828125,14.09912109375
3.3124999,-4.065354347229004,-1.4317326545715332,9.77253246307373,15.19775390625,-69.061279296875,-34.393310546875
3.3174999,-3.663727045059204,-1.6879122257232666,7.863755702972412,-5.157470703125,-40.6494140625,-73.54736328125
3.3224999000000004,0.08140286058187485,0.08978256583213806,5.813720226287842,-12.0849609375,58.746337890625,-131.317138671875
3.3274999000000003,0.5374982953071594,0.5345055460929871,6.8372416496276855,-20.050048828125,72.052001953125,-134.002685546875
3.3324999,0.8080430626869202,0.9277531504631042,8.035539627075195,-38.87939453125,87.066650390625,-138.946533203125
3.3374999,0.9175778031349182,1.2497732639312744,9.182960510253906,-67.19970703125,99.945068359375,-142.9443359375
3.3424999,0.9546879529953003,1.5682021379470825,10.152612686157227,-102.142333984375,109.4970703125,-140.869140625
3.3474999000000003,1.016338586807251,1.8884265422821045,10.844536781311035,-138.092041015625,116.790771484375,-129.0283203125
3.3524999,1.1665748357772827,2.207453966140747,11.186308860778809,-171.2646484375,121.307373046875,-105.987548828125
3.3574999,1.3754688501358032,2.4624364376068115,11.196484565734863,-193.511962890625,118.621826171875,-72.265625
3.3624999,1.3706804513931274,1.4221558570861816,9.776124000549316,-63.629150390625,11.077880859375,114.2578125
3.3674999000000003,1.3706804513931274,1.4221558570861816,9.776124000549316,-63.629150390625,11.077880859375,114.2578125
3.3724999,0.973242998123169,0.6326677799224854,9.698312759399414,30.242919921875,-33.111572265625,155.3955078125
3.3774999,0.48722004890441895,-0.32441434264183044,9.961674690246582,123.809814453125,-73.638916015625,184.173583984375
3.3824999,-0.08439560979604721,-1.138442873954773,10.591948509216309,198.699951171875,-103.759765625,199.920654296875
3.3874999000000003,-0.7559691667556763,-1.6801310777664185,11.525687217712402,238.739013671875,-123.870849609375,202.392578125
3.3924999000000002,-1.512536883354187,-1.8058266639709473,12.644976615905762,238.372802734375,-134.857177734375,189.971923828125
3.3974999,-2.318185806274414,-1.5520412921905518,13.716381072998047,200.164794921875,-137.481689453125,165.679931640625
3.4024999,-3.098097085952759,-1.1186907291412354,14.448409080505371,138.916015625,-132.99560546875,135.345458984375
3.4074999000000004,-3.7391445636749268,-0.7996633648872375,14.526819229125977,76.568603515625,-122.25341796875,99.395751953125
3.4124999000000003,-4.14915132522583,-0.8349778652191162,13.670292854309082,31.494140625,-108.70361328125,56.732177734375
3.4174999,-4.373009204864502,-1.060032844543457,12.082937240600586,17.791748046875,-93.93310546875,11.322021484375
3.4224999,-3.8923733234405518,-1.6980875730514526,8.019378662109375,-7.110595703125,-47.637939453125,-75.5615234375
3.4274999000000004,-3.224391222000122,-1.7016788721084595,6.3733649253845215,-18.829345703125,-18.4326171875,-97.686767578125
3.4324999000000003,-2.369062662124634,-1.4460978507995605,5.252279758453369,-17.852783203125,9.58251953125,-110.9619140625
3.4374999,-1.4712369441986084,-1.0438719987869263,4.733336925506592,-10.711669921875,31.73828125,-121.002197265625
3.4424999,0.8104372620582581,1.238999366760254,9.028534889221191,-62.744140625,97.71728515625,-143.035888671875
3.4474999000000004,0.8738836050033569,1.5945383310317993,10.075399398803711,-97.747802734375,105.377197265625,-142.120361328125
3.4524999000000003,0.983418345451355,1.9321208000183105,10.809222221374512,-134.82666015625,112.640380859375,-130.462646484375
3.4574999,1.1851298809051514,2.2828712463378906,11.177928924560547,-168.88427734375,118.22509765625,-107.2998046875
3.4624999,1.6789339780807495,2.6162638664245605,10.94150161743164,-198.18115234375,107.666015625,-34.637451171875
3.4674999,1.7872716188430786,2.5043349266052246,10.54406452178955,-183.349609375,88.2568359375,10.19287109375
3.4724999000000003,1.7088614702224731,2.115875720977783,10.126874923706055,-143.463134765625,58.319091796875,60.211181640625
3.4774999,1.4437036514282227,1.4838064908981323,9.807249069213867,-73.66943359375,17.333984375,109.68017578125
3.4824999,1.0055646896362305,0.706289529800415,9.712079048156738,17.181396484375,-27.984619140625,151.0009765625
3.4874999,0.4776432514190674,-0.25677812099456787,9.921571731567383,110.809326171875,-69.4580078125,180.328369140625
3.4924999000000003,-0.1173158809542656,-1.091755986213684,10.468048095703125,189.3310546875,-102.5390625,197.1435546875
3.4974999,-0.7727286219596863,-1.6855180263519287,11.32577133178711,235.687255859375,-125.274658203125,200.8056640625
3.5024999,-1.4993687868118286,-1.8704700469970703,12.382811546325684,240.509033203125,-138.5498046875,190.0634765625
3.5074999,-2.251148223876953,-1.6478092670440674,13.438055992126465,205.902099609375,-141.876220703125,166.80908203125
3.5124999000000003,-2.982576847076416,-1.2144588232040405,14.211980819702148,146.636962890625,-136.138916015625,136.8408203125
3.5174999000000002,-3.5919010639190674,-0.8319851160049438,14.387954711914062,83.740234375,-123.870849609375,101.470947265625
3.5224999,-3.7600936889648438,-1.580173134803772,8.15764331817627,-4.669189453125,-45.440673828125,-71.35009765625
3.5274999,-3.140594005584717,-1.6490063667297363,6.503849029541016,-18.341064453125,-16.7236328125,-95.367431640625
3.5324999000000004,-2.3475148677825928,-1.3982137441635132,5.352237701416016,-20.32470703125,9.552001953125,-109.283447265625
3.5374999000000003,-1.4856021404266357,-1.0450690984725952,4.813542366027832,-14.556884765625,29.9072265625,-120.2392578125
3.5424999,-0.7152677774429321,-0.5476736426353455,4.876988887786865,-8.087158203125,42.999267578125,-125.1220703125
3.5474999,-0.06584054976701736,-0.020949264988303185,5.495890140533447,-6.988525390625,54.718017578125,-126.739501953125
3.5524999000000004,0.41778820753097534,0.4429273009300232,6.517615795135498,-14.95361328125,69.366455078125,-129.608154296875
3.5574999000000003,0.706289529800415,0.849941611289978,7.739855766296387,-32.073974609375,82.94677734375,-134.185791015625
3.5624999,0.8403648138046265,1.18094003200531,8.966883659362793,-57.769775390625,93.353271484375,-139.09912109375
3.5674999,0.8786720037460327,1.4903905391693115,10.020332336425781,-90.728759765625,102.386474609375,-138.519287109375
3.5724999000000004,1.0720038414001465,2.1308395862579346,11.225812911987305,-164.398193359375,118.560791015625,-108.367919921875
3.5774999000000003,1.278503656387329,2.3936030864715576,11.306617736816406,-190.3076171875,117.98095703125,-78.399658203125
3.5824999,1.4736311435699463,2.5534160137176514,11.1102933883667,-199.737548828125,108.673095703125,-42.144775390625
3.5874999,1.5879542827606201,2.473210334777832,10.723628997802734,-190.338134765625,91.36962890625,-0.06103515625
3.5924999,1.5430630445480347,2.1517887115478516,10.28130054473877,-156.494140625,63.934326171875,48.40087890625
3.5974999000000003,1.316810965538025,1.5550340414047241,9.890447616577148,-92.376708984375,25.20751953125,97.59521484375
3.6024999,0.9313444495201111,0.7703344225883484,9.692327499389648,-5.0048828125,-19.10400390625,140.31982421875
3.6074999,0.436343252658844,-0.14844051003456116,9.765948295593262,90.2099609375,-61.03515625,172.4853515625
3.6124999,-0.12389993667602539,-1.0283095836639404,10.193912506103516,174.560546875,-94.7265625,192.474365234375
3.6174999000000003,-0.7416039705276489,-1.668160080909729,10.94269847869873,230.04150390625,-118.682861328125,198.944091796875
3.6224999,-1.4431051015853882,-1.9279309511184692,11.941081047058105,244.0185546875,-134.3994140625,191.2841796875
3.6274999,-2.1799206733703613,-1.7764976024627686,12.998719215393066,217.498779296875,-140.045166015625,170.95947265625
3.6324999,-3.9659950733184814,-0.768538773059845,13.719374656677246,45.59326171875,-114.013671875,69.488525390625
3.6374999000000003,-4.181473255157471,-0.9193734526634216,12.422914505004883,17.2119140625,-97.442626953125,27.16064453125
3.6424999000000002,-4.15992546081543,-1.1959037780761719,10.618284225463867,13.763427734375,-78.61328125,-17.39501953125
3.6474999,-3.839700937271118,-1.4089876413345337,8.635885238647461,0.274658203125,-52.215576171875,-61.58447265625
3.6524999,-3.2555158138275146,-1.5759832859039307,6.929418087005615,-16.6015625,-22.94921875,-90.9423828125
3.6574999000000004,-2.4839842319488525,-1.370081901550293,5.697601318359375,-22.979736328125,5.31005859375,-106.8115234375
3.6624999000000003,-1.6160861253738403,-1.105522632598877,5.011662483215332,-18.24951171875,28.411865234375,-117.67578125
3.6674999,-0.8092401623725891,-0.690727174282074,4.932653903961182,-10.19287109375,42.327880859375,-123.809814453125
3.6724999,-0.14006079733371735,-0.17717093229293823,5.395333766937256,-7.50732421875,53.5888671875,-125.823974609375
3.6774999000000004,0.36990416049957275,0.31603461503982544,6.324882507324219,-14.190673828125,66.7724609375,-128.47900390625
3.6824999000000003,0.9295487999916077,1.445499300956726,9.834183692932129,-81.390380859375,97.320556640625,-138.885498046875
3.6874999,1.0001777410507202,1.7818846702575684,10.689512252807617,-119.171142578125,107.513427734375,-131.927490234375
3.6924999,1.1444283723831177,2.11946702003479,11.222820281982422,-156.768798828125,116.943359375,-114.288330078125
3.6974999000000004,1.3521254062652588,2.3959972858428955,11.399393081665039,-185.760498046875,119.20166015625,-85.906982421875
3.7024999000000003,1.5592238903045654,2.5576059818267822,11.273696899414062,-199.432373046875,112.091064453125,-49.652099609375
3.7074999,1.6861165761947632,2.491166830062866,10.903793334960938,-194.793701171875,96.221923828125,-7.781982421875
3.7124999,1.644816517829895,2.1978771686553955,10.433931350708008,-166.19873046875,70.4345703125,39.947509765625
3.7174999,1.4173674583435059,1.6502034664154053,9.970054626464844,-108.45947265625,32.1044921875,88.470458984375
3.7224999000000003,1.0420763492584229,0.8834604024887085,9.671976089477539,-26.30615234375,-12.786865234375,131.53076171875
3.7274999,0.5566518902778625,0.011372458189725876,9.639654159545898,68.817138671875,-55.877685546875,165.985107421875
3.7324999,0.02753331884741783,-0.8978256583213806,9.965266227722168,158.966064453125,-91.644287109375,189.75830078125
3.7374999,-1.2042834758758545,-1.9249382019042969,11.638214111328125,247.222900390625,-133.9111328125,196.868896484375
3.7424999000000003,-1.9129672050476074,-1.8590975999832153,12.774861335754395,228.363037109375,-140.350341796875,179.718017578125
3.7474999,-2.6611552238464355,-1.48081374168396,13.77324390411377,178.436279296875,-137.237548828125,153.13720703125
3.7524999,-3.337517261505127,-1.0199298858642578,14.32510757446289,115.081787109375,-128.753662109375,121.337890625
3.7574999,-3.867234230041504,-0.7918822169303894,14.106038093566895,56.15234375,-116.69921875,83.587646484375
3.7624999000000003,-4.305971622467041,-1.1953052282333374,11.255142211914062,13.763427734375,-89.35546875,-2.9296875
3.7674999000000002,-4.093486309051514,-1.4748282432556152,9.221866607666016,4.39453125,-66.71142578125,-50.811767578125
3.7724999,-3.5883097648620605,-1.6891093254089355,7.386112213134766,-15.228271484375,-37.17041015625,-84.930419921875
3.7774999,-2.8778305053710938,-1.5693992376327515,5.999270915985107,-26.153564453125,-7.232666015625,-103.485107421875
3.7824999000000004,-1.9722236394882202,-1.3305776119232178,5.141548156738281,-24.078369140625,18.280029296875,-116.607666015625
3.7874999000000003,-1.1127052307128906,-0.9498994946479797,4.868010520935059,-15.44189453125,36.56005859375,-124.237060546875
3.7924999,0.6147112846374512,0.5566518902778625,7.067683219909668,-26.85546875,82.8857421875,-132.38525390625
3.7974999,0.7948749661445618,0.9433154463768005,8.329427719116211,-44.86083984375,92.46826171875,-137.420654296875
3.8024999000000004,0.828393816947937,1.270722508430481,9.50617790222168,-71.533203125,100.250244140625,-140.68603515625
3.8074999000000003,0.8248024582862854,1.5933412313461304,10.471639633178711,-108.09326171875,109.344482421875,-136.77978515625
3.8124999,0.8930372595787048,1.9171570539474487,11.115081787109375,-146.514892578125,117.401123046875,-122.55859375
3.8174999,1.061229944229126,2.203263998031616,11.387421607971191,-177.490234375,119.07958984375,-97.22900390625
3.8224999000000004,1.280897855758667,2.4181437492370605,11.323975563049316,-194.091796875,112.640380859375,-63.079833984375
3.8274999000000003,1.479616641998291,2.4235305786132812,10.978013038635254,-194.427490234375,99.609375,-22.64404296875
3.8324999,1.533486247062683,2.2260091304779053,10.503362655639648,-171.7529296875,77.33154296875,24.200439453125
3.8374999,1.4071919918060303,1.7525556087493896,10.026318550109863,-121.429443359375,42.694091796875,73.30322265625
3.8424999,0.19393034279346466,-0.6841431260108948,9.898826599121094,136.199951171875,-78.55224609375,182.2509765625
3.8474999000000003,-0.34177228808403015,-1.4191631078720093,10.536881446838379,207.09228515625,-106.292724609375,195.648193359375
3.8524999,-0.34177228808403015,-1.4191631078720093,10.536881446838379,207.09228515625,-106.292724609375,195.648193359375
3.8574999,-0.9516952037811279,-1.810615062713623,11.467028617858887,239.44091796875,-126.251220703125,195.25146484375
3.8624999,-1.6298527717590332,-1.8154034614562988,12.559982299804688,230.194091796875,-136.260986328125,181.671142578125
3.8674999000000003,-2.3552958965301514,-1.5005658864974976,13.570335388183594,188.65966796875,-135.986328125,157.40966796875
3.8724999,-3.0597896575927734,-1.05105459690094,14.216769218444824,129.5166015625,-129.8828125,127.288818359375
3.8774999,-3.620033025741577,-0.7523778676986694,14.187440872192383,69.488525390625,-119.781494140625,92.041015625
3.8824999,-3.9839515686035156,-0.8134300112724304,13.284228324890137,26.0009765625,-107.91015625,52.18505859375
3.8874999000000003,-4.156932830810547,-1.0576386451721191,11.721412658691406,15.045166015625,-93.6279296875,9.735107421875
3.8924999000000002,-4.025251388549805,-1.3449428081512451,9.802460670471191,10.894775390625,-72.75390625,-37.689208984375
3.8974999,-3.579331636428833,-1.6136919260025024,7.902062892913818,-8.209228515625,-43.51806640625,-75.225830078125
3.9024999,-2.1057004928588867,-1.3796586990356445,5.40910005569458,-22.430419921875,11.993408203125,-110.595703125
3.9074999000000004,-1.2647370100021362,-1.0468647480010986,4.963778495788574,-13.916015625,30.8837890625,-120.361328125
3.9124999000000003,-0.5279214978218079,-0.5704185366630554,5.082291603088379,-8.636474609375,46.630859375,-124.237060546875
3.9174999,0.0933738648891449,-0.04668693244457245,5.725733280181885,-10.955810546875,61.859130859375,-126.708984375
3.9224999,1.470638394355774,2.3965959548950195,11.008539199829102,-195.98388671875,105.926513671875,-35.5224609375
3.9274999000000004,0.8277952671051025,0.5057750940322876,9.594164848327637,14.09912109375,-25.69580078125,142.02880859375
3.9324999000000003,0.8277952671051025,0.5057750940322876,9.594164848327637,14.09912109375,-25.69580078125,142.02880859375
3.9374999,0.3477577865123749,-0.43335050344467163,9.767146110534668,107.48291015625,-65.216064453125,172.943115234375
3.9424999,-0.17896658182144165,-1.227626919746399,10.292673110961914,187.80517578125,-97.076416015625,191.40625
3.9474999000000004,-0.7649474143981934,-1.7974469661712646,11.133037567138672,233.82568359375,-120.17822265625,195.9228515625
3.9524999000000003,-1.4329297542572021,-1.9524714946746826,12.178107261657715,238.22021484375,-133.97216796875,187.19482421875
3.9574999,-2.1505916118621826,-1.723825216293335,13.220781326293945,207.58056640625,-137.51220703125,166.717529296875
3.9624999,-2.869450807571411,-1.2773065567016602,13.993510246276855,152.923583984375,-134.6435546875,138.5498046875
3.9674999000000004,-3.4847605228424072,-0.861314058303833,14.213776588439941,90.63720703125,-126.251220703125,106.14013671875
3.9724999000000003,-3.8798038959503174,-0.7625532150268555,13.628395080566406,38.39111328125,-114.288330078125,67.7490234375
3.9774999,-4.0863037109375,-0.9385270476341248,12.259510040283203,16.021728515625,-99.853515625,26.55029296875
3.9824999,-3.0400376319885254,-1.61069917678833,6.899490833282471,-17.059326171875,-24.444580078125,-89.90478515625
3.9874999,-2.2643163204193115,-1.4053963422775269,5.763442039489746,-22.918701171875,3.11279296875,-104.766845703125
3.9924999000000003,-1.4203602075576782,-1.0324994325637817,5.149928092956543,-16.11328125,24.871826171875,-116.3330078125
3.9974999,-0.6775590777397156,-0.5560533404350281,5.073313236236572,-9.21630859375,42.1142578125,-122.49755859375
4.0024999,-0.05386953800916672,-0.06165069341659546,5.534795761108398,-9.033203125,57.0068359375,-124.8779296875
4.0074999,0.41778820753097534,0.375291109085083,6.430825710296631,-14.34326171875,69.15283203125,-127.410888671875
4.0124999,0.6973112225532532,0.7439981698989868,7.593210697174072,-26.0009765625,78.460693359375,-130.92041015625
4.0174999,0.8098387122154236,1.0534487962722778,8.82442855834961,-46.112060546875,87.0361328125,-135.31494140625
4.022499900000001,0.8355764150619507,1.3353660106658936,9.940725326538086,-78.460693359375,97.47314453125,-137.0849609375
4.0274999000000005,0.8649053573608398,1.653794765472412,10.789469718933105,-118.34716796875,107.91015625,-130.18798828125
4.0324999,0.9654618501663208,1.9608511924743652,11.282675743103027,-155.120849609375,113.58642578125,-112.335205078125
4.0374999,1.1623848676681519,2.2589292526245117,11.406575202941895,-181.396484375,111.663818359375,-85.14404296875
4.0424999,1.380257248878479,2.390610456466675,11.167754173278809,-195.37353515625,105.89599609375,-49.285888671875
4.0474999,1.5161281824111938,2.3546974658966064,10.718242645263672,-190.185546875,92.10205078125,-6.89697265625
4.0524999,1.5053542852401733,2.05123233795166,10.171167373657227,-160.33935546875,66.34521484375,38.848876953125
4.0574999,1.314416766166687,1.5155296325683594,9.686341285705566,-104.583740234375,30.33447265625,85.51025390625
4.062499900000001,0.9816226959228516,0.8038532137870789,9.403825759887695,-24.322509765625,-11.16943359375,128.936767578125
4.0674999000000005,0.5590460896492004,-0.06224924325942993,9.411606788635254,69.2138671875,-52.30712890625,163.2080078125
4.0724999,0.0867898091673851,-0.8984242081642151,9.798270225524902,158.294677734375,-88.104248046875,185.6689453125
4.0774999,-0.43754035234451294,-1.544858694076538,10.540472984313965,219.451904296875,-114.31884765625,195.220947265625
4.0824999,-1.048660397529602,-1.8411411046981812,11.574169158935547,240.509033203125,-130.06591796875,191.497802734375
4.0874999,-1.734000563621521,-1.73519766330719,12.717400550842285,224.54833984375,-136.04736328125,174.8046875
4.0924999,-2.457049608230591,-1.3467384576797485,13.70201587677002,178.40576171875,-134.490966796875,148.162841796875
4.0974999,-3.8738183975219727,-1.3395558595657349,9.3828763961792,4.638671875,-61.981201171875,-50.750732421875
4.1024999,-3.399167776107788,-1.5837644338607788,7.626729488372803,-17.27294921875,-32.684326171875,-81.817626953125
4.1074999000000005,-2.7036523818969727,-1.4700398445129395,6.262633323669434,-28.045654296875,-5.4931640625,-97.412109375
4.1124999,-1.866280198097229,-1.294066071510315,5.41987419128418,-22.674560546875,17.27294921875,-109.832763671875
4.1174999,-1.0881646871566772,-0.9421183466911316,5.079298973083496,-13.00048828125,36.07177734375,-117.98095703125
4.1224999,-0.4100070297718048,-0.4908113479614258,5.294776916503906,-8.85009765625,51.94091796875,-121.002197265625
4.1274999,0.13287819921970367,-0.0520738884806633,6.0190229415893555,-10.986328125,65.216064453125,-123.504638671875
4.1324999,0.497395396232605,0.3519476354122162,7.101202011108398,-19.256591796875,75.98876953125,-127.9296875
4.1374999,0.6925228238105774,0.7230489253997803,8.351573944091797,-36.865234375,85.723876953125,-134.09423828125
4.1424999,1.390432596206665,2.407968282699585,11.302427291870117,-196.502685546875,114.288330078125,-65.521240234375
4.147499900000001,1.5807716846466064,2.4636335372924805,10.910975456237793,-197.540283203125,103.02734375,-23.773193359375
4.1524999000000005,1.6268600225448608,2.255337953567505,10.3734769821167,-174.224853515625,79.77294921875,21.575927734375
4.1574999,1.4867992401123047,1.8034324645996094,9.854534149169922,-124.69482421875,44.86083984375,69.9462890625
4.1624999,1.1899182796478271,1.1097124814987183,9.48882007598877,-48.52294921875,2.3193359375,117.3095703125
4.1674999,0.7667431235313416,0.24361002445220947,9.399636268615723,45.83740234375,-41.19873046875,156.55517578125
4.1724999,0.27653029561042786,-0.6554127335548401,9.674370765686035,139.862060546875,-79.77294921875,183.89892578125
4.1774999,-0.26336219906806946,-1.4293384552001953,10.336965560913086,210.418701171875,-108.673095703125,197.32666015625
4.1824999,-0.8882488012313843,-1.8555063009262085,11.32577133178711,242.431640625,-127.044677734375,197.69287109375
4.187499900000001,-4.19224739074707,-1.0181342363357544,11.8441162109375,15.19775390625,-91.30859375,7.781982421875
4.1924999000000005,-4.0312371253967285,-1.3126211166381836,9.905410766601562,10.498046875,-70.037841796875,-41.80908203125
4.1974999,-3.579331636428833,-1.5442601442337036,8.013991355895996,-11.627197265625,-41.595458984375,-79.16259765625
4.2024999,-2.9095535278320312,-1.4862006902694702,6.536170482635498,-27.34375,-13.519287109375,-97.869873046875
4.2074999,-2.0446481704711914,-1.2713210582733154,5.509057998657227,-25.2685546875,11.29150390625,-111.14501953125
4.2124999,-1.1988965272903442,-0.9331400990486145,5.017049789428711,-15.380859375,32.196044921875,-120.66650390625
4.2174999,-0.46327802538871765,-0.46986207365989685,5.064335346221924,-8.209228515625,47.42431640625,-123.59619140625
4.2224999,0.1346738487482071,0.011372458189725876,5.655703067779541,-7.110595703125,58.319091796875,-123.931884765625
4.2274999,0.884058952331543,1.1061211824417114,9.1632080078125,-53.802490234375,89.569091796875,-134.94873046875
4.2324999000000005,0.9253589510917664,1.449090600013733,10.254964828491211,-92.620849609375,102.142333984375,-134.735107421875
4.2374999,0.993593692779541,1.8010382652282715,11.040861129760742,-132.50732421875,110.260009765625,-124.176025390625
4.2424999,1.1635819673538208,2.165555477142334,11.440093994140625,-166.015625,112.73193359375,-102.9052734375
4.2474999,1.3940238952636719,2.408566951751709,11.42752456665039,-190.3076171875,111.75537109375,-71.59423828125
4.2524999,1.5831658840179443,2.5049335956573486,11.095329284667969,-197.93701171875,104.00390625,-32.623291015625
4.2574999,1.6549919843673706,2.3331496715545654,10.568604469299316,-183.4716796875,84.8388671875,9.735107421875
4.2624999,1.53707754611969,1.935113549232483,10.011953353881836,-144.012451171875,54.74853515625,55.755615234375
4.2674999,1.2671312093734741,1.2898762226104736,9.575011253356934,-78.369140625,15.899658203125,102.783203125
4.272499900000001,0.8816647529602051,0.47884035110473633,9.381080627441406,10.223388671875,-26.458740234375,144.195556640625
4.2774999000000005,0.40940847992897034,-0.4213795065879822,9.528923034667969,106.048583984375,-66.925048828125,175.048828125
4.2824999,-1.3628993034362793,-1.9321208000183105,12.015301704406738,239.990234375,-131.8359375,188.96484375
4.2874999,-2.098517894744873,-1.7088614702224731,13.119626998901367,210.235595703125,-135.31494140625,166.80908203125
4.2924999,-2.8544869422912598,-1.247977614402771,13.995904922485352,153.25927734375,-131.134033203125,137.176513671875
4.2974999,-3.5045127868652344,-0.8373720645904541,14.30894660949707,87.158203125,-122.00927734375,104.217529296875
4.3024999,-3.949235677719116,-0.761954665184021,13.782820701599121,34.881591796875,-108.734130859375,65.460205078125
4.3074999,-4.204816818237305,-0.9475052952766418,12.434286117553711,16.021728515625,-93.963623046875,23.529052734375
4.312499900000001,-4.1641154289245605,-1.2934675216674805,10.616488456726074,16.6015625,-75.86669921875,-24.658203125
4.3174999000000005,-3.8049850463867188,-1.6071078777313232,8.69753646850586,-1.220703125,-50.78125,-67.169189453125
4.3224999,-0.0802057534456253,-0.17956513166427612,5.550956726074219,-4.180908203125,51.910400390625,-123.96240234375
4.3274999,0.41359832882881165,0.25438392162323,6.407482147216797,-8.331298828125,61.553955078125,-125.946044921875
4.3324999,0.7068880796432495,0.6494272351264954,7.535151481628418,-21.66748046875,73.66943359375,-130.859375
4.3374999,0.8505401611328125,1.006163239479065,8.740033149719238,-47.7294921875,87.066650390625,-137.3291015625
4.3424999,0.9169792532920837,1.3664906024932861,9.81024169921875,-85.14404296875,100.128173828125,-139.862060546875
4.3474999,1.003769040107727,1.7405846118927002,10.634445190429688,-124.8779296875,110.565185546875,-132.26318359375
4.352499900000001,1.1839327812194824,2.1122844219207764,11.110891342163086,-159.515380859375,116.607666015625,-113.739013671875
4.3574999000000005,1.4449007511138916,2.3924059867858887,11.207857131958008,-186.126708984375,119.171142578125,-84.41162109375
4.3624999,1.6741455793380737,2.5324668884277344,11.001357078552246,-197.1435546875,113.8916015625,-47.42431640625
4.3674999,1.802833914756775,2.430713176727295,10.595540046691895,-188.140869140625,96.527099609375,-6.7138671875
4.3724999,1.7477672100067139,2.097919225692749,10.131064414978027,-156.402587890625,68.603515625,39.00146484375
4.3774999,1.512536883354187,1.5191209316253662,9.739612579345703,-98.541259765625,32.379150390625,88.104248046875
4.3824999,-1.0797849893569946,-1.8525135517120361,11.872247695922852,241.02783203125,-130.06591796875,193.389892578125
4.3874999,-1.810615062713623,-1.7501614093780518,12.948441505432129,221.6796875,-136.932373046875,175.384521484375
4.3924999,-2.580350875854492,-1.3628993034362793,13.863624572753906,170.989990234375,-135.650634765625,148.0712890625
4.397499900000001,-3.2830491065979004,-0.9343371987342834,14.302961349487305,105.316162109375,-128.2958984375,116.912841796875
4.4024999000000005,-4.146757125854492,-0.9289502501487732,12.76109504699707,16.998291015625,-101.287841796875,38.330078125
4.4074999,-4.232349872589111,-1.2204443216323853,11.01392650604248,16.693115234375,-83.984375,-8.148193359375
4.4124999,-3.9707834720611572,-1.5598224401474,9.033323287963867,4.241943359375,-60.6689453125,-54.74853515625
4.4174999,-2.7018566131591797,-1.514931082725525,6.04775333404541,-26.4892578125,-4.302978515625,-101.043701171875
4.4224999,-1.8381483554840088,-1.2216414213180542,5.281609058380127,-21.1181640625,20.56884765625,-115.753173828125
4.4274999,-1.0229226350784302,-0.7763199210166931,5.051765441894531,-12.26806640625,38.63525390625,-123.443603515625
4.4324999,-0.31364041566848755,-0.2885012924671173,5.36361026763916,-6.866455078125,51.45263671875,-125.54931640625
4.437499900000001,0.2621650993824005,0.17836803197860718,6.156689643859863,-6.805419921875,61.70654296875,-126.708984375
4.4424999000000005,0.6458359360694885,0.5871779918670654,7.266402244567871,-15.2587890625,73.486328125,-130.035400390625
4.4474999,0.8505401611328125,0.950498104095459,8.507795333862305,-35.797119140625,87.127685546875,-135.650634765625
4.4524999,0.9169792532920837,1.2677297592163086,9.659406661987305,-69.427490234375,100.555419921875,-139.5263671875
4.4574999,0.9469067454338074,1.6053122282028198,10.596138000488281,-108.489990234375,110.504150390625,-135.467529296875
4.4624999,1.0450690984725952,1.9602526426315308,11.194089889526367,-145.599365234375,115.936279296875,-120.91064453125
4.4674999,1.2348095178604126,2.2685060501098633,11.388020515441895,-176.849365234375,119.07958984375,-94.78759765625
4.4724999,1.50355863571167,1.778891921043396,9.836577415466309,-119.964599609375,43.701171875,73.822021484375
4.477499900000001,1.2012907266616821,1.0773907899856567,9.517550468444824,-44.189453125,1.89208984375,122.13134765625
4.4824999000000005,-0.9074024558067322,-1.8022353649139404,11.419144630432129,240.966796875,-125.640869140625,201.873779296875
4.4874999,-1.6268600225448608,-1.8249802589416504,12.525864601135254,234.893798828125,-135.772705078125,187.43896484375
4.4924999,-2.386420488357544,-1.5077484846115112,13.559561729431152,193.54248046875,-137.542724609375,161.4990234375
4.4974999,-3.116652011871338,-1.0492589473724365,14.233529090881348,130.615234375,-132.080078125,130.279541015625
4.5024999,-3.7056257724761963,-0.7553706169128418,14.246098518371582,68.389892578125,-121.246337890625,94.268798828125
4.5074999,-3.729567766189575,-1.6340426206588745,8.095394134521484,-13.458251953125,-46.142578125,-77.545166015625
4.5124999,-3.089717388153076,-1.6065093278884888,6.652289390563965,-28.01513671875,-18.00537109375,-97.412109375
4.5174999,-2.2236149311065674,-1.400607943534851,5.612008571624756,-26.458740234375,8.36181640625,-112.335205078125
4.522499900000001,-1.3611036539077759,-1.0755951404571533,5.075109004974365,-15.93017578125,28.80859375,-121.88720703125
4.5274999000000005,-0.585382342338562,-0.6135141849517822,5.080495834350586,-5.828857421875,42.083740234375,-124.8779296875
4.5324999,0.09457096457481384,-0.10175357013940811,5.616796970367432,-1.190185546875,52.215576171875,-125.518798828125
4.5374999,0.5847837924957275,0.36571431159973145,6.601412773132324,-6.34765625,65.3076171875,-127.38037109375
4.5424999,0.8672995567321777,0.7930793166160583,7.802703380584717,-22.857666015625,80.38330078125,-132.354736328125
4.5474999,0.9774328470230103,1.1408370733261108,9.050082206726074,-52.06298828125,93.8720703125,-138.275146484375
4.5524999,0.982221245765686,1.4879963397979736,10.117298126220703,-89.691162109375,104.98046875,-137.786865234375
4.5574999,1.61069917678833,2.5246856212615967,10.99656867980957,-195.556640625,108.856201171875,-36.712646484375
4.562499900000001,1.713649868965149,2.3738510608673096,10.520122528076172,-181.549072265625,89.324951171875,4.730224609375
4.5674999000000005,1.6382324695587158,1.9704279899597168,10.008959770202637,-144.83642578125,60.6689453125,51.8798828125
4.5724999,1.403002142906189,1.3581109046936035,9.61451530456543,-80.718994140625,23.0712890625,100.89111328125
4.5774999,1.0319008827209473,0.5638344883918762,9.453505516052246,6.134033203125,-20.263671875,143.6767578125
4.5824999,0.5776011347770691,-0.28072014451026917,9.610923767089844,98.968505859375,-61.70654296875,174.530029296875
4.5874999,0.07122749835252762,-1.0809820890426636,10.137648582458496,178.009033203125,-93.6279296875,193.2373046875
4.5924999,-0.4985924959182739,-1.6065093278884888,10.992977142333984,227.5390625,-115.386962890625,198.54736328125
4.5974999,-1.1647791862487793,-1.7597382068634033,12.064980506896973,237.6708984375,-128.875732421875,189.910888671875
4.602499900000001,-1.9045875072479248,-1.546055793762207,13.177087783813477,209.442138671875,-134.21630859375,168.792724609375
4.6074999000000005,-4.196436882019043,-0.8846575021743774,12.604873657226562,14.83154296875,-95.001220703125,26.4892578125
4.6124999,-4.228758811950684,-1.2533645629882812,10.831368446350098,11.505126953125,-80.718994140625,-20.3857421875
4.6174999,-3.9384617805480957,-1.5975310802459717,8.930971145629883,-5.218505859375,-58.837890625,-63.446044921875
4.6224999,-3.3901896476745605,-1.6735470294952393,7.283760070800781,-23.681640625,-32.562255859375,-89.019775390625
4.6274999,-2.6013002395629883,-1.5107412338256836,6.070498466491699,-27.496337890625,-5.37109375,-105.010986328125
4.6324999,-1.723825216293335,-1.1791443824768066,5.306149482727051,-18.85986328125,17.02880859375,-116.8212890625
4.6374999,-0.9103952050209045,-0.7218518257141113,5.066729545593262,-7.476806640625,33.26416015625,-121.337890625
4.6424999,-0.19153612852096558,-0.23523031175136566,5.3761796951293945,-0.06103515625,45.745849609375,-121.368408203125
4.647499900000001,0.3705027103424072,0.21607670187950134,6.16686487197876,-1.739501953125,59.722900390625,-122.74169921875
4.6524999000000005,0.7206547260284424,0.6446388363838196,7.289745807647705,-14.251708984375,75.897216796875,-127.532958984375
4.6574999,1.2156559228897095,2.390610456466675,11.334151268005371,-180.694580078125,120.758056640625,-89.813232421875
4.6624999,1.4269442558288574,2.518700122833252,11.113883972167969,-194.82421875,114.013671875,-56.304931640625
4.6674999,1.5765818357467651,2.454655408859253,10.663175582885742,-190.155029296875,98.69384765625,-18.035888671875
4.6724999,1.5831658840179443,2.147000312805176,10.11550235748291,-164.764404296875,75.25634765625,26.458740234375
4.6774999,1.4383167028427124,1.6388310194015503,9.643245697021484,-114.07470703125,42.816162109375,75.103759765625
4.6824999,1.159990668296814,0.9115923047065735,9.3643217086792,-37.17041015625,2.01416015625,121.612548828125
4.687499900000001,0.7691373229026794,0.09816227108240128,9.408614158630371,54.229736328125,-40.58837890625,158.538818359375
4.6924999000000005,0.3064578175544739,-0.7643488645553589,9.77672290802002,140.7470703125,-76.35498046875,184.234619140625
4.6974999,-0.21787235140800476,-1.4395138025283813,10.529699325561523,205.74951171875,-102.11181640625,196.83837890625
4.7024999,-2.363077163696289,-1.4413094520568848,13.68465805053711,179.718017578125,-129.791259765625,155.548095703125
4.7074999,-3.1220390796661377,-1.0091559886932373,14.311939239501953,118.927001953125,-124.298095703125,124.6337890625
4.7124999,-3.716399669647217,-0.7745242714881897,14.249690055847168,60.638427734375,-114.56298828125,88.592529296875
4.7174999,-4.111443042755127,-0.8672995567321777,13.324929237365723,22.613525390625,-101.776123046875,47.637939453125
4.7224999,-4.291007995605469,-1.1336544752120972,11.789648056030273,13.824462890625,-90.545654296875,3.84521484375
4.727499900000001,-4.136581897735596,-1.381454348564148,9.914987564086914,6.134033203125,-73.455810546875,-43.39599609375
4.7324999000000005,-3.692457675933838,-1.6430208683013916,8.154052734375,-13.7939453125,-47.79052734375,-78.582763671875
4.7374999,-3.0119056701660156,-1.5352818965911865,6.733692169189453,-26.641845703125,-19.378662109375,-97.930908203125
4.7424999,-2.139219284057617,-1.3611036539077759,5.750273704528809,-23.86474609375,5.767822265625,-111.907958984375
4.7474999,-1.2868833541870117,-1.026513934135437,5.243301868438721,-12.176513671875,25.0244140625,-119.903564453125
4.7524999,-0.5105634927749634,-0.535702645778656,5.242702960968018,-0.9765625,37.872314453125,-120.9716796875
4.7574999,0.13766659796237946,-0.02992752194404602,5.7544636726379395,2.9296875,49.6826171875,-120.819091796875
4.7624999,0.6009446382522583,0.44412440061569214,6.684012413024902,-2.9296875,63.29345703125,-123.35205078125
4.7674999,0.8553285598754883,0.8690952062606812,7.8511857986450195,-20.32470703125,77.728271484375,-129.180908203125
4.772499900000001,0.9475052952766418,1.212663173675537,9.07103157043457,-48.187255859375,89.447021484375,-134.765625
4.7774999000000005,0.9552865028381348,1.5771803855895996,10.160991668701172,-83.80126953125,99.365234375,-134.796142578125
4.7824999,1.0001777410507202,1.8974047899246216,10.94808578491211,-123.687744140625,109.06982421875,-125.1220703125
4.7874999,1.1324573755264282,2.235585927963257,11.338939666748047,-160.064697265625,114.776611328125,-104.06494140625
4.7924999,1.334767460823059,2.457049608230591,11.313799858093262,-183.563232421875,112.12158203125,-75.103759765625
4.7974999,1.534683346748352,2.517503023147583,10.948684692382812,-190.7958984375,101.806640625,-40.95458984375
4.8024999,1.3862427473068237,1.4335283041000366,9.382277488708496,-89.66064453125,26.0009765625,92.46826171875
4.8074999,1.0558429956436157,0.6871358752250671,9.179967880249023,-9.185791015625,-14.6484375,134.82666015625
4.812499900000001,0.645237386226654,-0.1149216815829277,9.312247276306152,80.2001953125,-53.680419921875,166.748046875
4.8174999000000005,0.17657238245010376,-0.912190854549408,9.813833236694336,160.369873046875,-84.991455078125,187.43896484375
4.8224999,-0.3663128614425659,-1.4778209924697876,10.648810386657715,213.470458984375,-107.23876953125,194.51904296875
4.8274999,-1.002571940422058,-1.6927006244659424,11.73817253112793,228.45458984375,-121.4599609375,188.1103515625
4.8324999,-1.7220295667648315,-1.5628151893615723,12.878411293029785,204.803466796875,-128.448486328125,169.00634765625
4.8374999,-2.4791958332061768,-1.1988965272903442,13.808558464050293,153.99169921875,-127.44140625,141.510009765625
4.8424999,-3.162141799926758,-0.839766263961792,14.233529090881348,93.780517578125,-121.76513671875,109.832763671875
4.8474999,-3.6762967109680176,-0.7236474752426147,13.867216110229492,42.266845703125,-111.114501953125,72.418212890625
4.852499900000001,-3.993528366088867,-0.9115923047065735,12.700042724609375,16.143798828125,-99.151611328125,31.1279296875
4.8574999000000005,-4.050989151000977,-1.2372037172317505,11.016919136047363,11.5966796875,-85.63232421875,-13.48876953125
4.8624999,-3.7828385829925537,-1.535880446434021,9.175179481506348,-1.64794921875,-64.14794921875,-56.304931640625
4.8674999,-3.2525229454040527,-1.6484078168869019,7.529764175415039,-20.782470703125,-36.224365234375,-83.8623046875
4.8724999,-0.9044097065925598,-0.829590916633606,5.2696380615234375,-8.941650390625,27.9541015625,-115.570068359375
4.8774999,-0.25079262256622314,-0.3734954595565796,5.524022102355957,-0.06103515625,41.3818359375,-117.095947265625
4.8824999,0.8224082589149475,0.8038532137870789,8.511985778808594,-33.599853515625,84.075927734375,-127.410888671875
4.8874999,0.8553285598754883,1.12467622756958,9.650428771972656,-64.422607421875,94.451904296875,-130.950927734375
4.8924999,0.8643068075180054,1.459265947341919,10.571598052978516,-103.302001953125,107.147216796875,-129.547119140625
4.897499900000001,0.9103952050209045,1.811812162399292,11.162965774536133,-144.71435546875,117.034912109375,-116.607666015625
4.9024999000000005,1.0426748991012573,2.139817714691162,11.352107048034668,-177.703857421875,118.865966796875,-92.864990234375
4.9074999,1.215057373046875,2.31758713722229,11.170746803283691,-196.22802734375,113.34228515625,-63.41552734375
4.9124999,1.3479355573654175,2.296638011932373,10.723628997802734,-197.479248046875,102.783203125,-28.594970703125
4.9174999,1.2515689134597778,1.5939397811889648,9.610325813293457,-135.589599609375,53.985595703125,59.87548828125
4.9224999,1.0324994325637817,0.9175778031349182,9.244012832641602,-65.460205078125,14.862060546875,105.560302734375
4.9274999,0.7086837291717529,0.16160862147808075,9.160215377807617,23.37646484375,-26.30615234375,143.61572265625
4.9324999,0.33937808871269226,-0.6829460263252258,9.450512886047363,114.349365234375,-62.835693359375,172.2412109375
4.937499900000001,-0.10115502029657364,-1.367687702178955,10.13166332244873,188.201904296875,-91.766357421875,188.018798828125
4.9424999000000005,-0.6374561786651611,-1.7926585674285889,11.166556358337402,226.959228515625,-110.90087890625,190.24658203125
4.9474999,-1.3000515699386597,-1.8441338539123535,12.397774696350098,224.67041015625,-122.1923828125,179.8095703125
4.9524999,-2.053626537322998,-1.5735890865325928,13.578116416931152,188.507080078125,-126.068115234375,158.050537109375
4.9574999,-2.827552318572998,-1.1558008193969727,14.39872932434082,132.99560546875,-123.96240234375,129.150390625
4.9624999,-3.493738889694214,-0.8535329103469849,14.560935974121094,75.1953125,-116.76025390625,95.550537109375
4.9674999,-3.9588124752044678,-0.8702923059463501,13.869011878967285,31.890869140625,-106.719970703125,56.793212890625
4.9724999,-4.225766181945801,-1.116895079612732,12.458827018737793,14.892578125,-96.98486328125,16.265869140625
4.977499900000001,-3.8121676445007324,-1.6729484796524048,8.8070707321167,-6.103515625,-62.6220703125,-67.3828125
4.9824999000000005,-3.2106244564056396,-1.6184803247451782,7.228095054626465,-22.918701171875,-36.163330078125,-88.714599609375
4.9874999,-3.2106244564056396,-1.6184803247451782,7.228095054626465,-22.918701171875,-36.163330078125,-88.714599609375
4.9924999,-2.381632089614868,-1.482010841369629,6.054935932159424,-23.49853515625,-9.94873046875,-103.240966796875
4.9974999,-1.501164436340332,-1.1797429323196411,5.3127336502075195,-11.871337890625,11.41357421875,-112.152099609375
5.0024999,-0.7003039717674255,-0.730231523513794,5.070919036865234,0.79345703125,28.717041015625,-114.105224609375
5.0074999,0.0077811554074287415,-0.2495955228805542,5.369596004486084,6.16455078125,44.12841796875,-114.2578125
5.0124999,0.5267243981361389,0.22266076505184174,6.166266441345215,1.251220703125,60.028076171875,-115.966796875
5.0174999,0.8313865661621094,0.639850378036499,7.292140007019043,-13.7939453125,75.68359375,-120.452880859375
5.022499900000001,0.945111095905304,0.9917980432510376,8.55268669128418,-37.322998046875,88.287353515625,-126.40380859375
5.0274999000000005,0.9558850526809692,1.3395558595657349,9.73661994934082,-70.404052734375,98.297119140625,-128.90625
5.0324999,0.9636662006378174,1.670554280281067,10.645817756652832,-110.748291015625,109.588623046875,-122.802734375
5.0374999,1.3605051040649414,2.3235726356506348,11.042656898498535,-183.685302734375,108.88671875,-52.642822265625
5.0424999,1.4532804489135742,1.8962076902389526,9.999981880187988,-155.8837890625,74.188232421875,25.909423828125
5.0474999,1.2964602708816528,1.3922282457351685,9.531915664672852,-108.184814453125,41.595458984375,71.502685546875
5.0524999,1.0295066833496094,0.7457938194274902,9.27334213256836,-37.872314453125,1.800537109375,114.2578125
5.0574999,0.6673837304115295,-0.005985504016280174,9.32661247253418,47.119140625,-37.384033203125,150.45166015625
5.062499900000001,0.26815059781074524,-0.7727286219596863,9.743204116821289,130.126953125,-71.2890625,175.872802734375
5.0674999000000005,-0.2017114907503128,-1.3880383968353271,10.515334129333496,192.047119140625,-95.245361328125,187.92724609375
5.0724999,-0.7781155705451965,-1.710058569908142,11.57237434387207,218.170166015625,-111.63330078125,186.614990234375
5.0774999,-1.455674648284912,-1.6938977241516113,12.729372024536133,207.1533203125,-121.490478515625,172.882080078125
