# Time (seconds),Accel_X,Accel_Y,Accel_Z,Gyro_X,Gyro_Y,Gyro_Z
0.0024999,-0.8672995567321777,0.37648820877075195,9.506776809692383,5.401611328125,-18.341064453125,5.67626953125
0.0074999,-0.8672995567321777,0.37648820877075195,9.506776809692383,5.401611328125,-18.341064453125,5.67626953125
0.012499900000000001,-0.9349357485771179,0.2974795699119568,9.182361602783203,-2.838134765625,-17.425537109375,3.875732421875
0.0174999,-0.8289923667907715,0.38965633511543274,9.199121475219727,9.46044921875,-17.76123046875,2.5634765625
0.0224999,-0.8912416100502014,0.31783026456832886,8.691550254821777,2.01416015625,-15.80810546875,2.838134765625
0.0274999,-0.9463081955909729,0.4291606545448303,8.684967041015625,7.6904296875,-14.0380859375,6.591796875
0.0324999,-1.1007342338562012,0.3579331636428833,8.299500465393066,-6.103515625,-12.237548828125,7.568359375
0.0374999,-1.1097124814987183,0.4076128304004669,8.174403190612793,0.6103515625,-12.0849609375,3.35693359375
0.0424999,-1.2282254695892334,0.5135562419891357,8.02536392211914,-6.16455078125,-6.4697265625,8.819580078125
0.0474999,-1.227626919746399,0.3902548849582672,7.683591842651367,-13.36669921875,-1.617431640625,2.01416015625
0.0524999,-1.1097124814987183,0.5225345492362976,7.779359817504883,-7.354736328125,3.631591796875,-2.62451171875
0.0574999,-1.1127052307128906,0.49978959560394287,7.667430877685547,-26.67236328125,13.092041015625,-2.471923828125
0.0624999,-0.9487023949623108,0.4991910457611084,7.740454196929932,-30.609130859375,21.91162109375,-13.702392578125
0.0674999,-0.8601169586181641,0.7583633661270142,8.101978302001953,-42.144775390625,33.050537109375,-14.7705078125
0.0724999,-0.8236053586006165,0.7757213711738586,8.192957878112793,-70.648193359375,42.66357421875,-20.782470703125
0.0774999,-0.6949170231819153,1.1109095811843872,8.877699851989746,-82.45849609375,47.4853515625,-27.40478515625
0.0824999,-0.8882488012313843,2.161964178085327,13.41291618347168,-220.184326171875,-13.580322265625,7.110595703125
0.0874999,-1.8950105905532837,1.6819267272949219,15.33845329284668,-194.244384765625,-71.59423828125,31.219482421875
0.0924999,-2.853888511657715,0.13108254969120026,16.114173889160156,-41.56494140625,-182.31201171875,24.810791015625
0.0974999,-4.049792289733887,-1.656787633895874,16.096817016601562,36.773681640625,-223.052978515625,7.9345703125
0.1024999,-4.571728229522705,-3.4817678928375244,14.72673511505127,12.664794921875,-180.450439453125,-35.858154296875
0.1074999,-3.904344320297241,-4.347870349884033,12.819154739379883,-4.21142578125,-115.203857421875,-61.03515625
0.1124999,-2.690484046936035,-3.7828385829925537,10.99776554107666,-13.031005859375,-69.9462890625,-50.29296875
0.1174999,-0.8954314589500427,-2.9933507442474365,9.671378135681152,-1.922607421875,-52.581787109375,-48.126220703125
0.1224999,0.8589198589324951,-1.6466121673583984,9.382277488708496,11.871337890625,-51.513671875,-38.909912109375
0.1274999,2.010530948638916,-0.7912836670875549,9.596558570861816,-11.383056640625,-48.126220703125,-29.47998046875
0.1324999,2.7114334106445312,-0.3100491166114807,10.247781753540039,-8.941650390625,-46.0205078125,5.950927734375
0.1374999,2.072780132293701,-0.568622887134552,10.153210639953613,-14.22119140625,-43.182373046875,9.27734375
0.1424999,1.5179238319396973,-0.9283517003059387,9.962273597717285,1.922607421875,-26.031494140625,4.669189453125
0.1474999,0.8277952671051025,-0.8146271109580994,10.062231063842773,-2.50244140625,-28.289794921875,10.3759765625
0.1524999,0.4129997789859772,-0.9900023937225342,9.983820915222168,-7.080078125,-35.7666015625,3.41796875
0.1574999,0.3345896899700165,-0.5410895943641663,10.239401817321777,-0.823974609375,-25.604248046875,3.2958984375
0.1624999,0.35913026332855225,-0.21787235140800476,10.469843864440918,-12.3291015625,-18.218994140625,2.960205078125
0.1674999,0.6817489266395569,0.0017956512747332454,10.305841445922852,-6.134033203125,-10.55908203125,-3.997802734375
0.1724999,1.0636241436004639,0.2902969419956207,10.453682899475098,-0.946044921875,-6.622314453125,2.3193359375
0.17749990000000002,1.2557587623596191,0.12210428714752197,10.08198356628418,-10.6201171875,1.617431640625,-1.64794921875
0.1824999,1.4933832883834839,-0.20530278980731964,9.86650562286377,4.547119140625,6.134033203125,-4.730224609375
0.1874999,1.3389573097229004,-0.36810851097106934,9.928155899047852,1.5869140625,7.659912109375,2.716064453125
0.1924999,-0.08978256583213806,-0.3585317134857178,9.839570045471191,6.805419921875,1.495361328125,1.251220703125
0.1974999,-0.25917232036590576,-0.17836803197860718,9.638457298278809,-7.415771484375,-1.129150390625,-1.068115234375
0.2024999,-0.1280897855758667,0.005985504016280174,9.53969669342041,1.739501953125,-2.838134765625,-4.425048828125
0.20749990000000001,-0.12629413604736328,0.18614917993545532,9.766547203063965,-2.655029296875,-5.9814453125,2.38037109375
0.2124999,-0.04908113554120064,-0.076015904545784,9.648633003234863,-10.101318359375,-5.584716796875,-2.8076171875
0.2174999,-0.04908113554120064,-0.076015904545784,9.648633003234863,-10.101318359375,-5.584716796875,-2.8076171875
0.2224999,0.1604115068912506,-0.15981295704841614,9.7791166305542,3.11279296875,-6.561279296875,-0.42724609375
0.2274999,0.21547815203666687,-0.3166331648826599,9.993996620178223,-6.53076171875,-6.439208984375,3.753662109375
0.2324999,0.40222588181495667,-0.6548141837120056,9.77672290802002,-3.60107421875,-3.41796875,-3.509521484375
0.2374999,0.7164648771286011,-0.6362590789794922,9.68813705444336,3.387451171875,1.52587890625,-3.96728515625
0.2424999,0.6697779297828674,-0.3687070608139038,9.909002304077148,3.692626953125,1.068115234375,3.173828125
0.2474999,0.6697779297828674,-0.3687070608139038,9.909002304077148,3.692626953125,1.068115234375,3.173828125
0.2524999,0.579995334148407,-0.5213374495506287,9.761159896850586,-5.67626953125,3.23486328125,-1.556396484375
0.2574999,0.5973533391952515,-0.43275195360183716,9.75517463684082,7.293701171875,3.326416015625,-2.593994140625
0.2624999,0.4279635548591614,-0.37229835987091064,9.989208221435547,-0.48828125,1.89208984375,3.021240234375
0.2674999,0.333991140127182,-0.5722141861915588,9.717466354370117,-2.838134765625,1.739501953125,-3.570556640625
0.2724999,0.29209262132644653,-0.3734954595565796,9.838972091674805,7.293701171875,0.244140625,0.42724609375
0.2774999,0.11911153793334961,-0.39564183354377747,9.858125686645508,-5.18798828125,-0.54931640625,2.471923828125
0.2824999,0.1173158809542656,-0.436343252658844,9.589975357055664,-0.30517578125,-0.8544921875,-4.241943359375
0.28749990000000003,0.16220717132091522,-0.23343466222286224,9.825204849243164,4.2724609375,-2.471923828125,2.3193359375
0.2924999,0.11372458189725876,-0.3196259140968323,9.683947563171387,-7.8125,-2.227783203125,0.213623046875
0.2974999,0.44831427931785583,-0.4405331015586853,10.032901763916016,-2.716064453125,-0.762939453125,3.5400390625
0.3024999,0.44831427931785583,-0.4405331015586853,10.032901763916016,-2.716064453125,-0.762939453125,3.5400390625
0.3074999,0.47824180126190186,-0.6218938827514648,9.797073364257812,-2.960205078125,1.556396484375,-3.570556640625
0.3124999,0.5099649429321289,-0.4381389021873474,9.9401273727417,7.26318359375,0.244140625,0.457763671875
0.3174999,0.375291109085083,-0.44831427931785583,9.88745403289795,-5.157470703125,0.030517578125,1.8310546875
0.3224999,0.36990416049957275,-0.4752490520477295,9.604340553283691,1.129150390625,2.01416015625,-4.058837890625
0.3274999,0.3471592366695404,-0.2753331959247589,9.806051254272461,5.035400390625,-0.152587890625,2.3193359375
0.3324999,0.2190694510936737,-0.363918662071228,9.65222454071045,-6.591796875,0.244140625,-0.06103515625
0.3374999,0.32680854201316833,-0.39205053448677063,9.613917350769043,4.150390625,0.335693359375,-3.0517578125
0.3424999,0.28790274262428284,-0.2687491476535797,9.847352027893066,1.495361328125,-1.220703125,3.662109375
0.34749990000000003,0.41718965768814087,-0.3884592354297638,9.889848709106445,6.561279296875,-1.129150390625,0.30517578125
0.35249990000000003,0.33937808871269226,-0.3866635859012604,9.903017044067383,-5.218505859375,-1.220703125,2.01416015625
0.3574999,0.3734954595565796,-0.4596867263317108,9.596558570861816,-0.54931640625,0.244140625,-4.058837890625
0.3624999,0.42197805643081665,-0.2579752206802368,9.822212219238281,5.37109375,-0.579833984375,2.166748046875
0.3674999,0.314238965511322,-0.3447650372982025,9.718663215637207,-6.53076171875,0.091552734375,0.213623046875
0.3724999,0.4429273009300232,-0.4231751561164856,9.61451530456543,3.173828125,0.946044921875,-3.7841796875
0.3774999,0.406415730714798,-0.2669534981250763,9.874286651611328,2.777099609375,-0.518798828125,3.326416015625
0.3824999,0.3411737382411957,-0.49380409717559814,9.73542308807373,-6.2255859375,0.640869140625,-1.3427734375
0.3874999,0.444722980260849,-0.46567222476005554,9.731232643127441,5.889892578125,0.67138671875,-2.38037109375
0.3924999,0.33279404044151306,-0.5554547905921936,9.785101890563965,-5.31005859375,0.457763671875,-2.838134765625
0.3974999,0.38486793637275696,-0.4225766062736511,9.883264541625977,5.92041015625,-0.1220703125,-0.54931640625
0.4024999,0.2651578485965729,-0.38965633511543274,9.998785018920898,-3.96728515625,-1.28173828125,2.685546875
0.4074999,0.30526071786880493,-0.518943190574646,9.696516990661621,-1.89208984375,-0.030517578125,-3.84521484375
0.41249990000000003,0.35733461380004883,-0.3597288131713867,9.822212219238281,6.134033203125,-1.190185546875,0.946044921875
0.41749990000000003,0.28311434388160706,-0.3794809579849243,9.78989028930664,-6.2255859375,-0.9765625,1.678466796875
0.4224999,0.36990416049957275,-0.42676645517349243,9.561842918395996,0.67138671875,0.457763671875,-3.96728515625
0.4274999,0.40462008118629456,-0.2735375463962555,9.805453300476074,4.302978515625,-1.220703125,2.38037109375
0.4324999,0.3405751883983612,-0.3728969097137451,9.700108528137207,-6.927490234375,0.06103515625,-0.152587890625
0.4374999,0.4578910768032074,-0.45848962664604187,9.621099472045898,3.47900390625,0.8544921875,-3.387451171875
0.4424999,0.4291606545448303,-0.3357867896556854,9.910798072814941,2.471923828125,-1.0986328125,3.35693359375
0.4474999,0.3776853084564209,-0.5428852438926697,9.78989028930664,-5.889892578125,0.518798828125,-1.495361328125
0.4524999,0.3405751883983612,-0.5728127360343933,9.798869132995605,-4.974365234375,0.579833984375,-3.082275390625
0.4574999,0.395043283700943,-0.4291606545448303,9.854534149169922,6.53076171875,-0.274658203125,-0.54931640625
0.4624999,0.26815059781074524,-0.4016273319721222,9.965864181518555,-3.753662109375,-1.068115234375,2.9296875
0.4674999,0.3064578175544739,-0.5063736438751221,9.671378135681152,-2.166748046875,0,-3.753662109375
0.47249990000000003,0.34356793761253357,-0.3405751883983612,9.82759952545166,6.317138671875,-1.0986328125,0.701904296875
0.47749990000000003,0.272938996553421,-0.363918662071228,9.792284965515137,-5.340576171875,-1.220703125,1.708984375
0.4824999,0.3387795388698578,-0.4297592043876648,9.565434455871582,0.18310546875,0.640869140625,-3.753662109375
0.4874999,0.39384618401527405,-0.27712884545326233,9.79647445678711,4.69970703125,-1.129150390625,2.105712890625
0.4924999,0.3058592677116394,-0.3489548861980438,9.740211486816406,-6.4697265625,-0.732421875,0.213623046875
0.4974999,0.43754035234451294,-0.43933600187301636,9.663596153259277,2.44140625,0.762939453125,-3.35693359375
0.5024999,0.424970805644989,-0.3076549172401428,9.91738224029541,2.716064453125,-1.007080078125,3.082275390625
0.5074999,0.39564183354377747,-0.42856210470199585,10.002376556396484,0.762939453125,-0.91552734375,3.47900390625
0.5124999,0.3687070608139038,-0.6153098344802856,9.768342971801758,-5.615234375,0.762939453125,-2.227783203125
0.5174999,0.4339490532875061,-0.507570743560791,9.785101890563965,6.256103515625,0.1220703125,-1.40380859375
0.5224999,0.35075053572654724,-0.44592007994651794,9.955090522766113,-1.617431640625,-0.701904296875,3.021240234375
0.5274999,0.36332011222839355,-0.5536591410636902,9.731232643127441,-3.753662109375,0.823974609375,-3.2958984375
0.5324999,0.4082113802433014,-0.37409400939941406,9.833584785461426,6.744384765625,-0.244140625,-0.030517578125
0.5374999,0.29807811975479126,-0.35494041442871094,9.93593692779541,-4.0283203125,-0.579833984375,2.655029296875
0.5424999,0.3280056416988373,-0.4213795065879822,9.674968719482422,-1.434326171875,0.732421875,-3.662109375
0.5474999,0.35494041442871094,-0.2693476974964142,9.838972091674805,5.92041015625,-0.6103515625,1.129150390625
0.5524999,0.2711433470249176,-0.2825157940387726,9.816825866699219,-5.828857421875,-0.457763671875,1.52587890625
0.5574999,0.3387795388698578,-0.4058171808719635,9.57321548461914,0.457763671875,0.79345703125,-3.631591796875
0.5624999,0.28371289372444153,-0.3734954595565796,9.707889556884766,-7.01904296875,-0.79345703125,0.213623046875
0.5674999000000001,0.40282443165779114,-0.4572925269603729,9.638457298278809,2.105712890625,0.274658203125,-3.387451171875
0.5724999000000001,0.40462008118629456,-0.3429693877696991,9.923367500305176,2.716064453125,-1.495361328125,2.960205078125
0.5774999000000001,0.35434186458587646,-0.5039794445037842,9.797672271728516,-6.7138671875,-0.3662109375,-1.068115234375
0.5824999,0.4620809257030487,-0.48901569843292236,9.75517463684082,4.33349609375,0.48828125,-2.716064453125
0.5874999,0.40462008118629456,-0.4034229815006256,9.973047256469727,1.15966796875,-0.732421875,3.2958984375
0.5924999,0.3860650360584259,-0.5476736426353455,9.802460670471191,-5.9814453125,0.18310546875,-1.89208984375
0.5974999,0.47405192255973816,-0.4836287498474121,9.78989028930664,5.79833984375,0.30517578125,-1.617431640625
0.6024999,0.4058171808719635,-0.4100070297718048,9.980229377746582,-0.946044921875,-0.732421875,3.11279296875
0.6074999,0.3878606855869293,-0.518943190574646,9.706692695617676,-4.5166015625,0.9765625,-2.99072265625
0.6124999,0.43694180250167847,-0.37888240814208984,9.765350341796875,6.591796875,0.06103515625,-0.640869140625
0.6174999,0.3190273642539978,-0.33758243918418884,9.903017044067383,-3.265380859375,-0.640869140625,2.960205078125
0.6224999,0.39624038338661194,-0.30945056676864624,9.791686058044434,5.9814453125,-0.54931640625,0.457763671875
0.6274999,0.31364041566848755,-0.32680854201316833,9.877877235412598,-5.06591796875,-0.6103515625,2.01416015625
0.6324999,0.3531447649002075,-0.43035775423049927,9.642647743225098,-1.3427734375,0.79345703125,-3.753662109375
0.6374999,0.38965633511543274,-0.30047231912612915,9.82879638671875,5.340576171875,-0.885009765625,1.617431640625
0.6424999,0.37169981002807617,-0.44592007994651794,9.600150108337402,0.54931640625,0.396728515625,-3.84521484375
0.6474999,0.3932476341724396,-0.2932897210121155,9.82640266418457,4.33349609375,-0.8544921875,2.44140625
0.6524999,0.30047231912612915,-0.383670836687088,9.78989028930664,-5.859375,0.335693359375,0.30517578125
0.6574999,0.3998316824436188,-0.4578910768032074,9.68933391571045,2.44140625,0.3662109375,-3.47900390625
0.6624999,0.4082113802433014,-0.35913026332855225,9.95748519897461,3.265380859375,-1.15966796875,2.838134765625
0.6674999,0.3513490855693817,-0.48482584953308105,9.806650161743164,-6.4697265625,0.732421875,-0.6103515625
0.6724999,0.4429273009300232,-0.49380409717559814,9.716269493103027,4.058837890625,0.79345703125,-2.74658203125
0.6774999,0.35494041442871094,-0.4321534037590027,9.99100399017334,0.06103515625,-1.3427734375,3.11279296875
0.6824999,0.3447650372982025,-0.5937620401382446,9.747992515563965,-5.79833984375,0.091552734375,-2.593994140625
0.6874999,0.41539400815963745,-0.47225627303123474,9.768342971801758,5.584716796875,0.091552734375,-1.15966796875
0.6924999000000001,0.34416648745536804,-0.3968389332294464,9.931747436523438,-2.25830078125,-1.251220703125,3.204345703125
0.6974999000000001,0.3645172119140625,-0.5123591423034668,9.676764488220215,-4.669189453125,0.67138671875,-2.9296875
0.7024999000000001,0.4339490532875061,-0.375291109085083,9.756970405578613,6.011962890625,-0.1220703125,-0.396728515625
0.7074999,0.3447650372982025,-0.37888240814208984,9.868300437927246,-2.9296875,-1.15966796875,2.62451171875
0.7124999,0.39863458275794983,-0.4854243993759155,9.618705749511719,-2.655029296875,0.6103515625,-3.41796875
0.7174999,0.41778820753097534,-0.33099839091300964,9.75936508178711,6.378173828125,-0.457763671875,0.42724609375
0.7224999,0.32860419154167175,-0.3298012912273407,9.838972091674805,-4.94384765625,-0.54931640625,2.25830078125
0.7274999,0.30945056676864624,-0.3776853084564209,9.804255485534668,-4.974365234375,0.030517578125,1.190185546875
0.7324999,0.37229835987091064,-0.4926069974899292,9.592369079589844,0.8544921875,1.007080078125,-3.60107421875
0.7374999,0.40701428055763245,-0.32680854201316833,9.782109260559082,5.43212890625,-1.068115234375,1.983642578125
0.7424999,0.29568392038345337,-0.3621230125427246,9.755773544311523,-6.2255859375,-0.30517578125,0.640869140625
0.7474999,0.37229835987091064,-0.4106055796146393,9.643245697021484,1.678466796875,0.640869140625,-3.662109375
0.7524999,0.36332011222839355,-0.2890998423099518,9.926360130310059,3.5400390625,-0.91552734375,2.62451171875
0.7574999,0.304063618183136,-0.41958385705947876,9.830592155456543,-6.317138671875,-0.152587890625,0.030517578125
0.7624999,0.4016273319721222,-0.49320554733276367,9.727043151855469,3.173828125,0.213623046875,-3.143310546875
0.7674999,0.42616790533065796,-0.3908534348011017,9.939528465270996,2.0751953125,-1.15966796875,2.9296875
0.7724999,0.36152446269989014,-0.4884171485900879,9.782109260559082,-6.195068359375,0.06103515625,-0.946044921875
0.7774999,0.456095427274704,-0.47824180126190186,9.723451614379883,4.302978515625,-0.030517578125,-2.716064453125
0.7824999,0.34656068682670593,-0.4944026470184326,9.816825866699219,-6.195068359375,0.396728515625,-1.678466796875
0.7874999,0.43275195360183716,-0.4776432514190674,9.794678688049316,5.279541015625,0.030517578125,-2.288818359375
0.7924999,0.3705027103424072,-0.42676645517349243,10.013150215148926,0.42724609375,-1.28173828125,3.265380859375
0.7974999,0.3705027103424072,-0.5817909836769104,9.806650161743164,-5.615234375,0.54931640625,-2.105712890625
0.8024999,0.37888240814208984,-0.38965633511543274,9.955689430236816,-0.518798828125,-0.701904296875,2.99072265625
0.8074999,0.3669114112854004,-0.4776432514190674,9.68574333190918,-5.096435546875,0.762939453125,-2.593994140625
0.8124999,0.4129997789859772,-0.33698388934135437,9.764751434326172,6.103515625,0.244140625,-0.8544921875
0.8174999000000001,0.31543606519699097,-0.3058592677116394,9.904812812805176,-2.44140625,-0.54931640625,2.960205078125
0.8224999000000001,0.3411737382411957,-0.45489832758903503,9.695918083190918,-4.0283203125,0.732421875,-3.021240234375
0.8274999000000001,0.39384618401527405,-0.3621230125427246,9.789292335510254,5.950927734375,-0.213623046875,-0.274658203125
0.8324999000000001,0.31543606519699097,-0.37409400939941406,9.926959037780762,-3.143310546875,-0.9765625,2.3193359375
0.8374999,0.3926490843296051,-0.30226796865463257,9.849745750427246,5.43212890625,-0.48828125,1.190185546875
0.8424999,0.3256114423274994,-0.36332011222839355,9.885659217834473,-4.852294921875,-0.732421875,1.678466796875
0.8474999,0.3932476341724396,-0.5117605924606323,9.6618013381958,-0.48828125,0.701904296875,-3.60107421875
0.8524999,0.43514615297317505,-0.40043023228645325,9.806051254272461,5.31005859375,-0.9765625,1.46484375
0.8574999,0.35075053572654724,-0.4183867573738098,9.771934509277344,-5.126953125,-0.06103515625,0.946044921875
0.8624999,0.4141969084739685,-0.4908113479614258,9.578003883361816,0.579833984375,0.823974609375,-3.509521484375
0.8674999,0.4141969084739685,-0.4908113479614258,9.578003883361816,0.579833984375,0.823974609375,-3.509521484375
0.8724999,0.42616790533065796,-0.28550854325294495,9.793481826782227,4.852294921875,-0.54931640625,2.0751953125
0.8774999,0.383670836687088,-0.25438392162323,9.962273597717285,3.173828125,-0.48828125,1.28173828125
0.8824999,0.36332011222839355,-0.5913678407669067,9.867103576660156,-10.894775390625,1.15966796875,-6.591796875
0.8874999,0.36332011222839355,-0.5913678407669067,9.867103576660156,-10.894775390625,1.15966796875,-6.591796875
0.8924999,0.41539400815963745,-0.7338228225708008,9.778518676757812,3.90625,2.0751953125,-3.2958984375
0.8974999,0.40043023228645325,-0.8265981078147888,9.983222961425781,5.43212890625,1.708984375,8.270263671875
0.9024999,0.24241292476654053,-0.8505401611328125,9.756970405578613,-4.39453125,-0.152587890625,2.01416015625
0.9074999,0.26156654953956604,-0.790086567401886,9.621698379516602,5.92041015625,-1.861572265625,-4.8828125
0.9124999,0.2663549482822418,-0.39205053448677063,9.749788284301758,3.72314453125,-2.777099609375,1.5869140625
0.9174999,0.27473464608192444,-0.33937808871269226,9.647436141967773,-6.744384765625,-0.91552734375,0.30517578125
0.9224999,0.4381389021873474,-0.1412578970193863,9.6618013381958,3.204345703125,0.244140625,-1.40380859375
0.9274999,0.42377370595932007,-0.05147533491253853,9.928754806518555,-0.9765625,-1.983642578125,2.471923828125
0.9324999,0.38905778527259827,-0.22086510062217712,9.847949981689453,-8.1787109375,-0.457763671875,-2.5634765625
0.9374999,0.3800795078277588,-0.5141547918319702,10.01075553894043,1.8310546875,-1.64794921875,3.2958984375
0.9424999000000001,0.38067805767059326,-0.8355764150619507,9.786299705505371,-4.69970703125,0.1220703125,-1.556396484375
0.9474999000000001,0.46507367491722107,-0.7050924301147461,9.7605619430542,6.65283203125,0.8544921875,-1.3427734375
0.9524999000000001,0.4231751561164856,-0.5518634915351868,9.93354320526123,-0.457763671875,0.18310546875,3.0517578125
0.9574999000000001,0.4183867573738098,-0.4866214990615845,9.678560256958008,-5.06591796875,1.46484375,-2.532958984375
0.9624999,0.34356793761253357,-0.2561795711517334,9.895833969116211,-1.77001953125,0.06103515625,2.655029296875
0.9674999,0.34356793761253357,-0.2561795711517334,9.895833969116211,-1.77001953125,0.06103515625,2.655029296875
0.9724999,0.3106476664543152,-0.42018240690231323,9.677363395690918,-4.2724609375,0.54931640625,-2.777099609375
0.9774999,0.3214215636253357,-0.42676645517349243,9.754576683044434,6.439208984375,-0.396728515625,-0.335693359375
0.9824999,0.2322375625371933,-0.436343252658844,9.905410766601562,-1.983642578125,-1.983642578125,2.532958984375
0.9874999,0.28550854325294495,-0.6117185354232788,9.636661529541016,-2.99072265625,-0.335693359375,-3.143310546875
0.9924999,0.3705027103424072,-0.4381389021873474,9.773131370544434,6.439208984375,-0.762939453125,0.030517578125
0.9974999,0.31364041566848755,-0.37229835987091064,9.906607627868652,-4.150390625,-0.6103515625,1.861572265625
1.0024999,0.31364041566848755,-0.37229835987091064,9.906607627868652,-4.150390625,-0.6103515625,1.861572265625
1.0074999000000002,0.38486793637275696,-0.47465047240257263,9.703699111938477,-0.762939453125,0.9765625,-3.7841796875
1.0124999000000001,0.4231751561164856,-0.35673606395721436,9.848548889160156,5.37109375,0.091552734375,1.28173828125
1.0174999000000002,0.3531447649002075,-0.3866635859012604,9.819818496704102,-5.340576171875,-0.1220703125,1.46484375
1.0224999000000001,0.41718965768814087,-0.4950011968612671,9.59715747833252,-0.457763671875,0.54931640625,-3.692626953125
1.0274999,0.4381389021873474,-0.3669114112854004,9.749788284301758,5.096435546875,-0.823974609375,1.373291015625
1.0324999000000001,0.33997663855552673,-0.3734954595565796,9.724648475646973,-5.55419921875,-0.9765625,1.220703125
1.0374999,0.4118026793003082,-0.26755204796791077,9.818022727966309,5.157470703125,-1.03759765625,1.922607421875
1.0424999000000001,0.32022446393966675,-0.32381579279899597,9.831789016723633,-5.584716796875,-0.457763671875,0.457763671875
1.0474999,0.3884592354297638,-0.3878606855869293,9.70429801940918,1.495361328125,0.701904296875,-3.35693359375
1.0524999000000002,0.40701428055763245,-0.27712884545326233,10.001777648925781,3.72314453125,-1.007080078125,2.044677734375
1.0574999,0.33039984107017517,-0.39145198464393616,9.945513725280762,-6.04248046875,-0.18310546875,0.06103515625
1.0624999000000002,0.4040215313434601,-0.5159504413604736,9.815628051757812,2.50244140625,0.30517578125,-3.41796875
1.0674999,0.406415730714798,-0.4489128291606903,10.040084838867188,4.08935546875,-1.220703125,2.44140625
1.0724999000000002,0.33518823981285095,-0.5524620413780212,9.871891975402832,-6.591796875,0.1220703125,0
1.0774999,0.41778820753097534,-0.6218938827514648,9.708487510681152,2.593994140625,0.885009765625,-2.960205078125
1.0824999000000002,0.4183867573738098,-0.46567222476005554,9.884461402893066,2.685546875,-0.457763671875,2.899169921875
1.0874999,0.37828385829925537,-0.5315127968788147,9.750985145568848,-6.53076171875,0.1220703125,-0.396728515625
1.0924999000000002,0.4507084786891937,-0.5069721937179565,9.651026725769043,3.41796875,0.6103515625,-2.899169921875
1.0974999,0.35254621505737305,-0.40222588181495667,9.726444244384766,-6.40869140625,-0.274658203125,-0.885009765625
1.1024999000000002,0.40701428055763245,-0.363918662071228,9.677961349487305,3.631591796875,0.54931640625,-2.471923828125
1.1074999,0.353743314743042,-0.25258827209472656,9.899425506591797,1.03759765625,-0.6103515625,3.35693359375
1.1124999000000002,0.28969839215278625,-0.40462008118629456,9.818621635437012,-6.195068359375,0,-1.251220703125
1.1174999,0.3627215623855591,-0.4189853072166443,9.786897659301758,4.180908203125,0,-2.593994140625
1.1224999000000002,0.3321954905986786,-0.3776853084564209,10.02571964263916,0.946044921875,-0.946044921875,3.173828125
1.1274999,0.3076549172401428,-0.5452794432640076,9.889249801635742,-6.16455078125,0.946044921875,-1.190185546875
1.1324999000000002,0.40043023228645325,-0.5590460896492004,9.815030097961426,4.7607421875,0.518798828125,-2.01416015625
1.1374999000000001,0.36750996112823486,-0.4842272996902466,10.011953353881836,1.0986328125,-1.708984375,2.716064453125
1.1424999000000002,0.3495534360408783,-0.6087257862091064,9.802460670471191,-5.4931640625,0.823974609375,-1.800537109375
1.1474999000000001,0.4387374520301819,-0.5668272376060486,9.750386238098145,5.218505859375,0.579833984375,-1.64794921875
1.1524999000000002,0.3944447338581085,-0.45250412821769714,9.942521095275879,0.54931640625,-1.556396484375,2.86865234375
1.1574999000000001,0.40462008118629456,-0.32620999217033386,9.905410766601562,0.030517578125,-1.0986328125,3.0517578125
1.1624999,0.3884592354297638,-0.41958385705947876,9.667187690734863,-4.8828125,0.79345703125,-2.349853515625
1.1674999000000001,0.45250412821769714,-0.30286651849746704,9.712079048156738,5.79833984375,0.030517578125,-1.434326171875
1.1724999,0.37169981002807617,-0.2579752206802368,9.867103576660156,-0.885009765625,-0.823974609375,2.99072265625
1.1774999000000002,0.3495534360408783,-0.3902548849582672,9.640851974487305,-4.150390625,0.42724609375,-2.38037109375
1.1824999,0.40701428055763245,-0.3274070918560028,9.727641105651855,6.195068359375,-0.518798828125,-1.0986328125
1.1874999000000002,0.32680854201316833,-0.32620999217033386,9.909601211547852,-1.8310546875,-0.91552734375,2.86865234375
1.1924999,0.33698388934135437,-0.4752490520477295,9.712079048156738,-4.21142578125,0.79345703125,-2.74658203125
1.1974999000000002,0.4076128304004669,-0.4213795065879822,9.843161582946777,6.134033203125,-0.06103515625,-0.762939453125
1.2024999,0.3603273630142212,-0.5811924338340759,9.766547203063965,-4.180908203125,0.701904296875,-3.0517578125
1.2074999000000002,0.34596213698387146,-0.4908113479614258,9.952696800231934,-1.861572265625,-0.946044921875,2.838134765625
1.2124999,0.37469255924224854,-0.5991489887237549,9.6618013381958,-3.753662109375,0.732421875,-2.838134765625
1.2174999000000002,0.4129997789859772,-0.4704606235027313,9.740211486816406,5.615234375,-0.1220703125,-0.3662109375
1.2224999,0.3579331636428833,-0.45669397711753845,9.871891975402832,-2.899169921875,-0.244140625,2.777099609375
1.2274999000000002,0.40043023228645325,-0.5398924946784973,9.616311073303223,-3.631591796875,1.0986328125,-2.9296875
1.2324999,0.4489128291606903,-0.4124012291431427,9.756970405578613,5.767822265625,0.1220703125,-0.06103515625
1.2374999000000002,0.38965633511543274,-0.3944447338581085,9.899425506591797,-3.5400390625,-0.42724609375,2.471923828125
1.2424999,0.43754035234451294,-0.4836287498474121,9.66299819946289,-3.35693359375,0.885009765625,-3.204345703125
1.2474999000000002,0.7218518257141113,-0.25977087020874023,10.005369186401367,6.622314453125,0.579833984375,-0.67138671875
1.2524999,1.2988544702529907,-0.2579752206802368,10.466252326965332,7.354736328125,13.3056640625,-12.908935546875
1.2574999000000002,2.6868927478790283,-0.2801215946674347,10.763731956481934,20.5078125,39.276123046875,-40.0390625
1.2624999000000001,4.324526786804199,-0.21128830313682556,10.873865127563477,36.865234375,47.30224609375,-77.606201171875
1.2674999000000002,-0.23104046285152435,-0.6308721303939819,8.18996524810791,30.059814453125,43.8232421875,-70.343017578125
1.2724999000000001,-2.9514522552490234,-0.6123170852661133,9.255983352661133,45.7763671875,51.910400390625,-38.238525390625
1.2774999000000002,-4.833893299102783,-0.812831461429596,10.480019569396973,13.092041015625,42.05322265625,-14.068603515625
1.2824999000000001,-4.931457042694092,-0.8008604645729065,9.747992515563965,-0.8544921875,-25.20751953125,10.345458984375
1.2874999,-4.110245704650879,-0.6368576288223267,8.552088737487793,-6.561279296875,-44.73876953125,3.0517578125
1.2924999000000001,-3.311779499053955,-0.14185644686222076,8.049904823303223,-11.260986328125,-54.99267578125,4.608154296875
1.2974999,-2.561795711517334,0.12868833541870117,8.320449829101562,-24.566650390625,-63.629150390625,5.67626953125
1.3024999000000002,-0.7140706777572632,0.5991489887237549,9.991601943969727,-25.604248046875,-68.023681640625,11.077880859375
1.3074999,0.21308395266532898,0.49140989780426025,10.58656120300293,-34.271240234375,-62.80517578125,13.36669921875
1.3124999000000002,1.1653777360916138,0.0999579206109047,10.568604469299316,-24.993896484375,-53.619384765625,9.27734375
1.3174999,1.9889830350875854,-0.19812019169330597,10.428544044494629,-17.303466796875,-42.8466796875,10.986328125
1.3224999000000002,2.5282769203186035,-0.706289529800415,10.152013778686523,-22.674560546875,-32.2265625,6.65283203125
1.3274999,2.9909565448760986,-1.2892776727676392,9.843161582946777,-12.451171875,-18.768310546875,-3.23486328125
1.3324999000000002,3.2309751510620117,-1.4544775485992432,9.911396026611328,0.06103515625,-6.317138671875,-2.3193359375
1.3374999,3.1441853046417236,-1.6867151260375977,9.90241813659668,-2.532958984375,7.26318359375,-2.197265625
1.3424999000000002,2.9257144927978516,-1.9015947580337524,9.77791976928711,10.040283203125,18.096923828125,-4.730224609375
1.3474999,2.5055320262908936,-1.5436615943908691,9.900622367858887,18.280029296875,23.468017578125,1.220703125
1.3524999000000002,1.8339585065841675,-1.3922282457351685,9.829395294189453,9.368896484375,26.67236328125,-0.30517578125
1.3574999,1.2617442607879639,-1.0193313360214233,9.696516990661621,15.167236328125,26.67236328125,-5.615234375
1.3624999000000002,-0.243011474609375,0.0454898327589035,9.607931137084961,6.4697265625,13.641357421875,-2.410888671875
1.3674999,-0.5021837949752808,0.31364041566848755,9.75637149810791,6.2255859375,6.500244140625,2.99072265625
1.3724999000000002,-0.7410054206848145,0.2346317619085312,9.663596153259277,-5.67626953125,0.732421875,1.8310546875
1.3774999,-0.702099621295929,0.061052143573760986,9.563638687133789,-1.3427734375,-5.157470703125,-2.288818359375
1.3824999000000002,-0.5829881429672241,0.0802057534456253,9.734824180603027,-1.0986328125,-10.3759765625,2.74658203125
1.3874999000000001,-0.4279635548591614,-0.10354922711849213,9.707290649414062,-11.16943359375,-12.63427734375,1.15966796875
1.3924999000000002,-0.07481880486011505,-0.3411737382411957,9.64564037322998,-4.82177734375,-13.336181640625,-2.899169921875
1.3974999000000001,0.2783259451389313,-0.32860419154167175,9.888052940368652,-2.0751953125,-13.61083984375,1.678466796875
1.4024999000000002,0.5219359993934631,-0.49978959560394287,9.834183692932129,-11.077880859375,-10.1318359375,0.213623046875
1.4074999000000001,0.829590916633606,-0.74040687084198,9.768941879272461,-2.166748046875,-7.110595703125,-3.143310546875
1.4124999,1.0229226350784302,-0.6883329749107361,9.968857765197754,1.678466796875,-4.974365234375,1.678466796875
1.4174999000000001,0.8349778652191162,-0.8032546639442444,9.737217903137207,5.615234375,6.134033203125,-2.838134765625
1.4224999,0.6769605278968811,-0.5817909836769104,9.897629737854004,5.31005859375,4.45556640625,2.3193359375
1.4274999000000002,0.46148237586021423,-0.5015852451324463,9.73542308807373,-3.5400390625,4.150390625,-0.18310546875
1.4324999,0.39145198464393616,-0.4626794755458832,9.650428771972656,3.753662109375,2.3193359375,-3.082275390625
1.4374999000000002,0.3076549172401428,-0.28131869435310364,9.814431190490723,3.11279296875,-0.54931640625,2.25830078125
1.4424999,0.21547815203666687,-0.3363853394985199,9.709685325622559,-6.805419921875,-0.79345703125,-0.152587890625
1.4474999000000002,0.29209262132644653,-0.4273650050163269,9.636661529541016,1.52587890625,-1.983642578125,-2.99072265625
1.4524999,0.34835633635520935,-0.3256114423274994,9.837775230407715,1.15966796875,-3.72314453125,2.349853515625
1.4574999000000002,0.38307225704193115,-0.4902127981185913,9.716269493103027,-7.781982421875,-2.62451171875,-0.213623046875
1.4624999,0.7511807680130005,-0.6278793811798096,9.636661529541016,3.509521484375,0.48828125,-2.777099609375
1.4674999000000002,0.7523778676986694,-0.49559974670410156,9.832986831665039,3.448486328125,0.396728515625,2.593994140625
1.4724999,0.6745663285255432,-0.5680243372917175,9.734824180603027,-5.096435546875,2.105712890625,-0.54931640625
1.4774999000000002,0.6997054219245911,-0.5901707410812378,9.67077922821045,4.638671875,1.861572265625,-2.5634765625
1.4824999,0.6422445774078369,-0.414795458316803,9.876680374145508,3.082275390625,0.8544921875,2.899169921875
1.4874999000000002,0.5309142470359802,-0.4944026470184326,9.75517463684082,-5.340576171875,1.983642578125,-0.579833984375
1.4924999,0.5434837937355042,-0.4770447015762329,9.68274974822998,3.96728515625,0.8544921875,-2.899169921875
1.4974999000000002,0.49140989780426025,-0.32441434264183044,9.881468772888184,1.953125,-0.79345703125,2.655029296875
1.5024999,0.49140989780426025,-0.32441434264183044,9.881468772888184,1.953125,-0.79345703125,2.655029296875
1.5074999000000002,0.4040215313434601,-0.42856210470199585,9.743802070617676,-6.04248046875,-0.030517578125,-0.518798828125
1.5124999000000001,0.43933600187301636,-0.35015198588371277,9.865906715393066,1.15966796875,-2.227783203125,2.5634765625
1.5174999000000002,0.43933600187301636,-0.35015198588371277,9.865906715393066,1.15966796875,-2.227783203125,2.5634765625
1.5224999000000001,0.406415730714798,-0.47405192255973816,9.764153480529785,-6.4697265625,-0.762939453125,-0.9765625
1.5274999000000002,0.5057750940322876,-0.5015852451324463,9.720458984375,3.2958984375,-1.03759765625,-2.471923828125
1.5324999000000001,0.5321113467216492,-0.3908534348011017,9.93354320526123,1.46484375,-1.800537109375,2.655029296875
1.5374999000000003,0.5111620426177979,-0.5039794445037842,9.819818496704102,-6.40869140625,0.18310546875,-0.885009765625
1.5424999000000001,0.6003460884094238,-0.5566518902778625,9.761758804321289,3.7841796875,-0.1220703125,-2.349853515625
1.5474999,0.5889736413955688,-0.43095630407333374,9.952696800231934,1.495361328125,-0.91552734375,2.685546875
1.5524999000000002,0.5386953949928284,-0.5764040350914001,9.81024169921875,-5.584716796875,0.8544921875,-1.0986328125
1.5574999,0.6003460884094238,-0.5919663906097412,9.752182006835938,4.730224609375,0,-2.532958984375
1.5624999000000002,0.5740098357200623,-0.45848962664604187,9.928754806518555,1.129150390625,-0.244140625,2.777099609375
1.5674999,0.5069721937179565,-0.5949591398239136,9.786299705505371,-5.706787109375,1.129150390625,-1.03759765625
1.5724999000000002,0.5620388388633728,-0.5716156363487244,9.734225273132324,4.21142578125,0.732421875,-2.349853515625
1.5774999,0.4423287510871887,-0.5793967843055725,9.790489196777344,-5.828857421875,1.03759765625,-1.03759765625
1.5824999000000002,0.4423287510871887,-0.5793967843055725,9.790489196777344,-5.828857421875,1.03759765625,-1.03759765625
1.5874999,0.5081692934036255,-0.5716156363487244,9.740809440612793,4.39453125,0.48828125,-2.25830078125
1.5924999000000002,0.47405192255973816,-0.46567222476005554,9.925163269042969,0.91552734375,-1.007080078125,2.716064453125
1.5974999,0.4315548539161682,-0.5841852426528931,9.789292335510254,-5.523681640625,0.457763671875,-1.220703125
1.6024999000000002,0.4710591733455658,-0.4770447015762329,9.938331604003906,1.220703125,-1.03759765625,2.62451171875
1.6074999,0.4710591733455658,-0.4770447015762329,9.938331604003906,1.220703125,-1.03759765625,2.62451171875
1.6124999000000002,0.4405331015586853,-0.6087257862091064,9.81143856048584,-5.67626953125,0.48828125,-1.28173828125
1.6174999,0.5195417404174805,-0.6057330369949341,9.77672290802002,4.57763671875,-0.152587890625,-2.0751953125
1.6224999000000002,0.4985924959182739,-0.48722004890441895,9.961674690246582,1.190185546875,-1.3427734375,2.74658203125
1.6274999,0.5518634915351868,-0.6021417379379272,9.764751434326172,4.302978515625,-0.396728515625,-2.166748046875
1.6324999000000002,0.5333084464073181,-0.4842272996902466,9.929352760314941,0.701904296875,-1.46484375,2.716064453125
1.6374999000000001,0.5051765441894531,-0.6123170852661133,9.804255485534668,-5.55419921875,0.457763671875,-1.28173828125
1.6424999000000002,0.5758054852485657,-0.619499683380127,9.754576683044434,4.82177734375,0,-2.197265625
1.6474999000000001,0.5452794432640076,-0.4950011968612671,9.950302124023438,1.28173828125,-0.9765625,2.655029296875
1.6524999000000002,0.5159504413604736,-0.6392518281936646,9.835380554199219,-5.4931640625,0.823974609375,-1.434326171875
1.6574999000000001,0.5728127360343933,-0.6147112846374512,9.75637149810791,5.035400390625,0.244140625,-2.0751953125
1.6624999000000003,0.5333084464073181,-0.4991910457611084,9.938331604003906,1.251220703125,-0.823974609375,2.655029296875
1.6674999000000001,0.497395396232605,-0.6332663297653198,9.779715538024902,-5.523681640625,1.068115234375,-1.40380859375
1.6724999,0.5506663918495178,-0.6027402877807617,9.713874816894531,4.94384765625,0.640869140625,-2.01416015625
1.6774999000000002,0.5219359993934631,-0.5057750940322876,9.92097282409668,1.220703125,-0.274658203125,2.8076171875
1.6824999,0.5291185975074768,-0.4902127981185913,9.97484302520752,0.518798828125,-1.3427734375,2.471923828125
1.6874999000000002,0.5021837949752808,-0.6117185354232788,9.813234329223633,-5.340576171875,0.335693359375,-1.52587890625
1.6924999,0.5560533404350281,-0.5901707410812378,9.739612579345703,4.8828125,-0.42724609375,-2.01416015625
1.6974999000000002,0.5321113467216492,-0.5063736438751221,9.931747436523438,1.0986328125,-1.28173828125,2.777099609375
1.7024999,0.5081692934036255,-0.586579442024231,9.789292335510254,-5.79833984375,0.79345703125,-1.495361328125
1.7074999000000002,0.5704185366630554,-0.6266822814941406,9.739013671875,4.638671875,0.213623046875,-2.166748046875
1.7124999,0.5440823435783386,-0.49140989780426025,9.952696800231934,1.007080078125,-0.946044921875,2.685546875
1.7174999000000002,0.5045779943466187,-0.6613982319831848,9.824606895446777,-6.011962890625,0.67138671875,-1.3427734375
1.7224999,0.5279214978218079,-0.49320554733276367,9.944915771484375,1.007080078125,-1.190185546875,2.50244140625
1.7274999000000002,0.49799394607543945,-0.6087257862091064,9.818621635437012,-5.615234375,0.885009765625,-0.9765625
1.7324999,0.5482721924781799,-0.5883750915527344,9.774927139282227,4.608154296875,0.06103515625,-1.739501953125
1.7374999000000002,0.5195417404174805,-0.49559974670410156,9.972448348999023,0.54931640625,-1.0986328125,2.777099609375
1.7424999,0.5488707423210144,-0.38905778527259827,9.834781646728516,-5.0048828125,0.91552734375,-1.64794921875
1.7474999000000002,0.7990648150444031,-0.6099228858947754,10.046070098876953,7.965087890625,3.692626953125,-9.21630859375
1.7524999,1.0121487379074097,-0.5554547905921936,10.07779312133789,9.429931640625,10.68115234375,-11.53564453125
1.7574999000000002,1.447893500328064,-1.0743980407714844,10.488997459411621,15.899658203125,24.810791015625,-18.585205078125
1.7624999000000001,2.871246337890625,-2.956240653991699,10.24538803100586,80.841064453125,83.55712890625,-18.00537109375
1.7674999000000002,2.6390087604522705,-3.599682331085205,10.133459091186523,138.7939453125,99.395751953125,4.2724609375
1.7724999000000001,1.625662922859192,-4.5160627365112305,10.425551414489746,160.736083984375,97.320556640625,27.435302734375
1.7774999000000002,0.19213469326496124,-4.823718070983887,11.043853759765625,191.436767578125,89.111328125,40.924072265625
1.7824999000000001,-1.3527239561080933,-5.0918684005737305,12.108076095581055,218.994140625,71.502685546875,54.01611328125
1.7874999000000003,-2.84790301322937,-4.715978622436523,12.591705322265625,228.6376953125,46.142578125,69.4580078125
1.7924999000000001,-3.885190725326538,-4.443638324737549,12.377424240112305,250.335693359375,18.4326171875,73.73046875
1.7974999,-4.468777656555176,-3.887584924697876,11.772290229797363,282.989501953125,-5.2490234375,83.160400390625
1.8024999000000002,-4.486135482788086,-2.911947727203369,10.63504409790039,306.640625,-18.402099609375,92.071533203125
1.8074999,-4.228758811950684,-2.3930046558380127,9.63187313079834,330.99365234375,-37.04833984375,89.35546875
1.8124999000000002,-3.641580820083618,-1.1426327228546143,9.079411506652832,338.775634765625,-55.572509765625,93.231201171875
1.8174999,-2.8131868839263916,-0.35733461380004883,8.772953987121582,327.667236328125,-62.164306640625,99.884033203125
1.8224999000000002,0.5303156971931458,3.551798105239868,8.346187591552734,291.595458984375,-90.545654296875,70.343017578125
1.8274999,0.9361328482627869,4.378994941711426,8.020575523376465,276.06201171875,-96.8017578125,67.474365234375
1.8324999000000002,1.0911574363708496,4.879383087158203,7.293336868286133,245.361328125,-102.752685546875,62.835693359375
1.8374999,1.2096704244613647,5.102043628692627,6.497863292694092,225.89111328125,-108.88671875,55.60302734375
1.8424999000000002,1.2360066175460815,5.381567001342773,5.837662220001221,202.1484375,-112.518310546875,58.77685546875
1.8474999,1.1115081310272217,5.395932197570801,5.0697221755981445,170.562744140625,-111.114501953125,58.746337890625
1.8524999000000002,1.1593921184539795,5.342062473297119,4.578312397003174,154.388427734375,-107.574462890625,56.182861328125
1.8574999,1.138442873954773,5.598242282867432,4.351461410522461,132.659912109375,-101.50146484375,62.347412109375
1.8624999000000002,1.1725603342056274,5.810129165649414,4.264073371887207,102.4169921875,-92.987060546875,62.19482421875
1.8674999,1.4981716871261597,6.228515625,4.441244125366211,86.761474609375,-80.322265625,60.577392578125
1.8724999000000002,3.2585084438323975,9.352350234985352,6.718728542327881,-38.909912109375,-36.163330078125,52.093505859375
1.8774999,3.4081461429595947,9.138069152832031,6.512827396392822,-44.0673828125,-26.611328125,46.56982421875
1.8824999000000002,3.466205596923828,8.770559310913086,6.441000938415527,-64.971923828125,-22.88818359375,46.539306640625
1.8874999000000001,3.3883938789367676,7.91283655166626,5.992686748504639,-94.879150390625,-14.739990234375,40.46630859375
1.8924999000000002,3.4380736351013184,7.083844184875488,5.792770862579346,-103.179931640625,-2.593994140625,39.215087890625
1.8974999000000001,3.3255462646484375,6.536170482635498,5.886145114898682,-127.01416015625,9.33837890625,42.755126953125
1.9024999000000002,3.244741916656494,5.9106855392456055,5.740696907043457,-149.7802734375,18.1884765625,38.787841796875
1.9074999000000001,3.2956185340881348,5.701791286468506,5.95677375793457,-157.04345703125,29.693603515625,33.721923828125
1.9124999000000003,3.2615013122558594,5.623979568481445,6.29016637802124,-179.840087890625,38.787841796875,35.675048828125
1.9174999000000001,3.154959201812744,5.292382717132568,6.469132900238037,-209.228515625,48.828125,19.378662109375
1.9224999,3.1244332790374756,4.686649799346924,6.73069953918457,-233.09326171875,54.74853515625,16.632080078125
1.9274999000000002,3.1286230087280273,3.621230125427246,6.598419666290283,-244.720458984375,72.479248046875,19.378662109375
1.9324999,3.2555158138275146,2.6886885166168213,6.873154640197754,-234.527587890625,99.91455078125,34.149169921875
1.9374999000000002,3.3207578659057617,1.3563152551651,7.423820972442627,-237.12158203125,124.0234375,41.6259765625
1.9424999,3.3016040325164795,0.5662286877632141,7.865550994873047,-222.7783203125,149.200439453125,41.93115234375
1.9474999000000002,3.2968156337738037,-0.046088382601737976,8.816049575805664,-201.47705078125,169.464111328125,49.835205078125
1.9524999,2.981379747390747,-0.16998831927776337,9.676166534423828,-195.953369140625,173.76708984375,51.055908203125
1.9574999000000002,2.5252842903137207,-0.31364041566848755,10.0765962600708,-184.722900390625,172.821044921875,36.7431640625
1.9624999,1.9518729448318481,0.21009120345115662,10.517727851867676,-173.095703125,163.02490234375,23.4375
1.9674999000000002,1.1276689767837524,0.49380409717559814,10.395025253295898,-186.614990234375,142.4560546875,2.99072265625
1.9724999,0.5829881429672241,0.718859076499939,10.023923873901367,-188.079833984375,121.063232421875,-22.3388671875
1.9774999000000002,0.5440823435783386,2.807800054550171,6.6397199630737305,-304.962158203125,27.618408203125,-142.303466796875
1.9824999,1.0115501880645752,2.0853497982025146,6.844424247741699,-324.462890625,39.6728515625,-127.777099609375
1.9874999000000002,-0.17956513166427612,0.26156654953956604,8.276755332946777,-277.03857421875,21.453857421875,-108.45947265625
1.9924999,-1.5616180896759033,-2.6653449535369873,10.62127685546875,-32.562255859375,-99.4873046875,-77.117919921875
1.9974999000000002,-3.183689594268799,-5.542576789855957,12.067974090576172,23.406982421875,-58.197021484375,-61.126708984375
2.0024999,-2.9418752193450928,-9.339181900024414,9.387664794921875,49.4384765625,-9.918212890625,-71.4111328125
2.0074999,-1.039083480834961,-8.60236644744873,6.244078159332275,45.7763671875,-1.190185546875,-67.2607421875
2.0124999000000003,1.911171555519104,-4.926668643951416,3.891774892807007,-34.423828125,14.0380859375,-27.862548828125
2.0174999000000002,2.0620062351226807,-2.5911247730255127,5.736507415771484,-36.956787109375,13.61083984375,-6.04248046875
2.0224999,1.4227544069290161,-0.7457938194274902,8.543109893798828,2.349853515625,11.749267578125,-0.640869140625
2.0274999,0.4644751250743866,0.5692214369773865,11.1474027633667,18.61572265625,11.077880859375,4.058837890625
2.0324999000000004,-0.5895721912384033,1.1306617259979248,12.78384017944336,-0.946044921875,1.007080078125,11.138916015625
2.0374999000000003,-1.0977414846420288,0.7236474752426147,12.368446350097656,9.429931640625,-8.85009765625,5.43212890625
2.0424999,-1.0450690984725952,0.3794809579849243,11.064803123474121,11.1083984375,-9.8876953125,3.47900390625
2.0474999,-0.790086567401886,-0.05386953800916672,9.73661994934082,-12.75634765625,-15.5029296875,7.232666015625
2.0524999,-0.19393034279346466,-0.24600422382354736,8.943540573120117,-9.674072265625,-10.25390625,0.6103515625
2.0574999000000003,0.34596213698387146,-0.11312603205442429,9.117119789123535,-2.0751953125,-4.82177734375,1.373291015625
2.0624999,0.628477931022644,-0.03711012750864029,9.61571216583252,-11.41357421875,-10.894775390625,3.387451171875
2.0674999,0.872686505317688,-0.29867666959762573,9.707290649414062,-4.150390625,-6.011962890625,-3.0517578125
2.0724999,0.861314058303833,-0.6392518281936646,9.841964721679688,-7.904052734375,-5.615234375,-0.640869140625
2.0774999000000003,0.9091981053352356,-0.8948329091072083,9.608530044555664,1.28173828125,-0.762939453125,-3.509521484375
2.0824999,0.9552865028381348,-0.6853402256965637,9.883264541625977,6.40869140625,1.007080078125,2.25830078125
2.0874999,0.8678981065750122,-0.6925228238105774,9.86889934539795,-4.150390625,4.486083984375,0.54931640625
2.0924999,0.862511157989502,-0.6853402256965637,9.785101890563965,4.547119140625,5.950927734375,-3.47900390625
2.0974999000000003,0.7565677165985107,-0.4554968774318695,9.987412452697754,4.913330078125,4.425048828125,1.46484375
2.1024999,0.5207388401031494,-0.5069721937179565,9.838373184204102,-5.157470703125,4.791259765625,-0.640869140625
2.1074999,0.444722980260849,-0.5817909836769104,9.733028411865234,5.096435546875,3.96728515625,-2.655029296875
2.1124999,0.3298012912273407,-0.3800795078277588,9.91738224029541,3.387451171875,0.946044921875,3.326416015625
2.1174999000000003,0.19812019169330597,-0.5261258482933044,9.745597839355469,-5.279541015625,0.701904296875,-0.091552734375
2.1224999,0.25258827209472656,-0.4537012279033661,9.677961349487305,4.730224609375,-0.42724609375,-1.64794921875
2.1274999,0.25258827209472656,-0.4537012279033661,9.677961349487305,4.730224609375,-0.42724609375,-1.64794921875
2.1324999,0.20111294090747833,-0.3818751573562622,9.770736694335938,-7.904052734375,-2.8076171875,-0.946044921875
2.1374999000000003,0.35015198588371277,-0.38965633511543274,9.762357711791992,3.0517578125,-3.662109375,-1.800537109375
2.1424999000000002,0.38307225704193115,-0.3034650683403015,9.967061996459961,-2.62451171875,-4.730224609375,3.021240234375
2.1474999,0.46327802538871765,-0.5764040350914001,9.728838920593262,-7.293701171875,-2.593994140625,-1.861572265625
2.1524999,0.6177040338516235,-0.518943190574646,9.718663215637207,4.8828125,-2.25830078125,-1.64794921875
2.1574999000000004,0.6123170852661133,-0.5207388401031494,9.907805442810059,-1.708984375,-2.838134765625,2.471923828125
2.1624999000000003,0.6733692288398743,-0.5602431893348694,9.77672290802002,6.4697265625,0.152587890625,-0.823974609375
2.1674999,0.6733692288398743,-0.5602431893348694,9.77672290802002,6.4697265625,0.152587890625,-0.823974609375
2.1724999,0.5817909836769104,-0.518943190574646,9.952696800231934,-2.166748046875,-0.30517578125,2.38037109375
2.1774999000000004,0.5764040350914001,-0.6590040326118469,9.63067626953125,-3.265380859375,2.01416015625,-3.143310546875
2.1824999000000003,0.5979518890380859,-0.49320554733276367,9.762357711791992,7.293701171875,0.885009765625,-0.244140625
2.1874999,0.5003881454467773,-0.4471171796321869,9.86650562286377,-2.8076171875,0.244140625,2.410888671875
2.1924999,0.42437225580215454,-0.44173020124435425,9.673771858215332,-1.8310546875,0.244140625,-3.265380859375
2.1974999,0.4405331015586853,-0.304063618183136,9.86889934539795,5.18798828125,-1.28173828125,0.8544921875
2.2024999000000003,0.40222588181495667,-0.35434186458587646,9.926360130310059,-6.28662109375,-1.28173828125,1.40380859375
2.2074999,0.47824180126190186,-0.5261258482933044,9.683947563171387,-0.518798828125,0.54931640625,-3.326416015625
2.2124999,0.547075092792511,-0.39863458275794983,9.853935241699219,5.7373046875,-1.220703125,1.3427734375
2.2174999,0.4908113479614258,-0.46148237586021423,9.819219589233398,-6.40869140625,-0.274658203125,1.129150390625
2.2224999000000003,0.5710170865058899,-0.578798234462738,9.599552154541016,0.54931640625,1.373291015625,-3.387451171875
2.2274999,0.5979518890380859,-0.3860650360584259,9.831191062927246,4.45556640625,-0.457763671875,1.708984375
2.2324999,0.4985924959182739,-0.406415730714798,9.797073364257812,-6.317138671875,0.213623046875,0.67138671875
2.2374999,0.5285200476646423,-0.5105634927749634,9.655217170715332,2.01416015625,1.77001953125,-3.23486328125
2.2424999000000003,0.3878606855869293,-0.5033808946609497,9.819219589233398,-5.92041015625,0.579833984375,0.091552734375
2.2474999,0.4537012279033661,-0.5764040350914001,9.690531730651855,3.387451171875,0.91552734375,-3.021240234375
2.2524999,0.46746787428855896,-0.4602852761745453,9.905410766601562,2.777099609375,-0.732421875,2.8076171875
2.2574999,0.41539400815963745,-0.5009866952896118,9.718663215637207,-6.591796875,0.457763671875,-0.06103515625
2.2624999000000003,0.5141547918319702,-0.5279214978218079,9.61212158203125,3.509521484375,0.244140625,-2.960205078125
2.2674999000000002,0.5129576921463013,-0.33758243918418884,9.815030097961426,2.01416015625,-1.617431640625,2.44140625
2.2724999,0.44831427931785583,-0.4381389021873474,9.716867446899414,-6.500244140625,-0.3662109375,-0.701904296875
2.2774999,0.8433575630187988,-0.6117185354232788,10.061633110046387,4.669189453125,-0.335693359375,-2.349853515625
2.2824999000000004,1.5885528326034546,-0.8026561141014099,10.56381607055664,19.439697265625,21.881103515625,-0.213623046875
2.2874999000000003,2.7048494815826416,-1.4891934394836426,10.684723854064941,33.87451171875,47.18017578125,-18.402099609375
2.2924999,4.197035789489746,-2.076371431350708,11.07138729095459,47.18017578125,52.093505859375,-35.15625
2.2974999,5.492897033691406,-2.477400302886963,11.333552360534668,60.85205078125,77.1484375,-59.967041015625
2.3024999000000004,4.365826606750488,0.2867056429386139,14.899715423583984,207.183837890625,171.142578125,-211.42578125
2.3074999000000003,4.365826606750488,0.2867056429386139,14.899715423583984,207.183837890625,171.142578125,-211.42578125
2.3124999,2.31758713722229,1.1953052282333374,15.08526611328125,201.2939453125,161.346435546875,-211.883544921875
2.3174999,0.21847090125083923,1.5340847969055176,14.263456344604492,197.418212890625,156.402587890625,-200.592041015625
2.3224999,-5.28340482711792,0.016160860657691956,7.310694694519043,193.206787109375,101.287841796875,-35.21728515625
2.3274999000000003,-5.433640956878662,-0.3908534348011017,5.691616058349609,179.0771484375,62.92724609375,8.697509765625
2.3324999,-5.097854137420654,-0.628477931022644,4.310161590576172,175.048828125,1.64794921875,25.634765625
2.3374999,-4.467580318450928,-0.1149216815829277,3.1292216777801514,163.57421875,-83.19091796875,20.69091796875
2.3424999,-3.7044286727905273,0.5650315880775452,2.03507137298584,129.08935546875,-162.139892578125,13.885498046875
2.3474999000000003,-2.8431146144866943,1.1827356815338135,1.206079125404358,100.860595703125,-227.783203125,6.53076171875
2.3524999,-2.079962730407715,1.843535304069519,0.8313865661621094,71.6552734375,-267.059326171875,15.777587890625
2.3574999,-1.4419080018997192,1.9943699836730957,0.6799532771110535,37.078857421875,-287.689208984375,29.296875
2.3624999,-0.8696937561035156,1.7938556671142578,0.7374141216278076,23.345947265625,-295.074462890625,41.168212890625
2.3674999000000003,-0.5171475410461426,1.623268723487854,1.0426748991012573,11.688232421875,-289.398193359375,60.48583984375
2.3724999,-0.4908113479614258,1.5496470928192139,1.8824410438537598,-11.749267578125,-265.350341796875,71.197509765625
2.3774999,-0.9091981053352356,2.3050177097320557,4.524442672729492,-51.971435546875,-190.185546875,63.8427734375
2.3824999,-1.235408067703247,4.032433986663818,7.444770336151123,-183.53271484375,-2.9296875,36.834716796875
2.3874999000000003,-1.4508862495422363,6.103418827056885,10.237008094787598,-319.976806640625,101.98974609375,18.768310546875
2.3924999000000002,-1.192312479019165,7.758410453796387,11.374253273010254,-308.502197265625,40.6494140625,35.247802734375
2.3974999,-0.5333084464073181,9.100958824157715,10.706271171569824,-281.097412109375,-8.1787109375,43.426513671875
2.4024999,0.8134300112724304,8.239645004272461,7.700351238250732,-282.440185546875,62.042236328125,14.984130859375
2.4074999000000004,1.171961784362793,6.884527206420898,7.061697959899902,-300.35400390625,32.28759765625,38.909912109375
2.4124999000000003,1.058835744857788,5.043984413146973,6.678027153015137,-323.8525390625,-1.861572265625,49.468994140625
2.4174999,0.8032546639442444,2.807800054550171,6.463746070861816,-333.404541015625,16.815185546875,34.3017578125
2.4224999,-0.7003039717674255,0.0736217051744461,8.335412979125977,-315.216064453125,-10.68115234375,22.216796875
2.4274999000000004,-2.0823569297790527,-3.8073792457580566,10.449493408203125,-132.598876953125,-177.215576171875,-21.514892578125
2.4324999000000003,-3.069366693496704,-7.529764175415039,11.723807334899902,-22.857666015625,-135.528564453125,-55.389404296875
2.4374999,-3.314173698425293,-10.374075889587402,11.749545097351074,-3.509521484375,-15.869140625,-62.744140625
2.4424999,-2.2427685260772705,-11.312004089355469,8.793902397155762,55.084228515625,38.665771484375,-77.239990234375
2.4474999,-0.3711012601852417,-10.2747163772583,5.082291603088379,102.1728515625,38.57421875,-85.235595703125
2.4524999000000003,1.8483237028121948,-8.002618789672852,2.7090392112731934,73.79150390625,15.411376953125,-66.619873046875
2.4574999,3.773860454559326,-5.602431774139404,2.5492262840270996,-6.8359375,-1.953125,-26.763916015625
2.4624999,5.801150798797607,-0.43095630407333374,7.918822288513184,-30.70068359375,18.98193359375,24.90234375
2.4674999,5.0912699699401855,1.0271124839782715,10.867879867553711,11.871337890625,15.533447265625,7.568359375
2.4724999000000003,3.733159065246582,1.9063831567764282,12.610858917236328,18.157958984375,14.0380859375,-3.692626953125
2.4774999,1.9698294401168823,1.6639702320098877,13.122020721435547,-1.068115234375,8.11767578125,2.044677734375
2.4824999,0.6099228858947754,0.8990227580070496,11.932701110839844,5.126953125,10.07080078125,-4.302978515625
2.4874999,-0.09576806426048279,0.07422025501728058,10.550049781799316,11.871337890625,17.822265625,-7.9345703125
2.4924999000000003,-0.31603461503982544,-0.383670836687088,9.671976089477539,-2.777099609375,17.333984375,0.79345703125
2.4974999,-0.23762452602386475,-0.8978256583213806,9.215282440185547,0.030517578125,12.298583984375,1.312255859375
2.5024999,-0.02274491637945175,-0.8912416100502014,9.428366661071777,10.650634765625,6.744384765625,2.86865234375
2.5074999,-0.07422025501728058,-0.7894880175590515,9.740211486816406,-1.678466796875,2.655029296875,3.570556640625
2.5124999000000003,-0.1346738487482071,-0.851138710975647,9.61212158203125,-1.89208984375,-2.8076171875,-2.777099609375
2.5174999000000002,-0.031124621629714966,-0.3860650360584259,9.795876502990723,-6.072998046875,-6.866455078125,2.44140625
2.5224999,0.22385786473751068,-0.32860419154167175,9.632472038269043,-4.974365234375,-6.317138671875,-2.899169921875
2.5274999,0.5021837949752808,-0.15023615956306458,9.81143856048584,1.617431640625,-7.26318359375,0.946044921875
2.5324999000000004,0.6224924325942993,-0.20889410376548767,9.935338973999023,-8.6669921875,-6.744384765625,2.777099609375
2.5374999000000003,0.7547720670700073,-0.5063736438751221,9.725846290588379,-4.57763671875,-5.157470703125,-3.021240234375
2.5424999,0.849941611289978,-0.5051765441894531,9.907805442810059,4.69970703125,-4.39453125,0.42724609375
2.5474999,0.8415619134902954,-0.6554127335548401,9.935338973999023,-5.218505859375,-3.204345703125,1.708984375
2.5524999000000004,0.9283517003059387,-0.8349778652191162,9.739612579345703,1.129150390625,0.030517578125,-3.326416015625
2.5574999000000003,1.0301052331924438,-0.6278793811798096,9.850942611694336,6.622314453125,0.946044921875,1.434326171875
2.5624999,0.608127236366272,-0.44592007994651794,9.59177017211914,2.01416015625,2.716064453125,-3.082275390625
2.5674999,0.5339069962501526,-0.30286651849746704,9.853935241699219,4.33349609375,0.18310546875,2.25830078125
2.5724999,0.37229835987091064,-0.4967968463897705,9.78869342803955,-6.28662109375,-0.213623046875,0.518798828125
2.5774999000000003,0.4118026793003082,-0.6015431880950928,9.730634689331055,2.50244140625,-0.244140625,-3.143310546875
2.5824999,0.4710591733455658,-0.52552729845047,9.995792388916016,2.777099609375,-2.349853515625,2.166748046875
2.5874999,0.4752490520477295,-0.5781996846199036,9.853935241699219,-7.171630859375,-1.28173828125,0.152587890625
2.5924999,0.6135141849517822,-0.6572083830833435,9.722254753112793,2.777099609375,-1.190185546875,-2.777099609375
2.5974999000000003,0.7320271730422974,-0.4812345504760742,9.906009674072266,2.166748046875,-2.197265625,2.25830078125
2.6024999,0.6811503767967224,-0.6123170852661133,9.718663215637207,-6.8359375,-0.762939453125,-0.762939453125
2.6074999,0.7942764163017273,-0.5907692909240723,9.64564037322998,4.669189453125,0.091552734375,-2.655029296875
2.6124999,0.8038532137870789,-0.41359832882881165,9.871891975402832,2.0751953125,-0.8544921875,2.8076171875
2.6174999000000003,0.7254431247711182,-0.4638765752315521,9.75278091430664,-5.7373046875,0.67138671875,-0.946044921875
2.6224999,0.7320271730422974,-0.3770867586135864,9.976638793945312,0.79345703125,-0.48828125,2.62451171875
2.6274999,0.6224924325942993,-0.6087257862091064,9.843161582946777,-5.79833984375,0.701904296875,-1.3427734375
2.6324999,0.6805518269538879,-0.6602011322975159,9.81143856048584,5.79833984375,0.274658203125,-1.922607421875
2.6374999000000003,0.6362590789794922,-0.5578489899635315,10.021530151367188,-0.67138671875,-1.15966796875,3.143310546875
2.6424999000000002,0.6045359373092651,-0.7182605266571045,9.77791976928711,-4.974365234375,0.1220703125,-1.800537109375
2.6474999,0.702099621295929,-0.6200982332229614,9.744999885559082,5.615234375,0.18310546875,-1.617431640625
2.6524999,0.6775590777397156,-0.4842272996902466,9.872490882873535,-1.617431640625,-0.91552734375,2.9296875
2.6574999000000004,0.6428431272506714,-0.5291185975074768,9.621698379516602,-4.8828125,0.79345703125,-2.0751953125
2.6624999000000003,0.7254431247711182,-0.4842272996902466,9.690531730651855,6.103515625,0.091552734375,-1.007080078125
2.6674999,0.6619967818260193,-0.3531447649002075,9.871294021606445,-1.495361328125,-1.03759765625,2.74658203125
2.6724999,0.6200982332229614,-0.596754789352417,9.678560256958008,-4.0283203125,0.732421875,-2.532958984375
2.6774999000000004,0.6973112225532532,-0.4908113479614258,9.803657531738281,6.8359375,0.06103515625,-1.0986328125
2.6824999000000003,0.6218938827514648,-0.6374561786651611,9.713874816894531,-4.21142578125,0.79345703125,-2.685546875
2.6874999,0.6769605278968811,-0.5596446394920349,9.78989028930664,5.828857421875,-0.3662109375,-0.3662109375
2.6924999,0.6242880821228027,-0.5093663930892944,9.899425506591797,-3.23486328125,-0.9765625,2.349853515625
2.6974999,0.6554127335548401,-0.6697779297828674,9.591172218322754,-3.265380859375,0.30517578125,-3.173828125
2.7024999000000003,0.718859076499939,-0.4770447015762329,9.743802070617676,6.34765625,-0.732421875,0.244140625
2.7074999,0.6703764796257019,-0.4638765752315521,9.825803756713867,-3.753662109375,-0.579833984375,2.62451171875
2.7124999,0.7098808288574219,-0.5237316489219666,9.604938507080078,-2.25830078125,0.8544921875,-2.960205078125
2.7174999,0.7212532758712769,-0.35494041442871094,9.758167266845703,5.523681640625,-0.18310546875,0.274658203125
2.7224999000000003,0.639850378036499,-0.363918662071228,9.882665634155273,-4.486083984375,-0.30517578125,2.105712890625
2.7274999,0.6440402865409851,-0.524330198764801,9.657012939453125,-1.434326171875,0.79345703125,-3.204345703125
2.7324999,0.6536170840263367,-0.40701428055763245,9.853935241699219,6.317138671875,-0.48828125,0.67138671875
2.7374999,0.5728127360343933,-0.4944026470184326,9.90122127532959,-4.69970703125,-0.274658203125,1.953125
2.7424999000000003,0.6685808300971985,-0.4985924959182739,9.85034465789795,5.462646484375,-0.3662109375,1.068115234375
2.7474999,0.6015431880950928,-0.5363011956214905,9.824007987976074,-5.2490234375,-0.30517578125,1.556396484375
2.7524999,0.6584054827690125,-0.6392518281936646,9.591172218322754,0.030517578125,0.48828125,-3.448486328125
2.7574999,0.7733271718025208,-0.43933600187301636,9.75397777557373,4.638671875,-0.732421875,1.3427734375
2.7624999000000003,1.1312602758407593,-0.4489128291606903,9.744400978088379,-6.072998046875,-4.57763671875,-4.608154296875
2.7674999000000002,1.8812439441680908,-0.8978256583213806,10.481216430664062,1.40380859375,-1.03759765625,-36.4990234375
2.7724999,3.1980550289154053,-1.6160861253738403,11.510124206542969,44.036865234375,83.3740234375,-27.496337890625
2.7774999,4.52803373336792,-3.0095114707946777,12.77845287322998,92.8955078125,136.138916015625,0.6103515625
2.7824999000000004,5.629366874694824,-4.7836151123046875,14.021642684936523,141.387939453125,152.4658203125,7.171630859375
2.7874999000000003,6.135141849517822,-6.042964935302734,15.17385196685791,185.394287109375,193.90869140625,9.09423828125
2.7924999,5.369596004486084,-6.776787757873535,16.089035034179688,221.221923828125,227.020263671875,1.52587890625
2.7974999,3.861847400665283,-6.777985095977783,16.87253761291504,254.364013671875,245.17822265625,6.927490234375
2.8024999000000004,-9.767146110534668,1.63344407081604,4.751891613006592,353.08837890625,33.203125,146.6064453125
2.8074999000000003,-8.762778282165527,1.6214730739593506,3.559579372406006,342.987060546875,-11.90185546875,164.9169921875
2.8124999,-7.128137111663818,1.1456254720687866,3.220201253890991,334.136962890625,-56.488037109375,178.89404296875
2.8174999,-5.4653639793396,1.083974838256836,3.3315317630767822,310.24169921875,-98.7548828125,185.24169921875
2.8224999,-3.9665937423706055,0.8212111592292786,3.40216064453125,300.079345703125,-120.880126953125,182.80029296875
2.8274999000000003,-2.671330451965332,1.3120225667953491,3.4290952682495117,294.25048828125,-143.49365234375,178.253173828125
2.8324999,-1.0324994325637817,3.092710018157959,2.609081268310547,212.127685546875,-253.387451171875,125.06103515625
2.8374999,-0.3196259140968323,3.9234981536865234,2.27748441696167,180.389404296875,-265.350341796875,111.663818359375
2.8424999,0.11192893236875534,4.415506362915039,1.9919757843017578,137.0849609375,-257.476806640625,109.0087890625
2.8474999000000003,0.4884171485900879,4.2275614738464355,1.8507179021835327,100.2197265625,-250.18310546875,101.348876953125
2.8524999,0.8134300112724304,4.015674591064453,1.909974455833435,72.601318359375,-242.73681640625,102.23388671875
2.8574999,0.9900023937225342,3.8337154388427734,1.944091796875,35.736083984375,-231.14013671875,108.70361328125
2.8624999,1.2132617235183716,3.751713991165161,2.1535844802856445,8.11767578125,-216.156005859375,108.0322265625
2.8674999000000003,1.6531962156295776,5.237316131591797,3.7391445636749268,-11.322021484375,-187.56103515625,112.1826171875
2.8724999,3.109469413757324,7.316082000732422,6.318896770477295,-75.103759765625,-130.157470703125,113.46435546875
2.8774999,4.60165548324585,10.60391902923584,9.226056098937988,-134.246826171875,-80.078125,116.02783203125
2.8824999,7.599195957183838,13.587693214416504,11.9027738571167,-71.929931640625,-88.31787109375,79.28466796875
2.8874999000000003,6.454169273376465,8.428787231445312,7.449558734893799,-65.97900390625,-25.57373046875,103.271484375
2.8924999000000002,5.105635166168213,4.619612216949463,4.820724964141846,-78.094482421875,27.587890625,110.107421875
2.8974999,4.0976762771606445,1.7375918626785278,3.06876802444458,-91.400146484375,43.304443359375,100.982666015625
2.9024999,3.7942111492156982,0.33339259028434753,2.7754783630371094,-117.034912109375,44.37255859375,94.1162109375
2.9074999000000004,3.8798038959503174,0.30945056676864624,3.7169981002807617,-160.82763671875,49.072265625,93.048095703125
2.9124999000000003,4.40892219543457,1.37906014919281,5.169680118560791,-178.253173828125,61.676025390625,81.939697265625
2.9174999,4.963180065155029,3.2788591384887695,6.827664852142334,-177.642822265625,75.164794921875,75.042724609375
2.9224999,5.266046524047852,4.824914932250977,8.160636901855469,-185.24169921875,82.550048828125,63.140869140625
2.9274999000000004,5.233126163482666,5.547964096069336,8.514379501342773,-185.882568359375,87.066650390625,42.96875
2.9324999000000003,5.051765441894531,5.434837818145752,8.687360763549805,-184.661865234375,91.97998046875,30.242919921875
2.9374999,4.480748653411865,4.90571928024292,8.343792915344238,-205.99365234375,98.663330078125,15.380859375
2.9424999,3.9875428676605225,3.599682331085205,7.615356922149658,-214.90478515625,104.43115234375,-4.0283203125
2.9474999,3.1202433109283447,1.4826093912124634,6.87794303894043,-250.54931640625,112.457275390625,-49.98779296875
2.9524999000000003,3.050212860107422,1.511339783668518,7.219715118408203,-257.38525390625,113.34228515625,-62.92724609375
2.9574999,2.961029052734375,1.5424644947052002,7.439383029937744,-276.7333984375,115.478515625,-79.803466796875
2.9624999,2.958036184310913,1.447893500328064,7.816470146179199,-288.02490234375,123.10791015625,-110.65673828125
2.9674999,2.8155810832977295,1.0995371341705322,7.669825077056885,-310.760498046875,126.8310546875,-125.396728515625
2.9724999000000003,2.7778725624084473,0.6542156338691711,7.452551364898682,-313.5986328125,133.636474609375,-139.678955078125
2.9774999,2.6803088188171387,0.4339490532875061,7.539340972900391,-325.5615234375,139.862060546875,-142.059326171875
2.9824999,2.3798365592956543,-0.04189852997660637,7.522581577301025,-336.273193359375,151.06201171875,-141.937255859375
2.9874999,0.761954665184021,-1.404199242591858,9.106945037841797,-290.374755859375,142.333984375,-126.007080078125
2.9924999000000003,-1.690904974937439,-3.843890905380249,11.19349193572998,-59.99755859375,-7.904052734375,-85.113525390625
2.9974999,-5.812523365020752,-8.905831336975098,11.693880081176758,71.746826171875,12.451171875,-92.315673828125
3.0024999,-5.389946460723877,-9.403226852416992,9.102156639099121,94.024658203125,-6.40869140625,-106.0791015625
3.0074999,-3.627215623855591,-8.483255386352539,5.8639984130859375,73.79150390625,-22.76611328125,-111.572265625
3.0124999000000003,-1.4850035905838013,-6.649895191192627,3.780444383621216,16.11328125,-15.960693359375,-93.536376953125
3.0174999000000002,0.09457096457481384,-4.261679172515869,3.243544816970825,-46.69189453125,-1.373291015625,-67.779541015625
3.0224999,0.8589198589324951,-2.236783027648926,3.688267707824707,-64.361572265625,16.05224609375,-60.4248046875
3.0274999,0.9014169573783875,0.0065840547904372215,5.449801445007324,-43.3349609375,28.01513671875,-47.515869140625
3.0324999000000004,0.29807811975479126,1.6879122257232666,8.082226753234863,-29.35791015625,29.754638671875,-22.918701171875
3.0374999000000003,-0.6314706802368164,2.4612393379211426,10.947486877441406,-10.43701171875,13.3056640625,-2.99072265625
3.0424999,-1.455674648284912,2.1763293743133545,13.092093467712402,11.29150390625,-1.708984375,10.528564453125
3.0474999,-2.1517887115478516,1.3539210557937622,13.621810913085938,0.54931640625,-11.53564453125,14.068603515625
3.0524999000000004,-2.342127799987793,-0.27054479718208313,12.184691429138184,4.94384765625,-23.284912109375,6.77490234375
3.0574999000000003,-1.1953052282333374,-1.6394295692443848,8.899846076965332,-14.739990234375,-24.96337890625,7.904052734375
3.0624999,-0.27234044671058655,-1.4329297542572021,8.404845237731934,-14.6484375,-25.32958984375,2.62451171875
3.0674999,0.5949591398239136,-0.7547720670700073,8.921394348144531,-6.40869140625,-22.979736328125,4.2724609375
3.0724999000000004,1.1240776777267456,-0.05386953800916672,9.751583099365234,-11.932373046875,-21.91162109375,6.622314453125
3.0774999000000003,1.525106430053711,0.047884032130241394,9.909002304077148,-6.866455078125,-13.85498046875,0.3662109375
3.0824999,1.7232266664505005,0.12509703636169434,10.08198356628418,0.946044921875,-6.9580078125,1.373291015625
3.0874999,1.7381904125213623,-0.19452889263629913,10.06043529510498,-8.1787109375,-2.655029296875,0.91552734375
3.0924999,1.744175910949707,-0.6374561786651611,9.738415718078613,-2.471923828125,4.638671875,-5.2490234375
3.0974999000000003,1.6573861837387085,-0.7116764783859253,9.941324234008789,8.392333984375,8.392333984375,-0.823974609375
3.1024999,1.3581109046936035,-0.8637082576751709,10.041281700134277,-0.1220703125,10.711669921875,1.190185546875
3.1074999,1.0708067417144775,-1.015141487121582,9.84495735168457,7.14111328125,13.36669921875,-3.570556640625
3.1124999,0.7637503147125244,-0.7362170219421387,9.982025146484375,12.725830078125,11.016845703125,0.579833984375
3.1174999000000003,0.17717093229293823,-0.4638765752315521,9.586383819580078,4.425048828125,6.7138671875,-3.814697265625
3.1224999,0.06883329898118973,-0.050876785069704056,9.742006301879883,6.103515625,1.77001953125,1.739501953125
3.1274999,-0.08619125932455063,0.09816227108240128,9.660603523254395,-6.805419921875,-0.762939453125,1.28173828125
3.1324999,-0.03292027488350868,0.06643909960985184,9.509170532226562,-1.03759765625,-2.44140625,-2.685546875
3.1374999000000003,0.03770867735147476,0.1843535304069519,9.824606895446777,0.213623046875,-6.28662109375,2.410888671875
3.1424999000000002,0.05386953800916672,-0.020350715145468712,9.77791976928711,-10.467529296875,-7.32421875,0.42724609375
3.1474999,0.25917232036590576,-0.33039984107017517,9.720458984375,-1.251220703125,-6.40869140625,-3.021240234375
3.1524999,0.4495113790035248,-0.3860650360584259,10.017938613891602,0.762939453125,-6.866455078125,2.685546875
3.1574999000000004,0.5566518902778625,-0.619499683380127,9.870096206665039,-7.9345703125,-4.425048828125,0.3662109375
3.1624999000000003,0.7757213711738586,-0.7996633648872375,9.744400978088379,2.38037109375,-1.678466796875,-2.86865234375
3.1674999,0.910993754863739,-0.6404489278793335,9.956287384033203,3.204345703125,-1.0986328125,2.227783203125
3.1724999,0.8876502513885498,-0.669179379940033,9.775525093078613,-6.103515625,1.77001953125,-0.518798828125
3.1774999000000004,0.871489405632019,-0.38486793637275696,9.921571731567383,4.150390625,2.5634765625,2.50244140625
3.1824999000000003,0.6703764796257019,-0.4812345504760742,9.747393608093262,-4.8828125,3.5400390625,-0.91552734375
3.1874999,0.6129156351089478,-0.4058171808719635,9.697713851928711,6.195068359375,3.082275390625,-2.655029296875
3.1924999,0.4710591733455658,-0.26396074891090393,9.935338973999023,1.739501953125,0.518798828125,2.74658203125
3.1974999000000004,0.3106476664543152,-0.3292027413845062,9.783905029296875,-5.67626953125,0.885009765625,-1.068115234375
3.2024999000000003,0.3495534360408783,-0.37648820877075195,9.736021041870117,4.69970703125,-0.06103515625,-1.8310546875
3.2074999,0.31124621629714966,-0.2651578485965729,9.982624053955078,-0.3662109375,-2.532958984375,3.021240234375
3.2124999,0.2932897210121155,-0.48243165016174316,9.775525093078613,-6.622314453125,-1.3427734375,-1.64794921875
3.2174999,0.44352585077285767,-0.5051765441894531,9.734225273132324,4.57763671875,-1.5869140625,-1.8310546875
3.2224999000000003,0.48243165016174316,-0.395043283700943,9.94970417022705,-1.15966796875,-2.777099609375,2.99072265625
3.2274999,0.5351040959358215,-0.5674257874488831,9.670180320739746,-5.859375,-0.54931640625,-1.8310546875
3.2324999,0.6829460263252258,-0.4429273009300232,9.677363395690918,5.615234375,-0.396728515625,-1.312255859375
3.2374999,0.6440402865409851,-0.3944447338581085,9.640851974487305,-4.638671875,1.220703125,-2.38037109375
3.2424999000000003,0.7158663272857666,-0.37409400939941406,9.742605209350586,6.40869140625,1.03759765625,-1.190185546875
3.2474999,0.6117185354232788,-0.25318682193756104,9.950302124023438,-1.3427734375,-0.1220703125,2.8076171875
3.2524999,0.5548562407493591,-0.45908817648887634,9.657610893249512,-3.936767578125,1.434326171875,-2.471923828125
3.2574999,0.5859808921813965,-0.3734954595565796,9.77791976928711,6.8359375,0.67138671875,-0.762939453125
3.2624999000000003,0.48063600063323975,-0.3579331636428833,9.941922187805176,-2.471923828125,-0.946044921875,2.655029296875
3.2674999000000002,0.4668693244457245,-0.49799394607543945,9.657610893249512,-3.631591796875,1.068115234375,-2.685546875
3.2724999,0.5249287486076355,-0.4058171808719635,9.822811126708984,6.439208984375,-0.3662109375,-0.54931640625
3.2774999,0.46327802538871765,-0.42437225580215454,9.9586820602417,-3.41796875,-1.46484375,2.38037109375
3.2824999000000004,0.6266822814941406,-0.2902969419956207,9.756970405578613,6.317138671875,-0.3662109375,0.30517578125
3.2874999000000003,0.5764040350914001,-0.2932897210121155,9.865307807922363,-3.814697265625,-0.274658203125,2.044677734375
3.2924999,0.6153098344802856,-0.40222588181495667,9.611522674560547,-1.5869140625,1.190185546875,-3.204345703125
3.2974999,0.6135141849517822,-0.26396074891090393,9.813833236694336,6.011962890625,0.06103515625,0.518798828125
3.3024999000000004,0.5207388401031494,-0.3166331648826599,9.925163269042969,-4.45556640625,-0.1220703125,1.953125
3.3074999000000003,0.5351040959358215,-0.46088382601737976,9.677961349487305,-1.129150390625,1.15966796875,-3.35693359375
3.3124999,0.5410895943641663,-0.3513490855693817,9.873088836669922,6.2255859375,-0.42724609375,0.732421875
3.3174999,0.4728548228740692,-0.3627215623855591,9.912593841552734,-4.791259765625,-0.732421875,1.8310546875
3.3224999000000004,0.5069721937179565,-0.5171475410461426,9.658209800720215,-1.068115234375,0.6103515625,-3.265380859375
3.3274999000000003,0.5590460896492004,-0.35913026332855225,9.84376049041748,5.31005859375,-1.15966796875,1.007080078125
3.3324999,0.5979518890380859,-0.5530605912208557,10.091560363769531,-5.706787109375,-1.007080078125,1.251220703125
3.3374999,2.207453966140747,-2.054823637008667,11.602301597595215,68.4814453125,65.704345703125,8.7890625
3.3424999,3.2579100131988525,-3.466804027557373,12.504915237426758,102.05078125,91.033935546875,17.76123046875
3.3474999000000003,4.298789024353027,-5.195417881011963,13.493122100830078,152.923583984375,121.27685546875,14.129638671875
3.3524999,4.316745758056641,-6.243479251861572,14.304158210754395,189.39208984375,139.617919921875,16.11328125
3.3574999,3.400963544845581,-6.693589210510254,14.535198211669922,213.9892578125,144.744873046875,13.885498046875
3.3624999,-3.1028854846954346,-4.256890773773193,13.066954612731934,267.4560546875,118.377685546875,53.03955078125
3.3674999000000003,-5.270236492156982,-3.0591912269592285,11.723807334899902,291.8701171875,101.13525390625,72.296142578125
3.3724999,-7.040150165557861,-1.5089455842971802,10.204686164855957,306.09130859375,87.615966796875,95.703125
3.3774999,-8.022970199584961,-0.27892449498176575,8.51916790008545,319.183349609375,75.5615234375,108.0322265625
3.3824999,-7.760804653167725,0.3363853394985199,7.201758861541748,325.408935546875,35.400390625,115.081787109375
3.3874999000000003,-5.488707542419434,0.6494272351264954,6.052541732788086,309.844970703125,-33.63037109375,146.6064453125
3.3924999000000002,-4.019864559173584,0.28131869435310364,6.186617374420166,318.603515625,-31.158447265625,164.642333984375
3.3974999,-2.963423252105713,0.6380547285079956,6.025008678436279,316.253662109375,-50.78125,178.497314453125
3.4024999,-2.1721394062042236,1.1737574338912964,5.431246757507324,301.788330078125,-111.75537109375,155.33447265625
3.4074999000000004,-1.434126853942871,2.2846670150756836,4.508880138397217,264.434814453125,-205.99365234375,114.959716796875
3.4124999000000003,-0.8762778043746948,3.778050184249878,3.551798105239868,206.024169921875,-252.227783203125,95.123291015625
3.4174999,-0.3100491166114807,4.7836151123046875,3.1268274784088135,149.200439453125,-255.523681640625,78.948974609375
3.4224999,0.22625206410884857,5.796960830688477,3.3913867473602295,105.377197265625,-244.0185546875,70.3125
3.4274999000000004,0.7805097699165344,6.830059051513672,4.453813552856445,51.605224609375,-227.752685546875,68.206787109375
3.4324999000000003,1.5502456426620483,8.234856605529785,5.884947776794434,7.781982421875,-198.577880859375,59.722900390625
3.4374999,2.5899276733398438,9.95209789276123,7.411251544952393,-4.547119140625,-167.8466796875,56.82373046875
3.4424999,5.368997097015381,11.775282859802246,8.483255386352539,5.584716796875,-132.904052734375,78.91845703125
3.4474999000000004,5.368997097015381,11.775282859802246,8.483255386352539,5.584716796875,-132.904052734375,78.91845703125
3.4524999000000003,5.612607479095459,10.220248222351074,7.696161270141602,-7.781982421875,-111.38916015625,68.206787109375
3.4574999,5.313930511474609,7.833827972412109,6.323086738586426,-35.736083984375,-65.12451171875,52.764892578125
3.4624999,4.940435409545898,5.580285549163818,5.276222229003906,-50.140380859375,-58.258056640625,69.7021484375
3.4674999,4.687847137451172,3.975571870803833,4.78660774230957,-65.91796875,-27.740478515625,88.5009765625
3.4724999000000003,4.573523998260498,3.157952070236206,4.626794815063477,-81.207275390625,7.2021484375,86.73095703125
3.4774999,4.783016681671143,3.485957622528076,5.168482780456543,-88.165283203125,24.200439453125,81.84814453125
3.4824999,5.085284233093262,4.3825860023498535,6.163872241973877,-110.595703125,38.02490234375,77.1484375
3.4874999,5.2444987297058105,5.007472991943359,6.672041416168213,-128.814697265625,50.84228515625,64.5751953125
3.4924999000000003,5.25527286529541,5.312135219573975,7.12035608291626,-129.638671875,62.469482421875,57.281494140625
3.4974999,4.892550945281982,5.16429328918457,7.329249858856201,-151.458740234375,69.39697265625,52.734375
3.5024999,3.423109769821167,3.8923733234405518,6.938396453857422,-209.625244140625,93.20068359375,-1.40380859375
3.5074999,3.2638955116271973,3.7235822677612305,6.994660377502441,-215.728759765625,96.893310546875,-13.397216796875
3.5124999000000003,3.0184898376464844,3.533841609954834,7.116764545440674,-238.983154296875,96.8017578125,-22.64404296875
3.5174999000000002,2.7886464595794678,2.9897594451904297,6.797138690948486,-252.62451171875,102.35595703125,-39.24560546875
3.5224999,2.691681146621704,1.9674352407455444,6.976703643798828,-291.44287109375,114.105224609375,-77.117919921875
3.5274999,2.7982232570648193,1.8986018896102905,7.249642848968506,-294.708251953125,119.07958984375,-87.7685546875
3.5324999000000004,2.7090392112731934,1.4915876388549805,7.2119340896606445,-318.328857421875,124.45068359375,-99.151611328125
3.5374999000000003,2.7006595134735107,1.0271124839782715,7.063493728637695,-325.8056640625,132.99560546875,-115.020751953125
3.5424999,2.580949544906616,0.14604631066322327,7.180211067199707,-353.57666015625,149.35302734375,-127.960205078125
3.5474999,1.3766659498214722,-1.3311761617660522,8.496423721313477,-336.36474609375,148.773193359375,-131.77490234375
3.5524999000000004,-1.138442873954773,-3.8582561016082764,10.596138000488281,-107.421875,10.589599609375,-101.593017578125
3.5574999000000003,-3.3476924896240234,-6.554725646972656,11.684303283691406,69.122314453125,-33.38623046875,-80.322265625
3.5624999,-5.382763862609863,-9.257181167602539,11.414356231689453,81.4208984375,17.02880859375,-105.621337890625
3.5674999,-5.1152119636535645,-9.828198432922363,9.02135181427002,102.813720703125,2.838134765625,-127.5634765625
3.5724999000000004,-3.420715570449829,-8.853757858276367,5.726930618286133,80.2001953125,-17.4560546875,-139.251708984375
3.5774999000000003,-1.1761516332626343,-6.966528415679932,3.3452982902526855,24.078369140625,-18.24951171875,-130.67626953125
3.5824999,0.6326677799224854,-4.5172600746154785,2.648585557937622,-48.370361328125,-10.711669921875,-102.96630859375
3.5874999,1.5705963373184204,-2.4869771003723145,2.9688100814819336,-91.766357421875,0.701904296875,-90.63720703125
3.5924999,1.6406266689300537,-0.3495534360408783,4.462193489074707,-76.59912109375,15.716552734375,-80.596923828125
3.5974999000000003,0.982221245765686,1.3868412971496582,7.241861820220947,-42.999267578125,30.731201171875,-52.1240234375
3.6024999,-0.2388216257095337,-0.4908113479614258,8.158841133117676,-12.298583984375,-24.200439453125,-1.28173828125
3.6074999,0.2944868206977844,0.181959331035614,9.43494987487793,-10.009765625,-26.3671875,5.126953125
3.6124999,0.6667851805686951,0.3758896589279175,10.121487617492676,-16.082763671875,-19.95849609375,2.105712890625
3.6174999000000003,1.0618284940719604,0.09457096457481384,10.448296546936035,-2.685546875,-16.693115234375,2.197265625
3.6224999,1.3108254671096802,-0.181959331035614,10.432733535766602,-5.340576171875,-11.566162109375,4.0283203125
3.6274999,1.4742296934127808,-0.8780734539031982,9.97484302520752,-10.711669921875,-4.364013671875,-2.62451171875
3.6324999,1.6208745241165161,-1.0983400344848633,10.046070098876953,3.448486328125,4.82177734375,2.3193359375
3.6374999000000003,1.4472949504852295,-1.1019313335418701,9.798270225524902,1.3427734375,9.82666015625,-1.89208984375
3.6424999000000002,1.256955862045288,-0.8756792545318604,9.846753120422363,11.962890625,10.589599609375,-1.495361328125
3.6474999,0.882861852645874,-0.5710170865058899,9.938929557800293,3.326416015625,9.490966796875,1.373291015625
3.6524999,0.5626373887062073,-0.5309142470359802,9.623494148254395,-0.091552734375,9.857177734375,-3.021240234375
3.6574999000000004,0.375291109085083,-0.2472013235092163,9.77013874053955,9.6435546875,6.2255859375,-0.54931640625
3.6624999000000003,0.11192893236875534,-0.1454477459192276,9.890447616577148,-1.03759765625,3.11279296875,2.685546875
3.6674999,0.020350715145468712,-0.21847090125083923,9.632472038269043,-2.74658203125,2.044677734375,-2.410888671875
3.6724999,0.03890577703714371,-0.15562310814857483,9.750386238098145,5.2490234375,-1.15966796875,0.457763671875
3.6774999000000004,0.010773907415568829,-0.16998831927776337,9.857526779174805,-5.767822265625,-3.936767578125,2.86865234375
3.6824999000000003,0.6536170840263367,-0.2693476974964142,9.762357711791992,3.84521484375,-3.570556640625,0.579833984375
3.6874999,0.6518214344978333,-0.3968389332294464,9.907805442810059,-5.67626953125,-2.38037109375,1.678466796875
3.6924999,0.7380126714706421,-0.5764040350914001,9.718064308166504,-1.739501953125,0.396728515625,-3.41796875
3.6974999000000004,0.7511807680130005,-0.5201402902603149,9.91977596282959,5.67626953125,-0.152587890625,0.91552734375
3.7024999000000003,0.6715735793113708,-0.5500678420066833,9.95090103149414,-4.669189453125,0.396728515625,1.28173828125
3.7074999,0.6590040326118469,-0.6937199234962463,9.70310115814209,0.79345703125,2.471923828125,-3.570556640625
3.7124999,0.6572083830833435,-0.47405192255973816,9.858125686645508,6.34765625,1.068115234375,1.129150390625
3.7174999,0.5345055460929871,-0.45848962664604187,9.816226959228516,-4.852294921875,1.15966796875,1.129150390625
3.7224999000000003,0.5560533404350281,-0.5021837949752808,9.578003883361816,0.396728515625,2.349853515625,-3.265380859375
3.7274999,0.5656301379203796,-0.2579752206802368,9.775525093078613,4.5166015625,0.152587890625,1.495361328125
3.7324999,0.4602852761745453,-0.2388216257095337,9.721057891845703,-6.16455078125,0.244140625,0.640869140625
3.7374999,0.4602852761745453,-0.4626794755458832,9.665990829467773,1.495361328125,0.18310546875,-2.9296875
3.7424999000000003,0.5039794445037842,-0.3405751883983612,9.973047256469727,3.2958984375,-1.800537109375,1.8310546875
3.7474999,0.4507084786891937,-0.43933600187301636,9.876680374145508,-6.805419921875,-0.518798828125,-0.06103515625
3.7524999,0.5303156971931458,-0.595557689666748,9.764751434326172,2.288818359375,0.640869140625,-2.99072265625
3.7574999,0.569819986820221,-0.4644751250743866,10.011953353881836,3.387451171875,-0.885009765625,2.349853515625
3.7624999000000003,0.5141547918319702,-0.5776011347770691,9.846753120422363,-6.683349609375,0.518798828125,-0.244140625
3.7674999000000002,0.586579442024231,-0.6404489278793335,9.706093788146973,3.936767578125,1.190185546875,-2.9296875
3.7724999,0.6093243360519409,-0.45848962664604187,9.904812812805176,3.265380859375,-0.335693359375,2.349853515625
3.7774999,0.5410895943641663,-0.45429977774620056,9.698312759399414,-5.645751953125,0.701904296875,-0.396728515625
3.7824999000000004,0.5997475385665894,-0.4668693244457245,9.595361709594727,4.150390625,1.190185546875,-2.50244140625
3.7874999000000003,0.47884035110473633,-0.31603461503982544,9.711481094360352,-6.500244140625,0.3662109375,-0.6103515625
3.7924999,0.5404910445213318,-0.36990416049957275,9.676764488220215,4.425048828125,0.30517578125,-2.50244140625
3.7974999,0.49978959560394287,-0.21847090125083923,9.956886291503906,1.312255859375,-1.739501953125,2.685546875
3.8024999000000004,0.42377370595932007,-0.34656068682670593,9.80904483795166,-5.767822265625,-0.244140625,-1.0986328125
3.8074999000000003,0.5003881454467773,-0.46986207365989685,9.77013874053955,4.5166015625,0.030517578125,-1.983642578125
3.8124999,0.47405192255973816,-0.35434186458587646,9.99100399017334,-0.06103515625,-1.708984375,2.9296875
3.8174999,0.42437225580215454,-0.595557689666748,9.827000617980957,-6.317138671875,0.091552734375,-1.678466796875
3.8224999000000004,0.5380968451499939,-0.6272808313369751,9.764751434326172,5.43212890625,-0.030517578125,-2.01416015625
3.8274999000000003,0.5183446407318115,-0.5099649429321289,10.011354446411133,0.18310546875,-1.312255859375,3.23486328125
3.8324999,0.5033808946609497,-0.5943605899810791,9.773730278015137,-5.401611328125,0.885009765625,-1.556396484375
3.8374999,0.6123170852661133,-0.5548562407493591,9.752182006835938,5.279541015625,0.30517578125,-1.739501953125
3.8424999,0.5422866940498352,-0.27054479718208313,9.889848709106445,-0.732421875,-1.28173828125,2.532958984375
3.8474999000000003,0.5165489912033081,-0.4213795065879822,9.61451530456543,-4.5166015625,0.48828125,-2.410888671875
3.8524999,0.6033388376235962,-0.32022446393966675,9.690531730651855,6.103515625,-0.152587890625,-1.0986328125
3.8574999,0.5285200476646423,-0.30047231912612915,9.86770248413086,-2.13623046875,-1.007080078125,2.716064453125
3.8624999,0.5009866952896118,-0.3908534348011017,9.611522674560547,-4.180908203125,0.823974609375,-2.62451171875
3.8674999000000003,0.5781996846199036,-0.4016273319721222,9.762357711791992,6.317138671875,0.1220703125,-0.91552734375
3.8724999,0.4836287498474121,-0.36152446269989014,9.923966407775879,-2.166748046875,-0.42724609375,2.777099609375
3.8774999,0.4842272996902466,-0.5734112858772278,9.700706481933594,-3.7841796875,0.91552734375,-2.777099609375
3.8824999,0.5542576909065247,-0.5153518915176392,9.830592155456543,6.591796875,0.274658203125,-0.6103515625
3.8874999000000003,0.4794389009475708,-0.46507367491722107,9.959878921508789,-2.349853515625,-0.396728515625,2.62451171875
3.8924999000000002,0.15322890877723694,-0.6428431272506714,9.276334762573242,-2.74658203125,1.0986328125,-2.62451171875
3.8974999,-0.5392939448356628,0.10235211998224258,4.468777656555176,207.94677734375,-21.942138671875,120.05615234375
3.9024999,0.3010708689689636,0.34596213698387146,4.333505153656006,309.234619140625,-42.6025390625,84.04541015625
3.9074999000000004,0.5153518915176392,1.2318167686462402,3.1441853046417236,185.394287109375,-93.048095703125,138.031005859375
3.9124999000000003,0.7805097699165344,1.4460978507995605,2.4851813316345215,99.700927734375,-105.377197265625,102.9052734375
3.9174999,0.48063600063323975,2.319382905960083,1.4951789379119873,142.120361328125,-108.09326171875,35.491943359375
3.9224999,0.11133038252592087,2.518700122833252,1.0402805805206299,160.919189453125,-111.14501953125,-6.866455078125
3.9274999000000004,0.1867477297782898,3.069366693496704,1.9961656332015991,101.07421875,-108.489990234375,-8.026123046875
3.9324999000000003,5.023035049438477,5.303755283355713,7.878719329833984,-49.01123046875,31.67724609375,23.345947265625
3.9374999,4.614225387573242,5.040393352508545,7.3023152351379395,-78.643798828125,44.61669921875,14.46533203125
3.9424999,4.291007995605469,4.953004837036133,7.460930824279785,-84.16748046875,56.549072265625,18.524169921875
3.9474999000000004,3.5188779830932617,4.3406877517700195,6.773196697235107,-124.786376953125,65.032958984375,8.30078125
3.9524999000000003,3.1304187774658203,3.885789394378662,6.908469200134277,-129.180908203125,72.265625,8.11767578125
3.9574999,2.4223334789276123,3.247734546661377,6.457760334014893,-173.52294921875,75.286865234375,-4.82177734375
3.9624999,2.2601263523101807,2.8203697204589844,6.74267053604126,-174.591064453125,80.841064453125,-12.115478515625
3.9674999000000004,1.8986018896102905,2.5073277950286865,6.613383769989014,-219.268798828125,83.740234375,-22.613525390625
3.9724999000000003,1.8722656965255737,1.711255669593811,7.187393665313721,-254.5166015625,99.578857421875,-35.2783203125
3.9774999,1.1336544752120972,0.21009120345115662,8.911218643188477,-213.92822265625,94.451904296875,-42.41943359375
3.9824999,-0.5793967843055725,-2.580949544906616,11.201870918273926,-72.723388671875,-15.899658203125,-34.5458984375
3.9874999,-2.0219032764434814,-5.509057998657227,12.606070518493652,53.5888671875,-31.43310546875,-50.262451171875
3.9924999000000003,-3.426102638244629,-8.22348403930664,12.467206954956055,45.074462890625,18.951416015625,-59.50927734375
3.9974999,-3.205836057662964,-9.361329078674316,9.919178009033203,89.05029296875,11.474609375,-87.066650390625
4.0024999,-1.9943699836730957,-8.573038101196289,7.048529624938965,68.359375,-8.148193359375,-83.1298828125
4.0074999,-0.4213795065879822,-6.8378400802612305,4.607641220092773,3.326416015625,-12.75634765625,-76.507568359375
4.0124999,0.9133879542350769,-4.076726913452148,4.474762916564941,-48.248291015625,-7.049560546875,-51.971435546875
4.0174999,1.6202759742736816,-1.5191209316253662,5.366004467010498,-48.7060546875,6.072998046875,-59.4482421875
4.022499900000001,1.8614917993545532,1.161187767982483,7.914033889770508,-12.176513671875,25.909423828125,-39.520263671875
4.0274999000000005,1.8614917993545532,1.161187767982483,7.914033889770508,-12.176513671875,25.909423828125,-39.520263671875
4.0324999,0.7242460250854492,2.9502551555633545,12.324152946472168,27.099609375,19.34814453125,10.101318359375
4.0374999,0.7242460250854492,2.9502551555633545,12.324152946472168,27.099609375,19.34814453125,10.101318359375
4.0424999,-0.22026655077934265,2.43011474609375,12.563573837280273,-5.950927734375,10.68115234375,6.744384765625
4.0474999,-0.8050503134727478,1.1779472827911377,11.814188003540039,12.664794921875,-2.655029296875,0.823974609375
4.0524999,-1.3066356182098389,0.27413609623908997,10.336965560913086,-11.474609375,-9.21630859375,0.67138671875
4.0574999,-1.1109095811843872,-0.6290764808654785,9.193136215209961,-1.922607421875,-9.002685546875,-4.21142578125
4.062499900000001,-0.9516952037811279,-0.9786299467086792,9.261969566345215,-14.7705078125,-18.9208984375,6.34765625
4.0674999000000005,-0.33997663855552673,-0.9702502489089966,9.047089576721191,-3.326416015625,-13.48876953125,-3.47900390625
4.0724999,0.11372458189725876,-0.7823054194450378,9.958083152770996,-3.41796875,-16.05224609375,9.613037109375
4.0774999,0.5422866940498352,-0.6829460263252258,9.54209041595459,-7.87353515625,-8.544921875,-0.79345703125
4.0824999,1.016338586807251,-0.5021837949752808,10.061633110046387,2.74658203125,-9.1552734375,7.659912109375
4.0874999,1.1755530834197998,-0.6943184733390808,9.648633003234863,-11.474609375,-1.983642578125,-4.241943359375
4.0924999,1.404199242591858,-0.690727174282074,9.892841339111328,15.9912109375,8.6669921875,-1.556396484375
4.0974999,1.404199242591858,-0.690727174282074,9.892841339111328,15.9912109375,8.6669921875,-1.556396484375
4.1024999,0.9361328482627869,-0.5374982953071594,9.980229377746582,-6.9580078125,4.913330078125,2.44140625
4.1074999000000005,0.823006808757782,-0.585382342338562,9.6803560256958,11.749267578125,8.056640625,-5.9814453125
4.1124999,0.44412440061569214,-0.32202014327049255,10.011953353881836,-1.708984375,1.953125,3.509521484375
4.1174999,0.34835633635520935,-0.4291606545448303,9.473258018493652,1.708984375,5.340576171875,-6.2255859375
4.1224999,0.2908954918384552,-0.19452889263629913,10.018536567687988,3.96728515625,-0.18310546875,6.256103515625
4.1274999,0.13347674906253815,-0.3842693865299225,9.502586364746094,-6.927490234375,2.38037109375,-3.96728515625
4.1324999,0.30945056676864624,-0.1975216418504715,9.926959037780762,9.002685546875,-2.105712890625,3.753662109375
4.1374999,0.12928688526153564,-0.41120412945747375,9.679159164428711,-13.458251953125,-2.74658203125,-1.007080078125
4.1424999,0.4034229815006256,-0.3280056416988373,9.783905029296875,10.68115234375,-2.44140625,-0.42724609375
4.147499900000001,0.2735375463962555,-0.2932897210121155,9.840168952941895,-11.71875,-5.584716796875,2.532958984375
4.1524999000000005,0.5237316489219666,-0.25019407272338867,10.00955867767334,-4.94384765625,-5.279541015625,5.157470703125
4.1574999,0.6637924313545227,-0.5374982953071594,9.537900924682617,-1.03759765625,1.28173828125,-5.828857421875
4.1624999,0.7182605266571045,-0.4159925580024719,10.058639526367188,4.2724609375,-2.410888671875,4.7607421875
4.1674999,0.608127236366272,-0.7212532758712769,9.62947940826416,-8.697509765625,1.46484375,-4.425048828125
4.1724999,0.7416039705276489,-0.5135562419891357,9.973047256469727,11.688232421875,0.335693359375,1.89208984375
4.1774999,0.524330198764801,-0.5973533391952515,9.79647445678711,-11.199951171875,0.091552734375,-0.335693359375
4.1824999,0.7140706777572632,-0.5105634927749634,9.747393608093262,10.772705078125,2.50244140625,-2.13623046875
4.187499900000001,0.5147533416748047,-0.353743314743042,9.962273597717285,-7.965087890625,-2.044677734375,3.72314453125
4.1924999000000005,0.619499683380127,-0.47465047240257263,9.510966300964355,4.852294921875,3.35693359375,-5.523681640625
4.1974999,0.5363011956214905,-0.3076549172401428,10.072406768798828,0.91552734375,-2.3193359375,5.37109375
4.2024999,0.4489128291606903,-0.5464765429496765,9.510966300964355,-5.615234375,1.495361328125,-4.94384765625
4.2074999,0.5692214369773865,-0.3597288131713867,9.96825885772705,8.819580078125,-2.13623046875,3.2958984375
4.2124999,0.629675030708313,-0.4231751561164856,9.610923767089844,6.011962890625,2.532958984375,-4.730224609375
4.2174999,0.5171475410461426,-0.25318682193756104,10.11550235748291,-1.007080078125,-2.50244140625,4.852294921875
4.2224999,0.5111620426177979,-0.46986207365989685,9.518747329711914,-3.997802734375,2.685546875,-5.584716796875
4.2274999,0.6230909824371338,-0.30466216802597046,9.995792388916016,8.30078125,-0.79345703125,3.570556640625
4.2324999000000005,0.45908817648887634,-0.49978959560394287,9.679159164428711,-9.796142578125,0.9765625,-2.13623046875
4.2374999,0.6649895310401917,-0.4106055796146393,9.761758804321289,10.8642578125,1.64794921875,-0.579833984375
4.2424999,0.4710591733455658,-0.37648820877075195,9.955689430236816,-9.429931640625,-1.800537109375,2.777099609375
4.2474999,0.619499683380127,-0.45190557837486267,9.603142738342285,5.92041015625,3.204345703125,-4.69970703125
4.2524999,0.5093663930892944,-0.27413609623908997,10.103530883789062,0.18310546875,-2.410888671875,5.035400390625
4.2574999,0.46567222476005554,-0.4800374507904053,9.548076629638672,-5.157470703125,2.0751953125,-4.82177734375
4.2624999,0.41539400815963745,-0.4471171796321869,9.71926212310791,-10.43701171875,-0.396728515625,-1.495361328125
4.2674999,0.6350619792938232,-0.4225766062736511,9.715071678161621,9.429931640625,0.701904296875,-1.739501953125
4.272499900000001,0.49320554733276367,-0.3166331648826599,9.960477828979492,-8.209228515625,-3.0517578125,3.47900390625
4.2774999000000005,0.6021417379379272,-0.49978959560394287,9.548076629638672,2.899169921875,2.25830078125,-5.035400390625
4.2824999,0.5811924338340759,-0.30885201692581177,10.02691650390625,1.739501953125,-2.74658203125,4.7607421875
4.2874999,0.5135562419891357,-0.6039373874664307,9.576208114624023,-7.659912109375,1.0986328125,-4.150390625
4.2924999,0.6745663285255432,-0.4118026793003082,9.883264541625977,9.6435546875,-0.396728515625,1.708984375
4.2974999,0.4752490520477295,-0.4734533727169037,9.805453300476074,-10.07080078125,-1.03759765625,0.3662109375
4.3024999,0.6805518269538879,-0.47165772318840027,9.687539100646973,7.843017578125,2.288818359375,-3.204345703125
4.3074999,0.518943190574646,-0.29388827085494995,10.018536567687988,-3.47900390625,-2.5634765625,4.45556640625
4.312499900000001,0.5261258482933044,-0.48961424827575684,9.536704063415527,-0.335693359375,2.593994140625,-5.645751953125
4.3174999000000005,0.5973533391952515,-0.3190273642539978,9.953893661499023,6.591796875,-1.64794921875,3.631591796875
4.3224999,0.4638765752315521,-0.3776853084564209,9.949105262756348,-7.965087890625,-2.3193359375,2.685546875
4.3274999,0.568622887134552,-0.5045779943466187,9.546280860900879,3.326416015625,2.044677734375,-4.974365234375
4.3324999,0.5542576909065247,-0.2867056429386139,10.047865867614746,1.953125,-2.50244140625,4.638671875
4.3374999,0.50876784324646,-0.5770025849342346,9.582792282104492,-6.9580078125,1.0986328125,-3.875732421875
4.3424999,0.6619967818260193,-0.41120412945747375,9.841964721679688,9.58251953125,-0.518798828125,1.15966796875
4.3474999,0.48602294921875,-0.4279635548591614,9.792284965515137,-9.185791015625,-1.068115234375,0.79345703125
4.352499900000001,0.6554127335548401,-0.4686649739742279,9.583989143371582,6.34765625,2.0751953125,-3.692626953125
4.3574999000000005,0.5231330990791321,-0.2585737705230713,10.016142845153809,-1.434326171875,-2.44140625,4.730224609375
4.3624999,0.518943190574646,-0.517746090888977,9.57321548461914,-3.41796875,2.471923828125,-4.852294921875
4.3674999,0.6272808313369751,-0.3968389332294464,9.999382972717285,7.99560546875,-0.396728515625,2.50244140625
4.3724999,0.44592007994651794,-0.5512649416923523,9.797672271728516,-10.31494140625,-0.030517578125,-0.48828125
4.3774999,0.4345476031303406,-0.42856210470199585,9.66539192199707,-8.85009765625,0.213623046875,-1.64794921875
4.3824999,0.646434485912323,-0.39863458275794983,9.704896926879883,9.033203125,0.701904296875,-1.434326171875
4.3874999,0.5081692934036255,-0.32620999217033386,9.996989250183105,-6.683349609375,-2.288818359375,3.448486328125
4.3924999,0.5488707423210144,-0.4836287498474121,9.567828178405762,0.79345703125,2.3193359375,-4.913330078125
4.397499900000001,0.5764040350914001,-0.2717418968677521,9.989208221435547,4.791259765625,-2.288818359375,3.875732421875
4.4024999000000005,0.4381389021873474,-0.5027823448181152,9.679159164428711,-9.033203125,0.244140625,-2.38037109375
4.4074999,0.6254851818084717,-0.41539400815963745,9.718663215637207,9.58251953125,0.335693359375,-0.823974609375
4.4124999,0.4908113479614258,-0.40521863102912903,9.944915771484375,-6.622314453125,-2.288818359375,2.777099609375
4.4174999,0.5764040350914001,-0.5081692934036255,9.5223388671875,1.068115234375,2.13623046875,-4.730224609375
4.4224999,0.5123591423034668,-0.4207809567451477,9.979631423950195,-6.77490234375,-1.708984375,2.777099609375
4.4274999,0.5937620401382446,-0.5363011956214905,9.551069259643555,2.38037109375,2.410888671875,-4.669189453125
4.4324999,0.5919663906097412,-0.29807811975479126,9.961674690246582,3.753662109375,-1.739501953125,3.90625
4.437499900000001,0.4920084476470947,-0.5327098965644836,9.643245697021484,-8.1787109375,1.03759765625,-2.685546875
4.4424999000000005,0.6362590789794922,-0.43035775423049927,9.701305389404297,9.429931640625,0.701904296875,-0.54931640625
4.4474999,0.49799394607543945,-0.39863458275794983,9.939528465270996,-6.65283203125,-1.5869140625,2.86865234375
4.4524999,0.5608417391777039,-0.4836287498474121,9.528324127197266,0.946044921875,2.044677734375,-4.638671875
4.4574999,0.5823895931243896,-0.2801215946674347,9.959878921508789,3.936767578125,-2.01416015625,3.84521484375
4.4624999,0.4638765752315521,-0.47884035110473633,9.66299819946289,-8.026123046875,0.91552734375,-2.288818359375
4.4674999,0.6326677799224854,-0.4620809257030487,9.700706481933594,8.9111328125,0.701904296875,-0.823974609375
4.4724999,0.5285200476646423,-0.5548562407493591,9.516353607177734,0.3662109375,2.227783203125,-4.608154296875
4.477499900000001,0.5889736413955688,-0.3315969407558441,9.946710586547852,5.0048828125,-1.739501953125,3.47900390625
4.4824999000000005,0.6619967818260193,-0.45010992884635925,9.716867446899414,8.575439453125,1.251220703125,-1.8310546875
4.4874999,0.5237316489219666,-0.42676645517349243,10.056844711303711,-3.84521484375,-1.739501953125,3.47900390625
4.4924999,0.5392939448356628,-0.5524620413780212,9.622296333312988,-1.922607421875,2.13623046875,-4.669189453125
4.4974999,0.5895721912384033,-0.38307225704193115,10.032303810119629,6.16455078125,-1.3427734375,2.86865234375
4.5024999,0.4076128304004669,-0.49619829654693604,9.798869132995605,-8.85009765625,-0.30517578125,-0.701904296875
4.5074999,0.608127236366272,-0.4704606235027313,9.70310115814209,7.171630859375,1.190185546875,-2.593994140625
4.5124999,0.5051765441894531,-0.37229835987091064,10.065223693847656,-1.983642578125,-2.44140625,3.84521484375
4.5174999,0.5363011956214905,-0.5159504413604736,9.632472038269043,-3.875732421875,1.89208984375,-4.241943359375
4.522499900000001,0.6572083830833435,-0.32202014327049255,9.931747436523438,7.720947265625,-0.9765625,1.953125
4.5274999000000005,0.7691373229026794,-1.1971008777618408,9.666589736938477,29.1748046875,-1.251220703125,-11.1083984375
4.5324999,0.645237386226654,-0.6853402256965637,9.197325706481934,9.033203125,10.406494140625,7.080078125
4.5374999,0.8732850551605225,-0.8170213103294373,8.983044624328613,1.708984375,6.927490234375,14.801025390625
4.5424999,0.9840168952941895,0.19393034279346466,9.138668060302734,9.033203125,4.2724609375,-3.204345703125
4.5474999,0.6655880808830261,0.5351040959358215,8.776544570922852,-21.881103515625,1.434326171875,-5.79833984375
4.5524999,0.5590460896492004,0.5500678420066833,9.069235801696777,-4.974365234375,-1.373291015625,-0.244140625
4.5574999,0.2082955539226532,0.3124433159828186,9.57979965209961,-12.054443359375,-4.241943359375,0.579833984375
4.562499900000001,1.128267526626587,-0.262763649225235,9.86889934539795,-7.843017578125,5.126953125,0.823974609375
4.5674999000000005,1.1336544752120972,-0.29388827085494995,9.566631317138672,4.913330078125,7.26318359375,-4.791259765625
4.5724999,0.849941611289978,-0.19033902883529663,9.931148529052734,2.5634765625,2.838134765625,2.25830078125
4.5774999,0.5518634915351868,-0.5548562407493591,9.610923767089844,-4.39453125,4.791259765625,-3.173828125
4.5824999,0.4638765752315521,-0.5315127968788147,9.775525093078613,11.16943359375,1.922607421875,1.0986328125
4.5874999,0.2232593148946762,-0.4776432514190674,9.931747436523438,-4.608154296875,-1.678466796875,2.685546875
4.5924999,0.21308395266532898,-0.48303020000457764,9.52473258972168,0.762939453125,0.6103515625,-4.7607421875
4.5974999,0.3250128924846649,-0.16101007163524628,9.925761222839355,3.692626953125,-3.60107421875,3.23486328125
4.602499900000001,0.547075092792511,-0.2753331959247589,9.68933391571045,4.730224609375,-1.15966796875,-1.5869140625
4.6074999000000005,0.5033808946609497,-0.28311434388160706,10.033500671386719,-5.0048828125,-3.997802734375,3.662109375
4.6124999,0.5949591398239136,-0.5919663906097412,9.672574996948242,-4.21142578125,-0.42724609375,-4.150390625
4.6174999,0.7212532758712769,-0.517746090888977,9.891644477844238,8.056640625,-1.953125,1.251220703125
4.6224999,0.5937620401382446,-0.5207388401031494,9.86889934539795,-7.50732421875,-1.068115234375,1.03759765625
4.6274999,0.730231523513794,-0.5841852426528931,9.513360023498535,4.791259765625,2.349853515625,-3.570556640625
4.6324999,0.6745663285255432,-0.3172317147254944,9.904812812805176,3.204345703125,-0.54931640625,3.692626953125
4.6374999,0.5877765417098999,-0.5009866952896118,9.603741645812988,-7.14111328125,2.50244140625,-2.685546875
4.6424999,0.497395396232605,-0.35673606395721436,9.962871551513672,-3.753662109375,-0.396728515625,2.8076171875
4.647499900000001,0.497395396232605,-0.35673606395721436,9.962871551513672,-3.753662109375,-0.396728515625,2.8076171875
4.6524999000000005,0.4710591733455658,-0.5195417404174805,9.5809965133667,-0.885009765625,2.197265625,-4.21142578125
4.6574999,0.333991140127182,-0.46627077460289,9.821015357971191,-8.514404296875,-0.6103515625,0.244140625
4.6624999,0.497395396232605,-0.46088382601737976,9.657012939453125,5.340576171875,0.701904296875,-3.021240234375
4.6674999,0.4920084476470947,-0.35913026332855225,10.020931243896484,0.396728515625,-2.899169921875,3.631591796875
4.6724999,0.4967968463897705,-0.5219359993934631,9.672574996948242,-6.77490234375,0.1220703125,-3.021240234375
4.6774999,0.6470330357551575,-0.4034229815006256,9.787496566772461,7.50732421875,-0.885009765625,-0.213623046875
4.6824999,0.5315127968788147,-0.35434186458587646,9.931747436523438,-5.9814453125,-2.105712890625,2.38037109375
4.687499900000001,0.5650315880775452,-0.4644751250743866,9.498994827270508,-0.48828125,0.9765625,-4.180908203125
4.6924999000000005,0.6230909824371338,-0.28311434388160706,9.90361499786377,5.7373046875,-1.46484375,2.62451171875
4.6974999,0.49799394607543945,-0.43754035234451294,9.712677955627441,-7.9345703125,0.518798828125,-0.30517578125
4.7024999,0.6607996821403503,-0.4950011968612671,9.64683723449707,6.16455078125,2.227783203125,-2.62451171875
4.7074999,0.6123170852661133,-0.41958385705947876,10.013150215148926,0.274658203125,-1.129150390625,3.662109375
4.7124999,0.5752069354057312,-0.619499683380127,9.650428771972656,-5.523681640625,2.3193359375,-3.0517578125
4.7174999,0.5452794432640076,-0.36810851097106934,10.031704902648926,0.30517578125,-2.50244140625,3.509521484375
4.7224999,0.5596446394920349,-0.5943605899810791,9.709685325622559,-6.439208984375,1.0986328125,-3.0517578125
4.727499900000001,0.7092822790145874,-0.4770447015762329,9.819219589233398,7.904052734375,0.1220703125,-0.213623046875
4.7324999000000005,0.5841852426528931,-0.4273650050163269,9.970054626464844,-4.486083984375,-1.434326171875,2.532958984375
4.7374999,0.6015431880950928,-0.5147533416748047,9.531316757202148,-0.274658203125,2.13623046875,-4.08935546875
4.7424999,0.6302735805511475,-0.2974795699119568,9.880870819091797,6.744384765625,-0.732421875,2.197265625
4.7474999,0.4620809257030487,-0.395043283700943,9.756970405578613,-7.781982421875,0,0.274658203125
4.7524999,0.5129576921463013,-0.35075053572654724,9.977835655212402,2.01416015625,-1.5869140625,3.448486328125
4.7574999,0.456095427274704,-0.5536591410636902,9.668983459472656,-6.4697265625,0.9765625,-2.50244140625
4.7624999,0.5746083855628967,-0.47405192255973816,9.73661994934082,7.6904296875,0.335693359375,-0.885009765625
4.7674999,0.4537012279033661,-0.41539400815963745,9.988011360168457,-4.0283203125,-2.044677734375,3.204345703125
4.772499900000001,0.5093663930892944,-0.5261258482933044,9.622895240783691,-2.62451171875,1.129150390625,-3.96728515625
4.7774999000000005,0.5919663906097412,-0.33997663855552673,9.86770248413086,6.89697265625,-1.434326171875,1.434326171875
4.7824999,0.47884035110473633,-0.33758243918418884,9.873088836669922,-7.2021484375,-1.251220703125,1.007080078125
4.7874999,0.5913678407669067,-0.43933600187301636,9.566033363342285,2.532958984375,1.40380859375,-3.509521484375
4.7924999,0.6075286865234375,-0.27234044671058655,9.909002304077148,3.2958984375,-1.708984375,3.387451171875
4.7974999,0.5045779943466187,-0.49978959560394287,9.702502250671387,-7.598876953125,0.3662109375,-1.556396484375
4.8024999,0.669179379940033,-0.5045779943466187,9.655815124511719,6.4697265625,1.28173828125,-2.105712890625
4.8074999,0.2172738015651703,-0.8553285598754883,9.949105262756348,-0.762939453125,-1.8310546875,3.570556640625
4.812499900000001,-0.2519897222518921,-2.2816741466522217,8.603564262390137,93.658447265625,-0.579833984375,-4.119873046875
4.8174999000000005,-0.2519897222518921,-2.2816741466522217,8.603564262390137,93.658447265625,-0.579833984375,-4.119873046875
4.8224999,-0.3800795078277588,-3.00711727142334,6.809708118438721,61.82861328125,8.636474609375,38.9404296875
4.8274999,0.016759412363171577,-2.389413356781006,5.570110321044922,153.778076171875,6.988525390625,29.266357421875
4.8324999,0.6602011322975159,-0.7152677774429321,4.997297286987305,150.87890625,-3.11279296875,73.30322265625
4.8374999,1.1516109704971313,-0.06823474913835526,4.655525207519531,235.90087890625,-9.21630859375,32.77587890625
4.8424999,1.3443442583084106,1.1294646263122559,5.682039260864258,275.32958984375,-38.63525390625,25.5126953125
4.8474999,0.8074445128440857,0.8744821548461914,6.025607109069824,329.7119140625,-66.89453125,8.514404296875
4.852499900000001,0.4644751250743866,2.008735179901123,6.736086368560791,364.715576171875,-83.282470703125,11.444091796875
4.8574999000000005,-0.5315127968788147,1.1671733856201172,6.150704383850098,305.7861328125,-93.170166015625,-3.90625
4.8624999,-0.41778820753097534,2.958634853363037,5.972336292266846,290.95458984375,-114.349365234375,-22.491455078125
4.8674999,-0.6482301354408264,3.005321741104126,4.835090160369873,263.336181640625,-124.603271484375,-55.999755859375
4.8724999,2.8371291160583496,6.967126846313477,5.264250755310059,47.454833984375,-15.655517578125,-0.54931640625
4.8774999,2.9496564865112305,7.21791934967041,5.804741859436035,0.152587890625,0.701904296875,14.434814453125
4.8824999,2.801215887069702,7.097610950469971,6.52719259262085,-50.47607421875,39.031982421875,32.562255859375
4.8874999,2.2828712463378906,6.734290599822998,6.381744861602783,-101.165771484375,41.015625,40.52734375
4.8924999,2.141014814376831,6.1267619132995605,6.112396717071533,-107.7880859375,52.032470703125,34.0576171875
4.897499900000001,1.7076643705368042,5.345654010772705,5.957971096038818,-160.186767578125,62.01171875,33.721923828125
4.9024999000000005,1.5197194814682007,5.147533416748047,6.496067523956299,-199.951171875,59.99755859375,42.66357421875
4.9074999,1.6095020771026611,4.879981517791748,6.204573631286621,-209.8388671875,71.990966796875,37.53662109375
4.9124999,1.4664485454559326,4.808155536651611,6.731297969818115,-244.9951171875,70.068359375,49.072265625
4.9174999,1.4544775485992432,4.278438568115234,6.2847795486450195,-258.1787109375,77.2705078125,32.958984375
4.9224999,1.30543851852417,4.041412353515625,6.7277069091796875,-282.1044921875,76.416015625,41.32080078125
4.9274999,1.20368492603302,3.421912670135498,6.142324447631836,-304.26025390625,80.74951171875,24.2919921875
4.9324999,1.2611457109451294,2.7880477905273438,6.523002624511719,-320.9228515625,83.3740234375,28.74755859375
4.937499900000001,1.3539210557937622,1.9057846069335938,5.9974751472473145,-341.61376953125,93.1396484375,11.688232421875
4.9424999000000005,1.6873136758804321,1.125873327255249,6.517016887664795,-347.564697265625,101.654052734375,16.54052734375
4.9474999,0.9594763517379761,-1.1432312726974487,7.778761386871338,-349.029541015625,98.846435546875,-0.48828125
4.9524999,-0.4100070297718048,-4.434061527252197,10.169371604919434,-113.250732421875,-54.3212890625,-21.820068359375
4.9574999,-3.0855274200439453,-10.693103790283203,10.502764701843262,74.70703125,20.416259765625,-81.146240234375
4.9624999,-2.8209681510925293,-11.476605415344238,7.419631004333496,118.408203125,33.87451171875,-112.3046875
4.9674999,-1.206079125404358,-10.211869239807129,4.257489204406738,144.378662109375,19.683837890625,-118.896484375
4.9724999,0.6853402256965637,-7.864354133605957,2.469619035720825,44.3115234375,5.859375,-88.37890625
4.977499900000001,2.4851813316345215,-5.214571475982666,2.4390928745269775,-44.891357421875,5.37109375,-51.177978515625
4.9824999000000005,3.3464953899383545,-2.3080103397369385,3.6332011222839355,-91.888427734375,7.415771484375,-30.09033203125
4.9874999,3.399167776107788,0.35015198588371277,5.429450988769531,-52.3681640625,21.484375,-44.708251953125
4.9924999,2.564788579940796,2.6420016288757324,8.073247909545898,-31.829833984375,47.698974609375,-29.449462890625
4.9974999,1.1994950771331787,3.575141668319702,10.772111892700195,-5.035400390625,38.543701171875,-9.002685546875
5.0024999,-0.1041477769613266,3.71280837059021,13.324929237365723,21.331787109375,8.880615234375,21.942138671875
5.0074999,-1.2575544118881226,2.2685060501098633,13.673285484313965,7.537841796875,4.302978515625,4.547119140625
5.0124999,-1.7830817699432373,0.8882488012313843,12.630012512207031,8.697509765625,-2.593994140625,5.523681640625
5.0174999,-0.058059390634298325,-0.8948329091072083,9.672574996948242,-9.8876953125,-18.035888671875,5.645751953125
5.022499900000001,0.5560533404350281,-0.6099228858947754,9.889249801635742,5.4931640625,-10.7421875,1.739501953125
5.0274999000000005,0.8469488620758057,-0.2825157940387726,10.415974617004395,-7.598876953125,-12.359619140625,11.16943359375
5.0324999,1.2551602125167847,-0.48602294921875,9.749788284301758,-3.72314453125,-2.838134765625,-5.4931640625
5.0374999,1.468244194984436,-0.32381579279899597,10.1568021774292,0.42724609375,-3.5400390625,2.74658203125
5.0424999,1.4179660081863403,-0.6212953329086304,9.625288963317871,-8.758544921875,3.35693359375,-6.195068359375
5.0474999,1.4646528959274292,-0.4950011968612671,10.039485931396484,11.871337890625,3.448486328125,3.509521484375
5.0524999,1.0492589473724365,-0.7745242714881897,9.737217903137207,-9.246826171875,6.011962890625,-2.410888671875
5.0574999,0.9774328470230103,-0.67815762758255,9.829395294189453,15.5029296875,5.340576171875,-1.373291015625
5.062499900000001,0.43514615297317505,-0.345363587141037,9.515754699707031,3.41796875,5.31005859375,-4.8828125
5.0674999000000005,0.39205053448677063,-0.12389993667602539,10.047865867614746,1.129150390625,-1.251220703125,6.866455078125
5.0724999,0.2753331959247589,-0.3884592354297638,9.501988410949707,-6.134033203125,1.678466796875,-4.45556640625
5.0774999,0.3860650360584259,-0.2561795711517334,9.97603988647461,7.415771484375,-2.593994140625,4.39453125
5.0824999,0.228047713637352,-0.5351040959358215,9.700706481933594,-11.53564453125,-2.25830078125,-2.74658203125
5.0874999,0.4812345504760742,-0.42377370595932007,9.834183692932129,11.138916015625,-2.838134765625,-0.18310546875
5.0924999,0.3663128614425659,-0.4626794755458832,9.864709854125977,-12.542724609375,-4.119873046875,1.495361328125
5.0974999,0.6512228846549988,-0.49380409717559814,9.677363395690918,7.2021484375,-0.244140625,-3.875732421875
5.102499900000001,0.5488707423210144,-0.3298012912273407,9.983222961425781,-6.317138671875,-4.69970703125,4.486083984375
5.1074999000000005,0.6805518269538879,-0.5237316489219666,9.554061889648438,0.091552734375,1.28173828125,-6.256103515625
5.1124999,0.596754789352417,-0.6530185341835022,9.618106842041016,-7.32421875,1.52587890625,-4.57763671875
5.1174999,0.7332242727279663,-0.5033808946609497,9.967061996459961,10.223388671875,0.1220703125,2.410888671875
5.1224999,0.6344634294509888,-0.4776432514190674,9.479841232299805,4.94384765625,2.777099609375,-5.2490234375
5.1274999,0.5590460896492004,-0.26396074891090393,10.037690162658691,0.06103515625,-2.655029296875,5.096435546875
5.1324999,0.47465047240257263,-0.47644615173339844,9.518148422241211,-5.0048828125,2.01416015625,-5.55419921875
5.1374999,0.5913678407669067,-0.4572925269603729,9.889848709106445,7.2021484375,-1.46484375,3.84521484375
5.1424999,0.3100491166114807,-0.5363011956214905,9.453505516052246,-24.35302734375,-2.9296875,0.885009765625
5.147499900000001,0.3824737071990967,-0.3256114423274994,9.654618263244629,0.3662109375,-7.26318359375,1.5869140625
5.1524999000000005,0.09935937076807022,-0.2759317457675934,9.802460670471191,-4.425048828125,-8.636474609375,-2.13623046875
5.1574999,0.19273324310779572,-0.3531447649002075,10.118494987487793,3.692626953125,-9.58251953125,4.638671875
5.1624999,0.414795458316803,-1.080383539199829,9.752182006835938,-5.767822265625,-2.593994140625,-5.035400390625
5.1674999,0.8661024570465088,-0.871489405632019,9.658807754516602,11.90185546875,-2.227783203125,2.25830078125
5.1724999,1.0384849309921265,-0.9247604012489319,9.349357604980469,-7.01904296875,1.89208984375,-2.105712890625
5.1774999,1.3898340463638306,-0.790086567401886,9.149441719055176,9.613037109375,7.6904296875,2.13623046875
5.1824999,1.2749123573303223,-0.4165911078453064,9.414599418640137,-1.434326171875,3.509521484375,0.152587890625
5.187499900000001,1.256955862045288,-0.6135141849517822,9.162610054016113,10.31494140625,12.26806640625,-7.781982421875
5.1924999000000005,0.9469067454338074,-0.4321534037590027,9.840168952941895,3.90625,5.615234375,5.615234375
5.1974999,0.7080851793289185,-0.6590040326118469,9.45111083984375,5.06591796875,10.589599609375,-4.852294921875
5.2024999,0.8188169598579407,-0.6147112846374512,9.68813705444336,8.514404296875,-0.457763671875,-2.227783203125
5.2074999,0.7733271718025208,-0.5267243981361389,9.932944297790527,-5.950927734375,-2.5634765625,3.448486328125
5.2124999,0.9080010056495667,-0.6416460275650024,9.526528358459473,2.105712890625,3.662109375,-5.462646484375
5.2174999,0.9080010056495667,-0.6416460275650024,9.526528358459473,2.105712890625,3.662109375,-5.462646484375
5.2224999,0.8792705535888672,-0.424970805644989,10.046669006347656,5.31005859375,-0.3662109375,4.5166015625
