# Time (seconds),Accel_X,Accel_Y,Accel_Z,Gyro_X,Gyro_Y,Gyro_Z
0.0024999,-0.2406172752380371,0.11432313174009323,9.8970308303833,-9.6435546875,-19.622802734375,15.68603515625
0.0074999,-0.2406172752380371,0.11432313174009323,9.8970308303833,-9.6435546875,-19.622802734375,15.68603515625
0.012499900000000001,-0.32620999217033386,-0.13048399984836578,9.862914085388184,-7.32421875,-25.421142578125,10.101318359375
0.0174999,-0.1933317929506302,-0.35015198588371277,9.907805442810059,-6.53076171875,-19.22607421875,8.087158203125
0.0224999,0.1735796183347702,-0.5111620426177979,9.963470458984375,-0.518798828125,-9.70458984375,15.472412109375
0.0274999,0.5602431893348694,-0.7116764783859253,9.99339771270752,3.72314453125,-6.04248046875,13.36669921875
0.0324999,0.9343371987342834,-0.3321954905986786,9.429563522338867,2.166748046875,7.75146484375,-5.126953125
0.0374999,0.9205705523490906,-0.228047713637352,9.539097785949707,-11.5966796875,4.69970703125,8.36181640625
0.0424999,1.3832499980926514,-0.20949265360832214,9.575011253356934,5.615234375,9.613037109375,-45.013427734375
0.0474999,1.0516531467437744,0.33698388934135437,9.670180320739746,-4.730224609375,28.228759765625,9.27734375
0.0524999,1.1330559253692627,0.08200141042470932,9.660005569458008,-9.307861328125,19.012451171875,13.763427734375
0.0574999,0.4495113790035248,0.019153613597154617,9.57441234588623,-2.44140625,4.21142578125,-10.101318359375
0.0624999,-0.2795230448246002,-0.6021417379379272,9.355342864990234,7.781982421875,-0.396728515625,-7.171630859375
0.0674999,-0.5847837924957275,-1.0516531467437744,9.429563522338867,8.60595703125,1.0986328125,2.655029296875
0.0724999,-0.4357447028160095,-1.0271124839782715,9.62828254699707,5.18798828125,3.60107421875,3.021240234375
0.0774999,0.17298106849193573,-0.36571431159973145,9.906009674072266,2.44140625,6.195068359375,-0.518798828125
0.0824999,0.2687491476535797,-0.13168109953403473,9.964667320251465,2.50244140625,5.218505859375,-0.30517578125
0.0874999,0.26096799969673157,-0.05506663769483566,9.943717956542969,1.800537109375,2.01416015625,-0.54931640625
0.0924999,0.11791443079710007,0.16101007163524628,9.880271911621094,0.213623046875,-1.52587890625,1.28173828125
0.0974999,0.03292027488350868,0.07122749835252762,9.841365814208984,-5.06591796875,-5.126953125,-0.1220703125
0.1024999,0.13766659796237946,-0.047884032130241394,9.804854393005371,-3.35693359375,-4.0283203125,-6.04248046875
0.1074999,0.24600422382354736,-0.262763649225235,9.800664901733398,2.62451171875,2.13623046875,3.082275390625
0.1124999,0.4411316514015198,-0.5195417404174805,9.820416450500488,3.997802734375,4.39453125,-0.18310546875
0.1174999,0.42616790533065796,-0.5063736438751221,9.82759952545166,1.5869140625,2.50244140625,-0.91552734375
0.1224999,0.32680854201316833,-0.3705027103424072,9.832986831665039,-1.068115234375,-1.03759765625,0.335693359375
0.1274999,0.18734627962112427,-0.18914192914962769,9.841964721679688,-2.288818359375,-3.692626953125,-1.251220703125
0.1324999,0.11791443079710007,-0.14664486050605774,9.818022727966309,-2.227783203125,-3.662109375,-0.67138671875
0.1374999,0.2974795699119568,-0.3471592366695404,9.800065994262695,0.42724609375,1.0986328125,-0.3662109375
0.1424999,0.38067805767059326,-0.43933600187301636,9.791686058044434,1.220703125,2.62451171875,0.579833984375
0.1474999,0.37409400939941406,-0.44173020124435425,9.795876502990723,0.54931640625,0.885009765625,-0.396728515625
0.1524999,0.2974795699119568,-0.37888240814208984,9.800664901733398,-0.67138671875,-1.495361328125,-0.30517578125
0.1574999,0.2454056739807129,-0.28371289372444153,9.802460670471191,-1.220703125,-2.0751953125,-0.640869140625
0.1624999,0.243011474609375,-0.24660277366638184,9.827000617980957,-1.678466796875,-0.9765625,-0.518798828125
0.1674999,0.28072014451026917,-0.2801215946674347,9.813234329223633,-0.946044921875,0.396728515625,-0.213623046875
0.1724999,0.3345896899700165,-0.30466216802597046,9.82999324798584,0.091552734375,0.67138671875,-0.3662109375
0.17749990000000002,0.3489548861980438,-0.3693056106567383,9.822811126708984,0.18310546875,0.6103515625,-1.0986328125
0.1824999,0.33279404044151306,-0.39205053448677063,9.809642791748047,0.06103515625,0.640869140625,-0.42724609375
0.1874999,0.3172317147254944,-0.38307225704193115,9.81263542175293,0.213623046875,0.091552734375,-0.48828125
0.1924999,0.28550854325294495,-0.3800795078277588,9.798869132995605,0.030517578125,-0.152587890625,-0.396728515625
0.1974999,0.2561795711517334,-0.3489548861980438,9.800065994262695,0.30517578125,-0.1220703125,-0.244140625
0.2024999,0.2717418968677521,-0.34835633635520935,9.804854393005371,0.06103515625,0.18310546875,-0.213623046875
0.20749990000000001,0.29388827085494995,-0.33039984107017517,9.816825866699219,-0.06103515625,0.640869140625,-0.457763671875
0.2124999,0.3034650683403015,-0.3292027413845062,9.819818496704102,0.091552734375,1.03759765625,-0.518798828125
0.2174999,0.29807811975479126,-0.3250128924846649,9.82879638671875,0.213623046875,0.54931640625,-0.640869140625
0.2224999,0.2783259451389313,-0.32441434264183044,9.834183692932129,0.274658203125,0.091552734375,-0.030517578125
0.2274999,0.2513911724090576,-0.33758243918418884,9.820416450500488,0.244140625,0.06103515625,-0.18310546875
0.2324999,0.2406172752380371,-0.32620999217033386,9.822212219238281,0.518798828125,0.06103515625,0.335693359375
0.2374999,0.2388216257095337,-0.3208230137825012,9.81143856048584,0.335693359375,-0.30517578125,-0.030517578125
0.2424999,0.28072014451026917,-0.29807811975479126,9.818621635437012,-0.152587890625,-0.152587890625,-0.579833984375
0.2474999,0.2759317457675934,-0.27234044671058655,9.815030097961426,-0.457763671875,-0.030517578125,-0.579833984375
0.2524999,0.24480712413787842,-0.24899697303771973,9.82640266418457,-0.9765625,-1.52587890625,-0.946044921875
0.2574999,0.20051439106464386,-0.26336219906806946,9.820416450500488,-1.434326171875,-2.105712890625,-0.885009765625
0.2624999,0.1909375786781311,-0.2795230448246002,9.845556259155273,-1.220703125,-2.13623046875,-0.091552734375
0.2674999,0.21188685297966003,-0.3082534670829773,9.830592155456543,-0.885009765625,-2.044677734375,-0.06103515625
0.2724999,0.24779987335205078,-0.3172317147254944,9.824007987976074,-1.28173828125,-1.922607421875,0.030517578125
0.2774999,0.2968810200691223,-0.2944868206977844,9.830592155456543,-1.5869140625,-1.983642578125,-0.48828125
0.2824999,0.33698388934135437,-0.29388827085494995,9.823410034179688,-2.197265625,-1.220703125,-1.434326171875
0.28749990000000003,0.36152446269989014,-0.29149407148361206,9.834183692932129,-1.617431640625,-0.48828125,-1.007080078125
0.2924999,0.35913026332855225,-0.3357867896556854,9.82640266418457,-1.251220703125,-0.42724609375,-0.8544921875
0.2974999,0.33758243918418884,-0.38486793637275696,9.814431190490723,-0.8544921875,-0.91552734375,-0.518798828125
0.3024999,0.3447650372982025,-0.45190557837486267,9.81143856048584,0,-0.762939453125,-0.6103515625
0.3074999,0.3585317134857178,-0.4836287498474121,9.786897659301758,1.28173828125,1.953125,-0.1220703125
0.3124999,0.35733461380004883,-0.47165772318840027,9.775525093078613,0.8544921875,0.8544921875,-0.18310546875
0.3174999,0.30286651849746704,-0.414795458316803,9.768342971801758,0.732421875,-0.152587890625,-0.213623046875
0.3224999,0.27712884545326233,-0.272938996553421,9.795876502990723,-0.396728515625,0.3662109375,-1.129150390625
0.3274999,0.2651578485965729,-0.25677812099456787,9.821015357971191,-0.457763671875,0.54931640625,-0.732421875
0.3324999,0.3106476664543152,-0.26815059781074524,9.818022727966309,0.152587890625,0.06103515625,-1.953125
0.3374999,0.46986207365989685,-0.30226796865463257,9.852738380432129,1.739501953125,1.800537109375,-6.866455078125
0.3424999,0.44532153010368347,-0.2998737692832947,9.85034465789795,0.91552734375,6.8359375,-0.946044921875
0.34749990000000003,0.46088382601737976,-0.31783026456832886,9.84256362915039,-0.91552734375,5.126953125,-0.18310546875
0.35249990000000003,0.3663128614425659,-0.29628247022628784,9.840767860412598,-0.54931640625,-0.30517578125,-5.401611328125
0.3574999,0.21188685297966003,-0.29209262132644653,9.804854393005371,0.274658203125,0.54931640625,-1.617431640625
0.3624999,0.17537526786327362,-0.3082534670829773,9.782708168029785,-1.068115234375,1.861572265625,-0.701904296875
0.3674999,0.18555063009262085,-0.2849099934101105,9.773131370544434,-2.532958984375,0.79345703125,-3.448486328125
0.3724999,0.18974047899246216,-0.2555810213088989,9.782109260559082,-2.99072265625,0.91552734375,-2.716064453125
0.3774999,0.12330138683319092,-0.30047231912612915,9.77133560180664,-3.7841796875,0.54931640625,-0.274658203125
0.3824999,0.03172317147254944,-0.29149407148361206,9.798270225524902,-2.716064453125,-2.685546875,1.89208984375
0.3874999,-0.08978256583213806,-0.3280056416988373,9.783905029296875,-3.23486328125,-6.7138671875,1.983642578125
0.3924999,-0.18734627962112427,-0.3603273630142212,9.804255485534668,-4.364013671875,-9.70458984375,4.2724609375
0.3974999,-0.1843535304069519,-0.40222588181495667,9.801861763000488,-3.631591796875,-11.23046875,5.37109375
0.4024999,0.7032967209815979,-0.3878606855869293,9.853935241699219,2.38037109375,-1.068115234375,-0.9765625
0.4074999,0.6613982319831848,-0.3058592677116394,9.861717224121094,1.678466796875,1.434326171875,-0.9765625
0.41249990000000003,0.641047477722168,-0.2717418968677521,9.84615421295166,1.312255859375,1.861572265625,-0.79345703125
0.41749990000000003,0.6350619792938232,-0.2902969419956207,9.845556259155273,1.556396484375,2.349853515625,-4.241943359375
0.4224999,0.6027402877807617,-0.2825157940387726,9.847949981689453,2.5634765625,6.195068359375,-3.631591796875
0.4274999,0.5380968451499939,-0.36332011222839355,9.833584785461426,2.62451171875,8.087158203125,-1.708984375
0.4324999,0.46746787428855896,-0.3669114112854004,9.836577415466309,2.44140625,5.828857421875,-2.38037109375
0.4374999,0.4770447015762329,-0.35254621505737305,9.838972091674805,2.777099609375,4.913330078125,-6.04248046875
0.4424999,0.5542576909065247,-0.33279404044151306,9.838972091674805,2.8076171875,9.918212890625,-10.162353515625
0.4474999,0.690727174282074,-0.3010708689689636,9.84376049041748,2.960205078125,15.838623046875,-9.307861328125
0.4524999,0.31603461503982544,-0.008978256024420261,9.706692695617676,-11.260986328125,3.2958984375,-35.552978515625
0.4574999,-0.18076223134994507,-0.14185644686222076,9.717466354370117,-10.7421875,-0.67138671875,-28.4423828125
0.4624999,-0.8206126093864441,-0.41539400815963745,9.743802070617676,-7.537841796875,-3.021240234375,-7.2021484375
0.4674999,-1.3970166444778442,-0.5889736413955688,9.658209800720215,-4.638671875,-11.29150390625,14.617919921875
0.47249990000000003,-1.7046716213226318,-0.6153098344802856,9.722254753112793,-7.32421875,-26.885986328125,16.021728515625
0.47749990000000003,-1.5867571830749512,-0.6422445774078369,9.747992515563965,-7.171630859375,-29.4189453125,14.373779296875
0.4824999,0.3866635859012604,-0.8720879554748535,10.031704902648926,9.307861328125,-12.451171875,22.64404296875
0.4874999,1.8076223134994507,0.10055647045373917,9.749788284301758,1.495361328125,9.33837890625,-9.918212890625
0.4924999,1.8076223134994507,0.10055647045373917,9.749788284301758,1.495361328125,9.33837890625,-9.918212890625
0.4974999,1.8225860595703125,-0.023343466222286224,9.666589736938477,4.8828125,18.06640625,-11.077880859375
0.5024999,1.6801310777664185,-0.3250128924846649,9.660005569458008,8.30078125,21.087646484375,-14.09912109375
0.5074999,1.445499300956726,-0.579995334148407,9.653421401977539,9.46044921875,21.636962890625,-22.64404296875
0.5124999,1.1959037780761719,-0.6045359373092651,9.630077362060547,4.638671875,23.101806640625,-28.167724609375
0.5174999,0.9792284965515137,-0.3902548849582672,9.608530044555664,-1.708984375,23.223876953125,-31.280517578125
0.5224999,0.8912416100502014,0.21667525172233582,9.585784912109375,-7.14111328125,17.608642578125,-46.08154296875
0.5274999,0.6314706802368164,0.7003039717674255,9.709086418151855,-27.984619140625,9.765625,-69.061279296875
0.5324999,0.048482585698366165,0.6189011335372925,10.037092208862305,-31.982421875,9.490966796875,-63.751220703125
0.5374999,-1.8273744583129883,-0.38546648621559143,9.978434562683105,-9.8876953125,-13.18359375,-3.60107421875
0.5424999,-2.61087703704834,-0.8206126093864441,9.765350341796875,-5.43212890625,-26.947021484375,26.4892578125
0.5474999,-2.8185739517211914,-0.9911994934082031,9.615114212036133,-12.359619140625,-43.27392578125,27.03857421875
0.5524999,-2.300827741622925,-1.0684125423431396,9.658807754516602,-4.0283203125,-39.337158203125,24.5361328125
0.5574999,-1.2874820232391357,-1.2306196689605713,9.845556259155273,11.016845703125,-31.341552734375,33.843994140625
0.5624999,0.5530605912208557,-1.2791022062301636,10.132261276245117,23.651123046875,-17.242431640625,50.506591796875
0.5674999000000001,1.0546458959579468,-0.7775170207023621,10.157401084899902,23.345947265625,-4.39453125,48.492431640625
0.5724999000000001,1.45806884765625,-0.10295066982507706,10.169371604919434,13.36669921875,2.50244140625,38.330078125
0.5774999000000001,2.0440497398376465,0.414795458316803,9.988011360168457,8.575439453125,4.45556640625,20.20263671875
0.5824999,2.7988216876983643,0.31603461503982544,9.769539833068848,7.8125,14.83154296875,-4.669189453125
0.5874999,3.403357744216919,-0.16998831927776337,9.472060203552246,19.195556640625,29.632568359375,-37.841796875
0.5924999,2.5749640464782715,-0.9564836025238037,9.365518569946289,0.518798828125,40.496826171875,-23.406982421875
0.5974999,1.1420341730117798,-0.7817068696022034,9.276334762573242,4.669189453125,28.472900390625,-21.148681640625
0.6024999,-0.3489548861980438,-0.4554968774318695,9.526528358459473,-7.659912109375,1.007080078125,-32.71484375
0.6074999,-1.5286977291107178,-0.07122749835252762,9.61331844329834,-13.397216796875,-7.354736328125,-24.261474609375
0.6124999,-1.965639591217041,0.7110779285430908,9.655815124511719,-32.684326171875,-7.568359375,-4.058837890625
0.6174999,-2.1338322162628174,0.2585737705230713,10.196905136108398,-40.618896484375,-12.3291015625,-7.843017578125
0.6224999,-1.7256208658218384,0.608127236366272,9.983820915222168,-22.88818359375,-15.2587890625,5.401611328125
0.6274999,-1.403002142906189,-0.3010708689689636,10.466252326965332,-6.16455078125,-23.956298828125,24.169921875
0.6324999,-0.9253589510917664,-0.9217676520347595,10.152013778686523,-6.072998046875,-27.374267578125,33.75244140625
0.6374999,-0.52552729845047,-1.380257248878479,9.929951667785645,-0.030517578125,-30.120849609375,38.26904296875
0.6424999,-0.24361002445220947,-1.680729627609253,9.968857765197754,20.32470703125,-30.76171875,49.652099609375
0.6474999,-0.020949264988303185,-1.7274165153503418,9.88386344909668,20.69091796875,-21.148681640625,51.788330078125
0.6524999,0.8774749040603638,-0.7374141216278076,9.92097282409668,20.355224609375,7.87353515625,52.825927734375
0.6574999,1.7597382068634033,-0.08140286058187485,9.871294021606445,12.969970703125,10.92529296875,29.998779296875
0.6624999,2.806602954864502,-0.11312603205442429,9.853337287902832,22.552490234375,19.10400390625,-2.25830078125
0.6674999,3.757699489593506,-0.22924481332302094,9.459490776062012,29.632568359375,33.355712890625,-37.109375
0.6724999,4.259883403778076,-0.20530278980731964,9.042900085449219,-7.049560546875,39.459228515625,-63.201904296875
0.6774999,3.7241806983947754,-0.16879121959209442,9.12968921661377,-23.25439453125,43.426513671875,-76.23291015625
0.6824999,2.300827741622925,0.20470423996448517,9.115324020385742,-11.444091796875,38.909912109375,-44.830322265625
0.6874999,0.6847416758537292,0.5327098965644836,9.61451530456543,-1.678466796875,17.51708984375,-61.5234375
0.6924999000000001,-0.7595604658126831,0.8409633636474609,9.493608474731445,-17.63916015625,-8.4228515625,-108.551025390625
0.6974999000000001,-1.7166426181793213,0.6320692300796509,10.227431297302246,-63.446044921875,-14.068603515625,-91.644287109375
0.7024999000000001,-2.3810336589813232,0.38127660751342773,9.888651847839355,-35.858154296875,3.509521484375,-42.236328125
0.7074999,-2.84790301322937,-0.3693056106567383,9.877279281616211,-20.355224609375,-12.237548828125,14.007568359375
0.7124999,-2.2152352333068848,-2.2433669567108154,9.348758697509766,15.9912109375,-41.717529296875,54.3212890625
0.7174999,-1.1109095811843872,-2.036867141723633,9.612719535827637,21.697998046875,-35.888671875,63.5986328125
0.7224999,2.4432828426361084,0.3489548861980438,10.15141487121582,14.801025390625,15.106201171875,37.994384765625
0.7274999,3.354276657104492,0.005985504016280174,10.061034202575684,31.646728515625,27.28271484375,9.82666015625
0.7324999,4.152742862701416,-0.3124433159828186,9.622895240783691,29.754638671875,39.61181640625,-23.651123046875
0.7374999,4.55496883392334,-0.2801215946674347,9.079411506652832,-4.364013671875,41.046142578125,-63.17138671875
0.7424999,4.252102375030518,0.4429273009300232,9.018359184265137,-32.073974609375,43.8232421875,-98.0224609375
0.7474999,-0.3058592677116394,0.5309142470359802,10.04846477508545,-13.0615234375,-0.762939453125,-93.56689453125
0.7524999,-1.8806453943252563,-0.25019407272338867,9.960477828979492,-18.4326171875,-15.93017578125,-73.79150390625
0.7574999,-3.269881010055542,-1.9297266006469727,9.898228645324707,-31.92138671875,-11.53564453125,-44.37255859375
0.7624999,-3.8522706031799316,-1.5939397811889648,9.256582260131836,-11.199951171875,-16.387939453125,1.89208984375
0.7674999,-4.123414039611816,-1.6873136758804321,9.786897659301758,5.37109375,-41.534423828125,41.656494140625
0.7724999,-3.450044631958008,-1.1366472244262695,9.654019355773926,-13.427734375,-49.591064453125,43.365478515625
0.7774999,-2.293046712875366,-0.7589619159698486,9.7605619430542,-7.110595703125,-40.22216796875,47.79052734375
0.7824999,-1.0199298858642578,-0.7751228213310242,10.147225379943848,19.622802734375,-42.572021484375,64.02587890625
0.7874999,0.08798690885305405,-1.0205284357070923,10.146028518676758,24.23095703125,-33.3251953125,59.356689453125
0.7924999,0.8421604633331299,-0.9546879529953003,10.132261276245117,21.942138671875,-12.115478515625,61.1572265625
0.7974999,1.580173134803772,-0.5781996846199036,10.122684478759766,20.721435546875,1.03759765625,57.80029296875
0.8024999,3.973776340484619,0.25498247146606445,9.139864921569824,-24.505615234375,42.083740234375,-71.197509765625
0.8074999,2.8335378170013428,0.7475894689559937,9.282320022583008,-18.310546875,49.041748046875,-72.479248046875
0.8124999,1.2755109071731567,0.7338228225708008,9.610923767089844,-9.002685546875,30.09033203125,-70.770263671875
0.8174999000000001,-0.4620809257030487,-0.20290859043598175,9.932345390319824,-7.6904296875,-0.732421875,-68.267822265625
0.8224999000000001,-1.9482816457748413,-0.49140989780426025,9.838373184204102,-7.537841796875,-11.41357421875,-50.72021484375
0.8274999000000001,-3.132214307785034,-1.3287819623947144,10.04427433013916,-29.571533203125,-12.14599609375,-24.749755859375
0.8324999000000001,-3.5057098865509033,-0.657806932926178,9.676764488220215,-14.312744140625,-19.59228515625,8.880615234375
0.8374999,-3.4620156288146973,-0.5099649429321289,10.252570152282715,-1.129150390625,-38.14697265625,35.247802734375
0.8424999,-2.7252001762390137,-0.2992752194404602,10.129268646240234,-13.48876953125,-38.421630859375,36.07177734375
0.8474999,0.7577648162841797,-1.0414776802062988,10.055048942565918,14.95361328125,-12.8173828125,54.38232421875
0.8524999,1.492186188697815,-0.5746083855628967,9.901819229125977,17.425537109375,0.579833984375,53.924560546875
0.8574999,2.316390037536621,-0.06883329898118973,9.778518676757812,14.2822265625,10.07080078125,42.388916015625
0.8624999,3.1256303787231445,-0.2495955228805542,9.682151794433594,17.2119140625,18.6767578125,21.392822265625
0.8674999,3.7445313930511475,-0.46507367491722107,9.475651741027832,28.350830078125,26.824951171875,-15.533447265625
0.8724999,4.055179119110107,-0.3387795388698578,8.994417190551758,1.15966796875,29.693603515625,-51.971435546875
0.8774999,4.0330328941345215,0.03651157766580582,9.031527519226074,-27.069091796875,43.27392578125,-76.629638671875
0.8824999,3.293823003768921,0.7535749673843384,9.249998092651367,-22.186279296875,60.11962890625,-78.06396484375
0.8874999,1.9153614044189453,0.849941611289978,9.57201862335205,-10.223388671875,41.778564453125,-69.580078125
0.8924999,0.11552023142576218,-0.0035913025494664907,9.914389610290527,-6.591796875,5.401611328125,-67.32177734375
0.8974999,-3.8570590019226074,-0.9762357473373413,9.624092102050781,-11.962890625,-19.012451171875,9.674072265625
0.9024999,-3.8570590019226074,-0.9762357473373413,9.624092102050781,-11.962890625,-19.012451171875,9.674072265625
0.9074999,-3.8367083072662354,-0.7996633648872375,10.091560363769531,0.823974609375,-39.703369140625,38.787841796875
0.9124999,-2.9987375736236572,-0.5231330990791321,9.898228645324707,-14.984130859375,-39.85595703125,38.9404296875
0.9174999,-1.8363527059555054,-0.6338648796081543,9.962871551513672,-4.425048828125,-42.41943359375,47.8515625
0.9224999,-0.7870938181877136,-0.8720879554748535,10.174758911132812,21.759033203125,-44.3115234375,71.8994140625
0.9274999,0.1693897694349289,-1.1749545335769653,9.999382972717285,20.294189453125,-26.85546875,65.49072265625
0.9324999,0.8858546018600464,-0.960673451423645,10.039485931396484,16.78466796875,-7.537841796875,57.55615234375
0.9374999,1.6041151285171509,-0.4626794755458832,9.907206535339355,16.876220703125,3.753662109375,56.610107421875
0.9424999000000001,2.3912088871002197,-0.0035913025494664907,9.808445930480957,13.5498046875,12.51220703125,45.71533203125
0.9474999000000001,3.132214307785034,-0.29149407148361206,9.698312759399414,19.805908203125,19.073486328125,20.721435546875
0.9524999000000001,1.853710651397705,0.8984242081642151,9.675567626953125,-8.514404296875,34.454345703125,-66.5283203125
0.9574999000000001,1.853710651397705,0.8984242081642151,9.675567626953125,-8.514404296875,34.454345703125,-66.5283203125
0.9624999,-0.03292027488350868,-0.12689268589019775,10.020332336425781,-7.354736328125,2.38037109375,-67.108154296875
0.9674999,-1.876455545425415,-0.6835445761680603,10.102334022521973,-6.439208984375,-11.627197265625,-50.811767578125
0.9724999,-3.3051953315734863,-1.590348482131958,10.052654266357422,-27.008056640625,-11.5966796875,-21.97265625
0.9774999,-3.7702691555023193,-0.9564836025238037,9.764751434326172,-11.016845703125,-19.83642578125,14.95361328125
0.9824999,-3.6619315147399902,-0.7469909191131592,10.180744171142578,0.06103515625,-38.26904296875,38.909912109375
0.9874999,-2.757521867752075,-0.52552729845047,9.949105262756348,-14.95361328125,-37.353515625,36.4990234375
0.9924999,-1.6196774244308472,-0.6536170840263367,9.99220085144043,-1.40380859375,-40.6494140625,48.095703125
0.9974999,-0.6141127347946167,-0.9145850539207458,10.15141487121582,21.97265625,-40.679931640625,69.03076171875
1.0024999,2.6222493648529053,-0.07721300423145294,9.773131370544434,8.819580078125,11.90185546875,28.350830078125
1.0074999000000002,2.6222493648529053,-0.07721300423145294,9.773131370544434,8.819580078125,11.90185546875,28.350830078125
1.0124999000000001,3.422511339187622,-0.4734533727169037,9.683348655700684,19.439697265625,18.096923828125,0.396728515625
1.0174999000000002,3.9839515686035156,-0.48482584953308105,9.311649322509766,17.15087890625,30.82275390625,-31.55517578125
1.0224999000000001,4.16531229019165,-0.38127660751342773,9.136872291564941,-6.16455078125,43.548583984375,-58.10546875
1.0274999,3.6745009422302246,0.03232172131538391,9.296086311340332,-16.9677734375,56.182861328125,-65.4296875
1.0324999000000001,2.5019407272338867,0.5740098357200623,9.484031677246094,-6.378173828125,47.05810546875,-60.577392578125
1.0374999,0.8457517623901367,0.33937808871269226,9.779715538024902,-5.43212890625,15.777587890625,-67.047119140625
1.0424999000000001,-1.0007762908935547,-0.5476736426353455,9.961674690246582,-8.11767578125,-6.04248046875,-64.361572265625
1.0474999,-2.446275472640991,-0.7775170207023621,9.932345390319824,-10.19287109375,-12.237548828125,-41.168212890625
1.0524999000000002,-3.354875087738037,-1.2108675241470337,9.92097282409668,-24.383544921875,-11.53564453125,-11.444091796875
1.0574999,-3.09689998626709,-0.2902969419956207,10.138845443725586,-2.044677734375,-33.294677734375,35.5224609375
1.0624999000000002,-3.09689998626709,-0.2902969419956207,10.138845443725586,-2.044677734375,-33.294677734375,35.5224609375
1.0674999,-2.186504602432251,-0.31543606519699097,10.038289070129395,-12.02392578125,-35.888671875,33.14208984375
1.0724999000000002,-1.2186486721038818,-0.5003881454467773,10.046669006347656,2.593994140625,-37.17041015625,46.783447265625
1.0774999,-0.4225766062736511,-0.8146271109580994,10.129867553710938,20.81298828125,-33.111572265625,60.638427734375
1.0824999000000002,0.3423708379268646,-0.9582792520523071,9.964069366455078,12.420654296875,-21.91162109375,49.530029296875
1.0874999,1.0205284357070923,-0.4537012279033661,9.993996620178223,10.772705078125,-8.941650390625,50.23193359375
1.0924999000000002,1.9488801956176758,-0.02274491637945175,9.810839653015137,9.490966796875,4.364013671875,37.994384765625
1.0974999,2.851494312286377,-0.16160862147808075,9.642048835754395,6.16455078125,9.70458984375,14.556884765625
1.1024999000000002,3.6846764087677,-0.47405192255973816,9.50617790222168,18.341064453125,20.477294921875,-13.916015625
1.1074999,4.107253074645996,-0.5309142470359802,9.107542991638184,10.772705078125,37.353515625,-40.863037109375
1.1124999000000002,3.973177671432495,-0.4668693244457245,9.287707328796387,-10.6201171875,48.64501953125,-53.03955078125
1.1174999,3.0555999279022217,-0.07182604819536209,9.43375301361084,-8.575439453125,53.802490234375,-50.84228515625
1.1224999000000002,-3.138798475265503,-0.8277952671051025,9.82759952545166,-18.524169921875,-13.885498046875,7.415771484375
1.1274999,-2.9712042808532715,-0.1867477297782898,10.17176628112793,-3.082275390625,-26.91650390625,25.69580078125
1.1324999000000002,-2.478597402572632,-0.12270283699035645,10.102334022521973,-7.2021484375,-32.65380859375,34.85107421875
1.1374999000000001,-1.6184803247451782,-0.4812345504760742,10.155006408691406,-4.913330078125,-37.17041015625,36.56005859375
1.1424999000000002,-0.9630676507949829,-0.6320692300796509,10.175955772399902,12.115478515625,-36.1328125,55.72509765625
1.1474999000000001,-0.2519897222518921,-0.9774328470230103,10.078990936279297,18.12744140625,-30.731201171875,57.373046875
1.1524999000000002,0.4531026780605316,-0.6482301354408264,10.045472145080566,9.613037109375,-14.83154296875,53.52783203125
1.1574999000000001,1.324592113494873,-0.14245499670505524,9.889848709106445,9.6435546875,-1.556396484375,49.652099609375
1.1624999,4.024054527282715,-0.6584054827690125,9.245808601379395,14.556884765625,28.656005859375,-24.871826171875
1.1674999000000001,4.359841346740723,-0.5315127968788147,9.11113452911377,-6.195068359375,41.351318359375,-54.107666015625
1.1724999,3.9474401473999023,-0.07302315533161163,9.305663108825684,-15.777587890625,59.661865234375,-57.891845703125
1.1774999000000002,2.7904419898986816,0.45190557837486267,9.518747329711914,-5.706787109375,50.35400390625,-53.375244140625
1.1824999,1.1186907291412354,0.25677812099456787,9.80904483795166,-4.364013671875,16.326904296875,-64.910888671875
1.1874999000000002,-0.7799112200737,-0.6153098344802856,9.962871551513672,-8.72802734375,-3.41796875,-65.97900390625
1.1924999,-2.2846670150756836,-0.750582218170166,9.965864181518555,-8.36181640625,-8.636474609375,-37.7197265625
1.1974999000000002,-3.2740707397460938,-1.1857284307479858,9.893440246582031,-22.125244140625,-10.6201171875,-5.2490234375
1.2024999,-3.447052001953125,-0.5309142470359802,9.943120002746582,-6.53076171875,-22.003173828125,21.8505859375
1.2074999000000002,-3.202843427658081,-0.3411737382411957,10.043676376342773,-3.96728515625,-33.599853515625,35.552978515625
1.2124999,-2.3529016971588135,-0.42676645517349243,9.976638793945312,-11.566162109375,-37.90283203125,34.454345703125
1.2174999000000002,0.20350714027881622,-0.9014169573783875,9.938331604003906,12.3291015625,-19.073486328125,55.84716796875
1.2224999,0.99479079246521,-0.3621230125427246,9.951498985290527,9.735107421875,-5.096435546875,55.35888671875
1.2274999000000002,1.9728221893310547,-0.1280897855758667,9.840767860412598,8.11767578125,2.8076171875,41.656494140625
1.2324999,2.982576847076416,-0.3214215636253357,9.642048835754395,19.866943359375,12.298583984375,19.866943359375
1.2374999000000002,3.7858314514160156,-0.5291185975074768,9.41100788116455,18.5546875,24.4140625,-7.75146484375
1.2424999,4.323928356170654,-0.5195417404174805,9.090185165405273,-0.762939453125,34.088134765625,-44.647216796875
1.2474999000000002,4.265868663787842,-0.17537526786327362,9.182960510253906,-13.702392578125,54.443359375,-62.469482421875
1.2524999,3.4189200401306152,0.28790274262428284,9.510966300964355,-8.270263671875,56.396484375,-56.45751953125
1.2574999000000002,1.9728221893310547,0.3734954595565796,9.718064308166504,-2.777099609375,29.78515625,-60.85205078125
1.2624999000000001,0.08858546614646912,-0.3124433159828186,10.032303810119629,-8.941650390625,3.35693359375,-73.66943359375
1.2674999000000002,-1.6741455793380737,-0.48243165016174316,9.763554573059082,-7.62939453125,-7.843017578125,-55.419921875
1.2724999000000001,-3.556586742401123,-0.5578489899635315,9.50737476348877,-11.1083984375,-15.7470703125,11.5966796875
1.2774999000000002,-3.602674961090088,-0.5201402902603149,10.056844711303711,-0.79345703125,-33.69140625,34.66796875
1.2824999000000001,-2.9059622287750244,-0.3423708379268646,9.929951667785645,-15.5029296875,-37.811279296875,34.5458984375
1.2874999,-1.8848352432250977,-0.629675030708313,10.09934139251709,-1.800537109375,-39.85595703125,43.9453125
1.2924999000000001,-0.9888052940368652,-0.8337807655334473,10.233416557312012,18.4326171875,-38.818359375,65.582275390625
1.2974999,-0.06224924325942993,-1.0851719379425049,10.077195167541504,15.80810546875,-24.2919921875,57.403564453125
1.3024999000000002,0.6655880808830261,-0.6518214344978333,10.082581520080566,11.077880859375,-10.711669921875,59.417724609375
1.3074999,1.6047136783599854,-0.08319851011037827,9.862914085388184,10.223388671875,1.0986328125,54.5654296875
1.3124999000000002,2.5947160720825195,-0.17058686912059784,9.674370765686035,14.2822265625,9.82666015625,31.158447265625
1.3174999,3.5871126651763916,-0.3585317134857178,9.522936820983887,21.392822265625,22.125244140625,6.53076171875
1.3224999000000002,4.31135892868042,-0.5237316489219666,9.112930297851562,4.8828125,31.3720703125,-32.470703125
1.3274999,4.532223701477051,-0.4429273009300232,9.210494041442871,-9.70458984375,48.675537109375,-61.126708984375
1.3324999000000002,2.497750997543335,0.2783259451389313,9.665990829467773,-1.52587890625,39.154052734375,-55.389404296875
1.3374999,0.6236895322799683,-0.0975637212395668,10.000580787658691,-7.38525390625,9.521484375,-71.502685546875
1.3424999000000002,-1.2324153184890747,-0.8086416125297546,9.932944297790527,-9.124755859375,-6.28662109375,-65.765380859375
1.3474999,-2.667739152908325,-0.8619126081466675,9.943717956542969,-14.404296875,-9.979248046875,-30.33447265625
1.3524999000000002,-3.384204149246216,-1.0761936902999878,9.689932823181152,-17.425537109375,-11.688232421875,2.349853515625
1.3574999,-3.5422213077545166,-0.35015198588371277,10.019734382629395,-1.983642578125,-28.167724609375,27.801513671875
1.3624999000000002,-1.236605167388916,-0.5931634902954102,10.093954086303711,12.786865234375,-38.6962890625,59.234619140625
1.3674999,-0.2783259451389313,-1.0217255353927612,9.9772367477417,18.4326171875,-29.205322265625,56.427001953125
1.3724999000000002,0.4800374507904053,-0.7775170207023621,10.012551307678223,10.894775390625,-14.6484375,52.91748046875
1.3774999,1.3479355573654175,-0.19033902883529663,9.909601211547852,9.94873046875,-1.983642578125,55.2978515625
1.3824999000000002,3.288435935974121,-0.3645172119140625,9.64923095703125,21.3623046875,17.333984375,13.18359375
1.3874999000000001,4.072536945343018,-0.5494692921638489,9.25059700012207,10.43701171875,29.78515625,-22.186279296875
1.3924999000000002,4.495113849639893,-0.5823895931243896,9.207501411437988,-5.4931640625,45.013427734375,-57.06787109375
1.3974999000000001,4.010287761688232,-0.18076223134994507,9.410409927368164,-10.80322265625,58.65478515625,-58.89892578125
1.4024999000000002,2.823362350463867,0.30286651849746704,9.63067626953125,-2.197265625,45.0439453125,-54.38232421875
1.4074999000000001,1.0875661373138428,0.27653029561042786,9.947908401489258,-6.04248046875,15.380859375,-71.10595703125
1.4124999,-0.7846996188163757,-0.4794389009475708,9.959878921508789,-11.41357421875,-3.326416015625,-73.1201171875
1.4174999000000001,-2.2679076194763184,-0.6697779297828674,9.926360130310059,-9.613037109375,-7.904052734375,-41.290283203125
1.4224999,-3.250128746032715,-1.113303780555725,9.67077922821045,-19.83642578125,-10.711669921875,-6.866455078125
1.4274999000000002,-3.4991257190704346,-0.5793967843055725,9.849146842956543,-4.0283203125,-21.820068359375,20.721435546875
1.4324999,-3.3423056602478027,-0.3477577865123749,9.900622367858887,-8.880615234375,-36.80419921875,38.4521484375
1.4374999000000002,-2.446275472640991,-0.44592007994651794,9.883264541625977,-14.495849609375,-39.306640625,35.46142578125
1.4424999,-0.507570743560791,-1.0348936319351196,9.991601943969727,20.69091796875,-34.423828125,57.708740234375
1.4474999000000002,0.33099839091300964,-0.9810241460800171,9.932345390319824,11.627197265625,-17.974853515625,49.407958984375
1.4524999,1.1779472827911377,-0.36990416049957275,9.931148529052734,10.6201171875,-4.241943359375,53.64990234375
1.4574999000000002,2.0895395278930664,-0.20709845423698425,9.862914085388184,6.317138671875,3.997802734375,38.26904296875
1.4624999,3.0346505641937256,-0.3489548861980438,9.642647743225098,18.463134765625,12.786865234375,16.571044921875
1.4674999000000002,3.844489336013794,-0.4950011968612671,9.378686904907227,14.617919921875,26.641845703125,-13.5498046875
1.4724999,4.325125217437744,-0.5644330382347107,9.188347816467285,-1.983642578125,40.4052734375,-49.4384765625
1.4774999000000002,4.0330328941345215,-0.22385786473751068,9.396044731140137,-8.453369140625,56.15234375,-56.0302734375
1.4824999,2.9706058502197266,0.15921440720558167,9.61331844329834,-2.62451171875,47.943115234375,-50.323486328125
1.4874999000000002,1.334767460823059,0.18555063009262085,9.894038200378418,-3.936767578125,20.172119140625,-61.34033203125
1.4924999,-0.4578910768032074,-0.45190557837486267,9.97065258026123,-8.97216796875,-1.800537109375,-69.64111328125
1.4974999000000002,-1.9476830959320068,-0.2974795699119568,9.716867446899414,-6.683349609375,-7.354736328125,-43.27392578125
1.5024999,-3.226186752319336,-0.36810851097106934,10.028712272644043,-3.60107421875,-34.088134765625,33.172607421875
1.5074999000000002,-2.4241292476654053,-0.4842272996902466,9.914987564086914,-13.671875,-36.651611328125,33.050537109375
1.5124999000000001,-1.469441294670105,-0.7068880796432495,10.030508041381836,3.11279296875,-36.1328125,46.81396484375
1.5174999000000002,-0.5626373887062073,-1.0013748407363892,10.10053825378418,18.951416015625,-34.454345703125,57.708740234375
1.5224999000000001,0.2968810200691223,-0.9941922426223755,9.988011360168457,9.94873046875,-20.294189453125,44.769287109375
1.5274999000000002,0.2968810200691223,-0.9941922426223755,9.988011360168457,9.94873046875,-20.294189453125,44.769287109375
1.5324999000000001,1.037886381149292,-0.3932476341724396,9.998785018920898,8.9111328125,-6.89697265625,49.560546875
1.5374999000000003,1.9153614044189453,-0.13347674906253815,9.892841339111328,6.317138671875,2.349853515625,39.703369140625
1.5424999000000001,2.8161797523498535,-0.3280056416988373,9.631275177001953,15.533447265625,10.406494140625,16.998291015625
1.5474999,3.6332011222839355,-0.5464765429496765,9.409811019897461,15.07568359375,23.406982421875,-10.92529296875
1.5524999000000002,-0.36810851097106934,-0.4118026793003082,9.97364616394043,-9.124755859375,-1.03759765625,-65.032958984375
1.5574999,-1.8441338539123535,-0.1909375786781311,9.700706481933594,-7.2021484375,-6.4697265625,-41.93115234375
1.5624999000000002,-2.919728994369507,-0.7763199210166931,9.919178009033203,-19.8974609375,-9.521484375,-7.99560546875
1.5674999,-3.1920695304870605,-0.03531447425484657,9.632472038269043,-13.336181640625,-18.12744140625,15.5029296875
1.5724999000000002,-3.140594005584717,-0.23523031175136566,10.169970512390137,-3.662109375,-32.77587890625,31.524658203125
1.5774999,-2.411559581756592,-0.4034229815006256,10.011354446411133,-13.7939453125,-36.0107421875,33.14208984375
1.5824999000000002,-1.5179238319396973,-0.6554127335548401,10.128071784973145,2.13623046875,-37.322998046875,46.844482421875
1.5874999,-0.6715735793113708,-0.9840168952941895,10.149619102478027,18.1884765625,-35.94970703125,58.59375
1.5924999000000002,0.16579847037792206,-1.026513934135437,9.999382972717285,10.894775390625,-22.15576171875,46.356201171875
1.5974999,2.756923198699951,-0.3274070918560028,9.580398559570312,13.36669921875,9.82666015625,17.669677734375
1.6024999000000002,3.667917013168335,-0.5542576909065247,9.388263702392578,15.0146484375,21.54541015625,-10.162353515625
1.6074999,4.249109268188477,-0.5781996846199036,9.135076522827148,0.885009765625,39.642333984375,-42.633056640625
1.6124999000000002,4.0863037109375,-0.46148237586021423,9.442132949829102,-7.01904296875,57.159423828125,-54.229736328125
1.6174999,3.073556423187256,0.015562310814857483,9.637260437011719,-2.99072265625,49.98779296875,-47.698974609375
1.6224999000000002,1.4873977899551392,0.21966800093650818,9.904812812805176,-3.326416015625,22.613525390625,-57.06787109375
1.6274999,-0.3345896899700165,-0.2932897210121155,10.011953353881836,-8.392333984375,0.1220703125,-67.9931640625
1.6324999000000002,-1.7764976024627686,-0.1562216579914093,9.728838920593262,-7.01904296875,-6.561279296875,-44.49462890625
1.6374999000000001,-2.8652608394622803,-0.8122329115867615,9.877279281616211,-19.561767578125,-7.080078125,-6.500244140625
1.6424999000000002,-3.139396905899048,-0.1759738177061081,9.554061889648438,-14.404296875,-18.035888671875,17.608642578125
1.6474999000000001,-3.1304187774658203,-0.42437225580215454,10.056245803833008,-4.974365234375,-34.149169921875,31.158447265625
1.6524999000000002,0.22924481332302094,-1.0732009410858154,9.888052940368652,13.00048828125,-20.99609375,50.10986328125
1.6574999000000001,0.9672574996948242,-0.47465047240257263,9.91738224029541,10.162353515625,-5.218505859375,52.520751953125
1.6624999000000003,1.8465280532836914,-0.07900865375995636,9.829395294189453,5.767822265625,3.936767578125,40.130615234375
1.6674999000000001,2.7335798740386963,-0.29149407148361206,9.606135368347168,10.7421875,8.48388671875,13.00048828125
1.6724999,3.6733038425445557,-0.5877765417098999,9.382277488708496,16.6015625,22.491455078125,-14.83154296875
1.6774999000000002,4.226963043212891,-0.6206967830657959,9.19552993774414,2.105712890625,44.281005859375,-43.975830078125
1.6824999,3.99532413482666,-0.5722141861915588,9.503783226013184,-5.67626953125,58.77685546875,-54.99267578125
1.6874999000000002,2.999934673309326,0.07481880486011505,9.723451614379883,-1.922607421875,48.248291015625,-50.9033203125
1.6924999,1.426345705986023,0.44771572947502136,10.005967140197754,-5.31005859375,21.42333984375,-63.232421875
1.6974999000000002,-0.37469255924224854,-0.02693476900458336,10.064026832580566,-9.6435546875,1.40380859375,-69.976806640625
1.7024999,-2.8772318363189697,-0.8050503134727478,9.853337287902832,-21.148681640625,-7.537841796875,-8.087158203125
1.7074999000000002,-3.1280245780944824,-0.44352585077285767,9.613917350769043,-12.87841796875,-18.06640625,19.317626953125
1.7124999,-3.132214307785034,-0.6440402865409851,10.035895347595215,-4.119873046875,-35.33935546875,34.942626953125
1.7174999000000002,-2.3487119674682617,-0.7487865686416626,9.758766174316406,-16.66259765625,-38.2080078125,36.92626953125
1.7224999,-1.4077905416488647,-0.982221245765686,9.86351203918457,2.410888671875,-39.85595703125,55.35888671875
1.7274999000000002,-0.4638765752315521,-1.3108254671096802,9.947908401489258,25.20751953125,-36.529541015625,62.07275390625
1.7324999,0.26815059781074524,-1.2725181579589844,9.753378868103027,16.937255859375,-18.6767578125,53.558349609375
1.7374999000000002,1.0085574388504028,-0.5859808921813965,9.871891975402832,11.749267578125,-3.35693359375,51.26953125
1.7424999,1.8339585065841675,-0.16579847037792206,9.877279281616211,5.615234375,3.997802734375,34.60693359375
1.7474999000000002,2.759916067123413,-0.26156654953956604,9.667187690734863,15.7470703125,9.857177734375,10.8642578125
1.7524999,3.6954503059387207,-0.3776853084564209,9.450512886047363,15.68603515625,27.03857421875,-15.472412109375
1.7574999000000002,4.257489204406738,-0.5069721937179565,9.245808601379395,2.38037109375,46.539306640625,-49.560546875
1.7624999000000001,2.9963433742523193,0.284311443567276,9.742006301879883,-1.40380859375,47.393798828125,-53.558349609375
1.7674999000000002,1.4131776094436646,0.5273229479789734,10.012551307678223,-5.218505859375,19.561767578125,-67.230224609375
1.7724999000000001,-0.3884592354297638,-0.0628477931022644,10.040084838867188,-10.406494140625,-1.5869140625,-75.13427734375
1.7774999000000002,-1.8112136125564575,-0.13347674906253815,9.744999885559082,-7.87353515625,-6.805419921875,-47.7294921875
1.7824999000000001,-2.9921536445617676,-0.8655039072036743,9.673172950744629,-22.430419921875,-9.033203125,-7.75146484375
1.7874999000000003,-3.3022027015686035,-0.38067805767059326,9.390059471130371,-12.5732421875,-19.1650390625,19.439697265625
1.7924999000000001,-3.3279404640197754,-0.4854243993759155,9.819818496704102,-3.936767578125,-37.2314453125,35.21728515625
1.7974999,-2.4881742000579834,-0.5823895931243896,9.639056205749512,-17.730712890625,-38.360595703125,35.003662109375
1.8024999000000002,-1.467047095298767,-0.8577227592468262,9.834781646728516,1.77001953125,-38.14697265625,53.22265625
1.8074999,-0.42197805643081665,-1.2713210582733154,9.962871551513672,25.299072265625,-36.102294921875,60.455322265625
1.8124999000000002,0.4058171808719635,-1.2623428106307983,9.78989028930664,15.68603515625,-17.364501953125,48.88916015625
1.8174999,1.2120646238327026,-0.6212953329086304,9.908403396606445,9.918212890625,-2.899169921875,44.00634765625
1.8224999000000002,2.9706058502197266,-0.39564183354377747,9.682151794433594,17.4560546875,12.420654296875,6.011962890625
1.8274999,3.782240152359009,-0.4489128291606903,9.455301284790039,13.519287109375,30.364990234375,-20.6298828125
1.8324999000000002,4.172494888305664,-0.5033808946609497,9.348160743713379,0.457763671875,47.454833984375,-50.140380859375
1.8374999,3.708618402481079,-0.14185644686222076,9.584588050842285,-5.92041015625,56.33544921875,-54.99267578125
1.8424999000000002,-0.6901286244392395,-0.2819172441959381,9.910199165344238,-10.1318359375,-2.288818359375,-71.1669921875
1.8474999,-1.9806033372879028,-0.25498247146606445,9.82759952545166,-10.406494140625,-7.14111328125,-39.12353515625
1.8524999000000002,-2.9502551555633545,-0.8086416125297546,9.59715747833252,-23.468017578125,-8.97216796875,-3.936767578125
1.8574999,-3.207033157348633,-0.2777273952960968,9.666589736938477,-10.650634765625,-23.284912109375,23.681640625
1.8624999000000002,-3.1202433109283447,-0.31364041566848755,9.850942611694336,-11.3525390625,-39.825439453125,36.7431640625
1.8674999,-2.278681516647339,-0.5608417391777039,9.658209800720215,-16.9677734375,-39.24560546875,38.57421875
1.8724999000000002,2.1272482872009277,-0.3058592677116394,9.781511306762695,5.828857421875,3.875732421875,28.961181640625
1.8774999,3.141192674636841,-0.4273650050163269,9.657012939453125,21.087646484375,16.326904296875,6.317138671875
1.8824999000000002,3.97257924079895,-0.5895721912384033,9.37509536743164,10.498046875,32.379150390625,-26.031494140625
1.8874999000000001,4.397550106048584,-0.569819986820221,9.351752281188965,-1.40380859375,51.94091796875,-55.328369140625
1.8924999000000002,3.8283286094665527,-0.21667525172233582,9.607931137084961,-6.317138671875,59.967041015625,-59.173583984375
1.8974999000000001,2.5917234420776367,0.37169981002807617,9.774328231811523,-2.166748046875,38.299560546875,-55.084228515625
1.9024999000000002,0.8289923667907715,0.40282443165779114,10.04307746887207,-7.080078125,10.223388671875,-72.75390625
1.9074999000000001,-0.9151836037635803,-0.28550854325294495,9.881468772888184,-9.8876953125,-4.730224609375,-70.709228515625
1.9124999000000003,-3.5045127868652344,-0.365115761756897,9.810839653015137,-5.096435546875,-30.45654296875,31.67724609375
1.9174999000000001,-3.1202433109283447,-0.23104046285152435,9.640253067016602,-16.021728515625,-41.046142578125,37.628173828125
1.9224999,-1.1264718770980835,-0.9941922426223755,9.815030097961426,21.8505859375,-43.548583984375,66.070556640625
1.9274999000000002,-0.1215057373046875,-1.3988122940063477,9.642647743225098,24.23095703125,-27.923583984375,59.783935546875
1.9324999,0.6925228238105774,-1.0324994325637817,9.734824180603027,15.655517578125,-6.28662109375,54.779052734375
1.9374999000000002,1.5604209899902344,-0.33758243918418884,9.79527759552002,8.72802734375,0.8544921875,45.8984375
1.9424999,2.477400302886963,-0.16400282084941864,9.701305389404297,10.528564453125,8.209228515625,23.193359375
1.9474999000000002,3.512892484664917,-0.2795230448246002,9.600150108337402,21.636962890625,23.3154296875,0.244140625
1.9524999,4.308365821838379,-0.4411316514015198,9.297882080078125,6.622314453125,38.6962890625,-35.430908203125
1.9574999000000002,4.462791919708252,-0.44173020124435425,9.443329811096191,-4.0283203125,57.18994140625,-63.720703125
1.9624999,-3.688267707824707,-0.8942343592643738,9.820416450500488,-0.823974609375,-35.7666015625,37.65869140625
1.9674999000000002,-3.089717388153076,-0.7499836683273315,9.536704063415527,-15.228271484375,-41.961669921875,39.398193359375
1.9724999,-2.05781626701355,-0.9331400990486145,9.64803409576416,-5.43212890625,-41.717529296875,51.055908203125
1.9774999000000002,-0.9283517003059387,-1.2425906658172607,9.938331604003906,25.421142578125,-43.64013671875,67.56591796875
1.9824999,0.04908113554120064,-1.3862427473068237,9.743802070617676,23.773193359375,-22.0947265625,61.187744140625
1.9874999000000002,0.8954314589500427,-0.871489405632019,9.847949981689453,14.7705078125,-2.593994140625,57.55615234375
1.9924999,1.802833914756775,-0.19153612852096558,9.935338973999023,7.659912109375,3.5400390625,43.02978515625
1.9974999000000002,4.4292731285095215,-0.2663549482822418,9.4822359085083,-7.6904296875,59.2041015625,-67.32177734375
2.0024999,-0.11911153793334961,0.19871874153614044,10.129268646240234,-11.474609375,-0.152587890625,-84.930419921875
2.0074999,-1.6956933736801147,0.03950432687997818,9.9371337890625,-10.7421875,-9.429931640625,-59.9365234375
2.0124999000000003,-3.051409959793091,-0.9888052940368652,9.9772367477417,-28.564453125,-9.429931640625,-21.026611328125
2.0174999000000002,-3.511096715927124,-0.5746083855628967,9.44871711730957,-17.822265625,-16.387939453125,13.5498046875
2.0224999,-3.643376350402832,-0.8523358106613159,9.97603988647461,-1.953125,-39.97802734375,40.46630859375
2.0274999,-2.8568811416625977,-0.7589619159698486,9.463082313537598,-15.838623046875,-41.534423828125,40.374755859375
2.0324999000000004,-1.7561469078063965,-0.8696937561035156,9.539097785949707,1.89208984375,-39.215087890625,53.375244140625
2.0374999000000003,2.1146786212921143,-0.10534487664699554,9.890447616577148,5.340576171875,3.448486328125,29.205322265625
2.0424999,3.0107085704803467,-0.2867056429386139,9.651625633239746,15.350341796875,12.14599609375,8.209228515625
2.0474999,3.888782024383545,-0.29209262132644653,9.588179588317871,15.380859375,32.135009765625,-15.411376953125
2.0524999,4.32991361618042,-0.5351040959358215,9.317035675048828,4.0283203125,49.8046875,-48.828125
2.0574999000000003,3.9193081855773926,-0.3064578175544739,9.647436141967773,-5.096435546875,57.373046875,-59.356689453125
2.0624999,2.8203697204589844,0.2867056429386139,9.824007987976074,-2.01416015625,42.724609375,-58.319091796875
2.0674999,1.2168530225753784,0.5901707410812378,10.0765962600708,-7.2021484375,16.29638671875,-75.13427734375
2.0724999,1.2168530225753784,0.5901707410812378,10.0765962600708,-7.2021484375,16.29638671875,-75.13427734375
2.0774999000000003,-0.4926069974899292,0.023343466222286224,10.023324966430664,-12.359619140625,-2.9296875,-79.071044921875
2.0824999,-1.8668787479400635,0.01975216343998909,9.946710586547852,-11.3525390625,-7.568359375,-49.774169921875
2.0874999,-3.354276657104492,-0.38067805767059326,9.509769439697266,-13.092041015625,-19.073486328125,19.012451171875
2.0924999,-3.400364875793457,-0.5847837924957275,9.777320861816406,-3.47900390625,-40.46630859375,41.748046875
2.0974999000000003,-2.5977089405059814,-0.7272387742996216,9.37389850616455,-15.533447265625,-39.1845703125,40.191650390625
2.1024999,-1.5711948871612549,-0.9792284965515137,9.658807754516602,10.009765625,-38.6962890625,55.206298828125
2.1074999,-0.47405192255973816,-1.3611036539077759,9.713874816894531,25.146484375,-33.905029296875,56.70166015625
2.1124999,0.4405331015586853,-1.1683704853057861,9.678560256958008,17.08984375,-13.336181640625,50.628662109375
2.1174999000000003,1.3766659498214722,-0.5129576921463013,9.892841339111328,9.796142578125,-1.007080078125,42.999267578125
2.1224999,2.2589292526245117,-0.3058592677116394,9.837775230407715,6.103515625,3.35693359375,22.03369140625
2.1274999,3.2632968425750732,-0.3998316824436188,9.727641105651855,18.1884765625,17.9443359375,5.279541015625
2.1324999,4.020462989807129,-0.5129576921463013,9.476250648498535,13.427734375,36.529541015625,-25.543212890625
2.1374999000000003,4.325724124908447,-0.6105214357376099,9.41519832611084,2.74658203125,51.910400390625,-54.718017578125
2.1424999000000002,3.7020344734191895,-0.07721300423145294,9.668983459472656,-4.547119140625,54.290771484375,-58.135986328125
2.1474999,0.7996633648872375,0.6500257849693298,10.046070098876953,-9.82666015625,8.392333984375,-79.559326171875
2.1524999,0.7996633648872375,0.6500257849693298,10.046070098876953,-9.82666015625,8.392333984375,-79.559326171875
2.1574999000000004,-0.8200140595436096,-0.046088382601737976,9.881468772888184,-12.542724609375,-6.103515625,-79.2236328125
2.1624999000000003,-3.27227520942688,-0.9534908533096313,9.66958236694336,-7.843017578125,-43.212890625,42.78564453125
2.1674999,-2.425326347351074,-1.0666168928146362,9.425373077392578,-8.30078125,-37.750244140625,42.694091796875
2.1724999,-1.3186066150665283,-1.280897855758667,9.732429504394531,16.6015625,-39.459228515625,54.6875
2.1774999000000004,-0.2944868206977844,-1.4311341047286987,9.698312759399414,22.5830078125,-30.029296875,57.92236328125
2.1824999000000003,0.6189011335372925,-0.9582792520523071,9.801262855529785,16.845703125,-7.598876953125,56.45751953125
2.1874999,1.488594889640808,-0.06643909960985184,9.90241813659668,7.781982421875,0.18310546875,44.769287109375
2.1924999,2.404376983642578,-0.04429273307323456,9.692925453186035,9.429931640625,3.997802734375,22.88818359375
2.1974999,4.440645694732666,-0.6745663285255432,9.46487808227539,0.640869140625,53.924560546875,-59.9365234375
2.2024999000000003,3.6900634765625,-0.19812019169330597,9.755773544311523,-5.2490234375,53.89404296875,-60.48583984375
2.2074999,2.31758713722229,0.35434186458587646,9.88506031036377,-4.608154296875,30.029296875,-64.5751953125
2.2124999,0.569819986820221,0.3902548849582672,10.10053825378418,-11.566162109375,3.90625,-86.151123046875
2.2174999,-1.0708067417144775,-0.06464344263076782,9.899425506591797,-12.603759765625,-7.476806640625,-77.94189453125
2.2224999000000003,-2.471414804458618,-0.2974795699119568,10.04846477508545,-22.003173828125,-8.758544921875,-36.43798828125
2.2274999,-3.201047658920288,-0.8313865661621094,9.433155059814453,-24.90234375,-9.33837890625,-0.640869140625
2.2324999,-3.5697548389434814,-0.6805518269538879,9.822212219238281,-5.096435546875,-31.25,34.698486328125
2.2374999,-3.2172086238861084,-0.9672574996948242,9.453505516052246,-10.19287109375,-43.27392578125,43.792724609375
2.2424999000000003,-2.299032211303711,-1.1174936294555664,9.388861656188965,0.6103515625,-37.994384765625,46.2646484375
2.2474999,-0.15263035893440247,-1.3640964031219482,9.607931137084961,22.308349609375,-23.86474609375,57.0068359375
2.2524999,0.7864952683448792,-0.8307880163192749,9.840767860412598,15.9912109375,-3.814697265625,56.304931640625
2.2574999,1.6879122257232666,-0.19871874153614044,9.97484302520752,6.89697265625,0.67138671875,42.327880859375
2.2624999000000003,2.6372132301330566,-0.1412578970193863,9.723451614379883,17.2119140625,8.72802734375,20.965576171875
2.2674999000000002,3.627215623855591,-0.20889410376548767,9.694122314453125,17.303466796875,26.06201171875,1.46484375
2.2724999,4.348468780517578,-0.536899745464325,9.305065155029297,5.401611328125,40.802001953125,-39.703369140625
2.2774999,4.454412460327148,-0.4183867573738098,9.403825759887695,-0.640869140625,55.96923828125,-63.720703125
2.2824999000000004,3.597288131713867,0.06703764945268631,9.740809440612793,-6.53076171875,50.750732421875,-62.164306640625
2.2874999000000003,2.164358377456665,0.5165489912033081,9.879075050354004,-4.974365234375,26.06201171875,-69.03076171875
2.2924999,0.3357867896556854,0.29149407148361206,10.045472145080566,-12.63427734375,1.251220703125,-89.29443359375
2.2974999,-1.3281834125518799,0.09397241473197937,9.671378135681152,-11.993408203125,-9.429931640625,-75.592041015625
2.3024999000000004,-2.7078421115875244,-0.38726213574409485,9.897629737854004,-24.7802734375,-9.521484375,-34.912109375
2.3074999000000003,-3.689464807510376,-0.47225627303123474,9.910199165344238,-0.91552734375,-32.196044921875,37.872314453125
2.3124999,-3.18249249458313,-0.8056488633155823,9.625288963317871,-11.749267578125,-40.58837890625,39.642333984375
2.3174999,-2.185906171798706,-1.0743980407714844,9.692327499389648,-0.9765625,-37.59765625,45.318603515625
2.3224999,1.184531331062317,-0.8936358094215393,9.88625717163086,12.39013671875,-1.312255859375,47.119140625
2.3274999000000003,2.1978771686553955,-0.4620809257030487,9.934141159057617,5.401611328125,3.387451171875,28.4423828125
2.3324999,3.1693243980407715,-0.43035775423049927,9.702502250671387,18.218994140625,16.326904296875,7.32421875
2.3374999,4.016871929168701,-0.37648820877075195,9.55585765838623,16.7236328125,35.430908203125,-11.90185546875
2.3424999,4.442441463470459,-0.585382342338562,9.41100788116455,7.080078125,50.994873046875,-45.440673828125
2.3474999000000003,4.036623954772949,-0.19931729137897491,9.475052833557129,1.40380859375,55.206298828125,-57.9833984375
2.3524999,2.958036184310913,0.2795230448246002,9.7791166305542,-3.082275390625,39.48974609375,-62.225341796875
2.3574999,-1.280897855758667,-0.20051439106464386,9.499593734741211,-10.650634765625,-7.9345703125,-76.995849609375
2.3624999,-2.4444799423217773,-0.9858125448226929,9.856329917907715,-22.03369140625,-9.124755859375,-40.130615234375
2.3674999000000003,-3.1244332790374756,-0.6739677786827087,9.247005462646484,-18.61572265625,-11.383056640625,-4.21142578125
2.3724999,-3.6535518169403076,-0.6470330357551575,9.982025146484375,2.5634765625,-25.360107421875,33.75244140625
2.3774999,-3.2980127334594727,-0.436343252658844,9.720458984375,-17.364501953125,-41.168212890625,35.430908203125
2.3824999,-2.457049608230591,-0.5566518902778625,9.837775230407715,-4.669189453125,-36.163330078125,42.938232421875
2.3874999000000003,-1.2731167078018188,-0.8804676532745361,10.01075553894043,21.331787109375,-33.782958984375,55.0537109375
2.3924999000000002,-0.04369417950510979,-1.081580638885498,9.857526779174805,17.120361328125,-18.9208984375,42.999267578125
2.3974999,1.07379949092865,-0.5267243981361389,9.949105262756348,9.307861328125,-4.974365234375,38.116455078125
2.4024999,3.4769794940948486,-0.02693476900458336,9.545681953430176,-5.279541015625,47.637939453125,-53.070068359375
2.4074999000000004,2.3948001861572266,0.6685808300971985,9.75278091430664,-7.14111328125,33.203125,-58.013916015625
2.4124999000000003,0.9115923047065735,0.9672574996948242,9.934141159057617,-11.29150390625,10.07080078125,-76.751708984375
2.4174999,-0.5710170865058899,0.4273650050163269,9.923367500305176,-16.2353515625,-4.638671875,-85.845947265625
2.4224999,-1.6801310777664185,0.3711012601852417,9.997588157653809,-16.937255859375,-8.97216796875,-57.80029296875
2.4274999000000004,-2.78086519241333,-0.6865373253822327,10.082581520080566,-36.62109375,-8.453369140625,-16.845703125
2.4324999000000003,-3.1459810733795166,-0.2998737692832947,9.769539833068848,-33.172607421875,-20.721435546875,15.777587890625
2.4374999,-3.293823003768921,-0.8541314601898193,10.144830703735352,-20.233154296875,-48.736572265625,41.046142578125
2.4424999,-2.5797524452209473,-0.9510966539382935,9.504382133483887,-23.8037109375,-46.661376953125,50.445556640625
2.4474999,-1.4209587574005127,-1.3102269172668457,9.200318336486816,-0.518798828125,-52.18505859375,66.864013671875
2.4524999000000003,-0.2944868206977844,-1.7639280557632446,9.006388664245605,37.04833984375,-54.351806640625,87.58544921875
2.4574999,0.4339490532875061,-1.6645687818527222,8.940547943115234,45.562744140625,-30.059814453125,99.884033203125
2.4624999,0.8661024570465088,-0.950498104095459,9.1847562789917,23.62060546875,0.91552734375,92.4072265625
2.4674999,1.2563573122024536,0.020350715145468712,9.68574333190918,5.67626953125,6.195068359375,65.49072265625
2.4724999000000003,1.84233820438385,0.26096799969673157,9.888052940368652,6.866455078125,1.8310546875,35.15625
2.4774999,2.8341362476348877,0.12330138683319092,9.84615421295166,26.4892578125,16.7236328125,8.48388671875
2.4824999,4.100070476531982,-0.4537012279033661,9.727043151855469,-18.707275390625,56.94580078125,-63.751220703125
2.4874999,3.4554316997528076,-0.09217676520347595,9.93593692779541,-8.209228515625,64.51416015625,-72.265625
2.4924999000000003,1.9105730056762695,0.22445641458034515,10.06462574005127,-11.1083984375,32.562255859375,-80.4443359375
2.4974999,-0.017956512048840523,0.011372458189725876,10.108918190002441,-10.406494140625,5.462646484375,-90.087890625
2.5024999,-1.9979612827301025,0.04429273307323456,10.208277702331543,-24.993896484375,-3.448486328125,-68.145751953125
2.5074999,-3.2543187141418457,-0.363918662071228,9.696516990661621,-38.0859375,-3.570556640625,-28.411865234375
2.5124999000000003,-3.4775779247283936,-0.2651578485965729,9.68155288696289,-35.552978515625,-36.285400390625,10.19287109375
2.5174999000000002,-1.4832079410552979,-1.3090298175811768,9.153033256530762,-18.402099609375,-42.327880859375,53.985595703125
2.5224999,0.09277531504631042,-2.074575662612915,8.865729331970215,10.92529296875,-51.08642578125,72.44873046875
2.5274999,1.136048674583435,-2.5983073711395264,8.547898292541504,49.62158203125,-59.814453125,101.470947265625
2.5324999000000004,1.425148606300354,-2.4355015754699707,8.652645111083984,63.65966796875,-39.36767578125,119.964599609375
2.5374999000000003,1.158793568611145,-1.4903905391693115,9.026739120483398,36.895751953125,1.922607421875,110.595703125
2.5424999,0.8876502513885498,-0.1867477297782898,9.850942611694336,10.589599609375,16.17431640625,74.371337890625
2.5474999,1.049857497215271,0.5464765429496765,10.229227066040039,3.23486328125,3.326416015625,34.088134765625
2.5524999000000004,1.932719349861145,0.48901569843292236,10.22144603729248,22.216796875,11.41357421875,1.556396484375
2.5574999000000003,3.1214404106140137,0.23822307586669922,9.786897659301758,1.15966796875,32.77587890625,-30.548095703125
2.5624999,3.9426517486572266,-0.1646013706922531,9.665990829467773,-18.4326171875,61.1572265625,-60.1806640625
2.5674999,3.780444383621216,-0.11671733111143112,9.770736694335938,-7.080078125,77.484130859375,-72.44873046875
2.5724999,2.585139274597168,0.0999579206109047,9.899425506591797,-5.37109375,46.5087890625,-78.582763671875
2.5774999000000003,-1.2659341096878052,0.0933738648891449,10.213664054870605,-18.4326171875,-1.28173828125,-68.78662109375
2.5824999,-2.984971046447754,-0.5183446407318115,9.880271911621094,-33.26416015625,3.173828125,-34.85107421875
2.5874999,-3.488351821899414,0.07661445438861847,9.744999885559082,-28.62548828125,-24.71923828125,2.62451171875
2.5924999,-3.3883938789367676,-0.42616790533065796,9.949105262756348,-15.5029296875,-51.7578125,37.689208984375
2.5974999000000003,-2.234987258911133,-0.7697358727455139,9.571419715881348,-19.287109375,-42.144775390625,47.271728515625
2.6024999,-0.7733271718025208,-1.3670891523361206,9.378087997436523,-0.457763671875,-47.454833984375,63.812255859375
2.6074999,0.4339490532875061,-1.9740192890167236,9.154230117797852,33.87451171875,-61.279296875,88.470458984375
2.6124999,0.9678560495376587,-2.014122247695923,9.00399398803711,51.513671875,-43.39599609375,107.330322265625
2.6174999000000003,0.9421183466911316,-1.4832079410552979,9.138069152832031,38.2080078125,-4.94384765625,104.6142578125
2.6224999,0.7721300721168518,-0.39564183354377747,9.658209800720215,17.76123046875,11.871337890625,82.855224609375
2.6274999,0.9427168965339661,0.5512649416923523,10.047865867614746,5.615234375,5.67626953125,52.06298828125
2.6324999,2.9472622871398926,0.35733461380004883,9.787496566772461,17.578125,26.031494140625,-15.045166015625
2.6374999000000003,3.9438488483428955,-0.0005985504249110818,9.429563522338867,-21.8505859375,44.036865234375,-52.18505859375
2.6424999000000002,4.135385036468506,-0.22266076505184174,9.566033363342285,-18.829345703125,77.667236328125,-74.951171875
2.6474999,3.223792552947998,-0.02753331884741783,9.77133560180664,-4.486083984375,63.751220703125,-79.193115234375
2.6524999,1.4748282432556152,-0.1215057373046875,9.932345390319824,-7.75146484375,22.552490234375,-87.127685546875
2.6574999000000004,-0.5129576921463013,-0.03172317147254944,10.250774383544922,-14.251708984375,0.30517578125,-81.146240234375
2.6624999000000003,-2.5546131134033203,-0.44412440061569214,10.119093894958496,-33.75244140625,4.425048828125,-50.9033203125
2.6674999,-3.3746273517608643,-0.32441434264183044,9.600150108337402,-33.26416015625,-14.251708984375,-10.772705078125
2.6724999,-3.4955344200134277,-0.6326677799224854,9.770736694335938,-22.15576171875,-48.431396484375,31.524658203125
2.6774999000000004,-2.541445016860962,-1.0905588865280151,9.314043045043945,-18.06640625,-47.393798828125,49.49951171875
2.6824999000000003,-0.9774328470230103,-1.7405846118927002,9.06863784790039,1.312255859375,-39.276123046875,58.380126953125
2.6874999,0.4531026780605316,-2.366069793701172,8.883087158203125,26.91650390625,-49.49951171875,78.338623046875
2.6924999,1.1988965272903442,-2.5276784896850586,8.860940933227539,55.0537109375,-47.54638671875,101.043701171875
2.6974999,1.247977614402771,-2.052429437637329,9.099164009094238,48.64501953125,-9.58251953125,104.248046875
2.7024999000000003,0.9080010056495667,-0.839766263961792,9.615114212036133,22.247314453125,17.08984375,87.432861328125
2.7074999,0.8649053573608398,0.517746090888977,10.178948402404785,8.60595703125,9.918212890625,53.5888671875
2.7124999,1.3646949529647827,0.6883329749107361,10.219051361083984,14.892578125,8.36181640625,21.42333984375
2.7174999,2.5761611461639404,0.5446808934211731,10.004770278930664,23.284912109375,25.970458984375,-7.32421875
2.7224999000000003,4.298190593719482,-0.1538274586200714,9.604340553283691,-20.416259765625,71.990966796875,-78.06396484375
2.7274999,4.298190593719482,-0.1538274586200714,9.604340553283691,-20.416259765625,71.990966796875,-78.06396484375
2.7324999,3.7056257724761963,0.1646013706922531,9.764751434326172,-2.166748046875,65.91796875,-75.0732421875
2.7374999,2.2242133617401123,0.30047231912612915,9.958083152770996,-5.4931640625,23.37646484375,-78.857421875
2.7424999000000003,0.30047231912612915,-0.23582886159420013,10.093356132507324,-8.758544921875,1.678466796875,-88.104248046875
2.7474999,-1.611896276473999,-0.30286651849746704,10.143633842468262,-22.64404296875,-4.69970703125,-62.80517578125
2.7524999,-1.3634978532791138,-1.204882025718689,9.394847869873047,10.467529296875,-40.435791015625,57.4951171875
2.7574999,-0.21009120345115662,-1.5298948287963867,9.524134635925293,29.6630859375,-43.27392578125,68.206787109375
2.7624999000000003,0.5710170865058899,-1.3982137441635132,9.564835548400879,31.036376953125,-17.791748046875,74.188232421875
2.7674999000000002,1.1150994300842285,-0.8517372608184814,9.738415718078613,20.1416015625,5.828857421875,70.220947265625
2.7724999,1.6861165761947632,-0.0077811554074287415,9.937732696533203,9.185791015625,5.523681640625,44.677734375
2.7774999,2.431311845779419,0.10833762586116791,9.943120002746582,11.138916015625,8.392333984375,16.4794921875
2.7824999000000004,3.4392707347869873,0.02454056777060032,9.756970405578613,25.726318359375,27.008056640625,-7.781982421875
2.7874999000000003,4.247912406921387,-0.05686229094862938,9.318233489990234,1.52587890625,43.975830078125,-40.679931640625
2.7924999,4.379593372344971,-0.06763619929552078,9.5223388671875,-17.120361328125,63.079833984375,-70.00732421875
2.7974999,0.17896658182144165,0.03890577703714371,10.067618370056152,-10.25390625,1.800537109375,-95.001220703125
2.8024999000000004,-1.4395138025283813,-0.13766659796237946,10.017339706420898,-13.275146484375,-7.415771484375,-74.737548828125
2.8074999000000003,-2.894589900970459,-1.0678139925003052,9.871294021606445,-30.731201171875,-7.26318359375,-34.3017578125
2.8124999,-3.448249101638794,-0.6841431260108948,9.442132949829102,-15.869140625,-13.153076171875,7.8125
2.8174999,-3.7158010005950928,-0.8690952062606812,9.856928825378418,1.28173828125,-39.12353515625,40.374755859375
2.8224999,-3.0166940689086914,-0.7679402232170105,9.420584678649902,-12.542724609375,-43.8232421875,41.534423828125
2.8274999000000003,-1.909974455833435,-0.7823054194450378,9.541492462158203,-0.9765625,-38.0859375,49.530029296875
2.8324999,-0.6727706789970398,-1.182137131690979,9.768941879272461,23.040771484375,-40.130615234375,59.26513671875
2.8374999,0.28131869435310364,-1.2515689134597778,9.700108528137207,24.383544921875,-24.383544921875,58.135986328125
2.8424999,1.0438719987869263,-0.9265560507774353,9.77013874053955,18.402099609375,-1.52587890625,58.197021484375
2.8474999000000003,1.7764976024627686,-0.31364041566848755,9.891045570373535,10.1318359375,3.631591796875,40.557861328125
2.8524999,3.450044631958008,-0.21847090125083923,9.66539192199707,22.64404296875,24.658203125,-2.532958984375
2.8574999,4.137180328369141,-0.3256114423274994,9.309853553771973,6.561279296875,41.9921875,-36.56005859375
2.8624999,4.22277307510376,-0.2256535142660141,9.489418029785156,-7.99560546875,57.55615234375,-61.859130859375
2.8674999000000003,3.4338839054107666,0.20530278980731964,9.684545516967773,-5.157470703125,53.192138671875,-59.99755859375
2.8724999,2.122459888458252,0.5889736413955688,9.86351203918457,-3.173828125,26.031494140625,-70.37353515625
2.8774999,0.414795458316803,0.1604115068912506,10.09934139251709,-11.23046875,4.150390625,-90.423583984375
2.8824999,-2.4175450801849365,-0.6619967818260193,9.773131370544434,-26.611328125,-7.598876953125,-38.299560546875
2.8874999000000003,-3.1519665718078613,-0.48303020000457764,9.205705642700195,-18.035888671875,-8.697509765625,-2.99072265625
2.8924999000000002,-3.57753586769104,-0.5674257874488831,9.7605619430542,2.899169921875,-30.21240234375,35.186767578125
2.8974999,-3.2555158138275146,-0.7015010714530945,9.636661529541016,-13.671875,-44.86083984375,41.6259765625
2.9024999,-2.367865562438965,-0.6745663285255432,9.749788284301758,-6.866455078125,-38.75732421875,42.755126953125
2.9074999000000004,-0.10055647045373917,-1.216254472732544,9.84615421295166,18.585205078125,-26.55029296875,49.31640625
2.9124999000000003,0.8846575021743774,-0.9445125460624695,9.862914085388184,16.204833984375,-5.37109375,52.276611328125
2.9174999,1.810615062713623,-0.48063600063323975,9.889249801635742,10.406494140625,2.410888671875,39.276123046875
2.9224999,2.630030632019043,-0.39564183354377747,9.733028411865234,12.969970703125,7.38525390625,18.402099609375
2.9274999000000004,3.514089584350586,-0.3357867896556854,9.621099472045898,21.91162109375,23.895263671875,0.9765625
2.9324999000000003,4.0982747077941895,-0.46627077460289,9.321824073791504,6.7138671875,38.51318359375,-34.7900390625
2.9374999,4.217984676361084,-0.33099839091300964,9.394248962402344,-3.41796875,53.03955078125,-58.807373046875
2.9424999,3.490147590637207,0.10295066982507706,9.655217170715332,-6.744384765625,51.422119140625,-59.661865234375
2.9474999,2.2248120307922363,0.45250412821769714,9.7791166305542,-3.7841796875,27.801513671875,-67.352294921875
2.9524999000000003,0.569819986820221,0.2041056901216507,10.02571964263916,-11.29150390625,5.584716796875,-86.822509765625
2.9574999,-0.983418345451355,-0.39564183354377747,9.84256362915039,-11.077880859375,-5.31005859375,-78.06396484375
2.9624999,-1.4119805097579956,-0.6560112833976746,9.946710586547852,17.822265625,-40.283203125,53.863525390625
2.9674999,-0.2645592987537384,-0.9678560495376587,9.82999324798584,14.892578125,-27.740478515625,48.095703125
2.9724999000000003,0.74040687084198,-0.7350199222564697,9.926959037780762,13.12255859375,-8.1787109375,53.3447265625
2.9774999,1.7094600200653076,-0.49380409717559814,9.941922187805176,8.056640625,-2.349853515625,41.68701171875
2.9824999,2.580949544906616,-0.4465186297893524,9.733627319335938,15.472412109375,5.401611328125,24.0478515625
2.9874999,3.4314894676208496,-0.4225766062736511,9.619902610778809,20.01953125,21.942138671875,7.904052734375
2.9924999000000003,4.076726913452148,-0.5153518915176392,9.3026704788208,2.471923828125,30.609130859375,-33.843994140625
2.9974999,4.284423828125,-0.25737667083740234,9.344569206237793,-5.92041015625,49.74365234375,-60.24169921875
3.0024999,2.4343044757843018,0.5057750940322876,9.810839653015137,-4.974365234375,31.829833984375,-60.333251953125
3.0074999,0.7212532758712769,0.21667525172233582,10.049661636352539,-11.505126953125,7.080078125,-82.45849609375
3.0124999000000003,-0.9995791912078857,0.061052143573760986,9.733627319335938,-10.55908203125,-5.340576171875,-74.371337890625
3.0174999000000002,-2.520495891571045,-0.46327802538871765,9.91977596282959,-24.810791015625,-8.758544921875,-33.99658203125
3.0224999,-3.3429040908813477,-0.5380968451499939,9.268553733825684,-21.54541015625,-10.467529296875,2.5634765625
3.0274999,-3.6996402740478516,-0.5141547918319702,9.858125686645508,-3.143310546875,-35.797119140625,37.750244140625
3.0324999000000004,-3.2812533378601074,-0.8487445116043091,9.651026725769043,-11.77978515625,-44.525146484375,41.748046875
3.0374999000000003,-2.343324899673462,-0.9487023949623108,9.710283279418945,-1.190185546875,-42.96875,47.91259765625
3.0424999,0.5871779918670654,-0.8882488012313843,9.879075050354004,17.669677734375,-4.791259765625,71.929931640625
3.0474999,1.4395138025283813,-0.3621230125427246,9.934141159057617,9.063720703125,-1.251220703125,57.31201171875
3.0524999000000004,3.492541790008545,-0.243011474609375,9.603741645812988,21.942138671875,23.98681640625,17.425537109375
3.0574999000000003,4.449624061584473,-0.44771572947502136,9.223662376403809,1.312255859375,32.16552734375,-31.06689453125
3.0624999,4.869806289672852,-0.25079262256622314,9.196727752685547,-9.796142578125,54.6875,-71.075439453125
3.0674999,4.2957963943481445,0.18315643072128296,9.656414031982422,-11.749267578125,65.49072265625,-68.603515625
3.0724999000000004,2.871845006942749,0.6320692300796509,9.81143856048584,-4.57763671875,36.43798828125,-62.896728515625
3.0774999000000003,0.8655039072036743,0.3106476664543152,10.121487617492676,-12.451171875,4.638671875,-87.310791015625
3.0824999,-1.127070426940918,0.16759411990642548,10.046669006347656,-10.711669921875,-7.904052734375,-77.2705078125
3.0874999,-2.9526493549346924,-0.48722004890441895,9.941324234008789,-29.632568359375,-7.26318359375,-34.820556640625
3.0924999,-3.7487213611602783,-0.5931634902954102,9.387664794921875,-24.688720703125,-13.5498046875,6.500244140625
3.0974999000000003,-4.082712650299072,-0.8313865661621094,9.795876502990723,-6.4697265625,-41.9921875,40.22216796875
3.1024999,-3.487154722213745,-1.1516109704971313,9.3828763961792,-11.077880859375,-47.088623046875,45.074462890625
3.1074999,-2.3056161403656006,-1.4287399053573608,9.47146224975586,5.615234375,-44.98291015625,51.788330078125
3.1124999,1.490989089012146,-0.20530278980731964,9.939528465270996,9.246826171875,0.3662109375,60.211181640625
3.1174999000000003,2.3540987968444824,-0.03890577703714371,9.732429504394531,15.777587890625,3.96728515625,36.834716796875
3.1224999,3.4099416732788086,-0.06165069341659546,9.747393608093262,21.42333984375,21.17919921875,16.937255859375
3.1274999,4.381389141082764,-0.3866635859012604,9.243413925170898,2.50244140625,32.1044921875,-29.876708984375
3.1324999,4.865017890930176,-0.35494041442871094,9.278130531311035,-9.307861328125,55.999755859375,-71.83837890625
3.1374999000000003,4.347870349884033,0.04429273307323456,9.685144424438477,-10.55908203125,68.66455078125,-67.19970703125
3.1424999000000002,2.934094190597534,0.49559974670410156,9.84495735168457,-3.143310546875,38.238525390625,-59.783935546875
3.1474999,0.8906430602073669,0.21308395266532898,10.159195899963379,-12.176513671875,5.401611328125,-81.634521484375
3.1524999,-1.1174936294555664,0.2364274114370346,10.053851127624512,-8.85009765625,-6.500244140625,-72.509765625
3.1574999000000004,-2.938283920288086,-0.2885012924671173,9.967061996459961,-26.519775390625,-6.134033203125,-31.219482421875
3.1624999000000003,-3.4117374420166016,-0.8301894664764404,9.552266120910645,-9.33837890625,-45.196533203125,43.15185546875
3.1674999,-2.252943754196167,-1.0983400344848633,9.576807022094727,1.708984375,-44.5556640625,50.079345703125
3.1724999,-0.9756371974945068,-1.5328876972198486,9.7605619430542,22.674560546875,-47.576904296875,62.530517578125
3.1774999000000004,0.004189853090792894,-1.5382746458053589,9.624691009521484,25.32958984375,-22.8271484375,73.6083984375
3.1824999000000003,0.7912836670875549,-1.026513934135437,9.750386238098145,18.524169921875,-0.42724609375,76.171875
3.1874999,1.4969745874404907,-0.2849099934101105,9.804854393005371,9.185791015625,0.91552734375,58.9599609375
3.1924999,2.3074119091033936,-0.090979665517807,9.70310115814209,13.18359375,3.265380859375,34.515380859375
3.1974999000000004,3.335721492767334,-0.16519992053508759,9.622895240783691,21.3623046875,18.768310546875,14.862060546875
3.2024999000000003,-3.625419855117798,-0.44173020124435425,9.462483406066895,-19.439697265625,-14.70947265625,13.275146484375
3.2074999,-3.843890905380249,-0.4339490532875061,9.951498985290527,-2.410888671875,-38.665771484375,35.430908203125
3.2124999,-3.2148144245147705,-0.6853402256965637,9.691728591918945,-10.589599609375,-41.6259765625,37.811279296875
3.2174999,-2.1051018238067627,-0.8852560520172119,9.713275909423828,-1.64794921875,-42.449951171875,47.79052734375
3.2224999000000003,-0.9433154463768005,-1.2563573122024536,9.87967300415039,23.193359375,-45.623779296875,63.1103515625
3.2274999,-0.0520738884806633,-1.3652935028076172,9.657610893249512,21.240234375,-22.3388671875,68.695068359375
3.2324999,0.6739677786827087,-0.8631097078323364,9.776124000549316,16.29638671875,-3.753662109375,71.83837890625
3.2374999,1.404199242591858,-0.27054479718208313,9.79647445678711,8.697509765625,-0.54931640625,58.013916015625
3.2424999000000003,2.2906525135040283,-0.12928688526153564,9.673771858215332,15.289306640625,3.41796875,36.468505859375
3.2474999,4.314351558685303,-0.47824180126190186,9.216479301452637,1.251220703125,31.31103515625,-31.67724609375
3.2524999,4.774038314819336,-0.40462008118629456,9.220070838928223,-9.490966796875,53.466796875,-67.169189453125
3.2574999,4.242525577545166,-0.06763619929552078,9.636063575744629,-8.270263671875,66.619873046875,-58.65478515625
3.2624999000000003,2.803011655807495,0.25677812099456787,9.808445930480957,-2.86865234375,36.407470703125,-53.070068359375
3.2674999000000002,2.803011655807495,0.25677812099456787,9.808445930480957,-2.86865234375,36.407470703125,-53.070068359375
3.2724999,0.8188169598579407,-0.040701430290937424,10.156203269958496,-10.650634765625,3.387451171875,-78.338623046875
3.2774999,-1.2090718746185303,-0.050876785069704056,9.919178009033203,-8.026123046875,-5.06591796875,-69.915771484375
3.2824999000000004,-3.620033025741577,-0.2711433470249176,9.363722801208496,-17.822265625,-13.5498046875,11.71875
3.2874999000000003,-3.620033025741577,-0.2711433470249176,9.363722801208496,-17.822265625,-13.5498046875,11.71875
3.2924999,-3.7930140495300293,-0.18315643072128296,9.907805442810059,-0.823974609375,-37.017822265625,34.423828125
3.2974999,-3.157952070236206,-0.3016694188117981,9.701305389404297,-11.962890625,-40.6494140625,35.980224609375
3.3024999000000004,-2.094327926635742,-0.4991910457611084,9.82640266418457,-2.227783203125,-40.557861328125,46.905517578125
3.3074999000000003,-0.07541735470294952,-1.1677719354629517,9.798869132995605,18.73779296875,-22.064208984375,64.544677734375
3.3124999,-0.07541735470294952,-1.1677719354629517,9.798869132995605,18.73779296875,-22.064208984375,64.544677734375
3.3174999,0.6955155730247498,-0.7906851172447205,9.877877235412598,15.472412109375,-3.692626953125,68.450927734375
3.3224999000000004,1.492186188697815,-0.3603273630142212,9.86111831665039,8.453369140625,-1.373291015625,55.5419921875
3.3274999000000003,2.4468741416931152,-0.2968810200691223,9.677363395690918,17.15087890625,5.92041015625,35.21728515625
3.3324999,3.5494039058685303,-0.37828385829925537,9.521739959716797,22.308349609375,25.0244140625,13.18359375
3.3374999,4.453813552856445,-0.6021417379379272,9.14345645904541,0.579833984375,33.843994140625,-35.064697265625
3.3424999,4.834491729736328,-0.3884592354297638,9.151836395263672,-10.162353515625,55.938720703125,-68.78662109375
3.3474999000000003,4.16531229019165,0.016160860657691956,9.598953247070312,-9.490966796875,64.117431640625,-61.4013671875
3.3524999,2.697068214416504,0.3800795078277588,9.77133560180664,-3.936767578125,31.646728515625,-60.699462890625
3.3574999,0.7110779285430908,0.009576806798577309,10.122684478759766,-10.894775390625,2.044677734375,-87.188720703125
3.3624999,-1.2042834758758545,-0.03232172131538391,9.877279281616211,-8.392333984375,-5.584716796875,-74.554443359375
3.3674999000000003,-3.597886562347412,-0.49320554733276367,9.224859237670898,-17.974853515625,-12.115478515625,7.32421875
3.3724999,-3.90554141998291,-0.5404910445213318,9.699509620666504,0.946044921875,-36.224365234375,36.9873046875
3.3774999,-3.3913867473602295,-0.4926069974899292,9.609128952026367,-12.939453125,-42.266845703125,37.017822265625
3.3824999,-2.3355438709259033,-0.5692214369773865,9.845556259155273,-2.532958984375,-39.886474609375,45.166015625
3.3874999000000003,-1.12467622756958,-0.9570821523666382,10.087369918823242,21.087646484375,-42.90771484375,60.821533203125
3.3924999000000002,-0.08259996026754379,-1.1468225717544556,9.8599214553833,20.20263671875,-21.697998046875,62.19482421875
3.3974999,0.7972691655158997,-0.8086416125297546,9.938331604003906,15.106201171875,-2.838134765625,62.530517578125
3.4024999,1.6196774244308472,-0.36332011222839355,9.892242431640625,7.537841796875,-1.312255859375,48.858642578125
3.4074999000000004,2.5474305152893066,-0.28072014451026917,9.660603523254395,16.357421875,5.4931640625,28.6865234375
3.4124999000000003,3.5476083755493164,-0.3902548849582672,9.552865028381348,18.49365234375,23.0712890625,6.2255859375
3.4174999,4.39156436920166,-0.49978959560394287,9.147047996520996,1.708984375,34.97314453125,-38.543701171875
3.4224999,4.666299343109131,-0.3250128924846649,9.259574890136719,-8.575439453125,57.098388671875,-66.070556640625
3.4274999000000004,2.5312697887420654,0.44592007994651794,9.806051254272461,-4.2724609375,27.984619140625,-63.629150390625
3.4324999000000003,0.5979518890380859,0.046088382601737976,10.146626472473145,-11.077880859375,2.25830078125,-87.738037109375
3.4374999,-1.20368492603302,-0.01735796220600605,9.86889934539795,-8.97216796875,-5.2490234375,-72.418212890625
3.4424999,-3.824138641357422,-0.4692635238170624,9.821015357971191,-0.213623046875,-36.43798828125,36.956787109375
3.4474999000000004,-3.287837505340576,-0.5734112858772278,9.61212158203125,-12.298583984375,-41.8701171875,36.895751953125
3.4524999000000003,-2.212242364883423,-0.6715735793113708,9.804255485534668,-2.349853515625,-40.52734375,45.7763671875
3.4574999,-1.0157400369644165,-1.0223240852355957,9.987412452697754,19.927978515625,-42.510986328125,59.356689453125
3.4624999,0.015562310814857483,-1.20368492603302,9.807847023010254,20.56884765625,-21.514892578125,60.36376953125
3.4674999,0.862511157989502,-0.8224082589149475,9.877279281616211,14.70947265625,-3.41796875,60.699462890625
3.4724999000000003,1.668160080909729,-0.3645172119140625,9.880870819091797,6.988525390625,-1.28173828125,47.4853515625
3.4774999,3.8307228088378906,0.0586579404771328,9.664793968200684,-6.103515625,59.63134765625,-57.891845703125
3.4824999,2.4343044757843018,0.4315548539161682,9.806051254272461,-4.547119140625,26.611328125,-63.65966796875
3.4874999,0.5069721937179565,0.010773907415568829,10.158597946166992,-11.16943359375,1.373291015625,-85.99853515625
3.4924999000000003,-1.2767080068588257,0.04908113554120064,9.925761222839355,-8.758544921875,-5.035400390625,-67.108154296875
3.4974999,-2.892794132232666,-0.6667851805686951,9.946710586547852,-23.62060546875,-5.4931640625,-24.871826171875
3.5024999,-3.5428199768066406,-0.2232593148946762,9.372102737426758,-15.869140625,-14.58740234375,11.04736328125
3.5074999,-3.8546648025512695,-0.26994624733924866,9.907805442810059,-0.091552734375,-37.65869140625,36.590576171875
3.5124999000000003,-3.177105665206909,-0.35434186458587646,9.503783226013184,-14.09912109375,-40.985107421875,37.078857421875
3.5174999000000002,-2.0853497982025146,-0.5578489899635315,9.713275909423828,-0.335693359375,-41.839599609375,49.102783203125
3.5224999,2.6342203617095947,-0.36332011222839355,9.642647743225098,17.76123046875,6.561279296875,26.4892578125
3.5274999,3.665522813796997,-0.36571431159973145,9.547477722167969,16.082763671875,22.857666015625,3.41796875
3.5324999000000004,4.473566055297852,-0.5710170865058899,9.147645950317383,0.244140625,37.078857421875,-44.952392578125
3.5374999000000003,4.634575843811035,-0.31124621629714966,9.312846183776855,-8.880615234375,59.112548828125,-66.95556640625
3.5424999,3.8295257091522217,0.11013327538967133,9.674370765686035,-5.035400390625,58.04443359375,-55.877685546875
3.5474999,2.340332269668579,0.4279635548591614,9.84615421295166,-4.8828125,24.139404296875,-65.704345703125
3.5524999000000004,0.33698388934135437,-0.04967968538403511,10.145429611206055,-12.20703125,-0.48828125,-86.578369140625
3.5574999000000003,-1.4586673974990845,-0.18315643072128296,9.976638793945312,-9.002685546875,-5.096435546875,-63.41552734375
3.5624999,-3.044826030731201,-1.14742112159729,10.019135475158691,-23.4375,-6.500244140625,-19.500732421875
3.5674999,-3.827131509780884,-0.6518214344978333,10.049062728881836,0.091552734375,-38.482666015625,38.421630859375
3.5724999000000004,-3.0406360626220703,-0.39863458275794983,9.583989143371582,-15.777587890625,-40.618896484375,37.53662109375
3.5774999000000003,-1.988384485244751,-0.3908534348011017,9.734225273132324,3.60107421875,-42.205810546875,51.239013671875
3.5824999,-0.849941611289978,-0.8421604633331299,9.778518676757812,23.223876953125,-39.36767578125,60.760498046875
3.5874999,0.08200141042470932,-0.9540894031524658,9.643844604492188,18.24951171875,-14.312744140625,62.469482421875
3.5924999,0.9660604000091553,-0.518943190574646,9.805453300476074,12.5732421875,-1.861572265625,61.798095703125
3.5974999000000003,1.8405425548553467,-0.3106476664543152,9.813234329223633,5.9814453125,0.48828125,41.9921875
3.6024999,2.8544869422912598,-0.353743314743042,9.729436874389648,19.83642578125,9.429931640625,23.4375
3.6074999,3.822343111038208,-0.4489128291606903,9.446921348571777,13.397216796875,25.726318359375,-5.18798828125
3.6124999,4.553173065185547,-0.6937199234962463,9.239224433898926,-2.13623046875,40.557861328125,-52.1240234375
3.6174999000000003,4.4945149421691895,-0.3232172429561615,9.324816703796387,-8.270263671875,61.279296875,-64.14794921875
3.6224999,3.537432909011841,0.15442600846290588,9.680954933166504,-3.90625,51.727294921875,-54.931640625
3.6274999,-0.05626374110579491,-0.16998831927776337,10.102334022521973,-12.26806640625,-2.105712890625,-87.493896484375
3.6324999,-1.8112136125564575,-0.152031809091568,10.02811336517334,-10.68115234375,-5.767822265625,-56.21337890625
3.6374999000000003,-3.1932666301727295,-0.7086837291717529,9.642048835754395,-23.101806640625,-7.38525390625,-14.129638671875
3.6424999000000002,-3.6733038425445557,-0.2148796021938324,9.606135368347168,-7.2021484375,-20.01953125,19.256591796875
3.6474999,-3.759495258331299,-0.09038111567497253,9.727043151855469,-2.44140625,-40.252685546875,40.1611328125
3.6524999,-2.9023709297180176,-0.29209262132644653,9.530119895935059,-16.204833984375,-40.6494140625,36.529541015625
3.6574999000000004,-1.844732403755188,-0.5811924338340759,9.844358444213867,9.490966796875,-43.060302734375,54.962158203125
3.6624999000000003,-0.70090252161026,-1.159990668296814,9.84376049041748,22.76611328125,-36.9873046875,60.394287109375
3.6674999,0.22924481332302094,-1.0995371341705322,9.791088104248047,16.571044921875,-10.8642578125,62.896728515625
3.6724999,1.1390414237976074,-0.557250440120697,9.899425506591797,10.894775390625,-1.708984375,60.333251953125
3.6774999000000004,2.0219032764434814,-0.3232172429561615,9.79647445678711,7.080078125,-0.091552734375,40.374755859375
3.6824999000000003,3.0831332206726074,-0.30286651849746704,9.754576683044434,21.881103515625,13.946533203125,23.8037109375
3.6874999,3.957016944885254,-0.4734533727169037,9.360730171203613,9.33837890625,26.67236328125,-12.298583984375
3.6924999,4.653131008148193,-0.6739677786827087,9.25059700012207,-3.692626953125,42.510986328125,-56.70166015625
3.6974999000000004,4.444835662841797,-0.2974795699119568,9.39365005493164,-8.575439453125,63.140869140625,-61.95068359375
3.7024999000000003,3.3650505542755127,0.10534487664699554,9.671378135681152,-2.960205078125,47.42431640625,-53.802490234375
3.7074999,1.6687586307525635,0.18914192914962769,9.928155899047852,-8.30078125,12.451171875,-73.18115234375
3.7124999,-0.3800795078277588,-0.40880993008613586,10.056844711303711,-11.3525390625,-3.509521484375,-83.984375
3.7174999,-2.139219284057617,-0.2495955228805542,9.95209789276123,-14.007568359375,-7.01904296875,-45.745849609375
3.7224999000000003,-3.3219549655914307,-0.9145850539207458,9.5007905960083,-19.83642578125,-7.9345703125,-6.65283203125
3.7274999,-3.7660791873931885,-0.1586158573627472,9.68933391571045,-1.556396484375,-25.08544921875,26.91650390625
3.7324999,-3.6128504276275635,-0.25677812099456787,9.642647743225098,-9.429931640625,-41.1376953125,38.51318359375
3.7374999,-2.721010208129883,-0.4339490532875061,9.631275177001953,-12.725830078125,-40.374755859375,38.14697265625
3.7424999000000003,-1.6645687818527222,-0.7445967197418213,9.946710586547852,15.7470703125,-44.98291015625,59.87548828125
3.7474999,-0.5554547905921936,-1.2312182188034058,9.819219589233398,20.69091796875,-31.06689453125,61.370849609375
3.7524999,0.36990416049957275,-0.9672574996948242,9.871294021606445,15.2587890625,-6.439208984375,65.3076171875
3.7574999,1.3048399686813354,-0.3800795078277588,9.850942611694336,8.636474609375,-2.197265625,59.4482421875
3.7624999000000003,3.314173698425293,-0.2172738015651703,9.620500564575195,20.599365234375,18.157958984375,20.263671875
3.7674999000000002,4.148552894592285,-0.49559974670410156,9.244611740112305,3.72314453125,26.9775390625,-23.468017578125
3.7724999,4.729745388031006,-0.6021417379379272,9.242815971374512,-5.126953125,48.431396484375,-61.981201171875
3.7774999,4.306570529937744,-0.26815059781074524,9.575610160827637,-8.453369140625,63.995361328125,-60.11962890625
3.7824999000000004,3.0603883266448975,0.13766659796237946,9.75278091430664,-3.41796875,39.581298828125,-53.314208984375
3.7874999000000003,1.2324153184890747,0.05985504388809204,10.0580415725708,-10.19287109375,6.65283203125,-78.7353515625
3.7924999,-0.767341673374176,-0.4602852761745453,10.035895347595215,-10.498046875,-5.096435546875,-78.582763671875
3.7974999,-2.492962598800659,-0.5339069962501526,10.11430549621582,-17.913818359375,-6.65283203125,-34.912109375
3.8024999000000004,-3.42490553855896,-0.8487445116043091,9.527127265930176,-17.88330078125,-9.674072265625,2.288818359375
3.8074999000000003,-2.478597402572632,-0.383670836687088,9.683947563171387,-5.645751953125,-40.863037109375,43.76220703125
3.8124999,-1.3341689109802246,-0.8056488633155823,9.854534149169922,19.256591796875,-43.76220703125,60.05859375
3.8174999,-0.27653029561042786,-1.1240776777267456,9.671976089477539,19.805908203125,-23.4375,61.309814453125
3.8224999000000004,0.6266822814941406,-0.7852981686592102,9.776124000549316,14.129638671875,-3.47900390625,64.971923828125
3.8274999000000003,1.53707754611969,-0.35673606395721436,9.812037467956543,6.591796875,-1.64794921875,52.947998046875
3.8324999,2.4875755310058594,-0.25977087020874023,9.606734275817871,15.838623046875,4.608154296875,31.158447265625
3.8374999,3.508104085922241,-0.32620999217033386,9.553462982177734,16.632080078125,19.83642578125,9.6435546875
3.8424999,4.399345397949219,-0.5488707423210144,9.192537307739258,0.3662109375,31.494140625,-37.750244140625
3.8474999000000003,4.720767021179199,-0.5015852451324463,9.267355918884277,-5.37109375,56.732177734375,-65.4296875
3.8524999,4.065953254699707,-0.12988543510437012,9.671378135681152,-5.92041015625,60.24169921875,-55.419921875
3.8574999,2.629431962966919,0.18495208024978638,9.814431190490723,-3.23486328125,29.205322265625,-58.2275390625
3.8624999,-1.294066071510315,-0.03770867735147476,9.860519409179688,-9.1552734375,-6.195068359375,-69.88525390625
3.8674999000000003,-2.8359320163726807,-0.7098808288574219,9.730634689331055,-19.622802734375,-6.317138671875,-24.017333984375
3.8724999,-3.5464112758636475,-0.24839842319488525,9.312247276306152,-14.739990234375,-13.641357421875,12.237548828125
3.8774999,-3.776254653930664,-0.243011474609375,9.774328231811523,0.244140625,-35.614013671875,35.70556640625
3.8824999,-3.1980550289154053,-0.27413609623908997,9.658807754516602,-12.5732421875,-39.48974609375,36.346435546875
3.8874999000000003,-2.2218191623687744,-0.4231751561164856,9.967659950256348,1.190185546875,-42.17529296875,48.858642578125
3.8924999000000002,-1.0911574363708496,-0.899621307849884,10.072406768798828,21.240234375,-39.55078125,59.814453125
3.8974999,-0.07781155407428741,-1.0396820306777954,9.898826599121094,17.608642578125,-15.716552734375,61.859130859375
3.9024999,-0.07781155407428741,-1.0396820306777954,9.898826599121094,17.608642578125,-15.716552734375,61.859130859375
3.9074999000000004,0.8553285598754883,-0.5554547905921936,9.951498985290527,11.29150390625,-3.11279296875,63.5986328125
3.9124999000000003,1.7854759693145752,-0.363918662071228,9.8599214553833,5.859375,-0.79345703125,45.2880859375
3.9174999,2.808398485183716,-0.36571431159973145,9.703699111938477,19.53125,8.270263671875,26.611328125
3.9224999,4.595071792602539,-0.7218518257141113,9.2033109664917,-2.3193359375,38.0859375,-51.8798828125
3.9274999000000004,4.567538261413574,-0.39803603291511536,9.27334213256836,-6.744384765625,60.516357421875,-62.530517578125
3.9324999000000003,3.6577415466308594,0.03531447425484657,9.642647743225098,-2.8076171875,52.06298828125,-48.88916015625
3.9374999,1.9907786846160889,0.23582886159420013,9.876680374145508,-5.9814453125,18.4326171875,-64.63623046875
3.9424999,-0.08439560979604721,-0.2172738015651703,10.092158317565918,-14.312744140625,-4.2724609375,-85.38818359375
3.9474999000000004,-1.8704700469970703,-0.1346738487482071,10.113706588745117,-10.040283203125,-6.8359375,-55.7861328125
3.9524999000000003,-3.247136116027832,-0.9115923047065735,9.9185791015625,-21.3623046875,-6.927490234375,-7.4462890625
3.9574999,-3.709217071533203,-0.21128830313682556,9.744999885559082,-12.603759765625,-22.76611328125,23.681640625
3.9624999,-3.6834793090820312,-0.3693056106567383,9.949105262756348,-3.631591796875,-40.313720703125,35.675048828125
3.9674999000000004,-2.8670566082000732,-0.26096799969673157,9.533711433410645,-12.786865234375,-39.581298828125,38.87939453125
3.9724999000000003,-1.7633295059204102,-0.47644615173339844,9.770736694335938,10.955810546875,-44.5556640625,56.488037109375
3.9774999,-0.6685808300971985,-0.9349357485771179,9.690531730651855,21.942138671875,-33.905029296875,63.446044921875
3.9824999,3.067570924758911,-0.3489548861980438,9.667187690734863,19.500732421875,11.65771484375,25.726318359375
3.9874999,4.022258758544922,-0.6422445774078369,9.351153373718262,8.758544921875,26.336669921875,-14.22119140625
3.9924999000000003,4.772242546081543,-0.8577227592468262,9.203909873962402,-4.7607421875,45.318603515625,-61.737060546875
3.9974999,4.53761100769043,-0.4752490520477295,9.496002197265625,-8.209228515625,67.0166015625,-61.981201171875
4.0024999,3.357269287109375,0.050876785069704056,9.668384552001953,-1.739501953125,47.119140625,-49.37744140625
4.0074999,1.5173252820968628,0.1646013706922531,10.011354446411133,-9.185791015625,8.4228515625,-73.54736328125
4.0124999,-0.5859808921813965,-0.41718965768814087,10.038289070129395,-10.43701171875,-5.035400390625,-81.207275390625
4.0174999,-2.3505074977874756,-0.21128830313682556,9.99339771270752,-13.97705078125,-5.218505859375,-38.848876953125
4.022499900000001,-3.428496837615967,-0.6943184733390808,9.486425399780273,-20.050048828125,-7.8125,2.99072265625
4.0274999000000005,-3.731961965560913,-0.060453593730926514,9.719860076904297,-5.157470703125,-28.9306640625,29.9072265625
4.0324999,-2.4690206050872803,-0.4058171808719635,9.557653427124023,-5.615234375,-38.57421875,41.839599609375
4.0374999,-1.348534107208252,-0.8313865661621094,9.855133056640625,17.730712890625,-42.1142578125,57.9833984375
4.0424999,-0.345363587141037,-1.125873327255249,9.738415718078613,18.73779296875,-26.3671875,62.530517578125
4.0474999,0.5333084464073181,-0.7691373229026794,9.865307807922363,13.763427734375,-5.37109375,66.253662109375
4.0524999,1.3946224451065063,-0.38067805767059326,9.880870819091797,6.683349609375,-1.8310546875,53.436279296875
4.0574999,2.319981336593628,-0.32620999217033386,9.656414031982422,14.404296875,1.617431640625,32.77587890625
4.062499900000001,3.404554843902588,-0.4100070297718048,9.606734275817871,16.66259765625,19.47021484375,12.939453125
4.0674999000000005,4.344278812408447,-0.6518214344978333,9.205106735229492,1.556396484375,31.25,-37.59765625
4.0724999,4.73573112487793,-0.5333084464073181,9.338583946228027,-5.4931640625,55.511474609375,-64.27001953125
4.0774999,4.110245704650879,-0.1388636976480484,9.671378135681152,-4.547119140625,61.065673828125,-51.6357421875
4.0824999,2.6587610244750977,0.2256535142660141,9.834781646728516,-3.35693359375,28.86962890625,-56.304931640625
4.0874999,0.6548141837120056,-0.05746084079146385,10.129268646240234,-11.90185546875,0.244140625,-85.235595703125
4.0924999,-1.2838906049728394,-0.018555063754320145,9.81143856048584,-9.124755859375,-4.39453125,-70.220947265625
4.0974999,-2.828749418258667,-0.3932476341724396,9.838972091674805,-19.04296875,-5.615234375,-22.064208984375
4.1024999,-3.5278561115264893,-0.25977087020874023,9.315838813781738,-15.533447265625,-13.18359375,12.786865234375
4.1074999000000005,-3.712209701538086,-0.1801636815071106,9.820416450500488,-1.190185546875,-35.491943359375,35.94970703125
4.1124999,-3.1100680828094482,-0.5111620426177979,9.57201862335205,-10.3759765625,-38.116455078125,35.552978515625
4.1174999,-2.081159830093384,-0.7601590156555176,9.82999324798584,3.692626953125,-39.276123046875,47.607421875
4.1224999,-0.9648633003234863,-1.1480196714401245,9.91977596282959,19.53125,-38.787841796875,58.868408203125
4.1274999,0.005985504016280174,-1.1204863786697388,9.809642791748047,16.082763671875,-16.510009765625,61.767578125
4.1324999,0.9187749028205872,-0.5674257874488831,9.923966407775879,10.7421875,-2.349853515625,61.4013671875
4.1374999,1.7753005027770996,-0.30885201692581177,9.86351203918457,6.2255859375,-1.983642578125,42.510986328125
4.1424999,2.8425159454345703,-0.36990416049957275,9.707889556884766,19.439697265625,9.21630859375,25.634765625
4.147499900000001,3.776254653930664,-0.4255693554878235,9.456498146057129,10.6201171875,24.10888671875,-6.805419921875
4.1524999000000005,4.6285905838012695,-0.7068880796432495,9.258976936340332,-2.0751953125,40.771484375,-54.290771484375
4.1574999,3.531447410583496,0.05925649031996727,9.685144424438477,-2.349853515625,48.03466796875,-47.91259765625
4.1624999,-3.1244332790374756,-0.8595184087753296,9.677363395690918,-20.20263671875,-5.4931640625,-7.9345703125
4.1674999,-3.581127166748047,-0.18614917993545532,9.63187313079834,-7.537841796875,-21.514892578125,24.2919921875
4.1724999,-3.5631706714630127,-0.333991140127182,9.651625633239746,-4.2724609375,-39.00146484375,36.468505859375
4.1774999,-2.7748796939849854,-0.3519476354122162,9.43255615234375,-10.467529296875,-37.59765625,37.353515625
4.1824999,-1.6932991743087769,-0.5841852426528931,9.768941879272461,12.8173828125,-41.046142578125,54.962158203125
4.187499900000001,-0.6254851818084717,-0.9798270463943481,9.730035781860352,18.768310546875,-31.005859375,58.441162109375
4.1924999000000005,0.333991140127182,-0.7547720670700073,9.831789016723633,14.068603515625,-8.6669921875,61.614990234375
4.1974999,4.204816818237305,-0.547075092792511,9.283516883850098,3.2958984375,28.50341796875,-28.74755859375
4.2024999,4.710591793060303,-0.6590040326118469,9.320028305053711,-3.570556640625,52.1240234375,-61.5234375
4.2074999,4.174889087677002,-0.3423708379268646,9.657610893249512,-5.06591796875,59.9365234375,-51.605224609375
4.2124999,2.869450807571411,0.011971008032560349,9.758766174316406,-0.8544921875,33.782958984375,-51.94091796875
4.2174999,0.9696516990661621,-0.0802057534456253,10.079588890075684,-10.894775390625,2.86865234375,-83.251953125
4.2224999,-0.9241618514060974,-0.5692214369773865,9.924564361572266,-12.20703125,-5.035400390625,-77.5146484375
4.2274999,-2.5073277950286865,-0.3884592354297638,10.021530151367188,-15.13671875,-4.82177734375,-29.96826171875
4.2324999000000005,-3.3177649974823,-0.5578489899635315,9.43255615234375,-15.777587890625,-9.521484375,7.99560546875
4.2374999,-3.66851544380188,0.09277531504631042,9.894038200378418,-1.3427734375,-31.585693359375,32.28759765625
4.2424999,-1.2090718746185303,-0.7194576263427734,9.77791976928711,18.768310546875,-39.459228515625,58.197021484375
4.2474999,-0.18974047899246216,-1.0247182846069336,9.664793968200684,16.66259765625,-19.22607421875,58.28857421875
4.2524999,0.7577648162841797,-0.6278793811798096,9.808445930480957,10.986328125,-4.21142578125,61.70654296875
4.2574999,1.7166426181793213,-0.4495113790035248,9.823410034179688,5.31005859375,-1.64794921875,44.464111328125
4.2624999,2.7281928062438965,-0.48722004890441895,9.64803409576416,17.822265625,6.40869140625,24.993896484375
4.2674999,3.7241806983947754,-0.5321113467216492,9.502586364746094,11.90185546875,21.66748046875,-1.0986328125
4.272499900000001,4.580706596374512,-0.7667431235313416,9.232640266418457,-0.30517578125,38.14697265625,-50.567626953125
4.2774999000000005,4.536413669586182,-0.45669397711753845,9.409811019897461,-5.157470703125,59.4482421875,-59.6923828125
4.2824999,3.6332011222839355,-0.020949264988303185,9.697115898132324,-1.220703125,50.933837890625,-45.83740234375
4.2874999,2.0219032764434814,0.24241292476654053,9.926959037780762,-4.7607421875,17.39501953125,-66.40625
4.2924999,-0.016759412363171577,-0.2232593148946762,10.119093894958496,-14.434814453125,-3.662109375,-86.761474609375
4.2974999,-1.6717513799667358,-0.18076223134994507,10.023324966430664,-8.97216796875,-4.7607421875,-56.243896484375
4.3024999,-3.4596214294433594,-0.3064578175544739,9.612719535827637,-8.880615234375,-18.9208984375,20.965576171875
4.3074999,-3.5440170764923096,-0.395043283700943,9.725247383117676,-3.265380859375,-37.200927734375,36.163330078125
4.312499900000001,-2.7904419898986816,-0.3387795388698578,9.487024307250977,-13.00048828125,-37.78076171875,36.956787109375
4.3174999000000005,-1.7782933712005615,-0.4602852761745453,9.806051254272461,10.498046875,-40.130615234375,53.741455078125
4.3224999,-0.6973112225532532,-0.9373299479484558,9.77253246307373,19.317626953125,-31.341552734375,56.793212890625
4.3274999,0.24001872539520264,-0.7595604658126831,9.84256362915039,13.61083984375,-10.589599609375,59.63134765625
4.3324999,1.2108675241470337,-0.2495955228805542,9.841365814208984,7.75146484375,-2.99072265625,54.901123046875
4.3374999,2.1338322162628174,-0.2519897222518921,9.686341285705566,9.979248046875,-0.3662109375,32.16552734375
4.3424999,3.2309751510620117,-0.2603694200515747,9.645041465759277,17.333984375,14.373779296875,16.754150390625
4.3474999,4.122216701507568,-0.5829881429672241,9.267355918884277,5.401611328125,28.01513671875,-26.702880859375
4.352499900000001,4.6471452713012695,-0.7679402232170105,9.34157657623291,-3.143310546875,49.86572265625,-59.417724609375
4.3574999000000005,4.14795446395874,-0.4465186297893524,9.586383819580078,-3.509521484375,59.63134765625,-49.163818359375
4.3624999,1.0247182846069336,-0.047884032130241394,10.061633110046387,-11.260986328125,3.509521484375,-79.7119140625
4.3674999,-0.8595184087753296,-0.5434837937355042,9.9586820602417,-12.87841796875,-4.8828125,-78.369140625
4.3724999,-2.431311845779419,-0.28730419278144836,10.049661636352539,-12.8173828125,-4.669189453125,-31.402587890625
4.3774999,-3.2585084438323975,-0.6350619792938232,9.464279174804688,-15.655517578125,-8.23974609375,7.293701171875
4.3824999,-3.6080620288848877,0.076015904545784,9.905410766601562,-1.0986328125,-29.510498046875,31.3720703125
4.3874999,-3.2345664501190186,-0.058059390634298325,9.559449195861816,-11.71875,-38.26904296875,34.66796875
4.3924999,-2.3684639930725098,-0.2819172441959381,9.677961349487305,-4.21142578125,-39.00146484375,43.792724609375
4.397499900000001,-1.3000515699386597,-0.7757213711738586,9.856329917907715,19.287109375,-39.215087890625,58.135986328125
4.4024999000000005,-0.2908954918384552,-1.0546458959579468,9.725247383117676,15.533447265625,-20.721435546875,57.55615234375
4.4074999,0.6769605278968811,-0.5883750915527344,9.877279281616211,10.650634765625,-4.913330078125,61.03515625
4.4124999,1.6382324695587158,-0.4213795065879822,9.855731010437012,5.18798828125,-2.5634765625,44.43359375
4.4174999,2.7036523818969727,-0.4159925580024719,9.731232643127441,17.39501953125,5.157470703125,26.4892578125
4.4224999,2.032677173614502,0.1388636976480484,9.877279281616211,-5.18798828125,17.333984375,-65.12451171875
4.4274999,0.06404489278793335,-0.23702596127986908,10.06462574005127,-14.58740234375,-3.35693359375,-87.34130859375
4.4324999,-1.6280571222305298,-0.05925649031996727,9.920374870300293,-8.819580078125,-4.5166015625,-58.349609375
4.437499900000001,-2.96162748336792,-0.8224082589149475,9.762955665588379,-17.852783203125,-5.18798828125,-10.009765625
4.4424999000000005,-3.4344823360443115,-0.06823474913835526,9.549273490905762,-8.72802734375,-17.08984375,20.263671875
4.4474999,-3.5871126651763916,-0.22086510062217712,9.785101890563965,-2.5634765625,-36.9873046875,36.19384765625
4.4524999,-2.89339280128479,-0.1735796183347702,9.565434455871582,-13.97705078125,-38.14697265625,34.97314453125
4.4574999,-1.9446903467178345,-0.3531447649002075,9.865307807922363,10.284423828125,-40.435791015625,53.497314453125
4.4624999,-0.8547300100326538,-0.8798691034317017,9.803058624267578,18.585205078125,-32.5927734375,58.10546875
4.4674999,1.1222820281982422,-0.28131869435310364,9.832986831665039,7.476806640625,-3.47900390625,56.5185546875
4.4724999,2.117671489715576,-0.2519897222518921,9.66419506072998,10.589599609375,-1.190185546875,35.736083984375
4.477499900000001,3.2363622188568115,-0.28311434388160706,9.599552154541016,17.974853515625,16.387939453125,20.20263671875
4.4824999000000005,4.16531229019165,-0.6099228858947754,9.267355918884277,4.119873046875,27.03857421875,-25.482177734375
4.4874999,4.732139587402344,-0.8032546639442444,9.312247276306152,-3.143310546875,49.01123046875,-58.929443359375
4.4924999,4.2760443687438965,-0.4668693244457245,9.59476375579834,-2.99072265625,59.967041015625,-50.323486328125
4.4974999,2.985569477081299,-0.09157821536064148,9.77133560180664,-1.3427734375,35.82763671875,-50.96435546875
4.5024999,1.138442873954773,-0.07062894850969315,10.070611000061035,-10.467529296875,4.058837890625,-79.803466796875
4.5074999,-0.8200140595436096,-0.5650315880775452,10.002974510192871,-13.48876953125,-5.31005859375,-81.207275390625
4.5124999,-2.3918075561523438,-0.23283611238002777,10.042478561401367,-12.420654296875,-5.096435546875,-33.477783203125
4.5174999,-3.2615013122558594,-0.524330198764801,9.512163162231445,-16.021728515625,-7.232666015625,5.2490234375
4.522499900000001,-3.2615013122558594,-0.524330198764801,9.512163162231445,-16.021728515625,-7.232666015625,5.2490234375
4.5274999000000005,-1.3724761009216309,-0.7523778676986694,9.84376049041748,17.913818359375,-39.306640625,57.464599609375
4.5324999,-1.3724761009216309,-0.7523778676986694,9.84376049041748,17.913818359375,-39.306640625,57.464599609375
4.5374999,-0.31783026456832886,-1.0606313943862915,9.734824180603027,15.594482421875,-20.233154296875,57.6171875
4.5424999,0.6590040326118469,-0.6434416770935059,9.864110946655273,10.955810546875,-4.08935546875,60.60791015625
4.5474999,1.6502034664154053,-0.48602294921875,9.865906715393066,4.791259765625,-3.082275390625,44.43359375
4.5524999,2.692279815673828,-0.46327802538871765,9.713275909423828,18.00537109375,6.622314453125,26.42822265625
4.5574999,3.661332845687866,-0.4944026470184326,9.469666481018066,12.51220703125,21.484375,0.244140625
4.562499900000001,4.512471675872803,-0.7625532150268555,9.28531265258789,-1.40380859375,35.2783203125,-48.15673828125
4.5674999000000005,4.523844242095947,-0.46746787428855896,9.305663108825684,-2.99072265625,57.43408203125,-56.2744140625
4.5724999,3.6529531478881836,-0.06344634294509888,9.654019355773926,-1.556396484375,49.957275390625,-47.05810546875
4.5774999,-2.9029695987701416,-0.9678560495376587,9.870695114135742,-16.937255859375,-4.7607421875,-12.20703125
4.5824999,-3.3919851779937744,-0.20470423996448517,9.518148422241211,-10.07080078125,-16.021728515625,20.81298828125
4.5874999,-3.539228677749634,-0.4411316514015198,9.837176322937012,-2.532958984375,-36.56005859375,34.576416015625
4.5924999,-2.868852138519287,-0.3064578175544739,9.539097785949707,-12.725830078125,-37.384033203125,34.088134765625
4.5974999,-1.902193307876587,-0.39624038338661194,9.805453300476074,8.7890625,-39.73388671875,52.42919921875
4.602499900000001,-0.8032546639442444,-0.8607155084609985,9.783905029296875,18.829345703125,-31.79931640625,56.884765625
4.6074999000000005,0.166995570063591,-0.7116764783859253,9.831789016723633,13.5498046875,-10.25390625,59.295654296875
4.6124999,1.1414356231689453,-0.22625206410884857,9.84256362915039,6.77490234375,-3.84521484375,55.450439453125
4.6174999,2.0865468978881836,-0.22505496442317963,9.66419506072998,10.101318359375,-0.396728515625,33.843994140625
4.6224999,3.140594005584717,-0.2861070930957794,9.66539192199707,16.937255859375,14.495849609375,18.310546875
4.6274999,4.614823818206787,-0.8164227604866028,9.408015251159668,-2.13623046875,47.576904296875,-58.685302734375
4.6324999,4.151545524597168,-0.48482584953308105,9.59476375579834,-2.9296875,58.380126953125,-49.1943359375
4.6374999,2.965817451477051,-0.09816227108240128,9.789292335510254,-1.03759765625,36.163330078125,-47.79052734375
4.6424999,-3.205237627029419,-0.6949170231819153,9.492411613464355,-14.495849609375,-6.622314453125,6.744384765625
4.647499900000001,-3.4967315196990967,0.1364694982767105,9.835380554199219,-2.471923828125,-27.64892578125,29.510498046875
4.6524999000000005,-3.2387564182281494,-0.09935937076807022,9.600150108337402,-10.80322265625,-36.773681640625,32.073974609375
4.6574999,-2.404975652694702,-0.36332011222839355,9.701904296875,-5.859375,-38.39111328125,41.656494140625
4.6624999,-1.4143747091293335,-0.7972691655158997,9.888052940368652,18.402099609375,-38.665771484375,58.77685546875
4.6674999,-0.36332011222839355,-1.1186907291412354,9.761758804321289,16.021728515625,-20.416259765625,56.57958984375
4.6724999,1.578976035118103,-0.4273650050163269,9.893440246582031,4.974365234375,-2.227783203125,46.844482421875
4.6774999,2.6168625354766846,-0.4106055796146393,9.685144424438477,17.669677734375,5.523681640625,27.923583984375
4.6824999,3.603273630142212,-0.48961424827575684,9.462483406066895,12.6953125,19.683837890625,3.082275390625
4.687499900000001,4.5154643058776855,-0.7308300733566284,9.239224433898926,-0.8544921875,34.0576171875,-48.52294921875
4.6924999000000005,4.548384666442871,-0.5273229479789734,9.26675796508789,-3.265380859375,57.403564453125,-56.7626953125
4.6974999,3.7493197917938232,-0.09576806426048279,9.641449928283691,-1.0986328125,51.788330078125,-43.3349609375
4.7024999,2.1709423065185547,0.11851298063993454,9.852738380432129,-4.08935546875,19.683837890625,-61.431884765625
4.7074999,0.18794482946395874,-0.2537853717803955,10.09814453125,-14.6484375,-3.84521484375,-86.181640625
4.7124999,-1.512536883354187,-0.046088382601737976,9.827000617980957,-9.674072265625,-5.126953125,-63.262939453125
4.7174999,-2.873042106628418,-0.9026140570640564,9.980229377746582,-15.777587890625,-4.180908203125,-12.939453125
4.7224999,-3.380014181137085,-0.025737667456269264,9.446921348571777,-11.199951171875,-14.09912109375,19.134521484375
4.727499900000001,-3.557185173034668,-0.24121582508087158,9.962871551513672,-1.15966796875,-35.186767578125,33.477783203125
4.7324999000000005,-0.8577227592468262,-0.8056488633155823,9.837775230407715,20.050048828125,-32.5927734375,57.525634765625
4.7374999,0.11911153793334961,-0.7715315222740173,9.838373184204102,12.75634765625,-11.5966796875,59.234619140625
4.7424999,1.1252747774124146,-0.2621650993824005,9.84256362915039,7.415771484375,-2.99072265625,57.6171875
4.7474999,2.0853497982025146,-0.2795230448246002,9.71926212310791,7.720947265625,-0.244140625,34.515380859375
4.7524999,3.1729156970977783,-0.3519476354122162,9.66958236694336,17.730712890625,13.397216796875,19.134521484375
4.7574999,4.078522682189941,-0.6458359360694885,9.291297912597656,6.77490234375,26.85546875,-21.575927734375
4.7624999,4.667496204376221,-0.8888474106788635,9.321226119995117,-2.349853515625,47.2412109375,-58.563232421875
4.7674999,4.220977783203125,-0.49380409717559814,9.52353572845459,-3.662109375,59.417724609375,-49.835205078125
4.772499900000001,3.008314371109009,-0.06344634294509888,9.701904296875,-1.0986328125,37.445068359375,-49.01123046875
4.7774999000000005,1.2066776752471924,0.02274491637945175,10.023923873901367,-9.613037109375,4.974365234375,-78.460693359375
4.7824999,-0.689530074596405,-0.5021837949752808,9.962871551513672,-13.519287109375,-5.4931640625,-83.3740234375
4.7874999,-3.1298201084136963,-0.5081692934036255,9.515155792236328,-17.120361328125,-5.9814453125,1.068115234375
4.7924999,-3.4745852947235107,0.22026655077934265,9.782708168029785,-3.692626953125,-24.5361328125,27.28271484375
4.7974999,-3.3279404640197754,0.14185644686222076,9.661202430725098,-7.965087890625,-37.53662109375,33.935546875
4.8024999,3.560776472091675,-0.47644615173339844,9.50617790222168,15.31982421875,21.240234375,4.119873046875
4.8074999,4.394556999206543,-0.7457938194274902,9.209895133972168,0.946044921875,34.7900390625,-42.755126953125
4.812499900000001,4.512471675872803,-0.5614402890205383,9.338583946228027,-3.509521484375,56.09130859375,-56.304931640625
4.8174999000000005,3.690661907196045,-0.15682020783424377,9.66419506072998,-2.166748046875,52.947998046875,-45.989990234375
4.8224999,2.165555477142334,0.10714052617549896,9.853337287902832,-3.60107421875,20.721435546875,-60.455322265625
4.8274999,0.2579752206802368,-0.22385786473751068,10.087369918823242,-12.847900390625,-3.326416015625,-85.87646484375
4.8324999,-1.4293384552001953,-0.30226796865463257,9.754576683044434,-9.033203125,-3.96728515625,-64.849853515625
4.8374999,-2.779069662094116,-0.8505401611328125,9.913191795349121,-15.472412109375,-4.5166015625,-17.4560546875
4.8424999,-3.2830491065979004,-0.30286651849746704,9.372700691223145,-11.8408203125,-12.3291015625,13.85498046875
4.8474999,-3.509899616241455,-0.23403321206569672,9.961075782775879,-0.244140625,-33.0810546875,34.5458984375
4.852499900000001,-2.84790301322937,-0.14784196019172668,9.668983459472656,-14.46533203125,-35.94970703125,31.79931640625
4.8574999000000005,-1.9081788063049316,-0.32860419154167175,9.951498985290527,4.21142578125,-36.651611328125,47.66845703125
4.8624999,-0.811634361743927,-0.8505401611328125,9.955090522766113,19.22607421875,-32.958984375,54.3212890625
4.8674999,0.17238251864910126,-0.8954314589500427,9.894038200378418,12.8173828125,-13.031005859375,50.872802734375
4.8724999,1.127070426940918,-0.414795458316803,9.91738224029541,7.049560546875,-3.5400390625,48.4619140625
4.8774999,1.9955670833587646,-0.44173020124435425,9.752182006835938,6.65283203125,-2.532958984375,28.01513671875
4.8824999,3.914519786834717,-0.38546648621559143,9.500192642211914,-2.01416015625,54.473876953125,-45.074462890625
4.8874999,2.7988216876983643,-0.009576806798577309,9.717466354370117,-0.701904296875,35.003662109375,-46.539306640625
4.8924999,1.125873327255249,0.009576806798577309,9.948506355285645,-8.4228515625,5.18798828125,-71.044921875
4.897499900000001,-0.6434416770935059,-0.4944026470184326,9.9401273727417,-14.068603515625,-3.631591796875,-77.0263671875
4.9024999000000005,-2.0189106464385986,-0.28969839215278625,9.982624053955078,-7.62939453125,-4.486083984375,-35.46142578125
4.9074999,-2.9724013805389404,-0.6272808313369751,9.621099472045898,-13.885498046875,-7.32421875,5.218505859375
4.9124999,-3.269282341003418,-0.02753331884741783,9.932944297790527,-4.8828125,-25.5126953125,26.214599609375
4.9174999,-3.1633388996124268,-0.07841010391712189,9.716269493103027,-11.688232421875,-35.736083984375,31.158447265625
4.9224999,-2.3744494915008545,-0.4118026793003082,9.815628051757812,-7.38525390625,-38.39111328125,39.1845703125
4.9274999,-0.49559974670410156,-1.127070426940918,9.77133560180664,16.326904296875,-23.5595703125,57.525634765625
4.9324999,0.38486793637275696,-0.6542156338691711,9.873088836669922,8.7890625,-7.9345703125,60.272216796875
4.937499900000001,1.4311341047286987,-0.35494041442871094,9.841964721679688,4.486083984375,-3.570556640625,51.513671875
4.9424999000000005,2.5097219944000244,-0.34177228808403015,9.583989143371582,17.02880859375,5.157470703125,31.585693359375
4.9474999,3.5625722408294678,-0.5105634927749634,9.481039047241211,13.3056640625,19.744873046875,7.99560546875
4.9524999,4.488529682159424,-0.7122750282287598,9.167398452758789,-0.518798828125,31.036376953125,-43.121337890625
4.9574999,4.6471452713012695,-0.6278793811798096,9.291297912597656,-4.2724609375,55.60302734375,-58.41064453125
4.9624999,-2.852691411972046,-0.06763619929552078,9.659406661987305,-13.702392578125,-35.980224609375,34.515380859375
4.9674999,-1.890222191810608,-0.25079262256622314,9.898228645324707,6.561279296875,-38.6962890625,52.276611328125
4.9724999,-0.8092401623725891,-0.8271966576576233,9.847949981689453,19.47021484375,-31.6162109375,55.35888671875
4.977499900000001,0.13108254969120026,-0.800261914730072,9.862914085388184,12.786865234375,-11.5966796875,55.419921875
4.9824999000000005,1.116895079612732,-0.28311434388160706,9.805453300476074,7.049560546875,-3.2958984375,54.351806640625
4.9874999,2.0679917335510254,-0.3064578175544739,9.66958236694336,8.941650390625,0.3662109375,31.73828125
4.9924999,3.1705214977264404,-0.36750996112823486,9.642048835754395,16.357421875,13.824462890625,16.082763671875
4.9974999,4.05158805847168,-0.5847837924957275,9.289502143859863,6.500244140625,27.069091796875,-25.08544921875
5.0024999,4.589086055755615,-0.8619126081466675,9.43255615234375,-1.800537109375,48.187255859375,-57.525634765625
5.0074999,4.060565948486328,-0.5111620426177979,9.597756385803223,-2.13623046875,57.098388671875,-47.30224609375
5.0124999,2.8221652507781982,-0.09876082092523575,9.770736694335938,-0.18310546875,34.271240234375,-48.797607421875
5.0174999,-3.1471781730651855,-0.43275195360183716,9.470264434814453,-14.34326171875,-7.537841796875,7.2021484375
5.022499900000001,-3.4278981685638428,0.45489832758903503,9.818022727966309,-3.11279296875,-27.069091796875,28.900146484375
5.0274999000000005,-3.1525650024414062,0.2968810200691223,9.582193374633789,-10.80322265625,-36.041259765625,33.3251953125
5.0324999,-2.3301568031311035,-0.023942016065120697,9.737217903137207,-5.615234375,-38.055419921875,42.48046875
5.0374999,-1.3503297567367554,-0.5811924338340759,9.904213905334473,18.06640625,-37.4755859375,57.159423828125
5.0424999,1.6328455209732056,-0.517746090888977,9.895833969116211,4.669189453125,-1.983642578125,43.02978515625
5.0474999,2.7006595134735107,-0.5105634927749634,9.702502250671387,16.7236328125,5.950927734375,25.299072265625
5.0524999,3.7187938690185547,-0.5410895943641663,9.462483406066895,12.420654296875,21.8505859375,-1.77001953125
5.0574999,4.448426723480225,-0.535702645778656,9.315239906311035,-2.74658203125,57.037353515625,-52.642822265625
5.062499900000001,3.5260605812072754,-0.10714052617549896,9.639654159545898,0.1220703125,48.126220703125,-43.64013671875
5.0674999000000005,3.5260605812072754,-0.10714052617549896,9.639654159545898,0.1220703125,48.126220703125,-43.64013671875
5.0724999,1.8734627962112427,0.09038111567497253,9.87967300415039,-5.18798828125,14.617919921875,-64.605712890625
5.0774999,-0.0694318488240242,-0.30705636739730835,10.055048942565918,-15.045166015625,-4.5166015625,-84.259033203125
5.0824999,-1.6759412288665771,-0.09277531504631042,9.884461402893066,-8.819580078125,-4.57763671875,-54.931640625
5.0874999,-2.937685489654541,-0.7703344225883484,9.75637149810791,-15.228271484375,-5.37109375,-5.615234375
5.0924999,-3.3225533962249756,-0.06823474913835526,9.55705451965332,-9.21630859375,-17.51708984375,21.66748046875
5.0974999,-3.3943793773651123,-0.19871874153614044,9.765350341796875,-3.082275390625,-34.698486328125,33.538818359375
5.102499900000001,-2.669534921646118,-0.2322375625371933,9.61571216583252,-12.5732421875,-36.590576171875,34.912109375
5.1074999000000005,-1.7459715604782104,-0.43095630407333374,9.899425506591797,10.345458984375,-38.543701171875,53.7109375
5.1124999,-0.6979097723960876,-0.9433154463768005,9.80904483795166,18.06640625,-29.022216796875,55.11474609375
5.1174999,1.20368492603302,-0.322618693113327,9.853337287902832,5.92041015625,-2.471923828125,51.81884765625
5.1224999,2.186504602432251,-0.3064578175544739,9.583989143371582,11.627197265625,0.244140625,30.45654296875
5.1274999,3.268683910369873,-0.333991140127182,9.606734275817871,15.7470703125,16.876220703125,14.617919921875
5.1324999,4.1413702964782715,-0.6416460275650024,9.233837127685547,2.74658203125,28.13720703125,-33.203125
5.1374999,4.541800498962402,-0.7655459642410278,9.381080627441406,-2.105712890625,50.10986328125,-55.60302734375
5.1424999,3.959411144256592,-0.4273650050163269,9.643844604492188,-0.9765625,55.419921875,-44.921875
5.147499900000001,2.6156654357910156,-0.07062894850969315,9.807249069213867,-1.983642578125,28.717041015625,-53.3447265625
5.1524999000000005,0.7667431235313416,-0.1412578970193863,10.05923843383789,-11.932373046875,0.18310546875,-79.315185546875
5.1574999,-1.0372878313064575,-0.6165069341659546,9.915586471557617,-12.908935546875,-5.035400390625,-73.516845703125
5.1624999,-2.4833858013153076,-0.27892449498176575,10.029909133911133,-10.955810546875,-5.218505859375,-24.017333984375
5.1674999,-3.177704095840454,-0.4967968463897705,9.567230224609375,-13.092041015625,-9.063720703125,12.115478515625
