# Time (seconds),Accel_X,Accel_Y,Accel_Z,Gyro_X,Gyro_Y,Gyro_Z
0.0024999,4.417302131652832,-1.1893197298049927,11.798027038574219,24.4140625,38.848876953125,36.31591796875
0.0074999,4.417302131652832,-1.1893197298049927,11.798027038574219,24.4140625,38.848876953125,36.31591796875
0.012499900000000001,5.915473937988281,-1.2826935052871704,11.438897132873535,31.524658203125,55.877685546875,22.430419921875
0.0174999,5.979518890380859,-0.9085995554924011,11.164162635803223,26.4892578125,59.75341796875,-17.39501953125
0.0224999,4.882974147796631,-0.1586158573627472,10.992977142333984,18.1884765625,69.488525390625,-32.196044921875
0.0274999,3.2381577491760254,0.657806932926178,10.791864395141602,6.988525390625,75.042724609375,-24.627685546875
0.0324999,1.447893500328064,1.0594342947006226,10.486603736877441,5.706787109375,69.88525390625,-30.853271484375
0.0374999,-3.4320881366729736,-1.3108254671096802,7.367557048797607,1.251220703125,-6.011962890625,20.904541015625
0.0424999,-4.5603556632995605,-1.5897499322891235,7.18320369720459,-38.0859375,-74.70703125,45.745849609375
0.0474999,-5.056553840637207,-0.767341673374176,6.840234279632568,-17.242431640625,-121.246337890625,22.796630859375
0.0524999,-4.905120849609375,-0.10175357013940811,7.800309181213379,-9.002685546875,-106.109619140625,7.598876953125
0.0574999,-3.42490553855896,0.4854243993759155,9.552266120910645,-35.15625,-112.1826171875,20.44677734375
0.0624999,-0.7547720670700073,0.18555063009262085,10.89301872253418,-33.50830078125,-75.37841796875,39.97802734375
0.0674999,2.1290438175201416,-0.47225627303123474,11.947066307067871,2.8076171875,-19.195556640625,41.6259765625
0.0724999,4.619013786315918,-1.546055793762207,12.078747749328613,24.10888671875,28.106689453125,19.622802734375
0.0774999,5.835268020629883,-2.0458452701568604,11.695076942443848,29.1748046875,48.33984375,14.923095703125
0.0824999,-0.058059390634298325,1.1432312726974487,10.031704902648926,10.162353515625,55.694580078125,-42.17529296875
0.0874999,-0.7870938181877136,0.7212532758712769,9.54209041595459,8.72802734375,49.1943359375,-51.116943359375
0.0924999,-1.2216414213180542,0.2172738015651703,9.258378028869629,-1.861572265625,36.285400390625,-28.3203125
0.0974999,-1.623268723487854,-0.7320271730422974,8.926780700683594,-1.983642578125,29.296875,-11.90185546875
0.1024999,-2.1553800106048584,-1.4101848602294922,8.58500862121582,1.861572265625,15.93017578125,2.166748046875
0.1074999,-3.251924514770508,-1.5598224401474,8.216899871826172,-36.224365234375,-29.11376953125,16.387939453125
0.1124999,-4.208407878875732,-2.360084295272827,8.395866394042969,-27.862548828125,-83.06884765625,7.87353515625
0.1174999,-4.460397720336914,-1.8148049116134644,7.782951354980469,-13.427734375,-79.437255859375,-0.885009765625
0.1224999,-4.441244125366211,-1.755548357963562,8.85555362701416,-6.28662109375,-106.14013671875,35.888671875
0.1274999,-0.7493851184844971,-0.9367313981056213,10.520720481872559,-22.125244140625,-77.69775390625,51.20849609375
0.1324999,1.8614917993545532,-1.1091139316558838,11.444284439086914,11.199951171875,-13.031005859375,37.59765625
0.1374999,4.182670593261719,-1.2222399711608887,11.743558883666992,25.848388671875,37.353515625,38.604736328125
0.1424999,5.7341132164001465,-1.3293805122375488,11.527482986450195,30.45654296875,53.40576171875,29.327392578125
0.1474999,5.9519853591918945,-0.9810241460800171,11.220426559448242,27.7099609375,58.4716796875,-10.7421875
0.1524999,4.966771602630615,-0.26994624733924866,11.054627418518066,19.866943359375,66.10107421875,-32.53173828125
0.1574999,3.4308910369873047,0.608127236366272,10.89182186126709,9.27734375,73.516845703125,-25.2685546875
0.1624999,1.6879122257232666,1.0109516382217407,10.5530424118042,5.615234375,72.052001953125,-28.594970703125
0.1674999,0.28131869435310364,1.0887632369995117,10.190919876098633,9.307861328125,63.8427734375,-44.219970703125
0.1724999,-0.6931213736534119,1.0983400344848633,9.50857162475586,0.54931640625,48.065185546875,-48.64501953125
0.17749990000000002,-1.279700756072998,0.6703764796257019,9.132083892822266,-5.889892578125,38.26904296875,-61.981201171875
0.1824999,-2.118269920349121,1.0462661981582642,8.78731918334961,-26.611328125,18.463134765625,-59.600830078125
0.1874999,-4.5154643058776855,-0.9445125460624695,8.500014305114746,-13.031005859375,-11.505126953125,-64.300537109375
0.1924999,-5.17626428604126,-2.5049335956573486,7.841609001159668,-11.199951171875,-45.654296875,-27.03857421875
0.1974999,-4.985326290130615,-3.537432909011841,7.427412033081055,-1.0986328125,-102.96630859375,21.087646484375
0.2024999,-3.6589386463165283,-3.936666250228882,7.209539890289307,-0.885009765625,-119.81201171875,38.2080078125
0.20749990000000001,-2.054823637008667,-3.6320040225982666,8.12053394317627,0,-102.508544921875,39.642333984375
0.2124999,0.01735796220600605,-2.652176856994629,9.990405082702637,6.683349609375,-77.056884765625,63.873291015625
0.2174999,2.1547815799713135,-1.4634557962417603,11.353304862976074,9.27734375,-21.514892578125,66.71142578125
0.2224999,4.019864559173584,-0.23523031175136566,12.38340950012207,21.209716796875,35.15625,57.31201171875
0.2274999,5.233725070953369,0.5195417404174805,12.397774696350098,21.728515625,47.027587890625,33.843994140625
0.2324999,5.653907299041748,0.8062474131584167,11.874641418457031,16.54052734375,45.95947265625,-16.693115234375
0.2374999,5.0481743812561035,0.8248024582862854,11.42752456665039,19.134521484375,65.5517578125,-32.623291015625
0.2424999,1.3581109046936035,1.5454572439193726,10.302848815917969,0.213623046875,70.556640625,-63.4765625
0.2474999,0.2082955539226532,1.5717934370040894,9.980828285217285,-10.009765625,57.220458984375,-65.4296875
0.2524999,-0.7936778664588928,1.5376760959625244,9.357138633728027,-10.986328125,54.87060546875,-55.17578125
0.2574999,-2.315791606903076,0.2472013235092163,9.024943351745605,-36.62109375,33.660888671875,-40.740966796875
0.2624999,-3.6320040225982666,-1.0492589473724365,8.303689956665039,-8.819580078125,15.68603515625,-35.247802734375
0.2674999,-4.698620796203613,-2.7006595134735107,7.358579158782959,-1.861572265625,-14.984130859375,-14.83154296875
0.2724999,-5.207987308502197,-3.6816837787628174,6.700771808624268,-0.9765625,-65.3076171875,30.059814453125
0.2774999,-4.811148166656494,-3.8750154972076416,6.245275020599365,-0.762939453125,-101.715087890625,49.530029296875
0.2824999,-3.75829815864563,-3.071760892868042,6.807313919067383,0.823974609375,-117.462158203125,42.78564453125
0.28749990000000003,-2.118868589401245,-1.9788076877593994,8.360552787780762,7.476806640625,-95.794677734375,17.425537109375
0.2924999,-0.04668693244457245,-0.7260416746139526,10.095151901245117,2.99072265625,-49.285888671875,11.1083984375
0.2974999,1.9518729448318481,-0.020949264988303185,11.777078628540039,2.105712890625,-17.791748046875,30.33447265625
0.3024999,2.10210919380188,0.8325836658477783,10.457873344421387,3.96728515625,32.745361328125,-18.1884765625
0.3074999,1.3748703002929688,0.3495534360408783,10.052056312561035,10.650634765625,40.22216796875,-29.052734375
0.3124999,1.3748703002929688,0.3495534360408783,10.052056312561035,10.650634765625,40.22216796875,-29.052734375
0.3174999,0.9427168965339661,0.2555810213088989,9.926360130310059,7.26318359375,49.163818359375,-31.73828125
0.3224999,-2.6180596351623535,-0.07721300423145294,9.17936897277832,-17.059326171875,2.105712890625,-28.25927734375
0.3274999,-2.6180596351623535,-0.07721300423145294,9.17936897277832,-17.059326171875,2.105712890625,-28.25927734375
0.3324999,-3.9606082439422607,-1.6160861253738403,8.292916297912598,-10.7421875,-23.5595703125,-20.050048828125
0.3374999,-4.3191399574279785,-3.0561983585357666,7.176021099090576,0.8544921875,-103.057861328125,28.411865234375
0.3424999,-4.3191399574279785,-3.0561983585357666,7.176021099090576,0.8544921875,-103.057861328125,28.411865234375
0.34749990000000003,-2.785055160522461,-2.9203274250030518,7.648277282714844,0.762939453125,-86.883544921875,12.603759765625
0.35249990000000003,-0.6440402865409851,-2.257133722305298,9.188945770263672,9.796142578125,-53.1005859375,15.869140625
0.3574999,1.4508862495422363,-1.7693150043487549,10.62127685546875,10.68115234375,-19.439697265625,30.8837890625
0.3624999,3.0825347900390625,-1.1150994300842285,11.808801651000977,15.56396484375,2.685546875,49.163818359375
0.3674999,3.669712543487549,-0.30286651849746704,12.148777961730957,24.169921875,27.679443359375,42.96875
0.3724999,3.4787750244140625,0.43933600187301636,11.73697566986084,11.383056640625,31.982421875,17.303466796875
0.3774999,2.9765913486480713,1.048660397529602,11.155184745788574,3.5400390625,20.050048828125,-16.845703125
0.3824999,2.3732523918151855,1.2994530200958252,10.512939453125,6.622314453125,30.82275390625,-23.651123046875
0.3874999,1.8052281141281128,0.8798691034317017,10.108319282531738,10.467529296875,40.58837890625,-18.310546875
0.3924999,1.4586673974990845,0.5781996846199036,10.008959770202637,11.810302734375,47.698974609375,-32.135009765625
0.3974999,-0.6973112225532532,0.28311434388160706,9.633668899536133,-18.5546875,35.33935546875,-22.94921875
0.4024999,-2.2445640563964844,-0.619499683380127,9.685144424438477,-43.88427734375,-11.199951171875,-29.998779296875
0.4074999,-3.4410665035247803,-1.2078747749328613,8.796895980834961,-12.20703125,-10.223388671875,-42.48046875
0.41249990000000003,-4.366425514221191,-2.206855535507202,8.17021369934082,-10.345458984375,-40.557861328125,-6.89697265625
0.41749990000000003,-4.395754337310791,-2.850895643234253,7.848791599273682,-4.08935546875,-89.111328125,27.008056640625
0.4224999,-3.0633809566497803,-2.9544448852539062,7.652467250823975,-2.410888671875,-85.174560546875,19.83642578125
0.4274999,-1.2886791229248047,-2.6785130500793457,8.596381187438965,4.45556640625,-57.0068359375,15.44189453125
0.4324999,0.4854243993759155,-2.257133722305298,9.915586471557617,13.580322265625,-31.25,32.77587890625
0.4374999,2.05123233795166,-1.711255669593811,11.021108627319336,14.6484375,-10.986328125,56.94580078125
0.4424999,2.761711597442627,-0.5931634902954102,11.773487091064453,25.5126953125,18.707275390625,60.97412109375
0.4474999,2.9095535278320312,0.11911153793334961,11.578359603881836,14.58740234375,35.2783203125,41.259765625
0.4524999,2.475006103515625,0.9983820915222168,10.189722061157227,11.04736328125,40.83251953125,-20.751953125
0.4574999,2.475006103515625,0.9983820915222168,10.189722061157227,11.04736328125,40.83251953125,-20.751953125
0.4624999,2.1745336055755615,0.6141127347946167,10.211270332336426,10.101318359375,51.849365234375,-26.611328125
0.4674999,1.525106430053711,0.43993455171585083,10.219650268554688,2.532958984375,52.032470703125,-27.4658203125
0.47249990000000003,0.5716156363487244,0,10.110115051269531,-5.9814453125,46.600341796875,-11.8408203125
0.47749990000000003,-0.5027823448181152,-0.497395396232605,9.623494148254395,-0.518798828125,38.26904296875,-12.451171875
0.4824999,-1.9931728839874268,-1.115697979927063,8.939350128173828,2.532958984375,16.11328125,8.758544921875
0.4874999,-3.5697548389434814,-1.534683346748352,7.6985554695129395,-11.199951171875,-25.81787109375,34.881591796875
0.4924999,-5.009268283843994,-1.3593080043792725,7.157465934753418,-24.59716796875,-95.489501953125,31.494140625
0.4974999,-5.386355400085449,-0.24420857429504395,7.311892032623291,-4.7607421875,-111.724853515625,14.617919921875
0.5024999,-4.466383457183838,0.4411316514015198,8.54909610748291,-31.494140625,-105.3466796875,10.711669921875
0.5074999,-1.9129672050476074,0.8044517636299133,10.119691848754883,-41.778564453125,-76.019287109375,35.614013671875
0.5124999,3.959411144256592,-0.9247604012489319,11.762712478637695,18.707275390625,23.223876953125,17.2119140625
0.5174999,5.385158061981201,-1.7591396570205688,11.620856285095215,24.200439453125,40.71044921875,11.04736328125
0.5224999,5.498284339904785,-1.7190368175506592,11.106701850891113,28.62548828125,52.490234375,2.8076171875
0.5274999,4.347870349884033,-1.1001356840133667,10.76732349395752,17.669677734375,47.79052734375,-14.09912109375
0.5324999,2.6898856163024902,-0.2017114907503128,10.360309600830078,7.4462890625,41.961669921875,-22.15576171875
0.5374999,1.1899182796478271,0.49140989780426025,10.083779335021973,6.195068359375,40.924072265625,-22.735595703125
0.5424999,0.33039984107017517,0.656609833240509,9.904812812805176,12.725830078125,46.173095703125,-34.820556640625
0.5474999,0.03172317147254944,0.629675030708313,9.77253246307373,9.552001953125,50.079345703125,-49.468994140625
0.5524999,-0.19632454216480255,0.26575639843940735,9.78869342803955,-0.9765625,42.66357421875,-38.116455078125
0.5574999,-0.5476736426353455,-0.18076223134994507,9.5408935546875,-1.922607421875,43.5791015625,-18.096923828125
0.5624999,-1.290474772453308,-0.8146271109580994,9.23323917388916,3.11279296875,29.96826171875,-17.51708984375
0.5674999000000001,-2.381632089614868,-1.3646949529647827,8.73105525970459,5.37109375,3.2958984375,1.190185546875
0.5724999000000001,-4.7854108810424805,-1.2641384601593018,7.32505989074707,-28.228759765625,-84.716796875,37.78076171875
0.5774999000000001,-5.107430934906006,0.11611878126859665,7.459733963012695,-7.843017578125,-120.1171875,24.96337890625
0.5824999,-4.269460201263428,0.7338228225708008,8.701127052307129,-22.39990234375,-110.015869140625,5.9814453125
0.5874999,-2.0213048458099365,1.1647791862487793,10.128670692443848,-43.121337890625,-80.474853515625,29.1748046875
0.5924999,0.9965864419937134,0.8158242106437683,11.503540992736816,-16.41845703125,-32.8369140625,44.189453125
0.5974999,3.8331170082092285,-0.46148237586021423,11.899781227111816,11.627197265625,12.176513671875,15.68603515625
0.6024999,5.309741020202637,-1.3934253454208374,11.705251693725586,19.04296875,33.02001953125,7.293701171875
0.6074999,5.52701473236084,-1.7735048532485962,11.164162635803223,24.35302734375,44.769287109375,1.251220703125
0.6124999,4.365228176116943,-1.2294225692749023,10.713454246520996,18.218994140625,42.96875,-10.040283203125
0.6174999,2.5785553455352783,-0.4572925269603729,10.284892082214355,5.645751953125,34.48486328125,-15.68603515625
0.6224999,0.9050082564353943,0.2645592987537384,9.903017044067383,2.01416015625,28.411865234375,-18.280029296875
0.6274999,-0.15263035893440247,0.5117605924606323,9.780313491821289,6.103515625,29.327392578125,-22.369384765625
0.6324999,-2.5085248947143555,-0.921169102191925,8.262989044189453,-3.5400390625,-11.8408203125,23.162841796875
0.6374999,-3.7888240814208984,-0.8912416100502014,7.903259754180908,-26.18408203125,-70.00732421875,30.2734375
0.6424999,-3.870227098464966,0.5267243981361389,8.7083101272583,-18.707275390625,-93.353271484375,9.033203125
0.6474999,-2.1583728790283203,0.8361749649047852,9.628880500793457,-40.496826171875,-76.7822265625,23.8037109375
0.6524999,0.17417816817760468,0.6087257862091064,10.986392974853516,-22.4609375,-49.774169921875,35.70556640625
0.6574999,2.5713725090026855,-0.40880993008613586,11.389816284179688,2.8076171875,-9.002685546875,15.68603515625
0.6624999,4.053982257843018,-1.357512354850769,11.436503410339355,15.838623046875,22.8271484375,11.260986328125
0.6674999,1.8148049116134644,-0.13168109953403473,10.229825019836426,7.87353515625,45.684814453125,-15.2587890625
0.6724999,0.6416460275650024,0.4710591733455658,10.059837341308594,5.828857421875,40.435791015625,-13.5498046875
0.6774999,-0.06584054976701736,0.6230909824371338,9.901819229125977,11.688232421875,39.9169921875,-30.975341796875
0.6824999,-0.21188685297966003,0.39384618401527405,9.64683723449707,10.986328125,44.708251953125,-49.62158203125
0.6874999,-0.3106476664543152,0.23163901269435883,9.622895240783691,-0.213623046875,39.276123046875,-30.914306640625
0.6924999000000001,-0.518943190574646,-0.37409400939941406,9.490615844726562,-1.15966796875,36.773681640625,-15.9912109375
0.6974999000000001,-1.0947487354278564,-0.6584054827690125,9.314043045043945,1.251220703125,27.52685546875,-3.936767578125
0.7024999000000001,-2.477400302886963,-0.9379284977912903,9.027337074279785,-37.78076171875,-13.5498046875,7.171630859375
0.7074999,-3.6098575592041016,-1.6747441291809082,8.881889343261719,-23.01025390625,-56.82373046875,-4.852294921875
0.7124999,-4.220977783203125,-1.723825216293335,8.147468566894531,-11.749267578125,-61.798095703125,-8.11767578125
0.7174999,-3.40216064453125,-1.9105730056762695,8.830414772033691,-18.49365234375,-103.45458984375,43.0908203125
0.7224999,-1.6789339780807495,-1.349731206893921,9.925761222839355,-21.392822265625,-84.1064453125,51.055908203125
0.7274999,0.6997054219245911,-0.9702502489089966,10.863690376281738,-1.15966796875,-33.966064453125,39.886474609375
0.7324999,3.027467966079712,-0.8427590131759644,11.423933029174805,16.754150390625,20.751953125,39.215087890625
0.7374999,4.887762546539307,-0.9762357473373413,11.475408554077148,28.350830078125,44.342041015625,37.53662109375
0.7424999,5.656301498413086,-0.8882488012313843,11.074978828430176,29.083251953125,54.107666015625,2.0751953125
0.7474999,5.20978307723999,-0.46806642413139343,10.97921085357666,19.95849609375,57.159423828125,-28.62548828125
0.7524999,3.936666250228882,0.28550854325294495,10.803834915161133,12.8173828125,68.450927734375,-26.91650390625
0.7574999,2.3487119674682617,0.7745242714881897,10.560225486755371,6.256103515625,68.572998046875,-23.86474609375
0.7624999,0.7990648150444031,0.9409212470054626,10.250176429748535,6.866455078125,59.600830078125,-38.57421875
0.7674999,-0.3292027413845062,1.106719732284546,9.625288963317871,1.739501953125,42.999267578125,-49.98779296875
0.7724999,-2.999934673309326,-0.1999158412218094,8.762778282165527,-44.0673828125,-18.035888671875,-43.365478515625
0.7774999,-3.980360269546509,-1.0384849309921265,8.393472671508789,-9.429931640625,-15.31982421875,-57.098388671875
0.7824999,-4.630385875701904,-2.204461097717285,7.949946880340576,-10.467529296875,-41.046142578125,-27.2216796875
0.7874999,-4.527435302734375,-3.0639796257019043,7.797316551208496,-6.103515625,-86.5478515625,24.139404296875
0.7924999,-3.3219549655914307,-3.312976598739624,7.847594738006592,-5.2490234375,-99.30419921875,33.538818359375
0.7974999,-1.7375918626785278,-3.1226375102996826,8.650849342346191,-3.448486328125,-77.94189453125,24.96337890625
0.8024999,3.39677357673645,0.9235633015632629,10.540472984313965,13.5498046875,59.9365234375,-16.510009765625
0.8074999,2.5797524452209473,0.8463503122329712,10.4542818069458,8.23974609375,60.150146484375,-22.3388671875
0.8124999,1.7016788721084595,0.7601590156555176,10.15141487121582,4.180908203125,58.349609375,-47.149658203125
0.8174999000000001,0.7775170207023621,0.8619126081466675,10.030508041381836,-3.72314453125,48.095703125,-56.5185546875
0.8224999000000001,-0.09038111567497253,0.7709329724311829,9.713874816894531,-4.94384765625,44.464111328125,-42.938232421875
0.8274999000000001,-1.5538369417190552,0.5464765429496765,9.346963882446289,-37.353515625,30.57861328125,-37.04833984375
0.8324999000000001,-3.2609026432037354,-0.5931634902954102,9.050681114196777,-36.712646484375,-8.30078125,-34.820556640625
0.8374999,-4.589086055755615,-1.6238672733306885,8.021174430847168,-8.7890625,-16.021728515625,-36.102294921875
0.8424999,-5.370792865753174,-2.9903578758239746,7.1676411628723145,-4.45556640625,-58.074951171875,6.134033203125
0.8474999,-5.037400245666504,-3.5170822143554688,6.85100793838501,1.03759765625,-103.912353515625,34.72900390625
0.8524999,-3.538031578063965,-3.3022027015686035,7.2119340896606445,-1.40380859375,-102.60009765625,25.81787109375
0.8574999,-1.6190788745880127,-2.583343744277954,8.644864082336426,2.685546875,-71.044921875,17.333984375
0.8624999,2.3918075561523438,-1.1408370733261108,11.704054832458496,12.359619140625,-11.077880859375,57.708740234375
0.8674999,3.5877113342285156,-0.2495955228805542,12.285845756530762,25.0244140625,26.397705078125,56.640625
0.8724999,3.863642930984497,0.3357867896556854,11.991957664489746,15.7470703125,39.85595703125,34.3017578125
0.8774999,3.7032315731048584,0.9469067454338074,11.338939666748047,4.7607421875,21.54541015625,-5.18798828125
0.8824999,2.4133553504943848,0.9187749028205872,10.236409187316895,9.27734375,43.670654296875,-18.096923828125
0.8874999,1.8734627962112427,0.5644330382347107,10.062829971313477,9.82666015625,48.004150390625,-20.843505859375
0.8924999,1.2988544702529907,0.4836287498474121,9.913191795349121,4.7607421875,47.332763671875,-43.51806640625
0.8974999,0.5841852426528931,0.24600422382354736,9.937732696533203,-6.28662109375,39.794921875,-41.046142578125
0.9024999,0.09217676520347595,0.9169792532920837,9.469067573547363,-4.364013671875,39.794921875,-30.21240234375
0.9074999,-1.7298107147216797,0.0520738884806633,9.578003883361816,-51.8798828125,6.2255859375,-28.045654296875
0.9124999,-3.1717185974121094,-0.545877993106842,9.17817211151123,-23.162841796875,-19.012451171875,-38.0859375
0.9174999,-5.0685248374938965,-3.1238346099853516,7.932588577270508,-6.7138671875,-75.775146484375,17.27294921875
0.9224999,-5.0685248374938965,-3.1238346099853516,7.932588577270508,-6.7138671875,-75.775146484375,17.27294921875
0.9274999,-4.152742862701416,-3.559579372406006,7.706336498260498,-0.8544921875,-99.700927734375,32.1044921875
0.9324999,-2.1769278049468994,-3.2190041542053223,8.176796913146973,-1.617431640625,-75.3173828125,20.294189453125
0.9374999,-0.1801636815071106,-2.7096378803253174,9.638457298278809,8.72802734375,-39.6728515625,21.97265625
0.9424999000000001,1.8525135517120361,-1.9806033372879028,10.823587417602539,15.899658203125,-12.786865234375,51.08642578125
0.9474999000000001,3.0184898376464844,-1.1905168294906616,11.779472351074219,23.01025390625,14.16015625,61.248779296875
0.9524999000000001,3.3728315830230713,-0.17178396880626678,11.763311386108398,26.3671875,40.1611328125,50.994873046875
0.9574999000000001,3.153762102127075,0.5776011347770691,11.32038402557373,8.30078125,29.571533203125,21.820068359375
0.9624999,2.4600422382354736,1.2994530200958252,10.190919876098633,10.25390625,32.012939453125,-26.092529296875
0.9674999,2.123656988143921,0.8864531517028809,9.989806175231934,11.688232421875,46.32568359375,-22.064208984375
0.9724999,0.9080010056495667,0.24361002445220947,9.974244117736816,-1.739501953125,41.9921875,-28.350830078125
0.9774999,-0.04010287672281265,-0.2519897222518921,9.744999885559082,-4.5166015625,37.872314453125,-19.10400390625
0.9824999,-1.2922704219818115,-0.7236474752426147,9.21707820892334,1.3427734375,25.45166015625,-13.336181640625
0.9874999,-2.6408045291900635,-0.8481459617614746,8.22767448425293,-2.593994140625,-4.547119140625,13.702392578125
0.9924999,-4.247912406921387,-1.955464243888855,8.410231590270996,-54.534912109375,-72.967529296875,15.68603515625
0.9974999,-4.624999046325684,-1.5957354307174683,7.575852870941162,-12.63427734375,-84.381103515625,0.579833984375
1.0024999,-4.631583213806152,-1.7399860620498657,8.812458038330078,-9.002685546875,-82.611083984375,16.29638671875
1.0074999000000002,-3.226186752319336,-1.2198457717895508,9.643844604492188,-25.054931640625,-86.42578125,37.9638671875
1.0124999000000001,-1.0085574388504028,-1.0372878313064575,10.542867660522461,-27.252197265625,-63.232421875,43.39599609375
1.0174999000000002,1.1863269805908203,-0.8313865661621094,11.30182933807373,4.852294921875,-18.402099609375,47.607421875
1.0224999000000001,3.1759085655212402,-1.5316904783248901,11.374852180480957,24.444580078125,23.98681640625,36.773681640625
1.0274999,4.3855791091918945,-1.7142484188079834,11.143213272094727,30.94482421875,43.39599609375,38.421630859375
1.0324999000000001,2.4791958332061768,0.9373299479484558,10.269927978515625,9.765625,61.981201171875,-26.519775390625
1.0374999,2.4791958332061768,0.9373299479484558,10.269927978515625,9.765625,61.981201171875,-26.519775390625
1.0424999000000001,1.3605051040649414,1.0073603391647339,10.093356132507324,9.33837890625,58.074951171875,-50.9033203125
1.0474999,0.24600422382354736,0.8870517015457153,9.815030097961426,4.82177734375,40.252685546875,-56.7626953125
1.0524999000000002,-0.9050082564353943,0.4884171485900879,9.41759204864502,-2.899169921875,30.487060546875,-28.74755859375
1.0574999,-1.987187385559082,-0.19213469326496124,8.957905769348145,-4.150390625,24.35302734375,-20.751953125
1.0624999000000002,-3.1052796840667725,-0.8415619134902954,8.596980094909668,1.03759765625,1.068115234375,-11.444091796875
1.0674999,-4.0563764572143555,-1.1300631761550903,7.671620845794678,0.335693359375,-23.8037109375,19.95849609375
1.0724999000000002,-4.953603267669678,-1.6699557304382324,7.4316020011901855,-31.524658203125,-74.554443359375,40.95458984375
1.0774999,-5.054159641265869,-0.5997475385665894,7.512406349182129,-20.44677734375,-123.1689453125,30.57861328125
1.0824999000000002,-4.055777549743652,-0.005985504016280174,8.91301441192627,-17.608642578125,-105.712890625,9.368896484375
1.0874999,0.9714473485946655,0.47225627303123474,11.701661109924316,-20.69091796875,-35.430908203125,37.872314453125
1.0924999000000002,3.50930118560791,-0.5434837937355042,12.082937240600586,13.24462890625,10.589599609375,31.6162109375
1.0974999,4.903923511505127,-1.6813281774520874,11.735777854919434,20.721435546875,29.632568359375,15.838623046875
1.1024999000000002,5.200206279754639,-2.0404584407806396,11.174338340759277,29.78515625,44.5556640625,14.892578125
1.1074999,4.537012100219727,-1.5999252796173096,10.608109474182129,26.153564453125,51.361083984375,-0.213623046875
1.1124999000000002,3.273472309112549,-0.6961141228675842,10.323798179626465,11.260986328125,43.182373046875,-21.484375
1.1174999,1.9015947580337524,0.25258827209472656,10.050858497619629,6.2255859375,43.670654296875,-23.3154296875
1.1224999000000002,-0.06524199992418289,0.25977087020874023,9.71926212310791,9.857177734375,42.510986328125,-41.229248046875
1.1274999,-0.5285200476646423,-0.0867898091673851,9.50737476348877,0.18310546875,39.276123046875,-20.965576171875
1.1324999000000002,-2.2194249629974365,-0.7428010702133179,8.863334655761719,0.823974609375,11.322021484375,-8.148193359375
1.1374999000000001,-3.3692402839660645,-0.6248866319656372,7.878719329833984,-0.6103515625,-14.068603515625,20.263671875
1.1424999000000002,-4.577713489532471,-1.0414776802062988,7.487865924835205,-31.18896484375,-69.4580078125,38.726806640625
1.1474999000000001,-5.014655590057373,-0.0005985504249110818,7.236474514007568,-17.333984375,-118.011474609375,26.18408203125
1.1524999000000002,-4.368220806121826,0.3974374830722809,8.527547836303711,-14.068603515625,-107.147216796875,6.591796875
1.1574999000000001,-2.3786394596099854,0.8541314601898193,9.930550575256348,-42.999267578125,-85.968017578125,16.2353515625
1.1624999,0.4225766062736511,0.6715735793113708,11.418546676635742,-25.177001953125,-43.5791015625,38.6962890625
1.1674999000000001,3.110666513442993,-0.3315969407558441,11.999738693237305,8.270263671875,3.875732421875,31.18896484375
1.1724999,4.720767021179199,-1.558625340461731,11.820772171020508,17.181396484375,24.261474609375,14.34326171875
1.1774999000000002,5.258863925933838,-2.0183119773864746,11.271303176879883,28.961181640625,42.449951171875,11.71875
1.1824999,4.704606533050537,-1.7968484163284302,10.74218463897705,26.092529296875,50.262451171875,-3.021240234375
1.1874999000000002,3.445854902267456,-0.9050082564353943,10.441712379455566,12.420654296875,44.25048828125,-19.744873046875
1.1924999,-0.4213795065879822,0.15023615956306458,9.504382133483887,10.406494140625,38.177490234375,-42.816162109375
1.1974999000000002,-0.6763619780540466,-0.030526071786880493,9.327211380004883,1.556396484375,30.548095703125,-25.634765625
1.2024999,-1.7190368175506592,-0.9792284965515137,8.883087158203125,1.46484375,12.63427734375,-3.814697265625
1.2074999000000002,-2.8197710514068604,-0.7338228225708008,8.485649108886719,-29.754638671875,-22.003173828125,14.068603515625
1.2124999,-3.7888240814208984,-1.534683346748352,8.809465408325195,-32.71484375,-74.432373046875,4.119873046875
1.2174999000000002,-3.843890905380249,-0.9911994934082031,8.264185905456543,-14.556884765625,-69.427490234375,-3.173828125
1.2224999,-3.661332845687866,-1.2791022062301636,9.460687637329102,-10.009765625,-83.43505859375,29.998779296875
1.2274999000000002,-2.1577742099761963,-1.2575544118881226,9.813234329223633,-29.4189453125,-83.49609375,33.38623046875
1.2324999,-0.3561375141143799,-0.9385270476341248,10.671555519104004,-16.632080078125,-56.060791015625,45.013427734375
1.2374999000000002,4.246715068817139,-0.4668693244457245,10.589553833007812,17.7001953125,52.276611328125,-27.40478515625
1.2424999,3.139396905899048,0.25977087020874023,10.521918296813965,11.749267578125,64.27001953125,-26.85546875
1.2474999000000002,1.9285295009613037,0.7433996200561523,10.370484352111816,8.11767578125,64.849853515625,-22.369384765625
1.2524999,0.9582792520523071,1.1234791278839111,10.104129791259766,9.979248046875,57.281494140625,-42.572021484375
1.2574999000000002,0.16819266974925995,1.3964180946350098,9.72285270690918,-2.01416015625,44.830322265625,-74.03564453125
1.2624999000000001,-0.4626794755458832,1.492186188697815,9.430161476135254,-8.819580078125,33.599853515625,-78.369140625
1.2674999000000002,-1.5640122890472412,1.611896276473999,9.142857551574707,-30.364990234375,20.69091796875,-63.232421875
1.2724999000000001,-3.047220230102539,0.048482585698366165,9.078812599182129,-31.097412109375,-2.960205078125,-52.459716796875
1.2774999000000002,-4.35804557800293,-1.2288240194320679,8.37192440032959,-5.79833984375,-9.58251953125,-53.52783203125
1.2824999000000001,-4.969165802001953,-3.9019501209259033,7.202357292175293,0.732421875,-100.372314453125,42.41943359375
1.2874999,-3.6984431743621826,-3.7038300037384033,7.423222541809082,-7.50732421875,-116.546630859375,45.379638671875
1.2924999000000001,-1.8477251529693604,-2.7940332889556885,8.728660583496094,-7.354736328125,-87.34130859375,26.7333984375
1.2974999,0.39145198464393616,-1.7196353673934937,10.401609420776367,2.38037109375,-41.778564453125,29.327392578125
1.3024999000000002,2.5252842903137207,-0.7757213711738586,11.687295913696289,9.063720703125,-5.31005859375,44.25048828125
1.3074999,3.9905357360839844,-0.19273324310779572,12.27626895904541,19.8974609375,27.496337890625,45.166015625
1.3124999000000002,4.475361347198486,0.24899697303771973,11.976395606994629,23.0712890625,41.290283203125,30.517578125
1.3174999,4.200028419494629,0.5919663906097412,11.335348129272461,13.18359375,35.430908203125,-0.335693359375
1.3224999000000002,3.4811692237854004,0.8236053586006165,10.767922401428223,9.1552734375,37.200927734375,-27.557373046875
1.3274999,2.6174609661102295,0.9774328470230103,10.382455825805664,8.575439453125,49.407958984375,-23.98681640625
1.3324999000000002,1.9524714946746826,0.7954735159873962,10.142436981201172,9.521484375,56.70166015625,-31.036376953125
1.3374999,1.3796586990356445,0.9971849918365479,10.007762908935547,5.523681640625,56.488037109375,-53.955078125
1.3424999000000002,-4.660912036895752,-2.2864625453948975,7.999626636505127,-1.220703125,-30.670166015625,-12.908935546875
1.3474999,-5.404311656951904,-3.292625904083252,7.387309551239014,1.251220703125,-79.65087890625,29.937744140625
1.3524999000000002,-4.90452241897583,-3.2980127334594727,7.227496147155762,-4.730224609375,-112.79296875,44.5556640625
1.3574999,-3.2746694087982178,-2.3798365592956543,8.067262649536133,-12.237548828125,-106.781005859375,32.318115234375
1.3624999000000002,1.7717092037200928,-0.6667851805686951,11.083956718444824,4.486083984375,-11.749267578125,19.927978515625
1.3674999,3.801992416381836,-0.26755204796791077,12.100295066833496,13.427734375,16.815185546875,32.257080078125
1.3724999000000002,4.587290287017822,-0.09397241473197937,12.130223274230957,21.087646484375,32.28759765625,24.47509765625
1.3774999,4.135983467102051,0.2519897222518921,11.592724800109863,17.791748046875,33.447265625,11.566162109375
1.3824999000000002,2.2014684677124023,0.8762778043746948,10.395624160766602,4.547119140625,31.25,-25.45166015625
1.3874999000000001,1.5837644338607788,0.8104372620582581,10.029311180114746,8.7890625,41.778564453125,-24.078369140625
1.3924999000000002,1.3120225667953491,0.7266402244567871,9.947908401489258,12.51220703125,53.375244140625,-42.816162109375
1.3974999000000001,0.9570821523666382,0.6817489266395569,10.00955867767334,-2.349853515625,49.4384765625,-44.830322265625
1.4024999000000002,0.5063736438751221,0.3669114112854004,9.997588157653809,-9.58251953125,47.210693359375,-33.843994140625
1.4074999000000001,-0.6386532783508301,0.2256535142660141,9.733028411865234,-18.85986328125,43.365478515625,-24.0478515625
1.4124999,-2.320580005645752,-0.9038111567497253,9.381080627441406,-28.86962890625,3.509521484375,-11.53564453125
1.4174999000000001,-3.6619315147399902,-1.8273744583129883,8.339603424072266,-1.800537109375,-20.263671875,-12.969970703125
1.4224999,-4.802170276641846,-2.4414870738983154,7.583633899688721,3.082275390625,-58.990478515625,17.15087890625
1.4274999000000002,-4.963180065155029,-2.627636432647705,7.346607685089111,-4.180908203125,-99.273681640625,41.229248046875
1.4324999,-3.81994891166687,-1.9405004978179932,7.810484409332275,-12.054443359375,-102.447509765625,31.951904296875
1.4374999000000002,-1.6525976657867432,-1.092953085899353,9.328408241271973,-10.19287109375,-74.127197265625,17.608642578125
1.4424999,3.0567970275878906,0.3489548861980438,11.03906536102295,8.30078125,25.390625,-6.34765625
1.4474999000000002,1.9075802564620972,0.6200982332229614,10.47942066192627,2.197265625,25.390625,-21.026611328125
1.4524999,1.2826935052871704,0.6320692300796509,10.062231063842773,8.331298828125,35.369873046875,-23.590087890625
1.4574999000000002,1.0642226934432983,0.33937808871269226,9.965864181518555,16.448974609375,51.6357421875,-39.215087890625
1.4624999,0.9151836037635803,0.41120412945747375,10.055646896362305,2.655029296875,54.50439453125,-34.423828125
1.4674999000000002,0.5949591398239136,0.08918401598930359,10.204686164855957,-10.19287109375,52.978515625,-18.768310546875
1.4724999,-0.20111294090747833,0.3992331326007843,9.781511306762695,-10.498046875,52.642822265625,-19.317626953125
1.4774999000000002,-1.9177556037902832,-0.669179379940033,9.558850288391113,-35.400390625,9.613037109375,-9.490966796875
1.4824999,-3.24414324760437,-1.3419500589370728,8.321646690368652,-3.814697265625,-18.37158203125,-10.3759765625
1.4874999000000002,-4.60045862197876,-2.166752576828003,7.539939880371094,2.899169921875,-54.840087890625,9.70458984375
1.4924999,-5.148730754852295,-2.4408886432647705,7.215525150299072,-3.5400390625,-100.494384765625,40.83251953125
1.4974999000000002,-4.280832767486572,-1.9015947580337524,7.597999095916748,-13.00048828125,-111.75537109375,35.09521484375
1.5024999,-2.18770170211792,-1.0450690984725952,9.126696586608887,-14.7705078125,-86.700439453125,20.416259765625
1.5074999000000002,0.7930793166160583,-0.5877765417098999,10.556633949279785,-2.50244140625,-27.618408203125,9.09423828125
1.5124999000000001,0.7930793166160583,-0.5877765417098999,10.556633949279785,-2.50244140625,-27.618408203125,9.09423828125
1.5174999000000002,3.378218650817871,-0.21966800093650818,11.72081470489502,11.71875,18.951416015625,16.7236328125
1.5224999000000001,4.550180435180664,-0.08978256583213806,11.72081470489502,21.209716796875,31.585693359375,9.857177734375
1.5274999000000002,4.550180435180664,-0.08978256583213806,11.72081470489502,21.209716796875,31.585693359375,9.857177734375
1.5324999000000001,3.2968156337738037,0.2017114907503128,11.078569412231445,10.68115234375,26.214599609375,-2.38037109375
1.5374999000000003,1.96683669090271,0.4620809257030487,10.49318790435791,1.40380859375,21.6064453125,-19.866943359375
1.5424999000000001,1.2407950162887573,0.5889736413955688,10.016741752624512,7.6904296875,31.55517578125,-24.23095703125
1.5474999,0.889445960521698,-0.6739677786827087,10.651803016662598,-0.701904296875,-24.688720703125,13.153076171875
1.5524999000000002,3.399167776107788,-0.3818751573562622,11.677719116210938,13.214111328125,18.98193359375,17.2119140625
1.5574999,4.717774391174316,-0.5069721937179565,12.02607536315918,18.73779296875,31.341552734375,20.32470703125
1.5624999000000002,2.0626046657562256,0.4878185987472534,10.4728364944458,2.50244140625,23.0712890625,-21.697998046875
1.5674999,1.3563152551651,0.5907692909240723,10.063427925109863,8.575439453125,34.332275390625,-26.702880859375
1.5724999000000002,1.1569979190826416,0.39803603291511536,9.87967300415039,21.17919921875,52.215576171875,-39.73388671875
1.5774999,1.0247182846069336,0.5835866928100586,9.980828285217285,3.0517578125,52.703857421875,-38.604736328125
1.5824999000000002,0.6356605291366577,0.33937808871269226,10.16637897491455,-13.336181640625,50.689697265625,-23.25439453125
1.5874999,-0.25917232036590576,0.6673837304115295,9.765350341796875,-13.0615234375,51.69677734375,-25.054931640625
1.5924999000000002,-2.0847511291503906,-0.4231751561164856,9.599552154541016,-36.07177734375,10.498046875,-15.625
1.5974999,-3.450643301010132,-1.381454348564148,8.418013572692871,-2.777099609375,-18.12744140625,-11.41357421875
1.6024999000000002,-4.716577529907227,-2.2846670150756836,7.574057102203369,3.11279296875,-56.82373046875,11.29150390625
1.6074999,-5.122394561767578,-2.62823486328125,7.2574238777160645,-3.5400390625,-100.677490234375,43.64013671875
1.6124999000000002,-4.1425676345825195,-1.9931728839874268,7.730278968811035,-14.95361328125,-110.321044921875,37.811279296875
1.6174999,4.587889194488525,-0.11312603205442429,11.599308967590332,23.86474609375,36.834716796875,11.749267578125
1.6224999000000002,3.341108560562134,0.1759738177061081,11.029488563537598,11.90185546875,29.6630859375,-1.15966796875
1.6274999,2.050035238265991,0.5267243981361389,10.450690269470215,2.13623046875,23.651123046875,-21.3623046875
1.6324999000000002,1.2395979166030884,0.5536591410636902,10.056844711303711,7.50732421875,33.203125,-26.4892578125
1.6374999000000001,1.0319008827209473,0.42616790533065796,9.852140426635742,21.209716796875,50.445556640625,-40.008544921875
1.6424999000000002,0.8164227604866028,0.5069721937179565,9.990405082702637,1.28173828125,52.55126953125,-35.736083984375
1.6474999000000001,0.444722980260849,0.23762452602386475,10.1568021774292,-13.946533203125,50.78125,-17.76123046875
1.6524999000000002,-0.5392939448356628,0.34835633635520935,9.870096206665039,-16.693115234375,49.86572265625,-20.843505859375
1.6574999000000001,-2.2164323329925537,-0.6153098344802856,9.627683639526367,-35.430908203125,6.866455078125,-16.17431640625
1.6624999000000003,-4.86142635345459,-2.648585557937622,7.191583156585693,-3.2958984375,-104.55322265625,46.295166015625
1.6674999000000001,-3.7259764671325684,-1.9800047874450684,7.705139636993408,-14.984130859375,-111.14501953125,39.642333984375
1.6724999,-1.522712230682373,-1.2204443216323853,9.190741539001465,-14.5263671875,-73.79150390625,20.843505859375
1.6774999000000002,1.2725181579589844,-0.5907692909240723,10.685321807861328,2.9296875,-17.120361328125,13.18359375
1.6824999,3.626018524169922,-0.32381579279899597,11.717822074890137,13.763427734375,20.93505859375,19.805908203125
1.6874999000000002,4.750096321105957,-0.3728969097137451,12.020090103149414,21.42333984375,33.8134765625,21.697998046875
1.6924999,4.356249809265137,-0.07182604819536209,11.59631633758545,25.604248046875,40.1611328125,16.510009765625
1.6974999000000002,3.2345664501190186,0.21547815203666687,11.01512336730957,11.505126953125,31.005859375,-3.2958984375
1.7024999,2.141613483428955,0.645237386226654,10.490793228149414,3.814697265625,28.01513671875,-26.092529296875
1.7074999000000002,1.45806884765625,0.4495113790035248,10.089764595031738,11.90185546875,40.34423828125,-28.076171875
1.7124999,1.3467384576797485,0.5524620413780212,9.85034465789795,23.49853515625,55.60302734375,-43.060302734375
1.7174999000000002,0.39205053448677063,0.4578910768032074,9.980229377746582,-14.739990234375,50.018310546875,-24.658203125
1.7224999,-0.9229647517204285,0.5171475410461426,9.667786598205566,-20.294189453125,44.952392578125,-24.078369140625
1.7274999000000002,-2.6659436225891113,-0.547075092792511,9.300276756286621,-29.998779296875,0.335693359375,-13.97705078125
1.7324999,-3.9893386363983154,-1.5825673341751099,8.162431716918945,-0.518798828125,-28.472900390625,-11.8408203125
1.7374999000000002,-5.020640850067139,-2.298433542251587,7.381922245025635,1.800537109375,-69.244384765625,22.430419921875
1.7424999,-5.05715274810791,-2.470217704772949,7.293336868286133,-7.659912109375,-110.65673828125,46.20361328125
1.7474999000000002,-3.801393747329712,-1.7345991134643555,8.043320655822754,-18.4326171875,-109.92431640625,34.820556640625
1.7524999,-1.3533225059509277,-1.0091559886932373,9.63067626953125,-15.44189453125,-69.854736328125,20.751953125
1.7574999000000002,1.5233107805252075,-0.4728548228740692,10.995969772338867,1.373291015625,-14.34326171875,15.0146484375
1.7624999000000001,4.9619832038879395,-0.424970805644989,11.974000930786133,22.125244140625,34.637451171875,23.25439453125
1.7674999000000002,4.4508209228515625,-0.14425064623355865,11.459247589111328,24.59716796875,39.459228515625,16.815185546875
1.7724999000000001,2.0171148777008057,0.6590040326118469,10.348937034606934,2.593994140625,24.4140625,-24.932861328125
1.7774999000000002,1.3407529592514038,0.3974374830722809,9.960477828979492,12.664794921875,37.65869140625,-28.9306640625
1.7824999000000001,1.204882025718689,0.6584054827690125,9.778518676757812,21.881103515625,53.802490234375,-44.12841796875
1.7874999000000003,0.7068880796432495,0.45190557837486267,10.035895347595215,-8.1787109375,46.905517578125,-32.16552734375
1.7924999000000001,0.2346317619085312,0.4339490532875061,9.959878921508789,-14.22119140625,47.66845703125,-22.15576171875
1.7974999,-1.138442873954773,0.5722141861915588,9.692925453186035,-25.360107421875,36.529541015625,-24.017333984375
1.8024999000000002,-2.8137855529785156,-0.8858546018600464,9.276932716369629,-23.193359375,-7.537841796875,-14.892578125
1.8074999,-3.932476282119751,-1.556231141090393,8.091204643249512,-0.3662109375,-33.355712890625,-10.772705078125
1.8124999000000002,-4.856039524078369,-2.4863784313201904,7.518392086029053,0.579833984375,-74.0966796875,28.9306640625
1.8174999,-4.592677593231201,-2.453458309173584,7.637503623962402,-9.552001953125,-108.428955078125,44.769287109375
1.8224999000000002,-3.0998926162719727,-1.677138328552246,8.476072311401367,-19.866943359375,-96.038818359375,31.890869140625
1.8274999,-0.6362590789794922,-0.993593692779541,10.017938613891602,-10.8642578125,-53.3447265625,20.050048828125
1.8324999000000002,4.14795446395874,-0.4165911078453064,11.792041778564453,16.6015625,28.533935546875,19.134521484375
1.8374999,4.75308895111084,-0.39624038338661194,11.749545097351074,23.345947265625,35.675048828125,21.270751953125
1.8424999000000002,4.055777549743652,-0.060453593730926514,11.201272964477539,22.94921875,38.6962890625,12.20703125
1.8474999,2.7760767936706543,0.28131869435310364,10.684124946594238,7.293701171875,26.885986328125,-10.8642578125
1.8524999000000002,1.7088614702224731,0.7433996200561523,10.235811233520508,3.753662109375,27.252197265625,-24.35302734375
1.8574999,1.2282254695892334,0.33039984107017517,9.960477828979492,16.448974609375,42.1142578125,-30.517578125
1.8624999000000002,1.12467622756958,0.706289529800415,9.780912399291992,19.866943359375,54.107666015625,-44.7998046875
1.8674999,0.6500257849693298,0.3082534670829773,10.118494987487793,-11.871337890625,46.20361328125,-27.435302734375
1.8724999000000002,0.23044191300868988,0.28311434388160706,9.874286651611328,-13.18359375,49.652099609375,-23.37646484375
1.8774999,-1.389235496520996,0.30885201692581177,9.679159164428711,-28.533935546875,29.60205078125,-20.6298828125
1.8824999000000002,-2.9263129234313965,-1.2234370708465576,9.14345645904541,-14.129638671875,-11.138916015625,-11.688232421875
1.8874999000000001,-4.962581634521484,-2.3487119674682617,7.55131196975708,-1.251220703125,-79.345703125,37.9638671875
1.8924999000000002,-4.489128112792969,-2.1326351165771484,7.756615161895752,-12.115478515625,-107.330322265625,40.46630859375
1.8974999000000001,-2.9724013805389404,-1.235408067703247,8.639476776123047,-20.233154296875,-90.057373046875,27.130126953125
1.9024999000000002,-0.46986207365989685,-0.6320692300796509,10.18493366241455,-10.650634765625,-51.45263671875,25.421142578125
1.9074999000000001,2.27748441696167,-0.22685061395168304,11.203068733215332,5.43212890625,-1.15966796875,16.937255859375
1.9124999000000003,4.264671802520752,-0.3076549172401428,11.783063888549805,16.143798828125,29.11376953125,15.07568359375
1.9174999000000001,4.9170918464660645,-0.3166331648826599,11.630433082580566,23.01025390625,37.4755859375,12.939453125
1.9224999,2.8413188457489014,0.1933317929506302,10.644021987915039,6.2255859375,27.740478515625,-17.9443359375
1.9274999000000002,1.6531962156295776,0.5159504413604736,10.18912410736084,4.119873046875,30.975341796875,-20.99609375
1.9324999,0.9660604000091553,0.13168109953403473,9.934141159057617,14.58740234375,40.924072265625,-30.181884765625
1.9374999000000002,0.739209771156311,0.40521863102912903,9.77013874053955,18.035888671875,49.37744140625,-40.52734375
1.9424999,0.040701430290937424,0.3100491166114807,9.786897659301758,-11.322021484375,47.943115234375,-17.486572265625
1.9474999000000002,-1.4718354940414429,0.12210428714752197,9.651625633239746,-29.449462890625,22.979736328125,-12.87841796875
1.9524999,-2.7682957649230957,-0.9929951429367065,9.001001358032227,-10.43701171875,-14.34326171875,-9.735107421875
1.9574999000000002,-3.9875428676605225,-1.61069917678833,7.9451584815979,2.105712890625,-41.473388671875,-3.204345703125
1.9624999,-4.791396141052246,-2.0871453285217285,7.615955829620361,-2.349853515625,-83.282470703125,39.6728515625
1.9674999000000002,-4.192845821380615,-1.876455545425415,7.889492988586426,-14.190673828125,-102.6611328125,35.888671875
1.9724999,-2.6378116607666016,-1.0869675874710083,8.902838706970215,-20.233154296875,-82.611083984375,24.658203125
1.9774999000000002,-0.09935937076807022,-0.5764040350914001,10.341156005859375,-7.659912109375,-43.02978515625,27.16064453125
1.9824999,2.5306711196899414,-0.314238965511322,11.282076835632324,7.232666015625,4.150390625,18.157958984375
1.9874999000000002,4.3394904136657715,-0.36571431159973145,11.728595733642578,17.333984375,30.517578125,13.671875
1.9924999,4.796782970428467,-0.2944868206977844,11.504737854003906,21.78955078125,37.90283203125,9.33837890625
1.9974999000000002,3.9887399673461914,0.005386953707784414,11.014524459838867,15.80810546875,33.782958984375,-4.33349609375
2.0024999,0.7972691655158997,0.09277531504631042,9.940725326538086,14.46533203125,39.73388671875,-31.3720703125
2.0074999,0.618302583694458,0.3124433159828186,9.78869342803955,15.625,47.882080078125,-36.1328125
2.0124999000000003,0.2992752194404602,0.0077811554074287415,10.023923873901367,-8.1787109375,43.914794921875,-20.8740234375
2.0174999000000002,-0.04249707981944084,0.33039984107017517,9.457695007324219,-9.613037109375,45.95947265625,-16.754150390625
2.0224999,-1.5538369417190552,-0.1909375786781311,9.526528358459473,-29.541015625,17.39501953125,-10.55908203125
2.0274999,-2.810194253921509,-1.1013327836990356,8.559270858764648,-7.904052734375,-16.998291015625,-9.185791015625
2.0324999000000004,-4.055179119110107,-1.8842366933822632,7.972093105316162,2.74658203125,-45.41015625,0.3662109375
2.0374999000000003,-4.75308895111084,-2.1930887699127197,7.864952564239502,-3.60107421875,-84.89990234375,40.4052734375
2.0424999,-4.002506732940674,-1.8405425548553467,8.251616477966309,-16.998291015625,-98.20556640625,32.2265625
2.0474999,-2.364872694015503,-1.0504560470581055,9.342175483703613,-19.22607421875,-76.019287109375,23.3154296875
2.0524999,0.23942017555236816,-0.5895721912384033,10.559027671813965,-5.0048828125,-34.698486328125,25.543212890625
2.0574999000000003,2.360084295272827,0.25079262256622314,10.414178848266602,5.18798828125,26.611328125,-18.890380859375
2.0624999,1.2814964056015015,0.4429273009300232,10.004770278930664,4.974365234375,29.9072265625,-18.61572265625
2.0674999,0.70090252161026,0.10235211998224258,9.88625717163086,14.190673828125,39.55078125,-31.79931640625
2.0724999,0.558447539806366,0.2693476974964142,9.782708168029785,12.603759765625,47.576904296875,-32.806396484375
2.0774999000000003,0.26815059781074524,0.02274491637945175,9.995193481445312,-7.659912109375,44.036865234375,-20.69091796875
2.0824999,-0.09038111567497253,0.4991910457611084,9.452308654785156,-8.636474609375,43.76220703125,-16.78466796875
2.0874999,-1.6549919843673706,-0.1885433793067932,9.526528358459473,-31.097412109375,13.61083984375,-8.48388671875
2.0924999,-1.6549919843673706,-0.1885433793067932,9.526528358459473,-31.097412109375,13.61083984375,-8.48388671875
2.0974999000000003,-2.868253707885742,-0.8738836050033569,8.465897560119629,-7.171630859375,-18.6767578125,-8.087158203125
2.1024999,-4.767454147338867,-2.100313425064087,7.898471355438232,-4.39453125,-88.836669921875,40.83251953125
2.1074999,-3.886387825012207,-1.7519570589065552,8.35336971282959,-18.310546875,-97.259521484375,30.45654296875
2.1124999,-2.1362264156341553,-0.993593692779541,9.534908294677734,-18.85986328125,-72.1435546875,23.3154296875
2.1174999000000003,0.5237316489219666,-0.5781996846199036,10.688315391540527,-4.364013671875,-30.181884765625,25.08544921875
2.1224999,2.9670145511627197,-0.33518823981285095,11.476605415344238,8.7890625,10.589599609375,17.39501953125
2.1274999,4.469974517822266,-0.4489128291606903,11.61487102508545,17.822265625,31.768798828125,10.7421875
2.1324999,4.564545631408691,-0.31124621629714966,11.281478881835938,20.6298828125,35.919189453125,5.06591796875
2.1374999000000003,3.6074633598327637,0.005386953707784414,10.789469718933105,13.12255859375,29.144287109375,-7.14111328125
2.1424999000000002,2.2248120307922363,0.22026655077934265,10.325592994689941,4.852294921875,25.726318359375,-19.71435546875
2.1474999,1.2120646238327026,0.38486793637275696,9.95090103149414,5.462646484375,30.1513671875,-18.585205078125
2.1524999,0.6973112225532532,0.07661445438861847,9.870096206665039,14.312744140625,40.10009765625,-31.097412109375
2.1574999000000004,0.5452794432640076,0.21667525172233582,9.803657531738281,11.444091796875,48.004150390625,-31.219482421875
2.1624999000000003,-1.725022315979004,-0.33099839091300964,9.524134635925293,-33.233642578125,8.514404296875,-9.490966796875
2.1674999,-2.875436305999756,-0.8798691034317017,8.373122215270996,-5.340576171875,-19.775390625,-10.80322265625
2.1724999,-4.138377666473389,-2.057217836380005,8.028356552124023,3.60107421875,-50.140380859375,5.126953125
2.1774999000000004,-4.617218017578125,-2.3576900959014893,8.003816604614258,-5.2490234375,-89.111328125,43.212890625
2.1824999000000003,-3.645172119140625,-1.8884265422821045,8.518569946289062,-18.341064453125,-93.292236328125,29.541015625
2.1874999,-1.8501193523406982,-1.0426748991012573,9.706692695617676,-17.974853515625,-66.10107421875,22.857666015625
2.1924999,0.7601590156555176,-0.5315127968788147,10.797849655151367,-3.60107421875,-25.5126953125,22.369384765625
2.1974999,3.0609867572784424,-0.28550854325294495,11.496357917785645,10.009765625,13.031005859375,15.228271484375
2.2024999000000003,4.377199172973633,-0.4279635548591614,11.555614471435547,18.73779296875,32.40966796875,10.406494140625
2.2074999,4.3173441886901855,-0.2795230448246002,11.208455085754395,20.782470703125,35.430908203125,6.866455078125
2.2124999,3.3506853580474854,0.017956512048840523,10.715250015258789,12.39013671875,27.496337890625,-7.32421875
2.2174999,1.1552022695541382,0.4213795065879822,9.944915771484375,5.889892578125,31.036376953125,-18.707275390625
2.2224999000000003,0.7912836670875549,0.09457096457481384,9.869498252868652,15.411376953125,42.8466796875,-32.684326171875
2.2274999,0.6596025824546814,0.2759317457675934,9.834183692932129,10.162353515625,49.1943359375,-35.125732421875
2.2324999,0.35913026332855225,0.02214636653661728,10.046070098876953,-7.75146484375,43.02978515625,-21.54541015625
2.2374999,-0.2537853717803955,0.4554968774318695,9.689932823181152,-9.979248046875,43.609619140625,-17.242431640625
2.2424999000000003,-4.40353536605835,-2.05781626701355,7.948151111602783,3.448486328125,-55.2978515625,7.476806640625
2.2474999,-4.720168590545654,-2.276287317276001,7.784148216247559,-6.591796875,-95.15380859375,44.0673828125
2.2524999,-3.6385879516601562,-1.732803463935852,8.282740592956543,-18.707275390625,-96.98486328125,32.958984375
2.2574999,-1.6310498714447021,-0.9642647504806519,9.608530044555664,-17.51708984375,-66.192626953125,23.86474609375
2.2624999000000003,4.355651378631592,-0.23523031175136566,11.227608680725098,22.3388671875,36.529541015625,11.04736328125
2.2674999000000002,3.2405519485473633,0.08798690885305405,10.74218463897705,10.589599609375,27.069091796875,-8.1787109375
2.2724999,1.9794062376022339,0.4668693244457245,10.345345497131348,2.410888671875,25.054931640625,-22.735595703125
2.2774999,1.1893197298049927,0.42197805643081665,10.002376556396484,7.2021484375,33.447265625,-21.728515625
2.2824999000000004,0.9355342984199524,0.24241292476654053,9.86889934539795,20.01953125,47.8515625,-36.56005859375
2.2874999000000003,0.6572083830833435,0.23283611238002777,9.929951667785645,4.486083984375,47.576904296875,-34.454345703125
2.2924999,0.2992752194404602,-0.0005985504249110818,9.979631423950195,-10.040283203125,43.8232421875,-17.88330078125
2.2974999,-0.6937199234962463,0.08200141042470932,9.766547203063965,-15.7470703125,40.58837890625,-17.51708984375
2.3024999000000004,-2.3074119091033936,-0.6997054219245911,9.494805335998535,-31.097412109375,-4.852294921875,-11.3525390625
2.3074999000000003,-3.4865562915802,-1.635838270187378,8.508993148803711,0.335693359375,-26.397705078125,-14.556884765625
2.3124999,-3.286041736602783,-1.456871747970581,8.418013572692871,-19.500732421875,-91.12548828125,29.60205078125
2.3174999,-1.0773907899856567,-0.7481880187988281,9.840168952941895,-14.95361328125,-58.258056640625,22.52197265625
2.3224999,1.5867571830749512,-0.3387795388698578,10.879851341247559,1.800537109375,-11.444091796875,17.15087890625
2.3274999000000003,3.7624878883361816,-0.3034650683403015,11.551424980163574,15.533447265625,25.054931640625,12.75634765625
2.3324999,4.641160011291504,-0.4321534037590027,11.561001777648926,20.843505859375,34.759521484375,14.5263671875
2.3374999,4.162319660186768,-0.16819266974925995,11.133037567138672,21.575927734375,35.94970703125,9.246826171875
2.3424999,2.9550435543060303,0.14484919607639313,10.662577629089355,8.453369140625,25.970458984375,-11.71875
2.3474999000000003,1.7848774194717407,0.5374982953071594,10.289081573486328,2.8076171875,26.641845703125,-21.91162109375
2.3524999,1.1743559837341309,0.24420857429504395,9.99220085144043,10.55908203125,38.482666015625,-25.69580078125
2.3574999,1.0217255353927612,0.33698388934135437,9.84376049041748,22.918701171875,52.24609375,-38.9404296875
2.3624999,0.6278793811798096,0.14844051003456116,10.047266960144043,-3.23486328125,46.234130859375,-28.411865234375
2.3674999000000003,-1.0630255937576294,0.5129576921463013,9.661202430725098,-24.139404296875,36.834716796875,-16.754150390625
2.3724999,-2.6850972175598145,-0.7697358727455139,9.247005462646484,-22.64404296875,-8.636474609375,-9.979248046875
2.3774999,-3.7918169498443604,-1.235408067703247,8.056488990783691,1.922607421875,-32.53173828125,-9.94873046875
2.3824999,-4.817732334136963,-2.1057004928588867,7.619546890258789,1.312255859375,-74.52392578125,30.6396484375
2.3874999000000003,-4.531625270843506,-2.0428526401519775,7.727285861968994,-10.894775390625,-103.8818359375,41.50390625
2.3924999000000002,-3.071162223815918,-1.2270283699035645,8.616731643676758,-20.965576171875,-92.437744140625,28.350830078125
2.3974999,-0.6087257862091064,-0.6805518269538879,10.134655952453613,-13.336181640625,-52.886962890625,18.12744140625
2.4024999,2.1559786796569824,-0.26755204796791077,11.16236686706543,4.82177734375,-1.3427734375,14.22119140625
2.4074999000000004,4.1629180908203125,-0.39624038338661194,11.773487091064453,15.9912109375,27.83203125,13.85498046875
2.4124999000000003,4.7620673179626465,-0.4794389009475708,11.621455192565918,22.369384765625,34.5458984375,14.007568359375
2.4174999,3.9917328357696533,-0.19931729137897491,11.098920822143555,20.20263671875,35.614013671875,6.378173828125
2.4224999,2.626439332962036,0.10893617570400238,10.617087364196777,5.4931640625,23.62060546875,-13.763427734375
2.4274999000000004,0.9894038438796997,0.08379705995321274,9.916783332824707,14.70947265625,39.398193359375,-30.120849609375
2.4324999000000003,0.8768763542175293,0.38726213574409485,9.785700798034668,19.71435546875,50.384521484375,-37.41455078125
2.4374999,0.49799394607543945,0.06524199992418289,10.08078670501709,-8.48388671875,44.464111328125,-20.050048828125
2.4424999,0.16400282084941864,0.4339490532875061,9.81263542175293,-11.688232421875,47.4853515625,-17.76123046875
2.4474999,-1.4071919918060303,0.2693476974964142,9.73542308807373,-32.04345703125,21.728515625,-15.899658203125
2.4524999000000003,-2.7748796939849854,-0.8571242094039917,9.038111686706543,-11.71875,-14.83154296875,-12.5732421875
2.4574999,-3.975571870803833,-1.5825673341751099,8.023568153381348,2.197265625,-41.56494140625,-3.35693359375
2.4624999,-4.761468410491943,-2.2218191623687744,7.69735860824585,-1.922607421875,-83.3740234375,37.933349609375
2.4674999,-4.104260444641113,-2.007538080215454,7.952341079711914,-14.678955078125,-100.830078125,38.4521484375
2.4724999000000003,-2.3798365592956543,-1.1420341730117798,8.98543930053711,-21.3623046875,-80.13916015625,24.35302734375
2.4774999,0.25438392162323,-0.6476315855979919,10.372879028320312,-6.7138671875,-35.186767578125,17.242431640625
2.4824999,2.8113913536071777,-0.3411737382411957,11.244368553161621,9.979248046875,11.260986328125,13.24462890625
2.4874999,4.569334030151367,-0.40282443165779114,11.391013145446777,24.23095703125,37.078857421875,12.51220703125
2.4924999000000003,3.5458126068115234,-0.07541735470294952,10.90678596496582,16.357421875,32.867431640625,1.15966796875
2.4974999,2.211643934249878,0.2645592987537384,10.481216430664062,3.7841796875,23.162841796875,-18.61572265625
2.5024999,1.3120225667953491,0.44592007994651794,10.073603630065918,5.462646484375,30.487060546875,-22.247314453125
2.5074999,0.9379284977912903,0.11851298063993454,9.91977596282959,20.5078125,45.318603515625,-33.355712890625
2.5124999000000003,0.7990648150444031,0.35733461380004883,9.854534149169922,11.932373046875,49.835205078125,-33.447265625
2.5174999000000002,0.4040215313434601,0.09217676520347595,10.089764595031738,-11.23046875,45.8984375,-16.05224609375
2.5224999,-0.12030863761901855,0.9493009448051453,9.460687637329102,-11.29150390625,47.05810546875,-18.24951171875
2.5274999,-1.889025092124939,-0.07900865375995636,9.566033363342285,-34.637451171875,8.636474609375,-12.14599609375
2.5324999000000004,-3.0358476638793945,-0.619499683380127,8.363545417785645,-3.96728515625,-20.050048828125,-11.23046875
2.5374999000000003,-4.322731018066406,-1.8525135517120361,7.91163969039917,3.143310546875,-53.497314453125,9.185791015625
2.5424999,-4.787805080413818,-2.2427685260772705,7.773374557495117,-5.67626953125,-92.71240234375,42.327880859375
2.5474999,4.398148536682129,-0.3250128924846649,11.277887344360352,23.193359375,36.773681640625,9.765625
2.5524999000000004,3.2166099548339844,0.005985504016280174,10.787075996398926,11.138916015625,27.099609375,-4.852294921875
2.5574999000000003,2.0171148777008057,0.40701428055763245,10.361506462097168,2.685546875,23.01025390625,-20.93505859375
2.5624999,0.6434416770935059,0.17657238245010376,9.963470458984375,3.41796875,48.4619140625,-26.79443359375
2.5674999,0.26096799969673157,0.07661445438861847,9.985017776489258,-11.474609375,46.56982421875,-13.48876953125
2.5724999,-0.7984662652015686,0.2992752194404602,9.715071678161621,-16.66259765625,39.947509765625,-16.632080078125
2.5774999000000003,-2.404376983642578,-0.5398924946784973,9.394847869873047,-29.96826171875,-5.4931640625,-11.749267578125
2.5824999,-3.5494039058685303,-1.4724340438842773,8.299500465393066,-0.274658203125,-29.693603515625,-11.53564453125
2.5874999,-4.5842976570129395,-2.0386626720428467,7.7643961906433105,2.01416015625,-66.558837890625,22.15576171875
2.5924999,-4.501697540283203,-2.147000312805176,7.7877397537231445,-9.765625,-98.663330078125,42.236328125
2.5974999000000003,-3.118447780609131,-1.3090298175811768,8.492233276367188,-21.91162109375,-92.193603515625,28.778076171875
2.6024999,-0.8092401623725891,-0.7056909799575806,9.913191795349121,-15.380859375,-54.50439453125,17.822265625
2.6074999,1.9039889574050903,-0.2717418968677521,10.933720588684082,2.5634765625,-6.011962890625,13.671875
2.6124999,3.935469150543213,-0.3669114112854004,11.596914291381836,14.801025390625,24.139404296875,12.664794921875
2.6174999000000003,4.63397741317749,-0.518943190574646,11.525687217712402,22.247314453125,34.60693359375,13.275146484375
2.6224999,3.93367338180542,-0.2717418968677521,11.08994197845459,20.99609375,35.21728515625,8.23974609375
2.6274999,2.6874914169311523,0.03411737456917763,10.628459930419922,6.8359375,22.674560546875,-12.054443359375
2.6324999,1.5753847360610962,0.38726213574409485,10.207080841064453,3.23486328125,25.360107421875,-22.003173828125
2.6374999000000003,0.9570821523666382,0.23044191300868988,9.821614265441895,23.284912109375,51.361083984375,-34.637451171875
2.6424999000000002,0.5626373887062073,0.014365210197865963,10.096348762512207,-4.69970703125,46.7529296875,-21.66748046875
2.6474999,0.17238251864910126,0.19572599232196808,9.873687744140625,-11.5966796875,46.7529296875,-15.5029296875
2.6524999,-1.2856862545013428,0.5159504413604736,9.692327499389648,-28.25927734375,26.123046875,-16.265869140625
2.6574999000000004,-2.7988216876983643,-0.8427590131759644,9.122507095336914,-15.380859375,-14.95361328125,-12.8173828125
2.6624999000000003,-3.906140089035034,-1.2557587623596191,8.069058418273926,2.0751953125,-40.008544921875,-6.89697265625
2.6674999,-4.72495698928833,-2.0697872638702393,7.757213592529297,-1.312255859375,-78.4912109375,36.224365234375
2.6724999,-4.132990837097168,-1.854907751083374,8.00680923461914,-14.617919921875,-99.700927734375,38.787841796875
2.6774999000000004,-2.403778553009033,-1.0067617893218994,8.967482566833496,-22.918701171875,-80.87158203125,23.345947265625
2.6824999000000003,0.1711854189634323,-0.5386953949928284,10.324396133422852,-9.033203125,-35.82763671875,13.00048828125
2.6874999,2.693476915359497,-0.28550854325294495,11.224616050720215,7.598876953125,7.6904296875,12.5732421875
2.6924999,4.3173441886901855,-0.5033808946609497,11.620856285095215,18.37158203125,29.23583984375,14.129638671875
2.6974999,3.4566287994384766,-0.17956513166427612,10.900800704956055,15.716552734375,29.876708984375,3.5400390625
2.7024999000000003,2.1769278049468994,0.15263035893440247,10.425551414489746,3.72314453125,21.05712890625,-18.37158203125
2.7074999,2.1769278049468994,0.15263035893440247,10.425551414489746,3.72314453125,21.05712890625,-18.37158203125
2.7124999,1.2898762226104736,0.3621230125427246,10.066421508789062,5.18798828125,28.228759765625,-21.148681640625
2.7174999,1.002571940422058,0.03651157766580582,9.907805442810059,20.32470703125,43.365478515625,-30.303955078125
2.7224999000000003,0.46088382601737976,0.17417816817760468,10.141838073730469,-11.627197265625,45.59326171875,-15.625
2.7274999,0.46088382601737976,0.17417816817760468,10.141838073730469,-11.627197265625,45.59326171875,-15.625
2.7324999,-0.18375498056411743,0.8158242106437683,9.651625633239746,-13.7939453125,45.135498046875,-18.768310546875
2.7374999,-1.9943699836730957,-0.11791443079710007,9.55585765838623,-38.177490234375,4.2724609375,-16.571044921875
2.7424999000000003,-3.28963303565979,-1.006163239479065,8.473079681396484,-5.31005859375,-23.651123046875,-15.869140625
2.7474999,-4.428076267242432,-2.2164323329925537,7.69735860824585,0.6103515625,-55.60302734375,4.0283203125
2.7524999,-4.756680011749268,-2.585139274597168,7.6351094245910645,-6.2255859375,-97.16796875,44.00634765625
2.7574999,4.143764495849609,-0.9247604012489319,11.64599609375,28.4423828125,35.308837890625,37.567138671875
2.7624999000000003,4.143764495849609,-0.9247604012489319,11.64599609375,28.4423828125,35.308837890625,37.567138671875
2.7674999000000002,3.6068649291992188,-0.6811503767967224,11.27190113067627,28.411865234375,41.534423828125,41.290283203125
2.7724999,2.56000018119812,-0.12449848651885986,10.645817756652832,12.725830078125,27.52685546875,15.80810546875
2.7774999,1.7764976024627686,0.37229835987091064,10.22503662109375,1.556396484375,11.810302734375,-17.791748046875
2.7824999000000004,1.7196353673934937,0.2783259451389313,9.86351203918457,18.157958984375,30.792236328125,-32.745361328125
2.7874999000000003,1.9698294401168823,0.7116764783859253,9.812037467956543,21.514892578125,58.990478515625,-43.426513671875
2.7924999,1.5508441925048828,0.7224503755569458,10.171167373657227,-9.124755859375,54.6875,-26.42822265625
2.7974999,0.8918401598930359,1.4658499956130981,9.82999324798584,-16.29638671875,47.637939453125,-32.65380859375
2.8024999000000004,-1.2844891548156738,1.238999366760254,9.944316864013672,-44.61669921875,17.578125,-35.2783203125
2.8074999000000003,0.15023615956306458,-2.0673930644989014,9.946710586547852,-4.913330078125,-32.440185546875,21.8505859375
2.8124999,2.3726539611816406,-1.7471686601638794,11.091139793395996,20.69091796875,-3.021240234375,49.652099609375
2.8174999,3.5889084339141846,-1.568800687789917,11.614272117614746,27.52685546875,27.374267578125,63.04931640625
2.8224999,3.580528736114502,-0.8655039072036743,11.603498458862305,35.247802734375,47.9736328125,74.89013671875
2.8274999000000003,3.0424318313598633,-0.08798690885305405,11.081562995910645,20.1416015625,40.95458984375,49.774169921875
2.8324999,2.5073277950286865,0.7260416746139526,10.447697639465332,6.805419921875,19.59228515625,-6.4697265625
2.8374999,2.5785553455352783,0.9319429993629456,10.163984298706055,13.763427734375,28.106689453125,-33.935546875
2.8424999,2.852691411972046,1.1127052307128906,9.841964721679688,23.590087890625,64.39208984375,-42.938232421875
2.8474999000000003,-4.1641154289245605,-0.5817909836769104,8.866327285766602,-13.824462890625,-16.571044921875,-45.013427734375
2.8524999,-5.332485675811768,-2.296638011932373,7.858967304229736,-10.894775390625,-42.388916015625,-26.3671875
2.8574999,-5.535394191741943,-3.3057940006256104,7.465120792388916,-8.026123046875,-92.59033203125,23.25439453125
2.8624999,-4.250306606292725,-3.490746021270752,7.648875713348389,-7.415771484375,-106.93359375,35.125732421875
2.8674999000000003,-2.053027868270874,-3.223194122314453,8.501212120056152,-13.18359375,-77.7587890625,22.0947265625
2.8724999,0.24241292476654053,-2.6641478538513184,10.142436981201172,9.1552734375,-36.19384765625,42.327880859375
2.8774999,2.278681516647339,-2.184709072113037,11.260529518127441,21.026611328125,-7.32421875,72.906494140625
2.8824999,3.3710360527038574,-1.337161660194397,11.868656158447266,29.1748046875,31.890869140625,83.648681640625
2.8874999000000003,3.621230125427246,-0.3645172119140625,11.672331809997559,26.336669921875,46.112060546875,71.258544921875
2.8924999000000002,2.47560453414917,1.3102269172668457,10.554239273071289,-9.46044921875,64.300537109375,-40.191650390625
2.8974999,1.1109095811843872,0.9199720025062561,10.259154319763184,-11.90185546875,58.10546875,-36.68212890625
2.9024999,-0.6314706802368164,0.7511807680130005,9.70549488067627,-2.410888671875,46.38671875,-39.215087890625
2.9074999000000004,-2.651578426361084,0.07003039866685867,8.904634475708008,-19.012451171875,7.354736328125,-20.660400390625
2.9124999000000003,-4.389768600463867,-1.5616180896759033,8.346187591552734,-40.863037109375,-49.041748046875,-16.876220703125
2.9174999,-5.16429328918457,-1.9698294401168823,7.295731067657471,-15.380859375,-49.1943359375,-25.299072265625
2.9224999,-5.5126495361328125,-2.956839084625244,7.364564418792725,-8.9111328125,-80.047607421875,14.83154296875
2.9274999000000004,-4.266467571258545,-3.28963303565979,7.754819393157959,-6.378173828125,-102.508544921875,22.674560546875
2.9324999000000003,-2.2816741466522217,-3.2357635498046875,8.407238960266113,-5.340576171875,-69.061279296875,23.712158203125
2.9374999,1.6352397203445435,-2.1068975925445557,11.169549942016602,13.763427734375,-24.932861328125,78.125
2.9424999,2.868852138519287,-1.1061211824417114,11.843517303466797,24.139404296875,26.275634765625,77.880859375
2.9474999,3.621828556060791,-0.11133038252592087,11.699865341186523,23.5595703125,43.15185546875,53.28369140625
2.9524999000000003,4.063559055328369,0.585382342338562,11.235389709472656,9.58251953125,26.397705078125,2.593994140625
2.9574999,4.282628059387207,0.9265560507774353,10.755950927734375,14.6484375,37.4755859375,-34.942626953125
2.9624999,2.4372973442077637,1.0504560470581055,10.529699325561523,-6.2255859375,65.643310546875,-56.793212890625
2.9674999,0.7499836683273315,0.8325836658477783,10.187328338623047,-7.62939453125,54.01611328125,-34.515380859375
2.9724999000000003,-1.0169371366500854,0.181959331035614,9.381080627441406,-1.251220703125,48.614501953125,-26.702880859375
2.9774999,-2.889202833175659,-0.9127894043922424,8.829216957092285,2.25830078125,19.622802734375,-11.993408203125
2.9824999,-5.398326396942139,-2.5450363159179688,7.531559944152832,-51.81884765625,-82.09228515625,29.60205078125
2.9874999,-5.6341552734375,-2.0655975341796875,6.955155849456787,-11.260986328125,-105.072021484375,14.09912109375
2.9924999000000003,-5.321113109588623,-1.9303251504898071,8.10317611694336,-2.227783203125,-101.654052734375,16.876220703125
2.9974999,-3.8720226287841797,-1.4197616577148438,9.486425399780273,-27.923583984375,-115.72265625,42.205810546875
3.0024999,-1.1354501247406006,-0.8816647529602051,10.721834182739258,-32.71484375,-83.587646484375,50.47607421875
3.0074999,1.580173134803772,-0.7026981711387634,11.81179428100586,4.730224609375,-13.61083984375,49.346923828125
3.0124999000000003,4.0964789390563965,-1.294066071510315,12.09430980682373,22.186279296875,29.052734375,37.65869140625
3.0174999000000002,5.6455278396606445,-1.4856021404266357,11.612476348876953,28.6865234375,45.2880859375,25.360107421875
3.0224999,5.980117321014404,-1.2737152576446533,11.130643844604492,27.7099609375,54.412841796875,-0.6103515625
3.0274999,5.19362211227417,-0.628477931022644,10.861295700073242,20.416259765625,57.159423828125,-25.360107421875
3.0324999000000004,3.691859006881714,0.2585737705230713,10.58775806427002,11.077880859375,64.056396484375,-24.23095703125
3.0374999000000003,2.185307502746582,0.9085995554924011,10.428544044494629,7.32421875,64.849853515625,-24.96337890625
3.0424999,-0.1933317929506302,0.9331400990486145,9.771934509277344,-1.220703125,46.600341796875,-57.92236328125
3.0474999,-1.0444705486297607,0.5746083855628967,9.378686904907227,-2.01416015625,38.39111328125,-29.6630859375
3.0524999000000004,-1.9446903467178345,-0.3280056416988373,8.91540813446045,0.030517578125,32.1044921875,-21.66748046875
3.0574999000000003,-2.9526493549346924,-1.3449428081512451,8.531737327575684,1.8310546875,8.30078125,-7.080078125
3.0624999,-3.733159065246582,-1.459265947341919,7.474099159240723,-0.18310546875,-17.4560546875,24.59716796875
3.0674999,-4.852448463439941,-2.5115175247192383,7.736862659454346,-43.76220703125,-88.43994140625,36.56005859375
3.0724999000000004,-4.98472785949707,-1.4389152526855469,7.196970462799072,-10.6201171875,-109.588623046875,22.5830078125
3.0774999000000003,-4.735132217407227,-1.0708067417144775,8.767566680908203,-7.38525390625,-105.28564453125,17.27294921875
3.0824999,-2.874239206314087,-0.4531026780605316,9.949105262756348,-39.459228515625,-104.095458984375,27.03857421875
3.0874999,-0.2406172752380371,-0.08559270948171616,11.16117000579834,-27.191162109375,-60.11962890625,41.290283203125
3.0924999,2.6366145610809326,-0.5734112858772278,11.975796699523926,9.613037109375,-0.9765625,39.48974609375
3.0974999000000003,4.81473970413208,-1.3964180946350098,11.912949562072754,21.270751953125,32.3486328125,21.484375
3.1024999,5.585073947906494,-1.3874398469924927,11.01512336730957,25.93994140625,55.11474609375,-9.765625
3.1074999,4.31135892868042,-0.5710170865058899,10.717045783996582,17.120361328125,57.373046875,-23.406982421875
3.1124999,2.5665841102600098,0.24779987335205078,10.40579891204834,6.866455078125,58.013916015625,-18.24951171875
3.1174999000000003,1.0073603391647339,0.821809709072113,10.271723747253418,4.425048828125,52.520751953125,-17.39501953125
3.1224999,-1.1342530250549316,-0.31364041566848755,9.122507095336914,2.13623046875,35.552978515625,-24.993896484375
3.1274999,-2.0272903442382812,-0.49559974670410156,8.838793754577637,-10.009765625,16.754150390625,-13.36669921875
3.1324999,-3.271676540374756,-1.3311761617660522,8.948927879333496,-49.37744140625,-39.825439453125,-9.429931640625
3.1374999000000003,-3.867234230041504,-1.6561890840530396,8.145672798156738,-14.70947265625,-41.32080078125,-20.3857421875
3.1424999000000002,-4.3394904136657715,-2.2804770469665527,8.087015151977539,-2.38037109375,-58.685302734375,3.021240234375
3.1474999,2.1344308853149414,-0.5225345492362976,11.437700271606445,11.53564453125,0.79345703125,51.788330078125
3.1524999,3.41951847076416,0.2106897532939911,11.749545097351074,14.312744140625,30.853271484375,32.135009765625
3.1574999000000004,4.2544965744018555,0.568622887134552,11.561599731445312,8.392333984375,26.336669921875,-5.43212890625
3.1624999000000003,4.360439777374268,0.5913678407669067,11.108497619628906,14.373779296875,42.3583984375,-25.543212890625
3.1674999,3.708019971847534,0.5746083855628967,10.797250747680664,12.847900390625,56.45751953125,-11.90185546875
3.1724999,2.855085611343384,0.6057330369949341,10.696694374084473,7.99560546875,58.502197265625,-26.641845703125
3.1774999000000004,1.8626888990402222,0.5608417391777039,10.345345497131348,6.40869140625,63.995361328125,-49.01123046875
3.1824999000000003,0.9097966551780701,0.7960720658302307,10.133459091186523,-1.28173828125,53.3447265625,-45.7763671875
3.1874999,-0.041299980133771896,0.5339069962501526,9.843161582946777,-6.195068359375,47.119140625,-33.935546875
3.1924999,-4.129997730255127,-1.170764684677124,8.645462036132812,-6.195068359375,-10.528564453125,-33.38623046875
3.1974999000000004,-4.838681697845459,-2.2601263523101807,7.750030994415283,-0.091552734375,-37.261962890625,-6.2255859375
3.2024999000000003,-4.763264179229736,-2.7946319580078125,7.2334818840026855,-1.129150390625,-88.470458984375,35.980224609375
3.2074999,-3.6367924213409424,-2.6844985485076904,7.158064365386963,-1.220703125,-101.470947265625,32.89794921875
3.2124999,-1.9818004369735718,-2.0440497398376465,8.215105056762695,-0.213623046875,-81.634521484375,12.664794921875
3.2174999,-0.03770867735147476,-1.3682862520217896,9.765948295593262,3.72314453125,-46.173095703125,15.869140625
3.2224999000000003,1.911171555519104,-0.9385270476341248,11.082160949707031,6.256103515625,-14.984130859375,36.07177734375
3.2274999,3.1860837936401367,-0.48243165016174316,12.042236328125,15.68603515625,4.302978515625,43.0908203125
3.2324999,3.751713991165161,0.058059390634298325,11.916540145874023,17.181396484375,29.052734375,25.848388671875
3.2374999,3.5069069862365723,0.5776011347770691,11.589133262634277,5.7373046875,24.658203125,-2.44140625
3.2424999000000003,2.920926094055176,1.0492589473724365,10.960057258605957,3.173828125,24.658203125,-21.392822265625
3.2474999,0.41539400815963745,0.30047231912612915,9.970054626464844,-5.523681640625,56.57958984375,-21.8505859375
3.2524999,-0.9977835416793823,0.2495955228805542,9.728838920593262,-24.47509765625,34.942626953125,-21.270751953125
3.2574999,-2.4905683994293213,-0.5548562407493591,9.261370658874512,-27.069091796875,-7.14111328125,-16.632080078125
3.2624999000000003,-3.6134488582611084,-1.0935516357421875,8.224681854248047,-4.119873046875,-14.068603515625,-23.74267578125
3.2674999000000002,-3.6134488582611084,-1.0935516357421875,8.224681854248047,-4.119873046875,-14.068603515625,-23.74267578125
3.2724999,-4.567538261413574,-1.9943699836730957,7.618350028991699,-0.152587890625,-51.788330078125,12.115478515625
3.2774999,-4.416105270385742,-2.3570916652679443,7.376535415649414,-2.0751953125,-91.156005859375,34.423828125
3.2824999000000004,-3.246537446975708,-2.054224967956543,7.721899032592773,-3.96728515625,-89.813232421875,17.2119140625
3.2874999000000003,-1.4167689085006714,-1.4616601467132568,9.099761962890625,0.152587890625,-63.04931640625,9.002685546875
3.2924999,2.6617536544799805,-0.8176198601722717,11.580155372619629,9.552001953125,5.67626953125,22.76611328125
3.2974999,2.6617536544799805,-0.8176198601722717,11.580155372619629,9.552001953125,5.67626953125,22.76611328125
3.3024999000000004,3.5709519386291504,-0.4620809257030487,11.975198745727539,20.050048828125,17.547607421875,33.050537109375
3.3074999000000003,3.5697548389434814,0.0005985504249110818,11.632827758789062,15.56396484375,23.37646484375,10.009765625
3.3124999,2.847304344177246,0.5530605912208557,11.189900398254395,3.204345703125,20.01953125,-13.885498046875
3.3174999,2.07397723197937,0.9786299467086792,10.51054573059082,0.6103515625,24.84130859375,-18.157958984375
3.3224999000000004,1.5466543436050415,0.71766197681427,10.198700904846191,9.33837890625,31.73828125,-18.85986328125
3.3274999000000003,1.334767460823059,0.585382342338562,10.04427433013916,16.571044921875,46.69189453125,-38.57421875
3.3324999,0.9265560507774353,0.2968810200691223,10.261548042297363,-4.21142578125,50.537109375,-21.6064453125
3.3374999,0.6619967818260193,0.39145198464393616,10.234613418579102,-9.979248046875,57.647705078125,-12.847900390625
3.3424999,-0.3728969097137451,0.375291109085083,10.190919876098633,-12.8173828125,51.055908203125,-24.749755859375
3.3474999000000003,-1.8136078119277954,-0.28311434388160706,9.804854393005371,-32.806396484375,6.256103515625,-15.655517578125
3.3524999,-4.432265758514404,-2.206256866455078,7.241861820220947,-2.197265625,-85.784912109375,37.90283203125
3.3574999,-4.432265758514404,-2.206256866455078,7.241861820220947,-2.197265625,-85.784912109375,37.90283203125
3.3624999,3.736151695251465,-0.3758896589279175,11.84531307220459,21.1181640625,26.702880859375,23.712158203125
3.3674999000000003,3.0119056701660156,0.16579847037792206,11.32457447052002,7.904052734375,22.491455078125,-2.0751953125
3.3724999,2.1164743900299072,0.6607996821403503,10.619482040405273,0.3662109375,18.73779296875,-19.34814453125
3.3774999,1.5388731956481934,0.6979097723960876,10.203489303588867,6.89697265625,25.848388671875,-17.669677734375
3.3824999,1.413776159286499,0.5351040959358215,9.899425506591797,21.240234375,42.724609375,-36.865234375
3.3874999000000003,-1.4113819599151611,0.29149407148361206,9.757569313049316,-37.7197265625,11.90185546875,-20.1416015625
3.3924999000000002,-2.612074136734009,-0.4704606235027313,8.839991569519043,-13.61083984375,-11.3525390625,-20.751953125
3.3974999,-3.8307228088378906,-1.6112977266311646,8.048707962036133,-3.0517578125,-26.397705078125,-15.045166015625
3.4024999,-4.58968448638916,-2.410961151123047,7.661445617675781,-3.173828125,-75.3173828125,29.1748046875
3.4074999000000004,-3.998316764831543,-2.4893712997436523,7.591414928436279,-5.950927734375,-98.0224609375,30.57861328125
3.4124999000000003,-2.431910276412964,-1.9393033981323242,8.385092735290527,-8.758544921875,-78.91845703125,11.8408203125
3.4174999,-0.19213469326496124,-1.2324153184890747,9.825204849243164,-0.701904296875,-41.259765625,12.786865234375
3.4224999,2.0380642414093018,-1.0043675899505615,11.001955032348633,4.180908203125,-3.2958984375,13.5498046875
3.4274999000000004,3.467402696609497,-0.8876502513885498,11.832743644714355,19.073486328125,19.866943359375,24.7802734375
3.4324999000000003,3.734356164932251,-0.5722141861915588,11.723807334899902,26.2451171875,27.984619140625,29.693603515625
3.4374999,1.1605892181396484,0.5997475385665894,10.125079154968262,4.058837890625,50.59814453125,-28.472900390625
3.4424999,-1.3006501197814941,0.5943605899810791,9.782708168029785,-28.717041015625,23.49853515625,-18.280029296875
3.4474999000000004,-2.7072436809539795,-0.6757634282112122,9.134477615356445,-19.134521484375,-13.0615234375,-10.8642578125
3.4524999000000003,-3.713406801223755,-1.1414356231689453,8.073247909545898,-2.593994140625,-29.693603515625,-12.725830078125
3.4574999,-4.530427932739258,-1.9800047874450684,7.647080421447754,-1.922607421875,-71.35009765625,27.4658203125
3.4624999,-4.039018154144287,-1.9961656332015991,7.630919456481934,-8.6669921875,-98.114013671875,30.120849609375
3.4674999,-2.52109432220459,-1.4071919918060303,8.382100105285645,-11.688232421875,-82.061767578125,12.237548828125
3.4724999000000003,2.0697872638702393,-0.7511807680130005,10.971428871154785,3.84521484375,-3.7841796875,11.53564453125
3.4774999,3.5697548389434814,-0.9582792520523071,11.783063888549805,17.51708984375,22.491455078125,18.1884765625
3.4824999,3.867234230041504,-0.7841010689735413,11.718420028686523,27.34375,28.9306640625,29.23583984375
3.4874999,3.1699230670928955,-0.34835633635520935,11.223419189453125,15.228271484375,25.238037109375,12.054443359375
3.4924999000000003,2.074575662612915,0.23942017555236816,10.61768627166748,2.288818359375,16.143798828125,-15.289306640625
3.4974999,1.3611036539077759,0.5859808921813965,10.202292442321777,3.326416015625,20.93505859375,-17.547607421875
3.5024999,1.2976573705673218,0.5027823448181152,9.890447616577148,22.918701171875,39.306640625,-30.2734375
3.5074999,1.158793568611145,0.5901707410812378,10.087968826293945,7.99560546875,50.933837890625,-31.402587890625
3.5124999000000003,0.9187749028205872,0.4967968463897705,10.231022834777832,-12.39013671875,53.7109375,-10.1318359375
3.5174999000000002,0.383670836687088,0.7589619159698486,10.095749855041504,-8.1787109375,53.7109375,-24.688720703125
3.5224999,-4.532223701477051,-2.1559786796569824,7.419631004333496,-0.274658203125,-71.044921875,27.83203125
3.5274999,-4.17608642578125,-2.1799206733703613,7.45913553237915,-6.988525390625,-101.9287109375,33.50830078125
3.5324999000000004,-2.691082715988159,-1.4736311435699463,8.234258651733398,-13.36669921875,-86.42578125,13.7939453125
3.5374999000000003,-0.49320554733276367,-0.8200140595436096,9.818621635437012,-8.9111328125,-48.828125,11.077880859375
3.5424999,1.9740192890167236,-0.6003460884094238,11.03128433227539,2.50244140625,-5.67626953125,11.474609375
3.5474999,3.5697548389434814,-0.8146271109580994,11.871050834655762,16.387939453125,21.17919921875,17.9443359375
3.5524999000000004,3.9264907836914062,-0.7433996200561523,11.818976402282715,28.38134765625,29.571533203125,30.2734375
3.5574999000000003,3.208828926086426,-0.42437225580215454,11.271303176879883,16.845703125,28.472900390625,17.51708984375
3.5624999,2.0697872638702393,0.15143325924873352,10.611700057983398,2.288818359375,15.167236328125,-10.986328125
3.5674999,1.3431471586227417,0.5027823448181152,10.159195899963379,2.50244140625,16.7236328125,-18.98193359375
3.5724999000000004,1.326986312866211,0.46627077460289,9.773730278015137,22.796630859375,37.811279296875,-30.94482421875
3.5774999000000003,1.2551602125167847,0.5482721924781799,10.005967140197754,8.697509765625,51.483154296875,-31.829833984375
3.5824999,0.4752490520477295,0.7242460250854492,10.032303810119629,-7.8125,51.422119140625,-21.17919921875
3.5874999,-1.0618284940719604,0.6584054827690125,9.77013874053955,-24.7802734375,26.79443359375,-18.157958984375
3.5924999,-2.6180596351623535,-0.44352585077285767,9.227851867675781,-24.71923828125,-15.56396484375,-12.603759765625
3.5974999000000003,-3.649960517883301,-1.0881646871566772,8.134899139404297,-3.753662109375,-29.78515625,-14.556884765625
3.6024999,-4.548384666442871,-1.898003339767456,7.723694801330566,-1.678466796875,-70.00732421875,25.634765625
3.6074999,-4.089895248413086,-2.0428526401519775,7.8541789054870605,-8.453369140625,-99.54833984375,32.196044921875
3.6124999,-2.5097219944000244,-1.4622586965560913,8.540117263793945,-15.2587890625,-79.986572265625,13.824462890625
3.6174999000000003,-0.26336219906806946,-0.9642647504806519,10.034099578857422,-8.4228515625,-42.6025390625,11.962890625
3.6224999,2.11946702003479,-0.7990648150444031,11.040262222290039,5.0048828125,-1.434326171875,11.749267578125
3.6274999,3.5865142345428467,-1.0169371366500854,11.73817253112793,17.88330078125,21.331787109375,19.256591796875
3.6324999,3.799597978591919,-0.8373720645904541,11.610681533813477,28.74755859375,29.144287109375,31.524658203125
3.6374999000000003,3.0346505641937256,-0.42676645517349243,11.094132423400879,16.632080078125,29.1748046875,17.120361328125
3.6424999000000002,1.9470845460891724,0.17058686912059784,10.508151054382324,1.800537109375,14.58740234375,-12.481689453125
3.6474999,1.3192051649093628,0.5069721937179565,10.11430549621582,4.241943359375,18.5546875,-19.195556640625
3.6524999,1.3682862520217896,0.46148237586021423,9.821614265441895,24.871826171875,41.19873046875,-31.43310546875
3.6574999000000004,1.2958617210388184,0.5380968451499939,10.049661636352539,7.9345703125,53.03955078125,-30.3955078125
3.6624999000000003,1.0893617868423462,0.5267243981361389,10.210671424865723,-12.115478515625,53.64990234375,-10.894775390625
3.6674999,0.5231330990791321,0.6703764796257019,10.102334022521973,-8.85009765625,51.483154296875,-25.69580078125
3.6724999,-1.202487826347351,0.5398924946784973,9.892242431640625,-32.257080078125,21.026611328125,-23.92578125
3.6774999000000004,-2.677914619445801,-0.9385270476341248,9.23563289642334,-17.059326171875,-12.75634765625,-16.2353515625
3.6824999000000003,-3.863044500350952,-1.6442179679870605,8.077438354492188,-2.960205078125,-29.84619140625,-12.237548828125
3.6874999,-4.704007625579834,-2.4187421798706055,7.565677165985107,-1.03759765625,-75.0732421875,30.548095703125
3.6924999,-4.157531261444092,-2.31758713722229,7.647080421447754,-7.598876953125,-102.294921875,34.66796875
3.6974999000000004,-2.4438812732696533,-1.4778209924697876,8.40843677520752,-16.571044921875,-80.13916015625,12.786865234375
3.7024999000000003,2.362478494644165,-0.6290764808654785,11.055825233459473,6.256103515625,2.13623046875,10.406494140625
3.7074999,3.79840087890625,-0.8301894664764404,11.791443824768066,19.4091796875,23.956298828125,19.83642578125
3.7124999,3.957615375518799,-0.7050924301147461,11.612476348876953,29.23583984375,32.135009765625,29.4189453125
3.7174999,3.0861260890960693,-0.3214215636253357,11.113883972167969,15.899658203125,29.693603515625,13.73291015625
3.7224999000000003,1.9512743949890137,0.22086510062217712,10.511143684387207,1.8310546875,15.716552734375,-15.5029296875
3.7274999,1.3341689109802246,0.4878185987472534,10.093356132507324,6.256103515625,22.552490234375,-19.927978515625
3.7324999,1.3467384576797485,0.4842272996902466,9.84495735168457,25.5126953125,44.647216796875,-33.905029296875
3.7374999,1.2072762250900269,0.6009446382522583,10.078990936279297,5.096435546875,52.490234375,-28.50341796875
3.7424999000000003,1.028908133506775,0.7242460250854492,10.223240852355957,-13.031005859375,55.11474609375,-14.46533203125
3.7474999,0.3190273642539978,1.0594342947006226,9.770736694335938,-10.284423828125,51.57470703125,-28.6865234375
3.7524999,-1.4233529567718506,0.4596867263317108,9.743204116821289,-33.26416015625,17.39501953125,-19.71435546875
3.7574999,-2.84790301322937,-0.9235633015632629,8.710704803466797,-11.23046875,-10.55908203125,-13.7939453125
3.7624999000000003,-4.910507678985596,-2.691681146621704,7.463325023651123,-0.06103515625,-84.77783203125,39.703369140625
3.7674999000000002,-4.253299236297607,-2.4013843536376953,7.734468460083008,-10.711669921875,-109.19189453125,34.332275390625
3.7724999,-2.4007856845855713,-1.338358759880066,8.679579734802246,-19.53125,-80.780029296875,9.521484375
3.7774999,0.18076223134994507,-0.5494692921638489,10.310629844665527,-7.6904296875,-33.935546875,11.932373046875
3.7824999000000004,2.718616008758545,-0.3555389642715454,11.323376655578613,4.21142578125,5.79833984375,8.97216796875
3.7874999000000003,4.2090067863464355,-0.5632359385490417,11.915942192077637,18.06640625,24.658203125,16.937255859375
3.7924999,4.244320869445801,-0.6147112846374512,11.629236221313477,28.74755859375,33.782958984375,15.2587890625
3.7974999,3.2106244564056396,-0.29867666959762573,11.079168319702148,16.78466796875,29.571533203125,5.43212890625
3.8024999000000004,2.0231003761291504,0.07781155407428741,10.494982719421387,2.50244140625,19.012451171875,-16.2353515625
3.8074999000000003,1.2641384601593018,0.21607670187950134,10.033500671386719,6.866455078125,26.42822265625,-23.162841796875
3.8124999,1.1420341730117798,0.2256535142660141,9.849745750427246,26.763916015625,45.59326171875,-30.364990234375
3.8174999,0.9774328470230103,0.4734533727169037,10.051457405090332,5.096435546875,52.67333984375,-24.444580078125
3.8224999000000004,-0.03770867735147476,1.445499300956726,9.651026725769043,-12.51220703125,50.048828125,-25.81787109375
3.8274999000000003,-1.7106571197509766,0.3597288131713867,9.563638687133789,-33.416748046875,13.7939453125,-17.974853515625
3.8324999,-2.9251158237457275,-0.6206967830657959,8.35097599029541,-5.615234375,-13.12255859375,-12.939453125
3.8374999,-4.057573318481445,-2.1344308853149414,7.605181694030762,0.885009765625,-42.66357421875,0.823974609375
3.8424999,-2.1284453868865967,-1.2791022062301636,8.947132110595703,-19.6533203125,-78.704833984375,10.650634765625
3.8474999000000003,0.5039794445037842,-0.4578910768032074,10.53029727935791,-5.2490234375,-28.74755859375,11.23046875
3.8524999,2.9538464546203613,-0.33279404044151306,11.55741024017334,4.364013671875,9.1552734375,8.6669921875
3.8574999,4.395155906677246,-0.4710591733455658,11.966219902038574,19.927978515625,28.076171875,16.571044921875
3.8624999,4.293402194976807,-0.579995334148407,11.642404556274414,28.076171875,35.2783203125,10.345458984375
3.8674999000000003,3.159149169921875,-0.2579752206802368,11.060014724731445,16.11328125,29.6630859375,2.166748046875
3.8724999,0.47225627303123474,0.5153518915176392,10.164583206176758,-16.17431640625,53.466796875,-11.962890625
3.8774999,0.47225627303123474,0.5153518915176392,10.164583206176758,-16.17431640625,53.466796875,-11.962890625
3.8824999,-0.3705027103424072,1.1294646263122559,9.768342971801758,-13.885498046875,47.79052734375,-24.932861328125
3.8874999000000003,-2.057217836380005,0.0694318488240242,9.542689323425293,-33.38623046875,7.659912109375,-17.913818359375
3.8924999000000002,-3.2848446369171143,-0.9594763517379761,8.367734909057617,-3.5400390625,-19.71435546875,-12.603759765625
3.8974999,-4.347870349884033,-2.101510524749756,7.524975776672363,1.068115234375,-52.490234375,6.53076171875
3.9024999,-4.772242546081543,-2.455852508544922,7.219116687774658,-4.119873046875,-97.015380859375,48.736572265625
3.9074999000000004,-3.8109705448150635,-1.8854337930679321,7.875127792358398,-17.333984375,-113.311767578125,32.40966796875
3.9124999000000003,-1.7483657598495483,-0.9151836037635803,9.132682800292969,-21.66748046875,-74.920654296875,11.53564453125
3.9174999,3.4171242713928223,-0.31783026456832886,11.669339179992676,6.77490234375,13.18359375,11.474609375
3.9224999,4.642955780029297,-0.5722141861915588,11.931504249572754,22.4609375,29.052734375,18.12744140625
3.9274999000000004,4.301782131195068,-0.6637924313545227,11.534067153930664,28.1982421875,36.407470703125,11.322021484375
3.9324999000000003,3.0400376319885254,-0.29807811975479126,10.943297386169434,15.106201171875,30.029296875,4.241943359375
3.9374999,1.8614917993545532,0.1867477297782898,10.337564468383789,2.13623046875,20.01953125,-17.76123046875
3.9424999,1.0881646871566772,0.1628057211637497,9.975440979003906,9.246826171875,28.13720703125,-27.2216796875
3.9474999000000004,1.082777738571167,0.32441434264183044,9.75278091430664,27.2216796875,49.102783203125,-33.0810546875
3.9524999000000003,0.7918822169303894,0.46627077460289,10.023324966430664,-0.335693359375,51.94091796875,-24.078369140625
3.9574999,0.4644751250743866,0.4626794755458832,10.118494987487793,-15.533447265625,51.055908203125,-14.22119140625
3.9624999,-0.5913678407669067,0.7817068696022034,9.88506031036377,-15.31982421875,45.41015625,-24.71923828125
3.9674999000000004,-2.1936872005462646,-0.12928688526153564,9.600749015808105,-31.158447265625,3.0517578125,-15.899658203125
3.9724999000000003,-3.352480888366699,-1.301847219467163,8.495824813842773,-2.13623046875,-22.52197265625,-12.664794921875
3.9774999,-3.3452982902526855,-1.557428240776062,8.043919563293457,-19.805908203125,-105.194091796875,28.289794921875
3.9824999,-3.3452982902526855,-1.557428240776062,8.043919563293457,-19.805908203125,-105.194091796875,28.289794921875
3.9874999,-1.24917471408844,-0.67815762758255,9.334992408752441,-20.01953125,-63.140869140625,10.772705078125
3.9924999000000003,1.403002142906189,-0.22026655077934265,10.76732349395752,-1.64794921875,-14.09912109375,9.33837890625
3.9974999,3.5924997329711914,-0.39803603291511536,11.580753326416016,9.6435546875,17.425537109375,11.5966796875
4.0024999,2.7503392696380615,-0.28371289372444153,10.817602157592773,13.671875,30.029296875,2.960205078125
4.0074999,1.634641170501709,0.24001872539520264,10.271124839782715,1.8310546875,21.697998046875,-21.331787109375
4.0124999,1.1216834783554077,0.15801730751991272,9.982624053955078,12.969970703125,34.210205078125,-28.350830078125
4.0174999,1.1414356231689453,0.43694180250167847,9.75517463684082,26.519775390625,53.466796875,-33.3251953125
4.022499900000001,0.8505401611328125,0.5398924946784973,10.119691848754883,-5.31005859375,51.81884765625,-23.62060546875
4.0274999000000005,-0.7481880187988281,0.9493009448051453,9.904812812805176,-21.026611328125,45.562744140625,-25.726318359375
4.0324999,-2.3786394596099854,-0.09935937076807022,9.513958930969238,-28.839111328125,0.762939453125,-14.6484375
4.0374999,-3.5715503692626953,-1.3329718112945557,8.392873764038086,-1.068115234375,-23.86474609375,-13.916015625
4.0424999,-4.535216331481934,-2.141014814376831,7.448959827423096,1.190185546875,-60.089111328125,16.66259765625
4.0474999,-4.644751071929932,-2.36188006401062,7.331045627593994,-5.523681640625,-105.77392578125,50.1708984375
4.0524999,-3.384204149246216,-1.670554280281067,8.00561237335205,-18.646240234375,-108.82568359375,29.815673828125
4.0574999,-1.183334231376648,-0.7344213724136353,9.402628898620605,-18.12744140625,-62.98828125,10.650634765625
4.062499900000001,1.566406488418579,-0.2561795711517334,10.921151161193848,-1.3427734375,-12.51220703125,8.392333984375
4.0674999000000005,3.7672762870788574,-0.38905778527259827,11.729193687438965,11.077880859375,19.47021484375,12.6953125
4.0724999,4.593276023864746,-0.6643909811973572,11.933897972106934,25.238037109375,30.853271484375,20.233154296875
4.0774999,4.02345609664917,-0.6075286865234375,11.419144630432129,28.99169921875,38.2080078125,15.625
4.0824999,1.601720929145813,0.3274070918560028,10.271124839782715,1.007080078125,21.270751953125,-22.796630859375
4.0874999,1.0971429347991943,0.19033902883529663,9.940725326538086,15.350341796875,35.888671875,-29.815673828125
4.0924999,1.0582371950149536,0.5464765429496765,9.71926212310791,23.4375,52.30712890625,-35.15625
4.0974999,0.6751648783683777,0.5315127968788147,10.120290756225586,-9.21630859375,48.40087890625,-20.050048828125
4.1024999,0.2693476974964142,0.6631938815116882,10.038289070129395,-16.17431640625,50.872802734375,-20.538330078125
4.1074999000000005,-1.094150185585022,1.0342950820922852,9.785101890563965,-26.9775390625,37.384033203125,-25.2685546875
4.1124999,-2.674323320388794,-0.43035775423049927,9.362525939941406,-23.101806640625,-6.195068359375,-14.09912109375
4.1174999,-3.7187938690185547,-1.334767460823059,8.144475936889648,-1.220703125,-29.449462890625,-14.556884765625
4.1224999,-4.576516628265381,-2.3546974658966064,7.403470039367676,-0.06103515625,-68.206787109375,23.25439453125
4.1274999,-4.365826606750488,-2.4007856845855713,7.542334079742432,-7.781982421875,-109.222412109375,49.285888671875
4.1324999,-2.851494312286377,-1.6657658815383911,8.31326675415039,-22.125244140625,-100.830078125,25.726318359375
4.1374999,-0.5644330382347107,-0.801459014415741,9.86650562286377,-15.380859375,-50.811767578125,10.223388671875
4.1424999,4.005499362945557,-0.6224924325942993,11.832743644714355,13.3056640625,21.209716796875,15.13671875
4.147499900000001,4.481945514678955,-0.7918822169303894,11.827356338500977,28.9306640625,32.562255859375,22.8271484375
4.1524999000000005,3.7906198501586914,-0.619499683380127,11.25334644317627,28.74755859375,41.595458984375,16.693115234375
4.1574999,2.4887726306915283,-0.16819266974925995,10.696096420288086,9.429931640625,28.564453125,-3.692626953125
4.1624999,1.0779893398284912,0.6613982319831848,9.762955665588379,18.61572265625,53.3447265625,-34.454345703125
4.1674999,0.6494272351264954,0.6512228846549988,10.15560531616211,-13.031005859375,49.1943359375,-18.9208984375
4.1724999,0.17836803197860718,0.8182184100151062,9.964667320251465,-15.44189453125,51.513671875,-25.93994140625
4.1774999,-1.416170358657837,1.0223240852355957,9.795876502990723,-30.792236328125,29.449462890625,-24.078369140625
4.1824999,-2.93349552154541,-0.6709750294685364,9.211690902709961,-16.78466796875,-10.467529296875,-12.298583984375
4.187499900000001,-3.9929299354553223,-1.459265947341919,8.007407188415527,-1.068115234375,-36.2548828125,-10.92529296875
4.1924999000000005,-4.330512523651123,-2.236783027648926,7.558494567871094,-10.498046875,-112.396240234375,47.05810546875
4.1974999,-2.6132712364196777,-1.3611036539077759,8.454524993896484,-24.4140625,-96.49658203125,20.965576171875
4.2024999,-0.17896658182144165,-0.545877993106842,10.06701946258545,-13.5498046875,-44.281005859375,9.21630859375
4.2074999,2.4456770420074463,-0.292691171169281,11.240178108215332,3.265380859375,0.30517578125,9.1552734375
4.2124999,4.176684856414795,-0.5943605899810791,11.851298332214355,14.434814453125,21.453857421875,17.547607421875
4.2174999,4.4274773597717285,-0.7978677153587341,11.729193687438965,29.693603515625,31.829833984375,24.383544921875
4.2224999,3.530250310897827,-0.6206967830657959,11.116278648376465,26.42822265625,39.6728515625,18.157958984375
4.2274999,2.2248120307922363,-0.15682020783424377,10.556035041809082,6.500244140625,23.25439453125,-4.21142578125
4.2324999000000005,1.3569138050079346,0.2555810213088989,10.061034202575684,3.021240234375,21.05712890625,-25.69580078125
4.2374999,1.1007342338562012,0.1604115068912506,9.804854393005371,22.76611328125,41.6259765625,-30.853271484375
4.2424999,-3.8564603328704834,-2.3457190990448,7.970297336578369,-13.824462890625,-106.8115234375,42.54150390625
4.2474999,-1.9381062984466553,-1.404199242591858,8.863933563232422,-24.261474609375,-78.06396484375,16.357421875
4.2524999,0.5081692934036255,-0.6572083830833435,10.451289176940918,-6.77490234375,-28.13720703125,10.19287109375
4.2574999,2.872443437576294,-0.46746787428855896,11.299434661865234,6.53076171875,7.50732421875,9.674072265625
4.2624999,4.170100688934326,-0.739209771156311,11.75433349609375,18.6767578125,22.491455078125,20.56884765625
4.2674999,4.06894588470459,-0.7823054194450378,11.446678161621094,31.25,33.782958984375,24.322509765625
4.272499900000001,3.049614429473877,-0.5009866952896118,10.911574363708496,22.247314453125,37.200927734375,15.19775390625
4.2774999000000005,1.899200439453125,-0.0005985504249110818,10.359111785888672,4.69970703125,20.751953125,-11.474609375
4.2824999,1.1965023279190063,0.272938996553421,9.795876502990723,27.2216796875,48.187255859375,-31.707763671875
4.2874999,1.1264718770980835,0.6536170840263367,9.959280967712402,7.26318359375,53.253173828125,-28.50341796875
4.2924999,0.6937199234962463,0.7266402244567871,10.202292442321777,-15.350341796875,50.10986328125,-16.937255859375
4.2974999,-0.12868833541870117,1.3946224451065063,9.767146110534668,-15.350341796875,45.684814453125,-29.754638671875
4.3024999,-1.9877859354019165,0.4118026793003082,9.651026725769043,-38.482666015625,6.103515625,-21.3623046875
4.3074999,-3.3195607662200928,-0.7595604658126831,8.585607528686523,-7.32421875,-18.890380859375,-16.510009765625
4.312499900000001,-4.324526786804199,-2.1984755992889404,7.648875713348389,-0.946044921875,-47.576904296875,-3.41796875
4.3174999000000005,-4.6471452713012695,-2.7712883949279785,7.41484260559082,-2.197265625,-91.12548828125,44.677734375
4.3224999,-3.5464112758636475,-2.3570916652679443,7.982268333435059,-16.7236328125,-107.0556640625,38.51318359375
4.3274999,-1.4496891498565674,-1.3664906024932861,9.091382026672363,-21.728515625,-67.19970703125,13.97705078125
4.3324999,1.0857704877853394,-0.6751648783683777,10.714052200317383,-2.960205078125,-19.134521484375,9.58251953125
4.3374999,3.2866404056549072,-0.5758054852485657,11.446678161621094,8.941650390625,12.39013671875,10.92529296875
4.3424999,2.787449359893799,-0.3381809890270233,10.85949993133545,17.120361328125,34.0576171875,11.322021484375
4.3474999,1.811812162399292,0.28550854325294495,10.311227798461914,2.777099609375,19.317626953125,-18.61572265625
4.352499900000001,1.2659341096878052,0.27892449498176575,9.966463088989258,11.29150390625,30.426025390625,-27.4658203125
4.3574999000000005,1.3425486087799072,0.5363011956214905,9.768941879272461,27.496337890625,52.30712890625,-33.38623046875
4.3624999,0.9983820915222168,0.6206967830657959,10.051457405090332,-1.556396484375,51.513671875,-24.871826171875
4.3674999,0.5650315880775452,0.7439981698989868,10.066421508789062,-16.326904296875,49.530029296875,-20.01953125
4.3724999,-0.7697358727455139,0.9127894043922424,9.73781681060791,-20.263671875,38.330078125,-29.388427734375
4.3774999,-2.4851813316345215,-0.016160860657691956,9.418789863586426,-31.67724609375,-5.279541015625,-16.78466796875
4.3824999,-3.737348794937134,-1.4443022012710571,8.280346870422363,-3.509521484375,-27.40478515625,-14.801025390625
4.3874999,-4.567538261413574,-2.2900538444519043,7.495646953582764,0.48828125,-60.4248046875,12.115478515625
4.3924999,-4.483142852783203,-2.491166830062866,7.574057102203369,-6.2255859375,-100.7080078125,49.407958984375
4.397499900000001,1.7753005027770996,-0.40462008118629456,10.943297386169434,0.823974609375,-7.9345703125,8.97216796875
4.4024999000000005,3.709217071533203,-0.5895721912384033,11.559206008911133,11.53564453125,16.571044921875,15.625
4.4074999,4.213795185089111,-0.8421604633331299,11.644200325012207,27.2216796875,27.130126953125,26.2451171875
4.4124999,3.5942952632904053,-0.7152677774429321,11.153986930847168,28.9306640625,38.970947265625,22.27783203125
4.4174999,2.4229321479797363,-0.2454056739807129,10.638036727905273,10.589599609375,26.641845703125,3.84521484375
4.4224999,1.5310919284820557,0.2735375463962555,10.129867553710938,1.861572265625,18.218994140625,-23.0712890625
4.4274999,1.2689268589019775,0.10115502029657364,9.90241813659668,18.98193359375,36.1328125,-27.496337890625
4.4324999,1.325789213180542,0.4902127981185913,9.779715538024902,22.76611328125,54.718017578125,-33.294677734375
4.437499900000001,0.950498104095459,0.5171475410461426,10.19151782989502,-8.087158203125,50.78125,-18.5546875
4.4424999000000005,0.4387374520301819,0.7978677153587341,10.05923843383789,-15.655517578125,49.25537109375,-24.2919921875
4.4474999,-3.8510735034942627,-1.2994530200958252,7.9852614402771,-2.166748046875,-31.707763671875,-16.387939453125
4.4524999,-4.565144062042236,-2.4235305786132812,7.404667377471924,0.244140625,-69.183349609375,26.641845703125
4.4574999,-4.0863037109375,-2.388216257095337,7.739256858825684,-8.85009765625,-105.28564453125,47.9736328125
4.4624999,-2.320580005645752,-1.602918028831482,8.493430137634277,-23.193359375,-85.357666015625,20.81298828125
4.4674999,-0.06404489278793335,-0.751779317855835,10.105925559997559,-12.115478515625,-37.322998046875,9.735107421875
4.4724999,-0.06404489278793335,-0.751779317855835,10.105925559997559,-12.115478515625,-37.322998046875,9.735107421875
4.477499900000001,2.367865562438965,-0.5093663930892944,11.168951034545898,5.0048828125,1.678466796875,9.033203125
4.4824999000000005,4.0294413566589355,-0.8786720037460327,11.577162742614746,30.09033203125,30.120849609375,26.885986328125
4.4874999,3.230376720428467,-0.6051344871520996,11.00015926361084,25.146484375,37.65869140625,19.378662109375
4.4924999,2.0632033348083496,-0.09217676520347595,10.480019569396973,6.34765625,22.94921875,-7.01904296875
4.4974999,1.2898762226104736,0.228047713637352,9.816226959228516,26.06201171875,43.88427734375,-31.097412109375
4.5024999,1.278503656387329,0.6165069341659546,9.825803756713867,13.36669921875,53.40576171875,-34.1796875
4.5074999,0.899621307849884,0.7631517648696899,10.161590576171875,-14.190673828125,48.9501953125,-18.85986328125
4.5124999,0.27413609623908997,1.6298527717590332,9.553462982177734,-15.2587890625,47.30224609375,-30.6396484375
4.5174999,-1.6525976657867432,0.7416039705276489,9.684545516967773,-39.6728515625,11.77978515625,-23.5595703125
4.522499900000001,-3.1208419799804688,-0.3728969097137451,8.696338653564453,-10.3759765625,-15.655517578125,-16.754150390625
4.5274999000000005,-4.236539840698242,-2.2206220626831055,7.932588577270508,-1.190185546875,-41.07666015625,-9.368896484375
4.5324999,-4.755483150482178,-2.982576847076416,7.668029308319092,-1.129150390625,-84.503173828125,40.924072265625
4.5374999,-3.802590847015381,-2.74076247215271,8.163030624389648,-13.5498046875,-105.560302734375,41.717529296875
4.5424999,-1.7986440658569336,-1.6561890840530396,9.059061050415039,-23.529052734375,-71.77734375,14.95361328125
4.5474999,0.6524199843406677,-0.8248024582862854,10.656591415405273,-5.828857421875,-25.360107421875,10.467529296875
4.5524999,2.9700071811676025,-0.5889736413955688,11.369464874267578,8.880615234375,9.429931640625,10.467529296875
4.5574999,1.3126211166381836,0.3280056416988373,9.970054626464844,9.307861328125,27.9541015625,-26.67236328125
4.562499900000001,1.334767460823059,0.5123591423034668,9.773730278015137,29.052734375,50.933837890625,-35.5224609375
4.5674999000000005,1.0911574363708496,0.7218518257141113,9.985616683959961,1.28173828125,51.239013671875,-28.656005859375
4.5724999,0.7104793787002563,0.768538773059845,10.136451721191406,-17.02880859375,50.78125,-20.44677734375
4.5774999,-0.46148237586021423,1.1330559253692627,9.86650562286377,-18.61572265625,42.510986328125,-30.94482421875
4.5824999,-2.2661118507385254,0.2669534981250763,9.633070945739746,-36.9873046875,-1.434326171875,-16.357421875
4.5874999,-3.576338768005371,-1.1330559253692627,8.579023361206055,-4.852294921875,-22.15576171875,-15.0146484375
4.5924999,-4.489726543426514,-2.075772762298584,7.597999095916748,0.42724609375,-54.351806640625,5.615234375
4.5974999,-4.579509258270264,-2.473809003829956,7.474099159240723,-3.387451171875,-96.74072265625,48.980712890625
4.602499900000001,1.4772224426269531,-0.4297592043876648,10.789469718933105,-0.579833984375,-12.939453125,9.979248046875
4.6074999000000005,3.535637378692627,-0.5494692921638489,11.455058097839355,11.29150390625,16.265869140625,11.505126953125
4.6124999,4.327519416809082,-0.8439561128616333,11.745953559875488,25.238037109375,27.191162109375,24.7802734375
4.6174999,3.8361096382141113,-0.7894880175590515,11.264120101928711,30.8837890625,39.093017578125,21.6064453125
4.6224999,2.60548996925354,-0.3477577865123749,10.770316123962402,14.251708984375,31.43310546875,4.150390625
4.6274999,1.581370234489441,0.2992752194404602,10.216058731079102,2.288818359375,18.98193359375,-20.111083984375
4.6324999,1.1737574338912964,0.18794482946395874,9.961674690246582,16.082763671875,34.1796875,-29.9072265625
4.6374999,1.2168530225753784,0.6111199855804443,9.748590469360352,26.2451171875,53.802490234375,-36.651611328125
4.6424999,-0.9283517003059387,1.1881226301193237,9.873088836669922,-26.275634765625,34.3017578125,-26.397705078125
4.647499900000001,-0.9283517003059387,1.1881226301193237,9.873088836669922,-26.275634765625,34.3017578125,-26.397705078125
4.6524999000000005,-4.641160011291504,-2.2373814582824707,7.530961513519287,1.129150390625,-67.93212890625,21.697998046875
4.6574999,-4.373608112335205,-2.253542423248291,7.666832447052002,-7.4462890625,-104.00390625,48.919677734375
4.6624999,-2.783259391784668,-1.501164436340332,8.444948196411133,-24.200439453125,-96.19140625,22.76611328125
4.6674999,-0.5033808946609497,-0.6075286865234375,9.931747436523438,-16.021728515625,-46.844482421875,9.8876953125
4.6724999,2.0398597717285156,-0.3603273630142212,11.13962173461914,2.197265625,-3.265380859375,9.490966796875
4.6774999,3.885190725326538,-0.6518214344978333,11.70046329498291,14.16015625,20.5078125,14.434814453125
4.6824999,4.2527008056640625,-0.9181763529777527,11.678915977478027,29.266357421875,30.975341796875,25.482177734375
4.687499900000001,3.533841609954834,-0.7416039705276489,11.086949348449707,27.862548828125,39.459228515625,19.95849609375
4.6924999000000005,2.273294448852539,-0.2256535142660141,10.582371711730957,8.026123046875,24.261474609375,-0.762939453125
4.6974999,1.404199242591858,0.26096799969673157,10.102334022521973,1.8310546875,18.402099609375,-24.200439453125
4.7024999,1.182137131690979,0.21428105235099792,9.855133056640625,22.064208984375,39.337158203125,-32.135009765625
4.7074999,0.8990227580070496,0.6709750294685364,10.198700904846191,-12.420654296875,51.3916015625,-15.56396484375
4.7124999,0.3944447338581085,1.1665748357772827,9.715071678161621,-15.167236328125,49.86572265625,-27.89306640625
4.7174999,-1.3946224451065063,0.7978677153587341,9.837176322937012,-35.7666015625,19.22607421875,-25.69580078125
4.7224999,-2.9101521968841553,-0.6075286865234375,9.008782386779785,-13.458251953125,-11.77978515625,-16.4794921875
4.727499900000001,-4.02465295791626,-2.0039467811584473,8.110358238220215,-2.13623046875,-35.5224609375,-11.474609375
4.7324999000000005,-4.66330623626709,-2.828749418258667,7.663240909576416,0.701904296875,-76.96533203125,34.66796875
4.7374999,-3.9815573692321777,-2.609081268310547,7.97329044342041,-9.94873046875,-106.536865234375,44.3115234375
4.7424999,-2.1302409172058105,-1.5963339805603027,8.743025779724121,-23.468017578125,-80.6884765625,16.54052734375
4.7474999,0.19692309200763702,-0.6967126727104187,10.32978343963623,-8.453369140625,-32.1044921875,12.420654296875
4.7524999,2.623446464538574,-0.44412440061569214,11.21863079071045,6.4697265625,4.82177734375,8.60595703125
4.7574999,4.031835556030273,-0.7206547260284424,11.711835861206055,18.73779296875,23.345947265625,19.073486328125
4.7624999,4.0749311447143555,-0.7876923680305481,11.490372657775879,31.829833984375,34.423828125,26.85546875
4.7674999,3.1483752727508545,-0.49380409717559814,10.938508987426758,22.918701171875,37.7197265625,17.02880859375
4.772499900000001,1.9692308902740479,0.048482585698366165,10.42315673828125,4.852294921875,20.782470703125,-10.528564453125
4.7774999000000005,1.2988544702529907,0.3405751883983612,10.034099578857422,5.523681640625,24.078369140625,-27.130126953125
4.7824999,1.2413935661315918,0.4255693554878235,9.832387924194336,27.34375,46.81396484375,-33.87451171875
4.7874999,1.1647791862487793,0.74040687084198,9.95209789276123,6.591796875,52.79541015625,-28.961181640625
4.7924999,0.7661445140838623,0.7978677153587341,10.204686164855957,-16.17431640625,50.933837890625,-17.791748046875
4.7974999,-0.08379705995321274,1.3605051040649414,9.765350341796875,-15.594482421875,44.891357421875,-30.94482421875
4.8024999,-1.9931728839874268,0.3064578175544739,9.742006301879883,-38.02490234375,5.67626953125,-19.683837890625
4.8074999,-3.341108560562134,-0.9415197968482971,8.619126319885254,-7.32421875,-17.76123046875,-13.763427734375
4.812499900000001,-4.367023944854736,-2.4169466495513916,7.781155586242676,-1.068115234375,-48.980712890625,-2.044677734375
4.8174999000000005,-4.686051368713379,-2.8646624088287354,7.470507621765137,-1.251220703125,-90.6982421875,44.586181640625
4.8224999,-3.5655648708343506,-2.3750481605529785,8.025962829589844,-16.90673828125,-105.865478515625,35.09521484375
4.8274999,1.025316834449768,-0.5734112858772278,10.723628997802734,-3.875732421875,-20.81298828125,11.962890625
4.8324999,3.244741916656494,-0.49380409717559814,11.420940399169922,9.33837890625,11.627197265625,9.8876953125
4.8374999,4.228758811950684,-0.8313865661621094,11.79024600982666,23.284912109375,25.543212890625,23.37646484375
4.8424999,3.868431329727173,-0.7924807667732239,11.35509967803955,31.890869140625,37.17041015625,27.252197265625
4.8474999,2.7467479705810547,-0.40880993008613586,10.832565307617188,17.15087890625,33.355712890625,13.7939453125
4.852499900000001,1.744175910949707,0.23702596127986908,10.294468879699707,2.288818359375,17.08984375,-17.7001953125
4.8574999000000005,1.2348095178604126,0.24899697303771973,9.95209789276123,11.41357421875,28.228759765625,-27.64892578125
4.8624999,1.3730746507644653,0.5811924338340759,9.755773544311523,27.313232421875,51.544189453125,-34.088134765625
4.8674999,1.0420763492584229,0.6524199843406677,10.053253173828125,-2.288818359375,51.81884765625,-21.759033203125
4.8724999,0.6446388363838196,0.8271966576576233,10.050858497619629,-16.265869140625,49.468994140625,-21.148681640625
4.8774999,-0.7332242727279663,1.0426748991012573,9.821015357971191,-21.78955078125,35.797119140625,-31.31103515625
4.8824999,-0.6847416758537292,-0.9528923034667969,9.602544784545898,-17.39501953125,-49.560546875,12.908935546875
4.8874999,1.7561469078063965,-0.558447539806366,10.912771224975586,2.105712890625,-8.453369140625,10.772705078125
4.8924999,3.621230125427246,-0.7056909799575806,11.481992721557617,13.36669921875,18.1884765625,11.810302734375
4.897499900000001,4.1198225021362305,-0.9193734526634216,11.62564468383789,27.374267578125,28.839111328125,24.71923828125
4.9024999000000005,3.511695384979248,-0.7296329736709595,11.14381217956543,28.62548828125,38.2080078125,23.284912109375
4.9074999,2.3481132984161377,-0.20709845423698425,10.661978721618652,11.199951171875,27.34375,3.814697265625
4.9124999,1.4203602075576782,0.3256114423274994,10.17416000366211,1.556396484375,17.669677734375,-22.857666015625
4.9174999,1.2090718746185303,0.2232593148946762,9.955689430236816,19.1650390625,36.102294921875,-29.4189453125
4.9224999,1.2641384601593018,0.596754789352417,9.817423820495605,21.6064453125,54.8095703125,-33.87451171875
4.9274999,-4.0300397872924805,-2.2224178314208984,7.835623741149902,-9.429931640625,-104.095458984375,44.830322265625
4.9324999,-2.276885747909546,-1.4945803880691528,8.555081367492676,-23.895263671875,-84.014892578125,18.890380859375
4.937499900000001,-0.05267243832349777,-0.7015010714530945,10.114903450012207,-12.298583984375,-38.238525390625,12.3291015625
4.9424999000000005,2.3582887649536133,-0.5446808934211731,11.137825965881348,5.340576171875,0.762939453125,9.521484375
4.9474999,3.907935619354248,-0.8517372608184814,11.619060516357422,16.9677734375,21.97265625,15.106201171875
4.9524999,4.022258758544922,-0.9660604000091553,11.549030303955078,29.632568359375,30.82275390625,27.496337890625
4.9574999,3.2327709197998047,-0.6613982319831848,10.970830917358398,25.20751953125,37.7197265625,21.8505859375
4.9624999,1.2629413604736328,0.2932897210121155,9.818022727966309,26.123046875,43.8232421875,-32.135009765625
4.9674999,1.2294225692749023,0.6380547285079956,9.88386344909668,11.688232421875,53.955078125,-30.21240234375
4.9724999,0.9050082564353943,0.7942764163017273,10.188525199890137,-13.214111328125,50.35400390625,-14.434814453125
4.977499900000001,0.262763649225235,1.5598224401474,9.723451614379883,-13.946533203125,46.81396484375,-30.975341796875
4.9824999000000005,-1.6543933153152466,0.8876502513885498,9.729436874389648,-38.604736328125,9.521484375,-23.25439453125
4.9874999,-3.045424461364746,-0.2645592987537384,8.851364135742188,-11.627197265625,-18.00537109375,-15.625
4.9924999,-4.127005100250244,-1.8507179021835327,7.967304706573486,-1.739501953125,-39.520263671875,-9.58251953125
4.9974999,-4.619612216949463,-2.625242233276367,7.733271598815918,-0.762939453125,-82.3974609375,37.261962890625
5.0024999,-3.664924144744873,-2.4444799423217773,8.127716064453125,-13.00048828125,-101.5625,38.0859375
5.0074999,-1.7172411680221558,-1.5119383335113525,8.988431930541992,-23.01025390625,-69.793701171875,14.95361328125
5.0124999,0.6099228858947754,-0.7751228213310242,10.543465614318848,-5.828857421875,-25.970458984375,12.969970703125
5.0174999,3.7888240814208984,-0.8074445128440857,11.396400451660156,30.120849609375,32.012939453125,28.106689453125
5.022499900000001,2.8383262157440186,-0.4596867263317108,10.818799018859863,20.233154296875,34.60693359375,16.082763671875
5.0274999000000005,1.731606364250183,0.10833762586116791,10.363302230834961,3.082275390625,17.791748046875,-12.87841796875
5.0324999,1.2497732639312744,0.23702596127986908,9.973047256469727,8.636474609375,24.322509765625,-25.238037109375
5.0374999,1.3479355573654175,0.4321534037590027,9.787496566772461,28.533935546875,49.957275390625,-34.088134765625
5.0424999,-3.3907880783081055,-0.9139865040779114,8.71489429473877,-6.256103515625,-20.538330078125,-17.181396484375
5.0474999,-4.289212226867676,-2.0883424282073975,7.9182233810424805,-0.823974609375,-48.370361328125,1.64794921875
5.0524999,-1.148618221282959,-1.191115379333496,9.30805778503418,-19.4091796875,-58.04443359375,13.18359375
5.0574999,1.2653355598449707,-0.7116764783859253,10.702081680297852,0.18310546875,-16.448974609375,12.8173828125
5.062499900000001,3.248333215713501,-0.669179379940033,11.309011459350586,11.138916015625,13.61083984375,8.941650390625
5.0674999000000005,3.998316764831543,-0.9672574996948242,11.630433082580566,23.4375,25.848388671875,21.8505859375
5.0724999,3.557783842086792,-0.7655459642410278,11.241973876953125,29.876708984375,33.38623046875,28.900146484375
5.0774999,2.4893712997436523,-0.3471592366695404,10.70986270904541,15.533447265625,30.059814453125,9.82666015625
5.0824999,1.521515130996704,0.3016694188117981,10.198101997375488,2.044677734375,16.082763671875,-17.852783203125
5.0874999,1.22642982006073,0.23283611238002777,9.925761222839355,14.95361328125,30.364990234375,-27.435302734375
5.0924999,1.3467384576797485,0.629675030708313,9.739612579345703,25.665283203125,52.520751953125,-34.7900390625
5.0974999,1.0480618476867676,0.5596446394920349,10.163984298706055,-5.157470703125,51.788330078125,-17.486572265625
5.102499900000001,-0.7876923680305481,1.0648212432861328,9.963470458984375,-25.81787109375,32.806396484375,-32.257080078125
5.1074999000000005,-0.7876923680305481,1.0648212432861328,9.963470458984375,-25.81787109375,32.806396484375,-32.257080078125
5.1124999,-2.498948097229004,-0.013766659423708916,9.570222854614258,-29.78515625,-10.101318359375,-18.37158203125
5.1174999,-3.667318344116211,-1.392826795578003,8.456320762634277,-5.157470703125,-25.2685546875,-17.51708984375
5.1224999,1.931522250175476,-0.7338228225708008,10.867879867553711,4.791259765625,-7.476806640625,13.641357421875
5.1274999,1.931522250175476,-0.7338228225708008,10.867879867553711,4.791259765625,-7.476806640625,13.641357421875
5.1324999,3.618237257003784,-0.8481459617614746,11.45266342163086,13.427734375,17.63916015625,10.498046875
5.1374999,4.024054527282715,-0.9175778031349182,11.599906921386719,26.18408203125,27.862548828125,27.16064453125
5.1424999,3.3423056602478027,-0.6518214344978333,11.097125053405762,27.4658203125,35.400390625,27.862548828125
5.147499900000001,1.215057373046875,0.2663549482822418,9.906607627868652,20.782470703125,36.80419921875,-29.388427734375
5.1524999000000005,1.215057373046875,0.2663549482822418,9.906607627868652,20.782470703125,36.80419921875,-29.388427734375
5.1574999,1.3078327178955078,0.5829881429672241,9.876680374145508,19.1650390625,53.924560546875,-31.585693359375
5.1624999,1.0217255353927612,0.6278793811798096,10.248380661010742,-10.009765625,52.79541015625,-12.603759765625
5.1674999,0.5997475385665894,0.9151836037635803,10.132261276245117,-13.946533203125,50.1708984375,-26.123046875
5.1724999,-1.184531331062317,1.1300631761550903,9.907805442810059,-36.7431640625,20.6298828125,-30.1513671875
5.1774999,-2.737769603729248,-0.47824180126190186,9.366715431213379,-20.08056640625,-13.153076171875,-18.707275390625
