# Time (seconds),Accel_X,Accel_Y,Accel_Z,Gyro_X,Gyro_Y,Gyro_Z
0.0024999,-3.1525650024414062,-0.3429693877696991,9.692925453186035,-10.7421875,-21.30126953125,4.486083984375
0.0074999,-3.1525650024414062,-0.3429693877696991,9.692925453186035,-10.7421875,-21.30126953125,4.486083984375
0.012499900000000001,-3.0777463912963867,-0.4812345504760742,9.700706481933594,-12.420654296875,-37.9638671875,36.62109375
0.0174999,-2.036867141723633,-0.7116764783859253,9.678560256958008,-14.251708984375,-31.951904296875,27.435302734375
0.0224999,-0.7954735159873962,-1.1007342338562012,9.827000617980957,4.33349609375,-24.078369140625,27.496337890625
0.0274999,0.9259575009346008,-1.0666168928146362,9.939528465270996,21.78955078125,8.392333984375,70.86181640625
0.0324999,1.080383539199829,0.013766659423708916,9.9586820602417,10.80322265625,12.39013671875,61.8896484375
0.0374999,1.5957354307174683,0.3106476664543152,9.919178009033203,4.82177734375,6.317138671875,31.1279296875
0.0424999,2.604292869567871,0.09157821536064148,9.68274974822998,21.91162109375,21.331787109375,2.044677734375
0.0474999,3.6170401573181152,-0.2059013396501541,9.306262016296387,11.810302734375,37.017822265625,-29.083251953125
0.0524999,3.9390604496002197,-0.669179379940033,9.620500564575195,-4.730224609375,48.492431640625,-56.70166015625
0.0574999,3.1962592601776123,-0.5488707423210144,9.50737476348877,3.96728515625,43.121337890625,-48.309326171875
0.0624999,1.7908629179000854,-0.17717093229293823,9.721057891845703,5.0048828125,23.223876953125,-48.9501953125
0.0674999,-0.22625206410884857,-0.9481038451194763,9.798270225524902,-7.87353515625,-3.90625,-61.492919921875
0.0724999,-1.7998411655426025,-1.0797849893569946,9.5007905960083,-6.256103515625,-16.326904296875,-49.896240234375
0.0774999,-3.092111587524414,-0.9355342984199524,9.673771858215332,-10.955810546875,-22.125244140625,-10.955810546875
0.0824999,1.5298948287963867,-0.6428431272506714,9.925163269042969,12.75634765625,8.331298828125,65.7958984375
0.0874999,2.0817582607269287,-0.4920084476470947,9.7791166305542,12.0849609375,13.61083984375,45.806884765625
0.0924999,2.5085248947143555,-0.8463503122329712,9.765948295593262,9.1552734375,10.6201171875,18.24951171875
0.0974999,3.047220230102539,-0.9714473485946655,9.516951560974121,21.270751953125,20.904541015625,-6.103515625
0.1024999,3.3710360527038574,-0.6925228238105774,9.374496459960938,10.162353515625,31.1279296875,-27.740478515625
0.1074999,3.0370447635650635,-0.5333084464073181,9.626486778259277,-6.7138671875,36.773681640625,-42.66357421875
0.1124999,2.0877439975738525,0.0347159244120121,9.561244010925293,-0.79345703125,33.447265625,-33.599853515625
0.1174999,-0.5632359385490417,-0.3076549172401428,9.749189376831055,-5.706787109375,-3.936767578125,-47.088623046875
0.1224999,-1.6406266689300537,-0.788889467716217,9.505578994750977,-9.307861328125,-10.528564453125,-33.782958984375
0.1274999,-2.428318977355957,-0.3531447649002075,9.569623947143555,-9.857177734375,-14.495849609375,-0.42724609375
0.1324999,-2.844910144805908,-0.22026655077934265,9.553462982177734,-26.214599609375,-33.538818359375,15.899658203125
0.1374999,-2.5552117824554443,0.4638765752315521,10.028712272644043,-20.751953125,-43.64013671875,14.22119140625
0.1424999,-1.8267759084701538,0.20949265360832214,10.077195167541504,-14.373779296875,-35.0341796875,25.299072265625
0.1474999,-0.608127236366272,-0.19273324310779572,10.321403503417969,-6.4697265625,-25.87890625,41.015625
0.1524999,0.37409400939941406,-0.8194155097007751,10.283096313476562,10.07080078125,-18.98193359375,44.25048828125
0.1574999,0.9983820915222168,-1.2030863761901855,10.104728698730469,10.345458984375,-6.195068359375,42.66357421875
0.1624999,1.4760253429412842,-0.595557689666748,9.838373184204102,14.6484375,16.29638671875,60.455322265625
0.1674999,3.1741127967834473,-0.8194155097007751,9.519944190979004,20.416259765625,28.350830078125,-27.587890625
0.1724999,3.488950490951538,-0.8265981078147888,9.398438453674316,11.29150390625,46.051025390625,-36.2548828125
0.17749990000000002,3.1501708030700684,-0.6368576288223267,9.718064308166504,-1.8310546875,45.8984375,-49.468994140625
0.1824999,2.186504602432251,0.44412440061569214,9.710283279418945,-4.69970703125,31.036376953125,-65.704345703125
0.1874999,0.7146692276000977,0.6171054840087891,9.831191062927246,-9.796142578125,8.9111328125,-83.953857421875
0.1924999,-0.8547300100326538,0.8768763542175293,9.831191062927246,-14.6484375,-9.613037109375,-75.927734375
0.1974999,-2.3546974658966064,-0.16998831927776337,9.746196746826172,-39.9169921875,-23.62060546875,-48.4619140625
0.2024999,-3.004723072052002,-0.4141969084739685,9.409213066101074,-22.03369140625,-13.763427734375,-30.731201171875
0.20749990000000001,-3.375225782394409,-1.0935516357421875,9.671378135681152,-2.62451171875,-28.656005859375,22.064208984375
0.2124999,-2.7521347999572754,-1.5424644947052002,9.461885452270508,-12.26806640625,-43.27392578125,47.91259765625
0.2174999,-1.625662922859192,-1.7633295059204102,9.540295600891113,-2.0751953125,-32.623291015625,43.975830078125
0.2224999,1.6867151260375977,0.14185644686222076,10.000580787658691,8.758544921875,11.260986328125,38.63525390625
0.2274999,2.2170307636260986,0.09876082092523575,9.993996620178223,11.474609375,10.43701171875,5.79833984375
0.2324999,2.9903578758239746,0.06464344263076782,9.75397777557373,22.735595703125,26.06201171875,-15.960693359375
0.2374999,3.4979286193847656,-0.009576806798577309,9.486425399780273,11.5966796875,39.4287109375,-37.2314453125
0.2424999,3.311779499053955,0.023942016065120697,9.636661529541016,-6.500244140625,41.351318359375,-53.741455078125
0.2474999,2.429516077041626,0.45908817648887634,9.55705451965332,-5.584716796875,29.72412109375,-58.7158203125
0.2524999,1.1653777360916138,0.27473464608192444,9.667786598205566,-4.791259765625,11.41357421875,-73.516845703125
0.2574999,-0.2885012924671173,-0.3842693865299225,9.713874816894531,-8.270263671875,-6.4697265625,-79.498291015625
0.2624999,-1.5203180313110352,-0.5847837924957275,9.733028411865234,-15.80810546875,-16.204833984375,-59.5703125
0.2674999,-1.3706804513931274,-0.43754035234451294,10.086771965026855,6.04248046875,-30.853271484375,38.116455078125
0.2724999,-0.2124854028224945,-1.0743980407714844,9.947908401489258,10.711669921875,-21.514892578125,38.116455078125
0.2774999,0.6494272351264954,-1.2324153184890747,9.97364616394043,13.916015625,-9.27734375,46.844482421875
0.2824999,1.446696400642395,-0.982221245765686,9.8784761428833,18.5546875,8.087158203125,51.8798828125
0.28749990000000003,1.9925743341445923,-0.3998316824436188,9.852738380432129,9.857177734375,14.190673828125,39.520263671875
0.2924999,2.477400302886963,-0.12749123573303223,9.779715538024902,1.0986328125,9.368896484375,11.749267578125
0.2974999,2.964620351791382,-0.4902127981185913,9.668983459472656,10.284423828125,14.09912109375,-16.90673828125
0.3024999,3.3728315830230713,-0.3471592366695404,9.500192642211914,19.866943359375,35.21728515625,-33.416748046875
0.3074999,3.2363622188568115,-0.41120412945747375,9.509769439697266,1.220703125,43.487548828125,-39.276123046875
0.3124999,1.4173674583435059,0.4118026793003082,9.620500564575195,-5.218505859375,21.17919921875,-63.507080078125
0.3174999,0.010175357572734356,-0.043095629662275314,9.778518676757812,-5.2490234375,-0.3662109375,-71.258544921875
0.3224999,-1.3910311460494995,-0.24660277366638184,9.85034465789795,-20.477294921875,-13.519287109375,-56.70166015625
0.3274999,-2.3133974075317383,-0.8349778652191162,9.498994827270508,-27.34375,-18.310546875,-40.95458984375
0.3324999,-2.823961019515991,-0.395043283700943,9.79527759552002,-6.2255859375,-17.303466796875,-6.89697265625
0.3374999,-2.823961019515991,-0.395043283700943,9.79527759552002,-6.2255859375,-17.303466796875,-6.89697265625
0.3424999,-2.9311013221740723,-0.3800795078277588,9.699509620666504,-11.566162109375,-29.937744140625,35.94970703125
0.34749990000000003,-2.251148223876953,-0.4207809567451477,9.677961349487305,-18.37158203125,-37.689208984375,33.3251953125
0.35249990000000003,-1.2874820232391357,-0.7356184720993042,9.780912399291992,3.021240234375,-29.541015625,31.982421875
0.3574999,-0.1999158412218094,-1.2318167686462402,9.758766174316406,13.00048828125,-21.484375,39.0625
0.3624999,0.6643909811973572,-1.522712230682373,9.803657531738281,19.256591796875,-10.8642578125,51.239013671875
0.3674999,1.3329718112945557,-1.3198037147521973,9.853337287902832,19.561767578125,7.6904296875,48.370361328125
0.3724999,2.204461097717285,0.15741875767707825,9.868300437927246,2.74658203125,8.331298828125,10.833740234375
0.3774999,2.6414029598236084,-0.07122749835252762,9.804854393005371,2.50244140625,11.5966796875,-16.571044921875
0.3824999,3.1477766036987305,-0.20769700407981873,9.68574333190918,22.857666015625,34.66796875,-30.487060546875
0.3874999,3.1687259674072266,-0.3250128924846649,9.510367393493652,13.0615234375,44.708251953125,-36.7431640625
0.3924999,2.6581623554229736,-0.21847090125083923,9.750985145568848,-3.72314453125,40.069580078125,-46.844482421875
0.3974999,1.6663644313812256,0.26815059781074524,9.608530044555664,-7.476806640625,24.47509765625,-65.0634765625
0.4024999,-1.0971429347991943,0.05386953800916672,9.747393608093262,-13.12255859375,-12.8173828125,-61.431884765625
0.4074999,-1.0971429347991943,0.05386953800916672,9.747393608093262,-13.12255859375,-12.8173828125,-61.431884765625
0.41249990000000003,-2.251148223876953,-0.7793126702308655,9.525331497192383,-30.82275390625,-21.78955078125,-45.95947265625
0.41749990000000003,-2.7904419898986816,-0.4129997789859772,9.682151794433594,-10.31494140625,-18.12744140625,-19.622802734375
0.4224999,-3.114856481552124,-0.38486793637275696,9.809642791748047,-7.6904296875,-26.85546875,31.768798828125
0.4274999,-2.558803081512451,-0.2849099934101105,9.860519409179688,-22.125244140625,-40.1611328125,37.750244140625
0.4324999,-0.558447539806366,-0.9193734526634216,9.94970417022705,9.796142578125,-25.299072265625,36.041259765625
0.4374999,0.36750996112823486,-1.380257248878479,9.897629737854004,19.22607421875,-15.411376953125,52.337646484375
0.4424999,1.0893617868423462,-1.4640543460845947,9.865906715393066,20.8740234375,4.33349609375,58.685302734375
0.4474999,1.544858694076538,-0.8708908557891846,9.889249801635742,15.655517578125,13.702392578125,50.262451171875
0.4524999,1.985990285873413,-0.07541735470294952,9.845556259155273,6.011962890625,9.124755859375,28.656005859375
0.4574999,2.449268341064453,0.02513911761343479,9.838373184204102,0,5.43212890625,-1.8310546875
0.4624999,3.043030261993408,-0.2861070930957794,9.683348655700684,15.869140625,21.087646484375,-25.482177734375
0.4674999,3.3692402839660645,-0.24361002445220947,9.476250648498535,17.15087890625,40.802001953125,-36.895751953125
0.47249990000000003,3.093907117843628,-0.2825157940387726,9.624092102050781,-2.288818359375,43.243408203125,-40.802001953125
0.47749990000000003,2.212841033935547,0.33039984107017517,9.633070945739746,-6.591796875,34.97314453125,-51.849365234375
0.4824999,0.9133879542350769,0.3561375141143799,9.667187690734863,-8.6669921875,11.932373046875,-68.05419921875
0.4874999,-0.5626373887062073,0.4513070285320282,9.501988410949707,-6.988525390625,-7.476806640625,-62.652587890625
0.4924999,-2.5959131717681885,-0.39624038338661194,9.248202323913574,-20.477294921875,-16.143798828125,-29.266357421875
0.4974999,-2.9747955799102783,-0.6799532771110535,9.928155899047852,-5.615234375,-22.369384765625,13.763427734375
0.5024999,-2.6575639247894287,-0.5644330382347107,9.876082420349121,-21.8505859375,-37.872314453125,38.02490234375
0.5074999,-1.7974469661712646,-0.7374141216278076,10.020332336425781,-12.5732421875,-36.895751953125,34.271240234375
0.5124999,-0.7577648162841797,-1.1492167711257935,10.014945983886719,8.11767578125,-28.533935546875,37.59765625
0.5174999,0.16639702022075653,-1.5963339805603027,9.903017044067383,17.2119140625,-20.99609375,47.027587890625
0.5224999,0.7745242714881897,-1.6915035247802734,9.854534149169922,22.979736328125,-6.34765625,59.99755859375
0.5274999,1.2192472219467163,-1.2844891548156738,9.849745750427246,20.660400390625,11.16943359375,56.94580078125
0.5324999,1.6047136783599854,-0.38905778527259827,9.850942611694336,12.054443359375,12.542724609375,41.534423828125
0.5374999,2.1284453868865967,0.29388827085494995,9.806650161743164,2.044677734375,6.8359375,13.702392578125
0.5424999,2.7090392112731934,0.15322890877723694,9.718663215637207,1.64794921875,10.986328125,-14.95361328125
0.5474999,3.2555158138275146,-0.17956513166427612,9.59835433959961,19.53125,31.707763671875,-34.423828125
0.5524999,2.782660961151123,-0.21966800093650818,9.64923095703125,-5.0048828125,40.8935546875,-46.142578125
0.5574999,1.6867151260375977,0.11552023142576218,9.630077362060547,-8.026123046875,28.01513671875,-59.87548828125
0.5624999,-2.5240871906280518,-0.828393816947937,9.46607494354248,-27.374267578125,-18.798828125,-35.675048828125
0.5674999000000001,-2.895188331604004,-0.2819172441959381,9.685144424438477,-6.8359375,-17.059326171875,-8.6669921875
0.5724999000000001,-3.049614429473877,-0.44771572947502136,9.688735961914062,-10.833740234375,-30.1513671875,37.200927734375
0.5774999000000001,-2.2906525135040283,-0.31184476613998413,9.853935241699219,-18.4326171875,-38.787841796875,34.820556640625
0.5824999,-1.3628993034362793,-0.6913257241249084,9.952696800231934,0.06103515625,-32.012939453125,32.958984375
0.5874999,-0.33698388934135437,-1.1929110288619995,9.98681354522705,11.322021484375,-25.20751953125,38.665771484375
0.5924999,0.4345476031303406,-1.5550340414047241,9.943120002746582,19.500732421875,-14.34326171875,53.131103515625
0.5974999,2.369062662124634,0.19931729137897491,9.777320861816406,1.52587890625,6.53076171875,3.448486328125
0.6024999,2.93888258934021,-0.1472434103488922,9.667786598205566,12.115478515625,16.4794921875,-22.39990234375
0.6074999,3.287837505340576,-0.11611878126859665,9.484031677246094,15.655517578125,33.87451171875,-38.604736328125
0.6124999,3.1316158771514893,-0.16220717132091522,9.500192642211914,-2.86865234375,39.093017578125,-42.17529296875
0.6174999,2.31758713722229,0.2777273952960968,9.639654159545898,-9.368896484375,38.116455078125,-47.576904296875
0.6224999,1.095347285270691,0.30526071786880493,9.592967987060547,-7.99560546875,17.333984375,-58.868408203125
0.6274999,-0.3770867586135864,0.243011474609375,9.634865760803223,-5.31005859375,-3.692626953125,-55.7861328125
0.6324999,-1.8136078119277954,-0.6757634282112122,9.912593841552734,-24.383544921875,-14.83154296875,-36.80419921875
0.6374999,-2.558204412460327,-0.657806932926178,9.463082313537598,-20.5078125,-15.13671875,-25.665283203125
0.6424999,0.7362170219421387,-1.5490485429763794,9.762357711791992,21.97265625,-7.75146484375,60.48583984375
0.6474999,1.1791443824768066,-1.3012486696243286,9.749189376831055,20.050048828125,12.054443359375,59.38720703125
0.6524999,1.4891934394836426,-0.4638765752315521,9.769539833068848,11.71875,11.749267578125,47.088623046875
0.6574999,1.944091796875,0.23822307586669922,9.762357711791992,1.8310546875,5.645751953125,20.5078125
0.6624999,2.4618380069732666,0.25498247146606445,9.741408348083496,-2.410888671875,6.072998046875,-9.521484375
0.6674999,2.964021682739258,-0.08858546614646912,9.621099472045898,12.237548828125,23.49853515625,-29.998779296875
0.6724999,3.136404275894165,-0.18136078119277954,9.494805335998535,9.82666015625,37.811279296875,-35.736083984375
0.6774999,2.631227731704712,-0.19812019169330597,9.657610893249512,-5.06591796875,40.252685546875,-36.102294921875
0.6824999,1.6053122282028198,0.2017114907503128,9.73542308807373,-7.87353515625,31.524658203125,-45.257568359375
0.6874999,-2.5953147411346436,-0.33698388934135437,9.919178009033203,-13.885498046875,-31.951904296875,28.167724609375
0.6924999000000001,-1.8405425548553467,-0.5620388388633728,9.767744064331055,-25.177001953125,-37.7197265625,33.0810546875
0.6974999000000001,-0.884058952331543,-0.9301473498344421,9.733028411865234,-6.011962890625,-30.82275390625,38.299560546875
0.7024999000000001,0.11013327538967133,-1.5017629861831665,9.70310115814209,17.63916015625,-27.252197265625,52.3681640625
0.7074999,0.7469909191131592,-1.8010382652282715,9.547477722167969,22.5830078125,-19.47021484375,64.422607421875
0.7124999,1.0085574388504028,-1.6310498714447021,9.567828178405762,21.78955078125,1.52587890625,67.2607421875
0.7174999,1.0642226934432983,-0.9415197968482971,9.773131370544434,20.111083984375,13.85498046875,56.671142578125
0.7224999,1.2713210582733154,0.0071826050989329815,9.846753120422363,8.7890625,7.87353515625,36.712646484375
0.7274999,1.8225860595703125,0.47584760189056396,9.915586471557617,-2.227783203125,2.899169921875,7.720947265625
0.7324999,3.113060712814331,-0.1693897694349289,9.685144424438477,16.29638671875,38.360595703125,-37.994384765625
0.7374999,3.133411407470703,-0.4752490520477295,9.604340553283691,7.568359375,45.318603515625,-42.90771484375
0.7424999,2.4199392795562744,-0.4626794755458832,9.779715538024902,-2.044677734375,39.276123046875,-45.8984375
0.7474999,1.3215993642807007,-0.2687491476535797,9.700706481933594,-4.425048828125,21.30126953125,-60.302734375
0.7524999,-0.011372458189725876,0.3728969097137451,9.852738380432129,-7.87353515625,2.838134765625,-65.12451171875
0.7574999,-1.4526818990707397,-0.2172738015651703,9.858125686645508,-28.50341796875,-12.420654296875,-47.821044921875
0.7624999,-2.143409013748169,0.20051439106464386,9.579200744628906,-21.42333984375,-9.1552734375,-33.966064453125
0.7674999,-2.669534921646118,-0.2783259451389313,9.847352027893066,-9.857177734375,-18.9208984375,9.033203125
0.7724999,-2.4205379486083984,-0.2687491476535797,9.703699111938477,-22.8271484375,-38.2080078125,40.557861328125
0.7774999,-1.6310498714447021,-0.6847416758537292,9.719860076904297,-16.7236328125,-38.51318359375,43.243408203125
0.7824999,-0.5554547905921936,-1.2114660739898682,9.576807022094727,3.143310546875,-29.937744140625,46.630859375
0.7874999,0.4602852761745453,-1.7106571197509766,9.461885452270508,23.98681640625,-25.665283203125,58.990478515625
0.7924999,1.2503718137741089,-0.8427590131759644,9.857526779174805,19.866943359375,17.63916015625,43.365478515625
0.7974999,1.4742296934127808,0.17417816817760468,10.014945983886719,6.89697265625,8.23974609375,14.984130859375
0.8024999,2.5731682777404785,-0.20290859043598175,9.730634689331055,4.2724609375,41.473388671875,-66.070556640625
0.8074999,1.845929503440857,-0.5554547905921936,9.692925453186035,-3.2958984375,24.35302734375,-72.357177734375
0.8124999,0.9469067454338074,-0.15502455830574036,9.530119895935059,-6.805419921875,11.260986328125,-76.751708984375
0.8174999000000001,-0.4411316514015198,-0.6374561786651611,9.736021041870117,-26.9775390625,-5.157470703125,-63.4765625
0.8224999000000001,-1.5257049798965454,-0.37169981002807617,9.408015251159668,-19.34814453125,-13.7939453125,-50.29296875
0.8274999000000001,-2.690484046936035,-0.5416881442070007,9.697713851928711,-10.31494140625,-21.453857421875,-15.68603515625
0.8324999000000001,-2.0428526401519775,-0.44592007994651794,9.906607627868652,-8.30078125,-44.921875,52.42919921875
0.8374999,-0.6901286244392395,-0.9780313968658447,9.96945571899414,12.054443359375,-32.073974609375,51.8798828125
0.8424999,0.568622887134552,-1.43532395362854,9.788095474243164,20.355224609375,-12.26806640625,50.689697265625
0.8474999,1.413776159286499,-1.670554280281067,9.774927139282227,27.9541015625,8.209228515625,55.267333984375
0.8524999,1.8070237636566162,-1.4748282432556152,9.798869132995605,27.9541015625,20.6298828125,51.81884765625
0.8574999,2.0045454502105713,-0.8565256595611572,9.875483512878418,19.4091796875,19.83642578125,34.48486328125
0.8624999,2.2876596450805664,-0.06703764945268631,9.909002304077148,10.19287109375,14.678955078125,4.08935546875
0.8674999,2.6599581241607666,0.40282443165779114,9.824606895446777,5.0048828125,17.02880859375,-24.4140625
0.8724999,3.0202853679656982,0.2825157940387726,9.702502250671387,10.406494140625,34.60693359375,-39.642333984375
0.8774999,3.095104217529297,0.2190694510936737,9.54209041595459,13.916015625,43.76220703125,-62.255859375
0.8824999,-3.400364875793457,-0.26096799969673157,10.056245803833008,-13.702392578125,-26.06201171875,-16.204833984375
0.8874999,-3.774458885192871,0.005386953707784414,10.135852813720703,-16.66259765625,-32.5927734375,32.53173828125
0.8924999,-3.3010056018829346,-0.2232593148946762,10.229825019836426,-20.660400390625,-48.431396484375,50.811767578125
0.8974999,-2.276885747909546,-0.43275195360183716,10.198700904846191,-6.622314453125,-46.5087890625,52.001953125
0.9024999,-2.276885747909546,-0.43275195360183716,10.198700904846191,-6.622314453125,-46.5087890625,52.001953125
0.9074999,-0.9295487999916077,-0.8451532125473022,10.143035888671875,11.53564453125,-34.454345703125,54.99267578125
0.9124999,0.40282443165779114,-1.2258312702178955,9.895236015319824,16.357421875,-12.3291015625,58.197021484375
0.9174999,1.3694833517074585,-1.3323732614517212,9.84615421295166,19.6533203125,6.622314453125,61.03515625
0.9224999,2.716820478439331,-0.005985504016280174,9.719860076904297,6.195068359375,13.458251953125,-10.894775390625
0.9274999,2.8652608394622803,0.13347674906253815,9.645041465759277,6.439208984375,21.087646484375,-33.416748046875
0.9324999,2.7946319580078125,0.10474632680416107,9.524134635925293,8.941650390625,32.89794921875,-47.119140625
0.9374999,2.537853717803955,0.23104046285152435,9.497797966003418,-1.373291015625,33.782958984375,-69.7021484375
0.9424999000000001,1.920149803161621,0.17657238245010376,9.570222854614258,-11.383056640625,28.1982421875,-79.742431640625
0.9474999000000001,1.103128433227539,-0.002394201699644327,9.473258018493652,-8.941650390625,19.256591796875,-80.01708984375
0.9524999000000001,-0.16879121959209442,-0.0975637212395668,9.77672290802002,-21.54541015625,1.312255859375,-67.5048828125
0.9574999000000001,-1.5185223817825317,-0.5237316489219666,9.743204116821289,-21.148681640625,-13.885498046875,-53.680419921875
0.9624999,-1.732803463935852,-0.727837324142456,10.111910820007324,5.06591796875,-46.7529296875,56.82373046875
0.9674999,-0.5590460896492004,-1.3545196056365967,9.988609313964844,17.02880859375,-34.1796875,60.638427734375
0.9724999,0.38307225704193115,-1.8477251529693604,9.908403396606445,23.62060546875,-10.8642578125,69.39697265625
0.9774999,0.9427168965339661,-1.9393033981323242,9.922170639038086,35.003662109375,8.697509765625,84.04541015625
0.9824999,1.2653355598449707,-1.5873557329177856,9.976638793945312,35.491943359375,19.927978515625,87.921142578125
0.9874999,1.5634137392044067,-0.8984242081642151,10.072406768798828,30.181884765625,22.247314453125,75.68359375
0.9924999,1.988384485244751,-0.19033902883529663,10.035895347595215,24.10888671875,19.22607421875,52.886962890625
0.9974999,2.5097219944000244,0.25019407272338867,9.907805442810059,20.69091796875,14.0380859375,24.2919921875
1.0024999,2.985569477081299,0.043095629662275314,9.801861763000488,20.172119140625,7.4462890625,-11.810302734375
1.0074999000000002,3.356072187423706,0.12509703636169434,9.264363288879395,15.289306640625,8.30078125,-53.89404296875
1.0124999000000001,3.466205596923828,0.4602852761745453,8.663418769836426,-21.697998046875,6.744384765625,-86.24267578125
1.0174999000000002,-0.5249287486076355,0.39863458275794983,10.287285804748535,-25.5126953125,8.30078125,-41.778564453125
1.0224999000000001,-2.5516204833984375,-0.18734627962112427,10.754754066467285,-15.9912109375,-8.880615234375,-41.32080078125
1.0274999,-3.9905357360839844,-0.8409633636474609,10.13166332244873,-13.580322265625,-27.7099609375,-4.425048828125
1.0324999000000001,-4.4639892578125,-0.9415197968482971,9.869498252868652,-13.885498046875,-50.4150390625,34.60693359375
1.0374999,-3.81994891166687,-0.9768342971801758,9.744400978088379,-20.172119140625,-52.215576171875,40.83251953125
1.0424999000000001,-2.386420488357544,-1.0091559886932373,9.747992515563965,-10.894775390625,-48.4619140625,51.300048828125
1.0474999,-0.628477931022644,-1.4311341047286987,9.870096206665039,17.303466796875,-46.38671875,70.648193359375
1.0524999000000002,0.7912836670875549,-1.9548656940460205,9.82879638671875,31.18896484375,-25.543212890625,84.686279296875
1.0574999,1.61069917678833,-2.123656988143921,9.812037467956543,36.07177734375,9.3994140625,90.63720703125
1.0624999000000002,1.8237831592559814,-1.7848774194717407,9.954492568969727,35.15625,29.205322265625,83.55712890625
1.0674999,2.78086519241333,0.3423708379268646,9.349357604980469,2.899169921875,8.697509765625,-38.63525390625
1.0724999000000002,3.1878795623779297,0.2148796021938324,8.886677742004395,-8.636474609375,17.4560546875,-67.047119140625
1.0774999,3.3722331523895264,0.3693056106567383,8.678980827331543,-25.177001953125,26.397705078125,-86.85302734375
1.0824999000000002,3.09689998626709,0.5500678420066833,8.976460456848145,-30.120849609375,42.144775390625,-101.409912109375
1.0874999,2.0715830326080322,1.4119805097579956,9.749189376831055,-27.191162109375,41.56494140625,-85.296630859375
1.0924999000000002,0.4189853072166443,0.9654618501663208,10.3549222946167,-29.60205078125,19.71435546875,-65.36865234375
1.0974999,-1.4933832883834839,0.6967126727104187,10.674548149108887,-21.42333984375,1.77001953125,-66.71142578125
1.1024999000000002,-3.273472309112549,-0.3106476664543152,10.462661743164062,-21.8505859375,-19.439697265625,-38.75732421875
1.1074999,-4.197634220123291,-1.1306617259979248,9.710882186889648,-16.937255859375,-33.355712890625,8.1787109375
1.1124999000000002,1.8590975999832153,0.08918401598930359,10.428544044494629,36.346435546875,30.975341796875,49.4384765625
1.1174999,1.9650410413742065,0.4387374520301819,10.24239444732666,29.78515625,21.453857421875,21.759033203125
1.1224999000000002,2.5055320262908936,0.3058592677116394,9.19552993774414,7.293701171875,7.843017578125,-55.6640625
1.1274999,2.654571056365967,0.02693476900458336,8.504802703857422,-15.716552734375,9.21630859375,-76.35498046875
1.1324999000000002,2.7305870056152344,0.076015904545784,8.237849235534668,-29.266357421875,19.1650390625,-91.12548828125
1.1374999000000001,2.517503023147583,1.1558008193969727,8.067262649536133,-32.2265625,32.928466796875,-101.74560546875
1.1424999000000002,1.690904974937439,1.7920600175857544,9.346963882446289,-58.9599609375,29.144287109375,-103.790283203125
1.1474999000000001,0.33039984107017517,2.2900538444519043,10.287884712219238,-37.29248046875,17.913818359375,-97.10693359375
1.1524999000000002,-1.4221558570861816,1.8399440050125122,11.172542572021484,-31.951904296875,4.69970703125,-80.2001953125
1.1574999000000001,-3.250727415084839,0.0736217051744461,11.364078521728516,-40.95458984375,-20.81298828125,-33.111572265625
1.1624999,-4.331110954284668,-1.2689268589019775,10.273519515991211,-24.383544921875,-37.17041015625,20.965576171875
1.1674999000000001,-4.458003520965576,-2.403778553009033,9.421183586120605,-10.31494140625,-63.690185546875,49.31640625
1.1724999,-3.6170401573181152,-2.8604724407196045,8.837596893310547,8.544921875,-57.0068359375,54.6875
1.1774999000000002,-2.049436569213867,-2.8167781829833984,8.827422142028809,18.85986328125,-39.215087890625,63.96484375
1.1824999,-0.3172317147254944,-2.652775526046753,9.431957244873047,31.219482421875,-45.196533203125,74.52392578125
1.1874999000000002,1.0438719987869263,-2.2906525135040283,9.939528465270996,36.376953125,-20.32470703125,81.4208984375
1.1924999,1.7986440658569336,-1.7561469078063965,10.356119155883789,39.154052734375,18.49365234375,82.122802734375
1.1974999000000002,1.9141643047332764,0.7032967209815979,10.448894500732422,37.4755859375,21.54541015625,41.412353515625
1.2024999,2.279279947280884,0.7422025203704834,9.936535835266113,25.57373046875,9.1552734375,-4.302978515625
1.2074999000000002,2.6581623554229736,0.5195417404174805,9.186552047729492,9.82666015625,0.91552734375,-50.933837890625
1.2124999,2.8850131034851074,0.3878606855869293,8.383895874023438,-16.876220703125,-2.716064453125,-76.629638671875
1.2174999000000002,2.8886044025421143,0.1777694821357727,7.751826763153076,-36.80419921875,7.476806640625,-85.174560546875
1.2224999,2.410362482070923,0.13168109953403473,7.8098859786987305,-44.25048828125,25.360107421875,-81.939697265625
1.2274999000000002,1.6011223793029785,0.395043283700943,8.394071578979492,-33.38623046875,34.85107421875,-62.98828125
1.2324999,0.19632454216480255,0.26815059781074524,9.84495735168457,-39.61181640625,26.7333984375,-35.15625
1.2374999000000002,-1.1522095203399658,0.8858546018600464,10.932523727416992,-14.16015625,10.711669921875,-26.0009765625
1.2424999,-0.2687491476535797,-3.339911460876465,8.51258373260498,47.9736328125,-35.125732421875,59.08203125
1.2474999000000002,0.7864952683448792,-3.663727045059204,8.819640159606934,52.8564453125,-13.885498046875,64.605712890625
1.2524999,1.2755109071731567,-3.1747114658355713,9.61212158203125,37.9638671875,4.8828125,68.42041015625
1.2574999000000002,1.2826935052871704,-2.054224967956543,10.702680587768555,46.539306640625,20.1416015625,76.690673828125
1.2624999000000001,1.1761516332626343,-0.7805097699165344,11.36168384552002,59.661865234375,29.96826171875,88.470458984375
1.2674999000000002,1.2312182188034058,0.15981295704841614,11.413159370422363,59.814453125,32.318115234375,86.029052734375
1.2724999000000001,1.6400281190872192,0.5494692921638489,11.01392650604248,54.26025390625,28.6865234375,57.06787109375
1.2774999000000002,2.27748441696167,0.5452794432640076,10.326790809631348,44.464111328125,18.280029296875,11.260986328125
1.2824999000000001,3.5871126651763916,1.104325532913208,6.823474884033203,-68.817138671875,-4.547119140625,-149.993896484375
1.2874999,2.736572504043579,1.1797429323196411,6.797737121582031,-76.141357421875,20.1416015625,-123.96240234375
1.2924999000000001,1.1875240802764893,1.1061211824417114,8.397662162780762,-63.385009765625,42.6025390625,-78.4912109375
1.2974999,-0.6500257849693298,0.9582792520523071,10.095151901245117,-17.51708984375,32.562255859375,-39.61181640625
1.3024999000000002,-2.4450783729553223,0.9630676507949829,11.818378448486328,-19.47021484375,5.31005859375,-40.1611328125
1.3074999,-3.9181110858917236,1.192312479019165,12.861052513122559,-50.84228515625,-8.453369140625,-32.40966796875
1.3124999000000002,-4.496909141540527,1.061229944229126,12.339117050170898,-61.614990234375,-28.411865234375,6.77490234375
1.3174999,-4.243722438812256,0.0293289702385664,11.241375923156738,-52.978515625,-59.112548828125,37.7197265625
1.3224999000000002,-3.155557870864868,-1.6561890840530396,9.59177017211914,-19.073486328125,-53.497314453125,48.248291015625
1.3274999,-1.5723919868469238,-3.3423056602478027,8.048707962036133,32.623291015625,-46.966552734375,64.94140625
1.3324999000000002,1.577778935432434,-3.206434726715088,9.550470352172852,29.23583984375,22.735595703125,80.902099609375
1.3374999,1.5705963373184204,-1.5873557329177856,11.07258415222168,37.53662109375,11.444091796875,75.164794921875
1.3424999000000002,1.5131354331970215,-0.18614917993545532,11.670536041259766,50.567626953125,20.6298828125,69.9462890625
1.3474999,1.525106430053711,0.739209771156311,11.606491088867188,49.98779296875,23.98681640625,62.347412109375
1.3524999000000002,1.8297686576843262,1.0546458959579468,11.028291702270508,42.66357421875,18.035888671875,37.53662109375
1.3574999,2.2625205516815186,0.9858125448226929,10.171167373657227,29.449462890625,8.209228515625,-5.096435546875
1.3624999000000002,3.823540210723877,1.9907786846160889,6.868964672088623,-77.972412109375,10.284423828125,-151.3671875
1.3674999,3.4189200401306152,2.8401217460632324,7.794323444366455,-106.689453125,36.895751953125,-158.0810546875
1.3724999000000002,0.2082955539226532,1.8507179021835327,10.539276123046875,-13.671875,39.97802734375,-89.508056640625
1.3774999,-2.0476410388946533,0.17238251864910126,11.665149688720703,-45.257568359375,5.06591796875,-65.032958984375
1.3824999000000002,-3.7690720558166504,-1.6980875730514526,10.809821128845215,-48.583984375,-15.0146484375,-54.3212890625
1.3874999000000001,-4.731541156768799,-2.63362193107605,9.477447509765625,-16.78466796875,-30.029296875,-0.67138671875
1.3924999000000002,-4.854842662811279,-3.7415387630462646,8.472481727600098,-2.532958984375,-55.328369140625,46.234130859375
1.3974999000000001,-4.129997730255127,-3.800196647644043,7.859565734863281,0.42724609375,-76.812744140625,65.216064453125
1.4024999000000002,-2.7084407806396484,-3.60028076171875,7.961917877197266,39.093017578125,-59.08203125,78.91845703125
1.4074999000000001,-0.9600749015808105,-2.874239206314087,8.913613319396973,47.119140625,-42.78564453125,83.587646484375
1.4124999,0.6889315247535706,-2.057217836380005,9.757569313049316,29.72412109375,-11.65771484375,83.67919921875
1.4174999000000001,1.8010382652282715,-1.1468225717544556,10.681731224060059,25.5126953125,6.805419921875,81.787109375
1.4224999,1.8010382652282715,-1.1468225717544556,10.681731224060059,25.5126953125,6.805419921875,81.787109375
1.4274999000000002,2.3702597618103027,-0.5380968451499939,11.14081859588623,36.7431640625,16.7236328125,76.751708984375
1.4324999,2.3786394596099854,0.3321954905986786,10.78587818145752,31.79931640625,28.472900390625,42.6025390625
1.4374999000000002,2.298433542251587,0.5644330382347107,10.277709007263184,22.979736328125,16.632080078125,15.411376953125
1.4424999,2.5324668884277344,1.2814964056015015,8.583212852478027,-28.472900390625,17.669677734375,-74.127197265625
1.4474999000000002,2.5324668884277344,1.2814964056015015,8.583212852478027,-28.472900390625,17.669677734375,-74.127197265625
1.4524999,2.297236442565918,1.125873327255249,8.860342025756836,-30.548095703125,30.8837890625,-81.451416015625
1.4574999000000002,1.6543933153152466,0.628477931022644,9.552865028381348,-18.035888671875,40.130615234375,-75.0732421875
1.4624999,0.6488286852836609,-0.05626374110579491,10.153809547424316,-6.04248046875,26.3671875,-62.469482421875
1.4674999000000002,-0.5644330382347107,-0.7553706169128418,10.514735221862793,-13.18359375,5.889892578125,-57.55615234375
1.4724999,-1.7609353065490723,-1.0468647480010986,10.467450141906738,-20.1416015625,-6.2255859375,-52.032470703125
1.4774999000000002,-2.692279815673828,-1.2084733247756958,10.119093894958496,-22.308349609375,-17.181396484375,-38.177490234375
1.4824999,-3.2806549072265625,-0.801459014415741,9.64803409576416,-11.65771484375,-42.236328125,42.633056640625
1.4874999000000002,-2.823362350463867,-0.7823054194450378,9.604340553283691,-15.869140625,-57.12890625,47.91259765625
1.4924999,-1.9063831567764282,-0.8678981065750122,9.694721221923828,-3.11279296875,-47.943115234375,44.73876953125
1.4974999000000002,-0.7416039705276489,-0.8918401598930359,9.888052940368652,16.54052734375,-33.233642578125,52.276611328125
1.5024999,0.43694180250167847,-1.0606313943862915,10.058639526367188,14.70947265625,-24.35302734375,54.62646484375
1.5074999000000002,1.3539210557937622,-1.0019733905792236,10.119093894958496,11.993408203125,-12.451171875,50.384521484375
1.5124999000000001,1.9614497423171997,-0.9229647517204285,10.093356132507324,24.017333984375,6.34765625,50.23193359375
1.5174999000000002,2.256535053253174,-0.8487445116043091,10.001777648925781,26.092529296875,18.768310546875,48.126220703125
1.5224999000000001,2.3026235103607178,-0.6338648796081543,9.932345390319824,22.430419921875,21.8505859375,38.39111328125
1.5274999000000002,2.3038206100463867,-0.43275195360183716,9.843161582946777,18.98193359375,17.51708984375,17.9443359375
1.5324999000000001,2.2691047191619873,-0.14903905987739563,9.721057891845703,12.176513671875,10.498046875,-8.056640625
1.5374999000000003,2.2870612144470215,0.15442600846290588,9.575610160827637,5.18798828125,11.871337890625,-26.91650390625
1.5424999000000001,1.511339783668518,0.7463923692703247,9.654019355773926,-12.054443359375,36.2548828125,-60.821533203125
1.5474999,0.8176198601722717,0.4100070297718048,9.965266227722168,-10.1318359375,29.266357421875,-64.239501953125
1.5524999000000002,-0.019153613597154617,0.040701430290937424,10.146028518676758,-15.56396484375,14.6484375,-64.88037109375
1.5574999,-0.9582792520523071,-0.49140989780426025,10.09814453125,-19.683837890625,2.899169921875,-58.53271484375
1.5624999000000002,-1.820790410041809,-0.7996633648872375,9.931747436523438,-20.81298828125,-10.6201171875,-43.27392578125
1.5674999,-2.4672248363494873,-0.7583633661270142,9.770736694335938,-17.2119140625,-20.5078125,-13.702392578125
1.5724999000000002,-2.7503392696380615,-0.7601590156555176,9.677961349487305,-17.730712890625,-28.472900390625,18.85986328125
1.5774999,-2.562992811203003,-0.8104372620582581,9.68155288696289,-18.06640625,-43.701171875,39.642333984375
1.5824999000000002,-1.8974047899246216,-0.8080430626869202,9.683947563171387,-8.7890625,-50.048828125,47.66845703125
1.5874999,-0.9810241460800171,-1.246780514717102,9.701904296875,9.063720703125,-38.970947265625,50.567626953125
1.5924999000000002,1.2832920551300049,-1.4059948921203613,10.07779312133789,25.0244140625,-2.685546875,52.8564453125
1.5974999,1.2832920551300049,-1.4059948921203613,10.07779312133789,25.0244140625,-2.685546875,52.8564453125
1.6024999000000002,1.6023194789886475,-0.8738836050033569,10.160393714904785,29.937744140625,21.17919921875,51.116943359375
1.6074999,1.7357962131500244,-0.4578910768032074,10.104129791259766,27.28271484375,20.8740234375,37.2314453125
1.6124999000000002,1.9518729448318481,0.030526071786880493,9.965266227722168,20.355224609375,15.31982421875,12.0849609375
1.6174999,2.2242133617401123,0.43335050344467163,9.722254753112793,9.21630859375,7.99560546875,-15.68603515625
1.6224999000000002,2.500145196914673,0.7697358727455139,9.403825759887695,0.1220703125,12.298583984375,-35.430908203125
1.6274999,2.651578426361084,0.9433154463768005,9.077016830444336,-8.697509765625,21.3623046875,-48.248291015625
1.6324999000000002,2.6156654357910156,1.048660397529602,8.977059364318848,-19.04296875,29.327392578125,-62.43896484375
1.6374999000000001,2.2637176513671875,1.0127472877502441,9.224260330200195,-21.148681640625,39.520263671875,-69.88525390625
1.6424999000000002,-0.7374141216278076,-0.1693897694349289,10.407594680786133,-18.463134765625,6.2255859375,-61.920166015625
1.6474999000000001,-1.955464243888855,-0.5009866952896118,10.344746589660645,-23.13232421875,-8.941650390625,-58.41064453125
1.6524999000000002,-2.8455088138580322,-0.9050082564353943,9.936535835266113,-29.937744140625,-21.240234375,-37.29248046875
1.6574999000000001,-3.3500866889953613,-0.8583213090896606,9.692327499389648,-16.204833984375,-35.400390625,20.050048828125
1.6624999000000003,-3.207631826400757,-1.326986312866211,9.521739959716797,-13.275146484375,-52.642822265625,48.248291015625
1.6674999000000001,-2.5043349266052246,-1.4933832883834839,9.518148422241211,-7.537841796875,-54.6875,50.628662109375
1.6724999,-1.3593080043792725,-1.4945803880691528,9.679159164428711,14.312744140625,-44.00634765625,58.59375
1.6774999000000002,-0.08379705995321274,-1.632246971130371,9.874884605407715,18.707275390625,-32.440185546875,63.873291015625
1.6824999,1.4939818382263184,-1.3605051040649414,10.15141487121582,32.073974609375,3.387451171875,67.56591796875
1.6874999000000002,1.732803463935852,-1.2198457717895508,10.145429611206055,35.430908203125,23.5595703125,69.244384765625
1.6924999,1.823184609413147,-0.4255693554878235,10.144830703735352,31.219482421875,24.078369140625,45.83740234375
1.6974999000000002,2.036867141723633,0.10594342648983002,10.016741752624512,23.651123046875,17.425537109375,18.9208984375
1.7024999,2.3523032665252686,0.5147533416748047,9.726444244384766,10.528564453125,6.683349609375,-13.946533203125
1.7074999000000002,2.7006595134735107,0.8415619134902954,9.321226119995117,-0.640869140625,7.720947265625,-42.083740234375
1.7124999,2.9035680294036865,1.0767922401428223,8.896254539489746,-13.397216796875,17.578125,-61.920166015625
1.7174999000000002,2.9047651290893555,1.2090718746185303,8.707711219787598,-27.984619140625,26.519775390625,-78.094482421875
1.7224999,2.559401512145996,1.269525408744812,9.024943351745605,-29.96826171875,41.748046875,-84.747314453125
1.7274999000000002,1.7082629203796387,0.9481038451194763,9.781511306762695,-22.613525390625,46.08154296875,-74.981689453125
1.7324999,0.47584760189056396,0.37888240814208984,10.318410873413086,-12.939453125,27.435302734375,-64.056396484375
1.7374999000000002,-0.9403226971626282,-0.16639702022075653,10.704475402832031,-18.707275390625,5.4931640625,-65.00244140625
1.7424999,-2.3092074394226074,-0.8224082589149475,10.484807968139648,-24.0478515625,-11.077880859375,-62.530517578125
1.7474999000000002,-3.247734546661377,-1.2623428106307983,9.97364616394043,-28.38134765625,-24.2919921875,-35.247802734375
1.7524999,-2.516305923461914,-1.8261773586273193,9.351153373718262,-2.9296875,-53.619384765625,55.023193359375
1.7574999000000002,-1.206079125404358,-1.6298527717590332,9.565434455871582,17.63916015625,-44.12841796875,62.652587890625
1.7624999000000001,1.169567584991455,-1.460463047027588,10.058639526367188,21.54541015625,-10.833740234375,62.92724609375
1.7674999000000002,1.7537527084350586,-1.279700756072998,10.201094627380371,32.8369140625,9.979248046875,66.497802734375
1.7724999000000001,1.922544002532959,-0.9774328470230103,10.256759643554688,33.02001953125,23.956298828125,62.896728515625
1.7774999000000002,1.953070044517517,-0.5297171473503113,10.271124839782715,30.853271484375,23.98681640625,52.8564453125
1.7824999000000001,2.029684543609619,-0.041299980133771896,10.108918190002441,25.787353515625,21.54541015625,30.76171875
1.7874999000000003,2.20924973487854,0.45190557837486267,9.888052940368652,15.716552734375,12.02392578125,1.220703125
1.7924999000000001,2.427121877670288,0.7960720658302307,9.557653427124023,4.364013671875,6.89697265625,-25.634765625
1.7974999,2.630629062652588,1.0690110921859741,9.192537307739258,-3.7841796875,13.427734375,-44.00634765625
1.8024999000000002,2.5761611461639404,1.2030863761901855,8.96269416809082,-25.57373046875,30.09033203125,-76.35498046875
1.8074999,2.1086931228637695,1.1007342338562012,9.396044731140137,-22.5830078125,42.510986328125,-77.57568359375
1.8124999000000002,1.217451572418213,0.5692214369773865,9.997588157653809,-16.998291015625,37.567138671875,-69.305419921875
1.8174999,0.020350715145468712,0.023942016065120697,10.337564468383789,-15.167236328125,17.852783203125,-63.1103515625
1.8224999000000002,-1.3317747116088867,-0.4794389009475708,10.49677848815918,-19.866943359375,-2.227783203125,-60.36376953125
1.8274999,-2.5270798206329346,-1.0372878313064575,10.204686164855957,-24.59716796875,-16.6015625,-52.490234375
1.8324999000000002,-3.3435027599334717,-1.1653777360916138,9.736021041870117,-26.3671875,-26.214599609375,-15.5029296875
1.8374999,-3.53204607963562,-1.3557167053222656,9.5223388671875,-11.810302734375,-45.196533203125,41.19873046875
1.8424999000000002,-3.089118719100952,-1.5017629861831665,9.442731857299805,-14.22119140625,-57.18994140625,54.107666015625
1.8474999,-2.0644004344940186,-1.5412673950195312,9.519944190979004,3.265380859375,-49.13330078125,54.99267578125
1.8524999000000002,-0.7643488645553589,-1.4778209924697876,9.817423820495605,20.93505859375,-40.008544921875,62.591552734375
1.8574999,0.444722980260849,-1.5412673950195312,9.99220085144043,20.172119140625,-24.993896484375,64.605712890625
1.8624999000000002,1.7687164545059204,-0.9097966551780701,10.249577522277832,33.599853515625,25.238037109375,66.5283203125
1.8674999,1.8824410438537598,-0.47405192255973816,10.187328338623047,30.975341796875,24.566650390625,53.7109375
1.8724999000000002,2.0697872638702393,0.030526071786880493,10.020931243896484,23.956298828125,20.08056640625,27.069091796875
1.8774999,2.3552958965301514,0.4926069974899292,9.759963035583496,12.298583984375,9.796142578125,-3.143310546875
1.8824999000000002,2.6593594551086426,0.8194155097007751,9.428964614868164,1.220703125,7.171630859375,-31.6162109375
1.8874999000000001,2.8592753410339355,1.0678139925003052,9.065644264221191,-7.843017578125,15.13671875,-51.544189453125
1.8924999000000002,2.8862102031707764,1.2234370708465576,8.884882926940918,-21.270751953125,23.5595703125,-69.091796875
1.8974999000000001,2.653373956680298,1.2665326595306396,9.05606746673584,-27.587890625,36.346435546875,-80.56640625
1.9024999000000002,2.010530948638916,1.1623848676681519,9.665990829467773,-22.613525390625,46.173095703125,-79.071044921875
1.9074999000000001,0.945111095905304,0.5111620426177979,10.25735855102539,-16.54052734375,35.2783203125,-70.953369140625
1.9124999000000003,-0.3381809890270233,0.004189853090792894,10.556633949279785,-17.852783203125,14.251708984375,-69.39697265625
1.9174999000000001,-3.514089584350586,-1.247977614402771,9.543886184692383,-23.13232421875,-32.196044921875,1.617431640625
1.9224999,-1.7998411655426025,-1.6502034664154053,9.428964614868164,12.969970703125,-47.454833984375,61.46240234375
1.9274999000000002,-0.43335050344467163,-1.6867151260375977,9.813833236694336,24.7802734375,-39.703369140625,67.474365234375
1.9324999,0.6943184733390808,-1.6292542219161987,9.995792388916016,21.6064453125,-18.341064453125,68.939208984375
1.9374999000000002,1.3563152551651,-1.436521053314209,10.251971244812012,31.1279296875,3.387451171875,74.005126953125
1.9424999,1.6400281190872192,-1.2767080068588257,10.271124839782715,38.604736328125,22.76611328125,76.35498046875
1.9474999000000002,1.6687586307525635,-0.8577227592468262,10.34594440460205,34.454345703125,27.069091796875,69.061279296875
1.9524999,1.777096152305603,-0.3794809579849243,10.247781753540039,32.257080078125,25.787353515625,52.825927734375
1.9574999000000002,2.0015525817871094,0.2406172752380371,10.064026832580566,23.834228515625,17.76123046875,25.0244140625
1.9624999,2.804208755493164,1.3138182163238525,8.919598579406738,-31.951904296875,39.0625,-87.5244140625
1.9674999000000002,2.036867141723633,1.0606313943862915,9.717466354370117,-22.64404296875,48.431396484375,-79.16259765625
1.9724999,0.7984662652015686,0.2867056429386139,10.365097999572754,-15.2587890625,31.8603515625,-65.85693359375
1.9774999000000002,-0.6709750294685364,-0.14065934717655182,10.765527725219727,-16.845703125,9.124755859375,-66.5283203125
1.9824999,-2.1751322746276855,-0.6943184733390808,10.651803016662598,-23.37646484375,-9.918212890625,-68.359375
1.9874999000000002,-3.27227520942688,-1.204882025718689,9.96825885772705,-29.35791015625,-24.4140625,-42.3583984375
1.9924999,-3.8163576126098633,-1.1773487329483032,9.48462963104248,-15.228271484375,-39.459228515625,21.3623046875
1.9974999000000002,-3.6116533279418945,-1.6011223793029785,9.309853553771973,-14.068603515625,-57.9833984375,49.285888671875
2.0024999,0.02513911761343479,-1.8812439441680908,9.864110946655273,24.96337890625,-35.858154296875,69.549560546875
2.0074999,0.02513911761343479,-1.8812439441680908,9.864110946655273,24.96337890625,-35.858154296875,69.549560546875
2.0124999000000003,1.0426748991012573,-1.7016788721084595,9.999981880187988,22.613525390625,-11.65771484375,72.357177734375
2.0174999000000002,1.5867571830749512,-1.4640543460845947,10.213664054870605,33.87451171875,9.124755859375,75.347900390625
2.0224999,1.7202339172363281,-1.1827356815338135,10.217255592346191,36.224365234375,24.322509765625,73.394775390625
2.0274999,1.7076643705368042,-0.70090252161026,10.295665740966797,32.562255859375,25.238037109375,62.774658203125
2.0324999000000004,1.824381709098816,-0.18315643072128296,10.166977882385254,28.80859375,23.193359375,43.701171875
2.0374999000000003,2.0913352966308594,0.3944447338581085,9.965864181518555,19.10400390625,13.580322265625,14.0380859375
2.0424999,2.4881742000579834,0.8188169598579407,9.623494148254395,5.889892578125,4.39453125,-18.951416015625
2.0474999,2.8544869422912598,1.1701661348342896,9.206902503967285,-4.45556640625,10.223388671875,-45.501708984375
2.0524999,3.0567970275878906,1.3227964639663696,8.845976829528809,-18.12744140625,18.585205078125,-64.788818359375
2.0574999000000003,-2.5701754093170166,-0.8990227580070496,10.262146949768066,-22.52197265625,-14.70947265625,-62.07275390625
2.0624999,-2.5701754093170166,-0.8990227580070496,10.262146949768066,-22.52197265625,-14.70947265625,-62.07275390625
2.0674999,-3.3470940589904785,-1.4449007511138916,9.744999885559082,-22.857666015625,-27.130126953125,-24.71923828125
2.0724999,-3.5691561698913574,-1.514931082725525,9.441534042358398,-13.7939453125,-42.8466796875,35.552978515625
2.0774999000000003,-3.1202433109283447,-1.8040310144424438,9.402628898620605,-14.70947265625,-56.915283203125,52.91748046875
2.0824999,-0.7978677153587341,-1.7854759693145752,9.633070945739746,19.1650390625,-42.327880859375,60.150146484375
2.0874999,-0.7978677153587341,-1.7854759693145752,9.633070945739746,19.1650390625,-42.327880859375,60.150146484375
2.0924999,0.4626794755458832,-1.8249802589416504,9.837775230407715,23.284912109375,-26.153564453125,62.835693359375
2.0974999000000003,1.2533645629882812,-1.6418237686157227,10.078990936279297,26.885986328125,-5.31005859375,67.291259765625
2.1024999,1.6903064250946045,-0.4291606545448303,10.269330024719238,30.487060546875,23.8037109375,52.459716796875
2.1074999,1.866280198097229,0.18136078119277954,10.110713958740234,23.162841796875,19.256591796875,28.38134765625
2.1124999,2.2212207317352295,0.6829460263252258,9.818621635437012,11.444091796875,9.27734375,-2.044677734375
2.1174999000000003,2.623446464538574,1.0211269855499268,9.452906608581543,0.885009765625,7.6904296875,-31.463623046875
2.1224999,2.9065608978271484,1.1887211799621582,9.088988304138184,-7.8125,15.869140625,-51.3916015625
2.1274999,2.9915549755096436,1.2461819648742676,8.909422874450684,-19.683837890625,24.383544921875,-67.81005859375
2.1324999,2.719813108444214,1.080383539199829,9.120711326599121,-24.810791015625,35.15625,-75.50048828125
2.1374999000000003,2.0225019454956055,1.0187327861785889,9.66299819946289,-15.777587890625,42.999267578125,-74.27978515625
2.1424999000000002,0.8744821548461914,0.3076549172401428,10.200496673583984,-17.791748046875,31.25,-68.359375
2.1474999,-0.43275195360183716,-0.02513911761343479,10.45667552947998,-16.937255859375,10.833740234375,-66.680908203125
2.1524999,-1.7836803197860718,-0.6117185354232788,10.400412559509277,-19.53125,-7.537841796875,-63.4765625
2.1574999000000004,-3.4350810050964355,-1.1186907291412354,9.567828178405762,-20.782470703125,-29.47998046875,2.44140625
2.1624999000000003,-3.425503969192505,-1.469441294670105,9.482834815979004,-11.871337890625,-48.7060546875,47.271728515625
2.1674999,-2.80361008644104,-1.4598644971847534,9.396044731140137,-11.138916015625,-52.703857421875,51.727294921875
2.1724999,-1.6974890232086182,-1.4790180921554565,9.534908294677734,8.72802734375,-45.196533203125,53.375244140625
2.1774999000000004,-0.3794809579849243,-1.5771803855895996,9.844358444213867,20.904541015625,-34.759521484375,57.891845703125
2.1824999000000003,0.7134721279144287,-1.5897499322891235,10.012551307678223,20.355224609375,-16.41845703125,59.75341796875
2.1874999,1.3982137441635132,-1.4772224426269531,10.198101997375488,30.181884765625,2.197265625,66.436767578125
2.1924999,1.71245276927948,-1.2749123573303223,10.208277702331543,33.905029296875,20.233154296875,67.87109375
2.1974999,1.801636815071106,-0.823006808757782,10.269330024719238,31.707763671875,25.08544921875,60.150146484375
2.2024999000000003,1.9405004978179932,-0.304063618183136,10.15021800994873,28.594970703125,24.200439453125,42.022705078125
2.2074999,2.1553800106048584,0.29867666959762573,9.974244117736816,18.9208984375,15.93017578125,14.190673828125
2.2124999,2.4612393379211426,0.7523778676986694,9.66539192199707,6.89697265625,7.598876953125,-16.54052734375
2.2174999,2.890399932861328,1.2330138683319092,8.994417190551758,-12.451171875,19.012451171875,-59.967041015625
2.2224999000000003,2.824559450149536,1.2731167078018188,8.954913139343262,-24.566650390625,27.679443359375,-74.249267578125
2.2274999,2.4025814533233643,1.1264718770980835,9.312846183776855,-21.97265625,40.283203125,-77.301025390625
2.2324999,1.5310919284820557,0.884058952331543,9.921571731567383,-17.242431640625,40.52734375,-72.8759765625
2.2374999,0.314238965511322,0.19452889263629913,10.2962646484375,-17.27294921875,21.54541015625,-67.5048828125
2.2424999000000003,-3.5835213661193848,-1.3838485479354858,9.528324127197266,-11.71875,-39.794921875,32.684326171875
2.2474999,-3.3273417949676514,-1.723825216293335,9.494805335998535,-14.190673828125,-55.0537109375,49.25537109375
2.2524999,-2.4821887016296387,-1.6573861837387085,9.469067573547363,-1.220703125,-49.896240234375,51.81884765625
2.2574999,-1.2270283699035645,-1.5257049798965454,9.730035781860352,16.66259765625,-42.327880859375,59.295654296875
2.2624999000000003,1.0372878313064575,-1.4215573072433472,10.095151901245117,23.468017578125,-7.965087890625,65.765380859375
2.2674999000000002,1.600523829460144,-1.3646949529647827,10.156203269958496,35.15625,12.02392578125,72.1435546875
2.2724999,1.7764976024627686,-1.0971429347991943,10.201094627380371,32.89794921875,24.23095703125,68.511962890625
2.2774999,1.8453309535980225,-0.667982280254364,10.204686164855957,31.707763671875,25.08544921875,56.70166015625
2.2824999000000004,1.9853917360305786,-0.09935937076807022,10.109517097473145,26.4892578125,20.44677734375,35.15625
2.2874999000000003,2.233790159225464,0.46088382601737976,9.879075050354004,16.2353515625,10.894775390625,4.791259765625
2.2924999,2.5564088821411133,0.912190854549408,9.53969669342041,4.21142578125,5.06591796875,-24.96337890625
2.2974999,2.8365304470062256,1.20368492603302,9.122507095336914,-6.28662109375,11.932373046875,-48.736572265625
2.3024999000000004,2.9747955799102783,1.3820528984069824,8.819042205810547,-20.599365234375,19.34814453125,-67.87109375
2.3074999000000003,2.828749418258667,1.3186066150665283,8.920795440673828,-30.181884765625,31.402587890625,-77.392578125
2.3124999,2.2601263523101807,1.236605167388916,9.473855972290039,-20.965576171875,46.295166015625,-76.385498046875
2.3174999,1.173158884048462,0.5740098357200623,10.157999038696289,-18.73779296875,37.200927734375,-67.108154296875
2.3224999,-2.7311856746673584,-1.2521674633026123,10.187328338623047,-27.52685546875,-17.76123046875,-55.999755859375
2.3274999000000003,-3.4727895259857178,-1.1976994276046753,9.649829864501953,-22.88818359375,-30.242919921875,-3.997802734375
2.3324999,-3.581127166748047,-1.6849194765090942,9.428964614868164,-10.1318359375,-47.454833984375,43.121337890625
2.3374999,-3.0370447635650635,-1.7076643705368042,9.363722801208496,-12.542724609375,-54.962158203125,49.224853515625
2.3424999,-1.9297266006469727,-1.6262614727020264,9.437344551086426,8.209228515625,-46.7529296875,55.5419921875
2.3474999000000003,-0.5428852438926697,-1.6675615310668945,9.789292335510254,19.59228515625,-37.322998046875,61.8896484375
2.3524999,0.6751648783683777,-1.599326729774475,9.956287384033203,20.233154296875,-18.4326171875,63.8427734375
2.3574999,1.41257905960083,-1.436521053314209,10.17296314239502,29.266357421875,0.30517578125,68.878173828125
2.3624999,1.7633295059204102,-1.2994530200958252,10.194510459899902,35.46142578125,19.34814453125,71.22802734375
2.3674999000000003,1.7735048532485962,-0.889445960521698,10.281899452209473,32.3486328125,26.123046875,62.92724609375
2.3724999,1.9901801347732544,0.18794482946395874,10.06462574005127,22.0947265625,16.66259765625,21.270751953125
2.3774999,2.299630641937256,0.669179379940033,9.761758804321289,10.467529296875,8.30078125,-9.46044921875
2.3824999,2.650381326675415,1.0636241436004639,9.390657424926758,-0.06103515625,9.185791015625,-35.980224609375
2.3874999000000003,2.8856115341186523,1.2862848043441772,9.006388664245605,-10.955810546875,17.2119140625,-56.21337890625
2.3924999000000002,2.916736125946045,1.4047977924346924,8.869918823242188,-24.383544921875,24.322509765625,-72.784423828125
2.3974999,2.585139274597168,1.2934675216674805,9.14585018157959,-25.93994140625,38.330078125,-78.643798828125
2.4024999,1.7962498664855957,1.0720038414001465,9.798270225524902,-18.5546875,44.097900390625,-74.89013671875
2.4074999000000004,0.6177040338516235,0.29388827085494995,10.249577522277832,-15.869140625,26.18408203125,-67.81005859375
2.4124999000000003,-0.690727174282074,-0.15801730751991272,10.481216430664062,-16.632080078125,6.072998046875,-69.580078125
2.4174999,-2.010530948638916,-0.7811083197593689,10.353126525878906,-21.453857421875,-10.25390625,-66.986083984375
2.4224999,-3.0125043392181396,-1.2431892156600952,9.822811126708984,-28.533935546875,-23.529052734375,-41.961669921875
2.4274999000000004,-3.559579372406006,-1.2713210582733154,9.501988410949707,-14.6484375,-35.308837890625,19.073486328125
2.4324999000000003,-2.7706899642944336,-1.7334020137786865,9.404424667358398,-5.859375,-52.734375,50.84228515625
2.4374999,-1.5831658840179443,-1.6328455209732056,9.655815124511719,14.068603515625,-43.182373046875,57.18994140625
2.4424999,-0.20530278980731964,-1.7160440683364868,9.941922187805176,18.98193359375,-31.524658203125,61.431884765625
2.4474999,0.8822633028030396,-1.5316904783248901,10.099940299987793,19.22607421875,-12.451171875,62.98828125
2.4524999000000003,1.53707754611969,-1.3772644996643066,10.24119758605957,31.951904296875,5.79833984375,68.634033203125
2.4574999,1.823184609413147,-1.1755530834197998,10.194510459899902,32.867431640625,22.4609375,68.267822265625
2.4624999,1.8495208024978638,-0.7356184720993042,10.256759643554688,30.181884765625,25.177001953125,57.92236328125
2.4674999,1.911171555519104,-0.2669534981250763,10.138845443725586,26.85546875,21.1181640625,39.9169921875
2.4724999000000003,2.0889410972595215,0.3405751883983612,9.967061996459961,18.218994140625,12.3291015625,11.962890625
2.4774999,2.369062662124634,0.7882909178733826,9.652822494506836,6.591796875,5.157470703125,-19.256591796875
2.4824999,2.6880898475646973,1.103128433227539,9.258378028869629,-3.936767578125,9.58251953125,-42.755126953125
2.4874999,2.870049238204956,1.315613865852356,8.941145896911621,-14.923095703125,18.37158203125,-60.394287109375
2.4924999000000003,2.3493103981018066,1.157596468925476,9.34037971496582,-20.355224609375,43.212890625,-72.296142578125
2.4974999,1.4197616577148438,0.7930793166160583,9.983222961425781,-16.693115234375,38.909912109375,-67.07763671875
2.5024999,0.1867477297782898,0.09277531504631042,10.345345497131348,-14.739990234375,18.463134765625,-62.713623046875
2.5074999,-1.1408370733261108,-0.30705636739730835,10.503362655639648,-18.096923828125,1.03759765625,-66.10107421875
2.5124999000000003,-2.3481132984161377,-1.106719732284546,10.213664054870605,-23.49853515625,-14.678955078125,-58.502197265625
2.5174999000000002,-3.1938650608062744,-1.2958617210388184,9.785700798034668,-26.55029296875,-26.2451171875,-20.6298828125
2.5224999,-3.491344690322876,-1.5316904783248901,9.522936820983887,-9.124755859375,-39.55078125,35.46142578125
2.5274999,-3.180098295211792,-1.6490063667297363,9.473258018493652,-14.2822265625,-53.40576171875,47.18017578125
2.5324999000000004,-2.295440912246704,-1.5682021379470825,9.50857162475586,1.251220703125,-48.919677734375,50.140380859375
2.5374999000000003,-1.0414776802062988,-1.4245500564575195,9.77672290802002,17.2119140625,-38.57421875,57.861328125
2.5424999,0.23523031175136566,-1.4766238927841187,9.937732696533203,18.585205078125,-23.284912109375,60.943603515625
2.5474999,1.1300631761550903,-1.3281834125518799,10.141240119934082,22.8271484375,-6.77490234375,63.934326171875
2.5524999000000004,1.8483237028121948,-1.0330979824066162,10.199897766113281,31.951904296875,25.7568359375,64.208984375
2.5574999000000003,1.9147628545761108,-0.6314706802368164,10.174758911132812,30.303955078125,24.444580078125,51.177978515625
2.5624999,2.558204412460327,0.8708908557891846,9.518747329711914,3.60107421875,7.659912109375,-29.632568359375
2.5674999,2.7958290576934814,1.148618221282959,9.12968921661377,-5.9814453125,15.472412109375,-49.13330078125
2.5724999,2.8808231353759766,1.3467384576797485,8.91540813446045,-18.829345703125,21.087646484375,-67.138671875
2.5774999000000003,2.676118850708008,1.2868833541870117,9.009979248046875,-27.2216796875,32.40966796875,-77.2705078125
2.5824999,2.0458452701568604,1.1629834175109863,9.558850288391113,-19.8974609375,43.243408203125,-76.385498046875
2.5874999,1.0001777410507202,0.48961424827575684,10.105925559997559,-16.510009765625,31.43310546875,-68.42041015625
2.5924999,-0.23523031175136566,-0.03711012750864029,10.362703323364258,-14.83154296875,11.65771484375,-66.497802734375
2.5974999000000003,-1.5538369417190552,-0.639850378036499,10.416572570800781,-18.98193359375,-5.157470703125,-65.826416015625
2.6024999,-3.381211280822754,-1.2970588207244873,9.575610160827637,-20.294189453125,-29.754638671875,-0.3662109375
2.6074999,-3.537432909011841,-1.7052701711654663,9.457695007324219,-6.927490234375,-45.5322265625,45.928955078125
2.6124999,-3.0986955165863037,-1.6041151285171509,9.449316024780273,-12.176513671875,-54.87060546875,49.13330078125
2.6174999000000003,-3.0986955165863037,-1.6041151285171509,9.449316024780273,-12.176513671875,-54.87060546875,49.13330078125
2.6224999,-2.098517894744873,-1.3742717504501343,9.621698379516602,7.87353515625,-45.989990234375,53.558349609375
2.6274999,-0.7978677153587341,-1.2994530200958252,10.002974510192871,18.096923828125,-34.149169921875,60.4248046875
2.6324999,0.4231751561164856,-1.2300211191177368,10.105925559997559,15.9912109375,-18.768310546875,62.31689453125
2.6374999000000003,1.2868833541870117,-1.1127052307128906,10.277709007263184,25.2685546875,-2.105712890625,65.7958984375
2.6424999000000002,2.0476410388946533,-0.6003460884094238,10.143633842468262,30.09033203125,24.35302734375,48.15673828125
2.6474999,2.0476410388946533,-0.6003460884094238,10.143633842468262,30.09033203125,24.35302734375,48.15673828125
2.6524999,2.124255418777466,-0.08499415963888168,10.011354446411133,23.284912109375,16.17431640625,22.613525390625
2.6574999000000004,2.522291421890259,0.9349357485771179,9.403226852416992,1.190185546875,5.37109375,-35.247802734375
2.6624999000000003,2.741959571838379,1.2665326595306396,8.987235069274902,-11.23046875,12.298583984375,-55.17578125
2.6674999,2.829946517944336,1.4760253429412842,8.781332969665527,-26.06201171875,20.751953125,-71.990966796875
2.6724999,2.581547975540161,1.4024035930633545,8.977059364318848,-29.571533203125,36.651611328125,-77.392578125
2.6774999000000004,1.8704700469970703,1.0755951404571533,9.6618013381958,-21.575927734375,44.647216796875,-72.32666015625
2.6824999000000003,0.7003039717674255,0.3250128924846649,10.20528507232666,-13.12255859375,27.16064453125,-60.882568359375
2.6874999,-0.6159083843231201,-0.22385786473751068,10.526107788085938,-15.380859375,7.171630859375,-62.6220703125
2.6924999,-1.9943699836730957,-0.8212111592292786,10.498574256896973,-21.6064453125,-8.7890625,-62.591552734375
2.6974999,-2.9909565448760986,-1.224035620689392,9.911994934082031,-27.64892578125,-22.4609375,-38.482666015625
2.7024999000000003,-3.491344690322876,-1.192312479019165,9.62947940826416,-14.0380859375,-34.576416015625,17.76123046875
2.7074999,-3.377619981765747,-1.533486247062683,9.424176216125488,-11.871337890625,-50.140380859375,45.5322265625
2.7124999,-2.6354174613952637,-1.613093376159668,9.475052833557129,-7.598876953125,-53.64990234375,48.309326171875
2.7174999,0.8882488012313843,-1.5316904783248901,10.067618370056152,17.88330078125,-14.617919921875,63.079833984375
2.7224999000000003,1.5496470928192139,-1.3994108438491821,10.18792724609375,31.005859375,4.913330078125,66.741943359375
2.7274999,1.8381483554840088,-1.2222399711608887,10.143633842468262,33.87451171875,24.505615234375,66.58935546875
2.7324999,1.867477297782898,-0.7948749661445618,10.218452453613281,30.82275390625,25.20751953125,57.7392578125
2.7374999,1.9357120990753174,-0.3513490855693817,10.09814453125,27.28271484375,21.392822265625,39.947509765625
2.7424999000000003,2.1134815216064453,0.23343466222286224,9.9371337890625,19.500732421875,13.946533203125,11.260986328125
2.7474999,2.40736985206604,0.6823474764823914,9.637260437011719,8.026123046875,7.01904296875,-19.34814453125
2.7524999,2.7252001762390137,1.0241197347640991,9.27334213256836,-1.922607421875,11.8408203125,-41.656494140625
2.7574999,2.9203274250030518,1.2587515115737915,8.943540573120117,-13.18359375,19.500732421875,-58.929443359375
2.7624999000000003,2.851494312286377,1.3150153160095215,8.902838706970215,-24.5361328125,28.1982421875,-72.845458984375
2.7674999000000002,0.30047231912612915,0.07841010391712189,10.287884712219238,-13.702392578125,19.34814453125,-65.85693359375
2.7724999,-0.9690531492233276,-0.40880993008613586,10.448894500732422,-16.937255859375,2.3193359375,-66.58935546875
2.7774999,-2.143409013748169,-1.1180921792984009,10.20887565612793,-20.904541015625,-13.885498046875,-59.844970703125
2.7824999000000004,-3.0119056701660156,-1.4873977899551392,9.773131370544434,-24.71923828125,-24.444580078125,-28.045654296875
2.7874999000000003,-3.4751837253570557,-1.4814122915267944,9.530718803405762,-6.927490234375,-34.97314453125,30.975341796875
2.7924999,-3.362656354904175,-1.6250643730163574,9.481039047241211,-11.77978515625,-51.239013671875,47.454833984375
2.7974999,-2.697068214416504,-1.456871747970581,9.582792282104492,-2.44140625,-50.72021484375,48.15673828125
2.8024999000000004,1.6855180263519287,-1.1689690351486206,10.163984298706055,30.792236328125,9.8876953125,61.676025390625
2.8074999000000003,2.1757307052612305,-0.3250128924846649,10.016741752624512,22.796630859375,17.9443359375,28.594970703125
2.8124999,2.1757307052612305,-0.3250128924846649,10.016741752624512,22.796630859375,17.9443359375,28.594970703125
2.8174999,2.2182278633117676,0.30286651849746704,9.857526779174805,14.83154296875,9.6435546875,0.30517578125
2.8224999,2.343324899673462,0.801459014415741,9.572616577148438,4.425048828125,4.974365234375,-25.787353515625
2.8274999000000003,2.5049335956573486,1.1037269830703735,9.249998092651367,-4.69970703125,11.1083984375,-42.236328125
2.8324999,2.5929205417633057,1.2880805730819702,8.99740982055664,-14.251708984375,19.073486328125,-56.82373046875
2.8374999,2.4636335372924805,1.1456254720687866,9.03751277923584,-23.590087890625,29.266357421875,-64.971923828125
2.8424999,1.98958158493042,0.8684966564178467,9.43135929107666,-15.80810546875,39.459228515625,-65.460205078125
2.8474999000000003,1.159990668296814,0.4794389009475708,9.942521095275879,-13.7939453125,31.06689453125,-62.042236328125
2.8524999,0.018555063754320145,-0.08140286058187485,10.26274585723877,-16.54052734375,14.862060546875,-57.67822265625
2.8574999,-1.1971008777618408,-0.36750996112823486,10.375272750854492,-17.08984375,-1.3427734375,-59.967041015625
2.8624999,-2.318185806274414,-1.1402385234832764,10.137648582458496,-24.871826171875,-17.578125,-50.4150390625
2.8674999000000003,-3.025672435760498,-1.449090600013733,9.565434455871582,-13.763427734375,-52.398681640625,43.27392578125
2.8724999,-2.143409013748169,-1.2892776727676392,9.66419506072998,4.302978515625,-45.59326171875,48.27880859375
2.8774999,-0.9313444495201111,-1.238999366760254,9.941922187805176,14.251708984375,-33.447265625,56.2744140625
2.8824999,0.29388827085494995,-1.2557587623596191,10.058639526367188,13.153076171875,-23.01025390625,56.610107421875
2.8874999000000003,1.1953052282333374,-1.1569979190826416,10.201094627380371,23.162841796875,-6.195068359375,58.53271484375
2.8924999000000002,1.79146146774292,-1.2437877655029297,10.090961456298828,33.203125,17.791748046875,63.4765625
2.8974999,1.9847931861877441,-1.0444705486297607,10.133459091186523,29.60205078125,25.299072265625,59.722900390625
2.9024999,2.054224967956543,-0.7050924301147461,10.073004722595215,27.4658203125,23.406982421875,46.20361328125
2.9074999000000004,2.1326351165771484,-0.18914192914962769,9.992799758911133,21.97265625,17.578125,22.674560546875
2.9124999000000003,2.2804770469665527,0.37409400939941406,9.797672271728516,13.153076171875,9.063720703125,-6.7138671875
2.9174999,2.513911724090576,0.7870938181877136,9.50857162475586,3.0517578125,8.270263671875,-32.28759765625
2.9224999,2.7718870639801025,1.2144588232040405,8.947132110595703,-17.669677734375,24.10888671875,-64.483642578125
2.9274999000000004,2.5294740200042725,1.103128433227539,9.115324020385742,-23.74267578125,35.003662109375,-72.357177734375
2.9324999000000003,1.9093759059906006,0.9636662006378174,9.585186958312988,-15.411376953125,40.130615234375,-71.71630859375
2.9374999,0.8876502513885498,0.3214215636253357,10.062829971313477,-16.845703125,27.435302734375,-65.155029296875
2.9424999,-0.30945056676864624,-0.08200141042470932,10.321403503417969,-14.46533203125,10.8642578125,-62.8662109375
2.9474999,-1.580173134803772,-0.5817909836769104,10.314221382141113,-19.04296875,-7.32421875,-62.80517578125
2.9524999000000003,-2.6126725673675537,-1.1390414237976074,9.927556991577148,-25.634765625,-20.751953125,-45.83740234375
2.9574999,-3.3279404640197754,-1.1216834783554077,9.633668899536133,-16.6015625,-29.083251953125,7.843017578125
2.9624999,-0.8200140595436096,-1.3120225667953491,10.010157585144043,15.44189453125,-30.731201171875,57.891845703125
2.9674999,2.1751322746276855,-0.5692214369773865,10.016741752624512,24.7802734375,20.99609375,39.55078125
2.9724999000000003,2.182913303375244,0.0293289702385664,9.896432876586914,18.768310546875,13.336181640625,13.458251953125
2.9774999,2.2691047191619873,0.6266822814941406,9.707889556884766,8.941650390625,4.974365234375,-14.6484375
2.9824999,2.42472767829895,1.004966139793396,9.394847869873047,-0.79345703125,6.622314453125,-35.58349609375
2.9874999,2.564189910888672,1.2539631128311157,9.09257984161377,-9.674072265625,15.289306640625,-50.537109375
2.9924999000000003,2.5695769786834717,1.2725181579589844,8.96389102935791,-21.575927734375,24.10888671875,-63.812255859375
2.9974999,2.255936622619629,0.9259575009346008,9.23563289642334,-21.636962890625,35.888671875,-67.19970703125
3.0024999,1.5999252796173096,0.7631517648696899,9.708487510681152,-11.962890625,37.17041015625,-64.697265625
3.0074999,0.5159504413604736,-0.004189853090792894,10.181343078613281,-17.486572265625,22.247314453125,-57.647705078125
3.0124999000000003,-3.3907880783081055,-1.0109516382217407,9.67077922821045,-12.02392578125,-34.60693359375,26.85546875
3.0174999000000002,-3.2190041542053223,-1.2599486112594604,9.559449195861816,-14.58740234375,-50.048828125,43.365478515625
3.0224999,-2.4845829010009766,-1.4012064933776855,9.603741645812988,-4.058837890625,-50.811767578125,45.34912109375
3.0274999,-1.3239935636520386,-1.2767080068588257,9.790489196777344,13.458251953125,-37.7197265625,56.671142578125
3.0324999000000004,-0.06224924325942993,-1.5107412338256836,9.960477828979492,15.5029296875,-28.74755859375,62.652587890625
3.0374999000000003,0.8924387097358704,-1.4036006927490234,10.088567733764648,18.402099609375,-14.58740234375,62.164306640625
3.0424999,2.010530948638916,-0.3489548861980438,10.034099578857422,26.06201171875,20.5078125,38.26904296875
3.0474999,2.22660756111145,0.25677812099456787,9.880271911621094,17.2119140625,12.75634765625,7.8125
3.0524999000000004,2.5276784896850586,0.7015010714530945,9.59715747833252,5.18798828125,6.16455078125,-21.759033203125
3.0574999000000003,2.8365304470062256,1.0283095836639404,9.225458145141602,-3.5400390625,12.51220703125,-44.464111328125
3.0624999,2.9741971492767334,1.2246341705322266,8.902838706970215,-15.5029296875,21.66748046875,-62.80517578125
3.0674999,2.8413188457489014,1.235408067703247,8.953716278076172,-27.008056640625,30.94482421875,-75.958251953125
3.0724999000000004,2.3044190406799316,1.1953052282333374,9.398438453674316,-20.233154296875,41.80908203125,-77.63671875
3.0774999000000003,1.324592113494873,0.7912836670875549,10.015543937683105,-18.890380859375,35.736083984375,-71.10595703125
3.0824999,0.05386953800916672,0.11552023142576218,10.392032623291016,-16.326904296875,17.669677734375,-66.10107421875
3.0874999,-1.3120225667953491,-0.4058171808719635,10.456077575683594,-17.730712890625,-1.739501953125,-65.673828125
3.0924999,-2.5091233253479004,-1.4293384552001953,10.129867553710938,-22.3388671875,-18.646240234375,-58.013916015625
3.0974999000000003,-3.3680431842803955,-1.4233529567718506,9.588777542114258,-19.775390625,-28.25927734375,-9.185791015625
3.1024999,-3.6110546588897705,-1.7962498664855957,9.39784049987793,-7.293701171875,-43.51806640625,44.12841796875
3.1074999,-3.269881010055542,-1.6352397203445435,9.414599418640137,-11.65771484375,-54.5654296875,49.774169921875
3.1124999,1.7884687185287476,-1.2575544118881226,10.181343078613281,34.515380859375,20.6298828125,67.718505859375
3.1174999000000003,1.9728221893310547,-0.9816226959228516,10.232817649841309,29.84619140625,25.146484375,62.31689453125
3.1224999,2.604891538619995,1.027711033821106,9.425373077392578,0.91552734375,6.500244140625,-35.58349609375
3.1274999,2.7976245880126953,1.2880805730819702,9.05247688293457,-7.87353515625,14.617919921875,-55.023193359375
3.1324999,2.828150749206543,1.381454348564148,8.845976829528809,-24.7802734375,20.69091796875,-72.81494140625
3.1374999000000003,0.6542156338691711,0.16819266974925995,10.204686164855957,-19.500732421875,25.57373046875,-59.38720703125
3.1424999000000002,-0.6967126727104187,-0.1951274424791336,10.4728364944458,-13.5498046875,5.645751953125,-57.06787109375
3.1474999,-2.0404584407806396,-0.9397241473197937,10.3734769821167,-21.270751953125,-12.786865234375,-61.492919921875
3.1524999,-3.132812976837158,-1.2042834758758545,10.014347076416016,-27.252197265625,-24.749755859375,-31.3720703125
3.1574999000000004,-3.627215623855591,-1.3150153160095215,9.652822494506836,-10.467529296875,-36.773681640625,28.076171875
3.1624999000000003,-3.4799721240997314,-1.3736732006072998,9.623494148254395,-14.984130859375,-51.33056640625,44.403076171875
3.1674999,-3.4799721240997314,-1.3736732006072998,9.623494148254395,-14.984130859375,-51.33056640625,44.403076171875
3.1724999,-2.690484046936035,-1.338358759880066,9.638457298278809,-3.753662109375,-49.8046875,47.149658203125
3.1774999000000004,-1.460463047027588,-1.1306617259979248,9.832986831665039,12.14599609375,-40.191650390625,58.89892578125
3.1824999000000003,-0.09636662155389786,-1.367687702178955,9.956886291503906,17.08984375,-28.778076171875,65.85693359375
3.1874999,0.9247604012489319,-1.3640964031219482,10.08078670501709,21.30126953125,-10.31494140625,66.58935546875
3.1924999,1.9841946363449097,-0.9373299479484558,10.150816917419434,31.707763671875,26.06201171875,60.333251953125
3.1974999000000004,1.9841946363449097,-0.9373299479484558,10.150816917419434,31.707763671875,26.06201171875,60.333251953125
3.2024999000000003,2.338536500930786,0.2819172441959381,9.86351203918457,16.845703125,13.36669921875,4.669189453125
3.2074999,2.338536500930786,0.2819172441959381,9.86351203918457,16.845703125,13.36669921875,4.669189453125
3.2124999,2.6390087604522705,0.7972691655158997,9.567828178405762,5.0048828125,6.561279296875,-25.146484375
3.2174999,2.9065608978271484,1.1546037197113037,9.148244857788086,-4.08935546875,12.542724609375,-49.407958984375
3.2224999000000003,3.0154969692230225,1.381454348564148,8.833407402038574,-19.073486328125,18.61572265625,-70.80078125
3.2274999,2.850895643234253,1.3754688501358032,8.884882926940918,-31.6162109375,28.350830078125,-83.3740234375
3.2324999,2.2894554138183594,1.27191960811615,9.363722801208496,-21.148681640625,43.64013671875,-82.09228515625
3.2374999,1.2425906658172607,0.7433996200561523,10.046669006347656,-19.744873046875,35.94970703125,-70.526123046875
3.2424999000000003,-0.08858546614646912,0.021547814831137657,10.423755645751953,-15.31982421875,15.2587890625,-63.018798828125
3.2474999,-1.501164436340332,-0.5548562407493591,10.51054573059082,-17.608642578125,-4.8828125,-66.314697265625
3.2524999,-3.3081881999969482,-1.5879542827606201,9.48882007598877,-11.23046875,-53.5888671875,48.919677734375
3.2574999,-2.2619221210479736,-1.3533225059509277,9.674968719482422,5.706787109375,-45.135498046875,54.6875
3.2624999000000003,-0.8661024570465088,-1.3317747116088867,10.031704902648926,17.2119140625,-34.210205078125,61.46240234375
3.2674999000000002,0.4770447015762329,-1.3742717504501343,10.140641212463379,17.2119140625,-15.869140625,59.99755859375
3.2724999,1.4245500564575195,-1.326986312866211,10.271124839782715,28.6865234375,3.997802734375,64.3310546875
3.2774999,1.9823989868164062,-1.3305776119232178,10.178948402404785,33.538818359375,21.728515625,66.162109375
3.2824999000000004,2.1338322162628174,-1.0181342363357544,10.214262962341309,30.029296875,25.87890625,58.319091796875
3.2874999000000003,2.1787235736846924,-0.585382342338562,10.102334022521973,27.83203125,23.681640625,41.50390625
3.2924999,2.2170307636260986,0.11013327538967133,9.95748519897461,20.233154296875,15.106201171875,13.275146484375
3.2974999,2.3475148677825928,0.6967126727104187,9.68274974822998,9.09423828125,5.706787109375,-17.242431640625
3.3024999000000004,2.3062148094177246,1.1468225717544556,9.130288124084473,-27.923583984375,33.538818359375,-76.690673828125
3.3074999000000003,1.5855600833892822,0.9103952050209045,9.6618013381958,-13.85498046875,39.306640625,-70.465087890625
3.3124999,0.41958385705947876,0.03232172131538391,10.224438667297363,-19.378662109375,22.4609375,-57.708740234375
3.3174999,-0.8720879554748535,-0.28311434388160706,10.453682899475098,-14.068603515625,2.5634765625,-56.365966796875
3.3224999000000004,-2.1565771102905273,-1.0271124839782715,10.351330757141113,-21.148681640625,-14.007568359375,-58.2275390625
3.3274999000000003,-3.155557870864868,-1.2395979166030884,9.911396026611328,-26.18408203125,-25.634765625,-24.4140625
3.3324999,-3.552396774291992,-1.3210008144378662,9.616909980773926,-9.8876953125,-38.726806640625,32.40966796875
3.3374999,-3.361459255218506,-1.4460978507995605,9.57321548461914,-14.892578125,-51.788330078125,44.647216796875
3.3424999,-2.5264813899993896,-1.3060370683670044,9.660603523254395,-2.38037109375,-49.713134765625,48.065185546875
3.3474999000000003,-1.2814964056015015,-1.1815385818481445,9.86770248413086,12.481689453125,-38.055419921875,58.685302734375
3.3524999,1.0779893398284912,-1.3317747116088867,10.126276016235352,22.491455078125,-8.11767578125,64.27001953125
3.3574999,1.73519766330719,-1.4520833492279053,10.096348762512207,35.186767578125,16.510009765625,69.7021484375
3.3624999,1.9393033981323242,-1.291671872138977,10.142436981201172,32.28759765625,26.2451171875,67.93212890625
3.3674999000000003,2.011129379272461,-0.8942343592643738,10.152612686157227,30.975341796875,25.299072265625,56.427001953125
3.3724999,2.1098902225494385,-0.26994624733924866,10.062829971313477,25.848388671875,20.99609375,32.77587890625
3.3774999,2.30022931098938,0.353743314743042,9.862914085388184,15.228271484375,11.77978515625,1.64794921875
3.3824999,2.5911247730255127,0.862511157989502,9.545681953430176,4.2724609375,7.293701171875,-26.885986328125
3.3874999000000003,2.829347848892212,1.1725603342056274,9.159018516540527,-4.058837890625,14.0380859375,-49.37744140625
3.3924999000000002,2.9233202934265137,1.3652935028076172,8.859743118286133,-18.798828125,19.287109375,-68.9697265625
3.3974999,2.738368272781372,1.3084312677383423,8.950124740600586,-29.815673828125,29.1748046875,-80.322265625
3.4024999,2.1733365058898926,1.2042834758758545,9.391256332397461,-18.4326171875,43.0908203125,-79.925537109375
3.4074999000000004,1.1701661348342896,0.7080851793289185,10.056844711303711,-19.683837890625,34.088134765625,-70.4345703125
3.4124999000000003,-0.12689268589019775,-0.002394201699644327,10.394426345825195,-16.998291015625,13.702392578125,-61.614990234375
3.4174999,-1.4826093912124634,-0.5494692921638489,10.45966911315918,-17.08984375,-4.913330078125,-65.277099609375
3.4224999,-2.695871114730835,-1.4826093912124634,10.110713958740234,-21.270751953125,-20.5078125,-53.40576171875
3.4274999000000004,-3.5296518802642822,-1.4245500564575195,9.604938507080078,-17.63916015625,-31.036376953125,1.129150390625
3.4324999000000003,-3.7235822677612305,-1.6867151260375977,9.44991397857666,-8.880615234375,-46.051025390625,46.722412109375
3.4374999,-3.3207578659057617,-1.502361536026001,9.516353607177734,-11.5966796875,-54.3212890625,49.6826171875
3.4424999,-2.296039342880249,-1.2761094570159912,9.675567626953125,5.218505859375,-45.8984375,54.351806640625
3.4474999000000004,-0.9115923047065735,-1.3084312677383423,10.005967140197754,17.547607421875,-33.660888671875,61.21826171875
3.4524999000000003,0.4118026793003082,-1.3623007535934448,10.126276016235352,17.27294921875,-15.56396484375,60.089111328125
3.4574999,1.3832499980926514,-1.3425486087799072,10.234015464782715,28.472900390625,3.570556640625,64.697265625
3.4624999,1.964442491531372,-1.324592113494873,10.1568021774292,32.379150390625,20.93505859375,66.0400390625
3.4674999,2.1523873805999756,-0.9906009435653687,10.185532569885254,29.388427734375,25.20751953125,58.502197265625
3.4724999000000003,2.2206220626831055,-0.5309142470359802,10.070012092590332,26.885986328125,23.4375,41.8701171875
3.4774999,2.4013843536376953,0.7242460250854492,9.66419506072998,7.843017578125,5.462646484375,-16.937255859375
3.4824999,2.5707740783691406,1.138442873954773,9.34157657623291,-0.8544921875,8.209228515625,-38.360595703125
3.4874999,2.671330451965332,1.3922282457351685,9.039308547973633,-9.94873046875,14.892578125,-56.915283203125
3.4924999000000003,2.6408045291900635,1.4053963422775269,8.899846076965332,-25.69580078125,20.32470703125,-72.418212890625
3.4974999,2.2834699153900146,1.1109095811843872,9.227851867675781,-24.96337890625,35.736083984375,-75.1953125
3.5024999,1.577778935432434,0.8774749040603638,9.71926212310791,-13.671875,39.794921875,-70.892333984375
3.5074999,0.4429273009300232,0.033518824726343155,10.24119758605957,-19.866943359375,21.8505859375,-59.08203125
3.5124999000000003,-0.8265981078147888,-0.25917232036590576,10.41956615447998,-14.495849609375,2.685546875,-58.2275390625
3.5174999000000002,-2.10210919380188,-0.9756371974945068,10.321403503417969,-21.514892578125,-13.427734375,-58.16650390625
3.5224999,-3.5212721824645996,-1.326986312866211,9.586981773376465,-10.955810546875,-38.238525390625,33.75244140625
3.5274999,0.9911994934082031,-1.3611036539077759,10.119691848754883,22.8271484375,-6.439208984375,65.460205078125
3.5324999000000004,1.6514005661010742,-1.4000093936920166,10.114903450012207,34.423828125,15.68603515625,69.793701171875
3.5374999000000003,1.9117701053619385,-1.1953052282333374,10.17296314239502,32.16552734375,25.665283203125,66.680908203125
3.5424999,2.0673930644989014,-0.7858967185020447,10.146626472473145,30.853271484375,25.81787109375,54.6875
3.5474999,2.211045265197754,-0.19153612852096558,10.056245803833008,25.20751953125,21.209716796875,30.029296875
3.5524999000000004,2.427121877670288,0.4129997789859772,9.82879638671875,14.09912109375,11.23046875,-1.0986328125
3.5574999000000003,2.6827030181884766,0.8846575021743774,9.482834815979004,3.11279296875,7.75146484375,-30.303955078125
3.5624999,2.853888511657715,1.1959037780761719,9.130288124084473,-5.79833984375,14.16015625,-51.81884765625
3.5674999,2.892794132232666,1.3640964031219482,8.87291145324707,-19.4091796875,19.6533203125,-70.49560546875
3.5724999000000004,-2.785653591156006,-1.2814964056015015,9.967061996459961,-25.054931640625,-21.881103515625,-51.025390625
3.5774999000000003,-3.5649664402008057,-1.3964180946350098,9.539097785949707,-16.9677734375,-33.660888671875,8.819580078125
3.5824999,-3.693056106567383,-1.7016788721084595,9.343372344970703,-9.857177734375,-49.774169921875,49.4384765625
3.5874999,-3.1908724308013916,-1.7411831617355347,9.437344551086426,-7.62939453125,-55.7861328125,54.290771484375
3.5924999,-2.0901381969451904,-1.502361536026001,9.654019355773926,10.6201171875,-45.257568359375,60.272216796875
3.5974999000000003,-0.6967126727104187,-1.547252893447876,9.967659950256348,17.791748046875,-32.71484375,64.544677734375
3.6024999,0.5578489899635315,-1.4191631078720093,10.129268646240234,18.524169921875,-13.73291015625,64.39208984375
3.6074999,1.4221558570861816,-1.3706804513931274,10.254365921020508,31.646728515625,5.859375,69.76318359375
3.6124999,2.7102363109588623,1.1797429323196411,9.2841157913208,-1.3427734375,6.9580078125,-43.426513671875
3.6174999000000003,2.8574798107147217,1.4676456451416016,8.866926193237305,-14.46533203125,12.481689453125,-65.0634765625
3.6224999,2.828150749206543,1.5101426839828491,8.695740699768066,-32.928466796875,20.8740234375,-81.146240234375
3.6274999,2.4576480388641357,1.4203602075576782,9.065046310424805,-28.1982421875,40.71044921875,-85.02197265625
3.6324999,1.6065093278884888,1.0450690984725952,9.831191062927246,-22.308349609375,43.975830078125,-74.8291015625
3.6374999000000003,0.3663128614425659,0.34596213698387146,10.35372543334961,-16.9677734375,21.97265625,-58.59375
3.6424999000000002,-1.0732009410858154,-0.1604115068912506,10.684723854064941,-18.341064453125,1.861572265625,-64.971923828125
3.6474999,-2.4648306369781494,-1.291671872138977,10.431536674499512,-24.59716796875,-15.655517578125,-60.882568359375
3.6524999,1.581370234489441,-1.4245500564575195,10.213066101074219,37.811279296875,19.927978515625,78.2470703125
3.6574999000000004,1.701080322265625,-1.0857704877853394,10.322600364685059,35.64453125,28.045654296875,72.265625
3.6624999000000003,1.8303672075271606,-0.6446388363838196,10.314221382141113,34.454345703125,25.604248046875,59.5703125
3.6674999,2.078765630722046,-0.01735796220600605,10.181941032409668,28.228759765625,20.01953125,33.599853515625
3.6724999,2.45285964012146,0.5303156971931458,9.889249801635742,16.9677734375,11.566162109375,0.274658203125
3.6774999000000004,2.8371291160583496,1.0229226350784302,9.476250648498535,4.57763671875,7.171630859375,-32.928466796875
3.6824999000000003,-3.1938650608062744,-1.653794765472412,10.02691650390625,-24.810791015625,-25.08544921875,-51.422119140625
3.6874999,-3.9163153171539307,-1.7298107147216797,9.36013126373291,-11.41357421875,-36.865234375,14.16015625
3.6924999,-3.9163153171539307,-2.141014814376831,9.135675430297852,-9.82666015625,-54.840087890625,53.680419921875
3.6974999000000004,-3.9163153171539307,-2.141014814376831,9.135675430297852,-9.82666015625,-54.840087890625,53.680419921875
3.7024999000000003,-3.251924514770508,-2.0386626720428467,9.196727752685547,-5.4931640625,-57.6171875,58.53271484375
3.7074999,-2.02848744392395,-1.723825216293335,9.564237594604492,14.22119140625,-43.670654296875,63.568115234375
3.7124999,0.6757634282112122,-1.3682862520217896,10.22383975982666,20.294189453125,-11.627197265625,70.61767578125
3.7174999,0.6757634282112122,-1.3682862520217896,10.22383975982666,20.294189453125,-11.627197265625,70.61767578125
3.7224999000000003,1.488594889640808,-1.238999366760254,10.41956615447998,32.53173828125,7.354736328125,73.944091796875
3.7274999,1.941697597503662,-1.1605892181396484,10.319009780883789,36.651611328125,25.20751953125,72.662353515625
3.7324999,2.05123233795166,-0.7978677153587341,10.375272750854492,34.423828125,29.022216796875,63.29345703125
3.7374999,2.120664119720459,-0.3908534348011017,10.245985984802246,32.04345703125,23.468017578125,45.257568359375
3.7424999000000003,2.2397756576538086,0.21667525172233582,10.061034202575684,24.71923828125,14.617919921875,16.326904296875
3.7474999,2.4211363792419434,0.7535749673843384,9.726444244384766,12.939453125,3.875732421875,-16.9677734375
3.7524999,2.652176856994629,1.202487826347351,9.262567520141602,-0.091552734375,2.99072265625,-46.0205078125
3.7574999,2.846705913543701,1.5316904783248901,8.747814178466797,-16.815185546875,8.30078125,-69.549560546875
3.7624999000000003,2.720411777496338,1.777694821357727,8.759785652160645,-39.12353515625,40.83251953125,-98.2666015625
3.7674999000000002,2.720411777496338,1.777694821357727,8.759785652160645,-39.12353515625,40.83251953125,-98.2666015625
3.7724999,1.900996208190918,1.2575544118881226,9.745597839355469,-33.294677734375,50.84228515625,-84.381103515625
3.7774999,-0.8661024570465088,0.10654197633266449,11.043853759765625,-22.979736328125,7.8125,-71.044921875
3.7824999000000004,-0.8661024570465088,0.10654197633266449,11.043853759765625,-22.979736328125,7.8125,-71.044921875
3.7874999000000003,-2.3487119674682617,-1.1540051698684692,10.848726272583008,-31.25,-11.04736328125,-75.408935546875
3.7924999,-3.3746273517608643,-1.4903905391693115,10.020931243896484,-33.538818359375,-28.13720703125,-28.564453125
3.7974999,-3.8349125385284424,-2.318784236907959,9.370306968688965,-7.659912109375,-44.3115234375,40.95458984375
3.8024999000000004,-3.576338768005371,-2.474407434463501,9.026140213012695,-9.735107421875,-60.85205078125,58.65478515625
3.8074999000000003,-2.7299885749816895,-2.2589292526245117,9.010578155517578,7.50732421875,-57.708740234375,64.727783203125
3.8124999,-1.4664485454559326,-1.9446903467178345,9.396044731140137,25.604248046875,-42.54150390625,72.174072265625
3.8174999,-0.1496376097202301,-1.5873557329177856,9.867103576660156,27.252197265625,-26.947021484375,78.765869140625
3.8224999000000004,0.8271966576576233,-1.2617442607879639,10.222043991088867,25.604248046875,-7.6904296875,83.19091796875
3.8274999000000003,1.40180504322052,-1.0450690984725952,10.506355285644531,38.360595703125,14.617919921875,86.639404296875
3.8324999,1.6508020162582397,-0.9229647517204285,10.54406452178955,43.8232421875,31.524658203125,85.02197265625
3.8374999,3.1100680828094482,1.0678139925003052,8.78073501586914,-4.547119140625,-1.03759765625,-78.460693359375
3.8424999,3.0992941856384277,2.8634653091430664,7.970297336578369,-84.686279296875,44.219970703125,-146.30126953125
3.8474999000000003,3.0992941856384277,2.8634653091430664,7.970297336578369,-84.686279296875,44.219970703125,-146.30126953125
3.8524999,2.1110873222351074,2.3977930545806885,9.55466079711914,-49.01123046875,76.324462890625,-124.51171875
3.8574999,0.5889736413955688,1.7130513191223145,11.023503303527832,-15.533447265625,46.2646484375,-84.9609375
3.8624999,-1.1976994276046753,-0.30047231912612915,12.163143157958984,-45.013427734375,11.505126953125,-74.920654296875
3.8674999000000003,-2.890998601913452,-1.6645687818527222,11.692682266235352,-65.12451171875,-10.009765625,-59.38720703125
3.8724999,-3.6158430576324463,-3.2854433059692383,7.370550155639648,43.212890625,-67.56591796875,78.643798828125
3.8774999,-2.403778553009033,-2.382829189300537,8.543109893798828,56.33544921875,-48.2177734375,88.775634765625
3.8824999,-0.8954314589500427,-1.591545581817627,9.66539192199707,29.4189453125,-18.310546875,90.606689453125
3.8874999000000003,0.4554968774318695,-0.9151836037635803,10.90798282623291,20.721435546875,-5.18798828125,91.094970703125
3.8924999000000002,1.6047136783599854,-0.4578910768032074,11.454459190368652,40.252685546875,6.7138671875,90.39306640625
3.8974999,2.3540987968444824,-0.20231004059314728,11.39520263671875,40.802001953125,29.388427734375,81.787109375
3.9024999,2.697068214416504,0.018555063754320145,11.085752487182617,39.337158203125,29.6630859375,70.4345703125
3.9074999000000004,2.8107926845550537,0.21308395266532898,10.582969665527344,34.271240234375,21.514892578125,45.135498046875
3.9124999000000003,2.7485435009002686,0.5123591423034668,10.092757225036621,26.55029296875,10.711669921875,13.824462890625
3.9174999,2.6443958282470703,0.8583213090896606,9.567230224609375,14.251708984375,-0.457763671875,-15.80810546875
3.9224999,2.5965118408203125,1.7256208658218384,8.110358238220215,-37.811279296875,8.697509765625,-80.50537109375
3.9274999000000004,2.607285737991333,1.9075802564620972,8.129511833190918,-55.35888671875,22.430419921875,-98.175048828125
3.9324999000000003,2.3576900959014893,1.6382324695587158,8.99860668182373,-52.001953125,49.86572265625,-98.876953125
3.9374999,1.5921441316604614,1.0875661373138428,10.346542358398438,-20.477294921875,61.6455078125,-76.171875
3.9424999,0.42856210470199585,0.1107318252325058,11.265915870666504,-10.467529296875,34.7900390625,-66.10107421875
3.9474999000000004,-0.9403226971626282,-0.43095630407333374,11.756129264831543,-26.275634765625,12.5732421875,-79.315185546875
3.9524999000000003,-2.24935245513916,-1.6089035272598267,11.014524459838867,-35.614013671875,-5.43212890625,-69.88525390625
3.9574999,-3.2555158138275146,-1.7920600175857544,9.908403396606445,-43.304443359375,-27.923583984375,-18.00537109375
3.9624999,-3.7708675861358643,-2.448071241378784,8.913613319396973,7.598876953125,-44.7998046875,45.989990234375
3.9674999000000004,-3.756502389907837,-2.7437551021575928,8.478466987609863,-5.18798828125,-59.6923828125,51.6357421875
3.9724999000000003,-3.0992941856384277,-2.47560453414917,8.582015991210938,5.462646484375,-69.580078125,54.443359375
3.9774999,0.8547300100326538,-1.1905168294906616,10.383652687072754,20.6298828125,-18.585205078125,77.94189453125
3.9824999,1.7160440683364868,-0.8044517636299133,10.685321807861328,31.73828125,6.256103515625,78.155517578125
3.9874999,2.115875720977783,-0.4944026470184326,10.664971351623535,38.421630859375,28.38134765625,74.03564453125
3.9924999000000003,2.138620615005493,-0.26755204796791077,10.552444458007812,32.89794921875,26.85546875,65.277099609375
3.9974999,2.073378562927246,-0.016160860657691956,10.42195987701416,32.1044921875,20.050048828125,48.4619140625
4.0024999,2.0254945755004883,0.1909375786781311,10.222043991088867,30.914306640625,15.533447265625,25.0244140625
4.0074999,2.0829553604125977,0.3711012601852417,9.962273597717285,22.003173828125,6.500244140625,-0.762939453125
4.0124999,2.212841033935547,0.6051344871520996,9.57860279083252,11.23046875,1.953125,-25.604248046875
4.0174999,2.389413356781006,0.7805097699165344,9.09257984161377,-0.762939453125,6.561279296875,-46.20361328125
4.022499900000001,2.565387010574341,1.0582371950149536,8.670002937316895,-15.869140625,11.627197265625,-66.497802734375
4.0274999000000005,2.7126305103302,1.390432596206665,8.362946510314941,-36.19384765625,17.63916015625,-88.37890625
4.0324999,2.3098061084747314,1.304241418838501,9.445125579833984,-39.886474609375,55.206298828125,-96.435546875
4.0374999,1.3305776119232178,0.718859076499939,10.470442771911621,-15.472412109375,51.971435546875,-73.760986328125
4.0424999,0.13347674906253815,0.08080431073904037,11.161767959594727,-16.90673828125,25.543212890625,-79.620361328125
4.0474999,-1.2671312093734741,-0.7374141216278076,11.21204662322998,-25.726318359375,3.448486328125,-80.902099609375
4.0524999,-2.5240871906280518,-1.4359225034713745,10.568604469299316,-50.1708984375,-12.786865234375,-60.150146484375
4.0574999,-3.4751837253570557,-1.5340847969055176,9.424775123596191,-29.84619140625,-39.24560546875,10.1318359375
4.062499900000001,-4.003703594207764,-2.299630641937256,8.792705535888672,14.83154296875,-47.91259765625,53.16162109375
4.0674999000000005,-4.006097793579102,-2.049436569213867,8.541314125061035,-3.5400390625,-59.5703125,46.630859375
4.0724999,-3.292625904083252,-1.9434932470321655,8.786121368408203,15.80810546875,-61.676025390625,50.872802734375
4.0774999,-2.0422539710998535,-1.5119383335113525,9.478046417236328,27.40478515625,-41.778564453125,66.10107421875
4.0824999,2.6354174613952637,1.3886369466781616,8.996811866760254,-42.8466796875,41.961669921875,-94.8486328125
4.0874999,2.0165164470672607,1.2431892156600952,10.04307746887207,-28.289794921875,58.197021484375,-82.427978515625
4.0924999,0.9576807022094727,0.38127660751342773,10.758943557739258,-13.885498046875,42.510986328125,-75.1953125
4.0974999,-0.38067805767059326,0.04668693244457245,11.25095272064209,-19.287109375,16.387939453125,-80.50537109375
4.1024999,-1.8100165128707886,-1.3628993034362793,10.796652793884277,-30.303955078125,-2.50244140625,-75.286865234375
4.1074999000000005,-2.9436709880828857,-1.766920804977417,9.916783332824707,-47.607421875,-20.32470703125,-43.243408203125
4.1124999,-3.7906198501586914,-2.3469161987304688,8.983643531799316,-8.36181640625,-46.32568359375,32.989501953125
4.1174999,-3.9713821411132812,-2.7299885749816895,8.628703117370605,13.00048828125,-53.497314453125,53.497314453125
4.1224999,-3.5895068645477295,-2.2403743267059326,8.762179374694824,-6.927490234375,-64.178466796875,42.022705078125
4.1274999,-2.4827871322631836,-1.9698294401168823,9.278130531311035,19.012451171875,-54.50439453125,50.567626953125
4.1324999,-1.0091559886932373,-1.4472949504852295,9.979032516479492,27.069091796875,-35.552978515625,67.87109375
4.1374999,0.42377370595932007,-1.1593921184539795,10.41956615447998,21.453857421875,-24.322509765625,80.13916015625
4.1424999,1.467047095298767,-0.9415197968482971,10.633248329162598,31.25,-1.678466796875,85.693359375
4.147499900000001,2.0254945755004883,-0.7972691655158997,10.56261920928955,39.825439453125,26.031494140625,82.916259765625
4.1524999000000005,2.1086931228637695,-0.545877993106842,10.494982719421387,35.0341796875,29.96826171875,73.3642578125
4.1574999,2.056020736694336,0.5817909836769104,9.747992515563965,15.350341796875,1.220703125,-9.368896484375
4.1624999,2.785055160522461,1.146224021911621,8.411429405212402,-28.564453125,12.908935546875,-76.84326171875
4.1674999,2.9065608978271484,1.4347254037857056,8.365341186523438,-43.88427734375,22.4609375,-95.611572265625
4.1724999,2.689286947250366,1.4317326545715332,8.865729331970215,-46.875,44.830322265625,-98.663330078125
4.1774999,1.813009262084961,0.9068039059638977,9.95209789276123,-26.519775390625,56.610107421875,-79.681396484375
4.1824999,0.6404489278793335,0.383670836687088,10.734403610229492,-11.505126953125,32.745361328125,-75.897216796875
4.187499900000001,-0.9199720025062561,-0.29807811975479126,11.298237800598145,-17.578125,6.8359375,-75.225830078125
4.1924999000000005,-2.32297420501709,-1.1875240802764893,10.811615943908691,-37.17041015625,-7.537841796875,-65.338134765625
4.1974999,-3.4823663234710693,-1.6382324695587158,9.017162322998047,-5.401611328125,-64.361572265625,39.764404296875
4.2024999,-2.1314380168914795,-1.3634978532791138,9.622895240783691,17.578125,-45.623779296875,55.816650390625
4.2074999,-0.5374982953071594,-0.950498104095459,10.267534255981445,21.026611328125,-29.388427734375,73.516845703125
4.2124999,0.8170213103294373,-0.7954735159873962,10.503362655639648,20.599365234375,-13.519287109375,85.14404296875
4.2174999,1.7435773611068726,-0.7918822169303894,10.509946823120117,34.1796875,11.077880859375,85.3271484375
4.2224999,2.141613483428955,-0.760757565498352,10.347740173339844,38.26904296875,28.839111328125,83.19091796875
4.2274999,2.1757307052612305,-0.6141127347946167,10.259753227233887,32.40966796875,24.993896484375,71.746826171875
4.2324999000000005,2.0596120357513428,-0.35494041442871094,10.214861869812012,32.1044921875,19.59228515625,55.11474609375
4.2374999,1.9494787454605103,-0.04249707981944084,10.108918190002441,30.426025390625,14.129638671875,37.2314453125
4.2424999,1.9422961473464966,0.2148796021938324,9.953893661499023,23.8037109375,5.889892578125,14.404296875
4.2474999,2.699462413787842,1.734000563621521,9.060257911682129,-49.13330078125,50.628662109375,-102.142333984375
4.2524999,1.7609353065490723,1.2018892765045166,10.266336441040039,-24.90234375,56.2744140625,-87.2802734375
4.2574999,0.41778820753097534,0.5548562407493591,11.116876602172852,-12.8173828125,28.9306640625,-70.281982421875
4.2624999,-1.1749545335769653,-0.2849099934101105,11.54005241394043,-26.519775390625,8.4228515625,-75.225830078125
4.2674999,-2.627636432647705,-1.4514847993850708,10.608109474182129,-38.726806640625,-9.368896484375,-68.7255859375
4.272499900000001,-3.7223851680755615,-1.7693150043487549,9.48882007598877,-27.740478515625,-37.139892578125,1.739501953125
4.2774999000000005,-4.243124008178711,-2.3798365592956543,8.527547836303711,24.2919921875,-48.309326171875,54.046630859375
4.2824999,2.2487540245056152,-0.6811503767967224,10.497377395629883,37.811279296875,32.012939453125,79.254150390625
4.2874999,2.190694570541382,-0.4902127981185913,10.378265380859375,31.890869140625,23.681640625,63.3544921875
4.2924999,2.02848744392395,-0.18375498056411743,10.236409187316895,31.524658203125,17.76123046875,46.142578125
4.2974999,1.8926163911819458,0.1628057211637497,10.032303810119629,27.7099609375,11.932373046875,26.67236328125
4.3024999,1.898003339767456,0.4315548539161682,9.804854393005371,18.6767578125,2.13623046875,1.64794921875
4.3074999,2.051830768585205,0.6913257241249084,9.457695007324219,8.48388671875,-2.3193359375,-24.59716796875
4.312499900000001,2.316390037536621,0.8678981065750122,9.033921241760254,-3.23486328125,3.387451171875,-45.7763671875
4.3174999000000005,1.290474772453308,0.4794389009475708,10.295066833496094,-17.059326171875,43.487548828125,-75.8056640625
4.3224999,-0.09935937076807022,0.02274491637945175,11.016919136047363,-9.6435546875,16.845703125,-65.12451171875
4.3274999,-1.6777368783950806,-0.7984662652015686,11.192294120788574,-24.993896484375,-2.960205078125,-69.27490234375
4.3324999,-3.043030261993408,-1.6615760326385498,10.366294860839844,-40.95458984375,-16.815185546875,-49.102783203125
4.3374999,-3.9863457679748535,-1.4814122915267944,9.517550468444824,-19.073486328125,-42.1142578125,21.484375
4.3424999,-4.288015365600586,-2.1493945121765137,8.972869873046875,25.45166015625,-47.607421875,51.849365234375
4.3474999,-3.9031472206115723,-1.6801310777664185,9.033921241760254,-8.636474609375,-57.67822265625,35.919189453125
4.352499900000001,-2.7317841053009033,-1.3210008144378662,9.527725219726562,-0.1220703125,-54.19921875,42.266845703125
4.3574999000000005,-1.2000936269760132,-0.8852560520172119,10.130465507507324,15.5029296875,-33.935546875,63.04931640625
4.3624999,2.1098902225494385,-0.838569164276123,10.252570152282715,34.454345703125,26.91650390625,76.11083984375
4.3674999,1.9937714338302612,-0.5949591398239136,10.197504043579102,30.45654296875,19.866943359375,62.103271484375
4.3724999,1.8567034006118774,-0.2735375463962555,10.135852813720703,29.937744140625,15.594482421875,47.119140625
4.3774999,1.8046295642852783,0.04249707981944084,9.96945571899414,26.031494140625,9.82666015625,27.557373046875
4.3824999,1.8974047899246216,0.29807811975479126,9.761758804321289,17.76123046875,1.312255859375,2.0751953125
4.3874999,2.1320366859436035,0.5524620413780212,9.390657424926758,6.866455078125,-1.068115234375,-23.92578125
4.3924999,2.4366986751556396,0.7499836683273315,8.983643531799316,-5.828857421875,3.997802734375,-46.051025390625
4.397499900000001,2.743156671524048,0.9941922426223755,8.579023361206055,-21.026611328125,10.31494140625,-65.765380859375
4.4024999000000005,2.9233202934265137,1.2737152576446533,8.346785545349121,-38.421630859375,18.06640625,-85.235595703125
4.4074999,2.8347349166870117,1.4772224426269531,8.595184326171875,-48.065185546875,32.318115234375,-96.49658203125
4.4124999,2.24935245513916,1.2018892765045166,9.530119895935059,-36.224365234375,48.797607421875,-91.24755859375
4.4174999,1.1019313335418701,0.5003881454467773,10.490194320678711,-13.97705078125,41.07666015625,-72.845458984375
4.4224999,-0.34835633635520935,-0.053270988166332245,11.120468139648438,-14.22119140625,15.2587890625,-65.61279296875
4.4274999,-1.9015947580337524,-1.3413515090942383,10.933720588684082,-28.167724609375,-4.638671875,-71.10595703125
4.4324999,-3.200449228286743,-1.7417817115783691,10.038289070129395,-37.17041015625,-21.78955078125,-39.36767578125
4.437499900000001,-4.001908302307129,-2.072181463241577,9.228450775146484,0.54931640625,-41.259765625,30.792236328125
4.4424999000000005,-4.128800868988037,-2.298433542251587,8.926182746887207,18.37158203125,-43.853759765625,44.525146484375
4.4474999,-3.6068649291992188,-1.6023194789886475,9.279327392578125,-13.0615234375,-61.46240234375,37.628173828125
4.4524999,-2.410362482070923,-1.1737574338912964,9.855731010437012,8.48388671875,-48.2177734375,50.384521484375
4.4574999,-0.9002198576927185,-0.667982280254364,10.344148635864258,17.547607421875,-27.77099609375,66.650390625
4.4624999,0.5081692934036255,-0.5512649416923523,10.541669845581055,15.80810546875,-17.669677734375,77.0263671875
4.4674999,1.5047557353973389,-0.6967126727104187,10.532691955566406,29.998779296875,3.265380859375,78.704833984375
4.4724999,2.0003554821014404,-0.6434416770935059,10.18912410736084,31.158447265625,19.195556640625,55.6640625
4.477499900000001,1.8327614068984985,-0.2621650993824005,10.055646896362305,29.876708984375,14.34326171875,39.00146484375
4.4824999000000005,1.7531541585922241,0.15801730751991272,9.931747436523438,23.223876953125,6.04248046875,16.693115234375
4.4874999,1.8465280532836914,0.547075092792511,9.652822494506836,14.617919921875,-1.617431640625,-7.232666015625
4.4924999,2.102707624435425,0.8146271109580994,9.281123161315918,3.387451171875,-0.946044921875,-30.670166015625
4.4974999,2.448669672012329,0.9888052940368652,8.868123054504395,-9.674072265625,5.218505859375,-50.750732421875
4.5024999,2.779069662094116,1.1665748357772827,8.490437507629395,-26.275634765625,12.054443359375,-71.319580078125
4.5074999,2.9777884483337402,1.3227964639663696,8.361749649047852,-42.29736328125,21.209716796875,-89.78271484375
4.5124999,2.8125884532928467,1.3946224451065063,8.808866500854492,-46.81396484375,37.078857421875,-95.733642578125
4.5174999,2.0596120357513428,0.7433996200561523,9.806051254272461,-28.25927734375,49.4384765625,-84.04541015625
4.522499900000001,0.790086567401886,0.3256114423274994,10.631452560424805,-7.9345703125,33.14208984375,-65.887451171875
4.5274999000000005,0.9552865028381348,-0.6494272351264954,10.358513832092285,18.402099609375,-9.918212890625,76.7822265625
4.5324999,1.8076223134994507,-0.8254010081291199,10.332776069641113,31.463623046875,11.5966796875,79.52880859375
4.5374999,2.184110403060913,-0.9690531492233276,10.210073471069336,37.353515625,29.11376953125,78.30810546875
4.5424999,2.146401882171631,-0.9253589510917664,10.153809547424316,31.06689453125,24.658203125,67.9931640625
4.5474999,1.9788076877593994,-0.628477931022644,10.135852813720703,29.266357421875,17.608642578125,53.22265625
4.5524999,1.8375498056411743,0.13407529890537262,9.846753120422363,19.989013671875,5.67626953125,11.1083984375
4.5574999,2.014122247695923,0.4884171485900879,9.548076629638672,9.735107421875,0.18310546875,-13.97705078125
4.562499900000001,2.8826189041137695,1.2210428714752197,8.593388557434082,-40.313720703125,26.702880859375,-88.653564453125
4.5674999000000005,2.4420857429504395,1.1480196714401245,9.269750595092773,-36.2548828125,40.679931640625,-87.310791015625
4.5724999,1.499967336654663,0.4495113790035248,10.163984298706055,-16.204833984375,42.05322265625,-78.216552734375
4.5774999,0.17238251864910126,-0.013766659423708916,10.76852035522461,-11.505126953125,20.904541015625,-70.037841796875
4.5824999,-1.3311761617660522,-0.6105214357376099,10.981005668640137,-19.989013671875,-2.50244140625,-66.58935546875
4.5874999,-2.676717519760132,-1.499967336654663,10.231620788574219,-30.94482421875,-16.632080078125,-53.77197265625
4.5924999,-3.7642836570739746,-1.4287399053573608,9.627683639526367,-17.7001953125,-32.196044921875,6.500244140625
4.5974999,0.13527239859104156,-0.5997475385665894,10.339360237121582,9.94873046875,-22.27783203125,68.267822265625
4.602499900000001,1.2647370100021362,-0.8110358119010925,10.405200958251953,23.345947265625,-6.500244140625,69.732666015625
4.6074999000000005,1.978209137916565,-1.1013327836990356,10.19032096862793,35.797119140625,20.32470703125,71.533203125
4.6124999,2.1751322746276855,-1.212663173675537,10.104129791259766,30.303955078125,26.580810546875,66.83349609375
4.6174999,2.05123233795166,-0.8667010068893433,10.073004722595215,26.092529296875,18.341064453125,55.5419921875
4.6224999,1.8567034006118774,-0.4034229815006256,9.977835655212402,25.08544921875,14.09912109375,38.360595703125
4.6274999,1.7393875122070312,0.10773907601833344,9.875483512878418,19.8974609375,6.9580078125,18.096923828125
4.6324999,1.766920804977417,0.5351040959358215,9.666589736938477,11.749267578125,0.06103515625,-4.0283203125
4.6374999,2.0045454502105713,0.8074445128440857,9.363123893737793,1.190185546875,0.518798828125,-25.604248046875
4.6424999,2.52109432220459,1.0145429372787476,9.248202323913574,-30.1513671875,37.322998046875,-78.79638671875
4.647499900000001,1.8261773586273193,0.50876784324646,9.95209789276123,-16.448974609375,40.71044921875,-75.3173828125
4.6524999000000005,0.6254851818084717,0.04908113554120064,10.556035041809082,-11.8408203125,24.7802734375,-68.817138671875
4.6574999,-0.7523778676986694,-0.3974374830722809,10.770915031433105,-17.181396484375,3.509521484375,-66.40625
4.6624999,-2.1086931228637695,-1.4484920501708984,10.421361923217773,-28.25927734375,-12.237548828125,-61.95068359375
4.6674999,-3.2854433059692383,-1.489791989326477,9.762357711791992,-32.28759765625,-25.848388671875,-17.181396484375
4.6724999,-3.91092848777771,-1.899200439453125,9.412803649902344,11.23046875,-40.191650390625,41.046142578125
4.6774999,-3.8127663135528564,-1.723825216293335,9.23563289642334,-1.312255859375,-48.797607421875,35.125732421875
4.6824999,-3.069965124130249,-1.1276689767837524,9.593565940856934,-12.0849609375,-53.924560546875,34.759521484375
4.687499900000001,-1.6867151260375977,-0.801459014415741,9.936535835266113,12.298583984375,-37.2314453125,53.985595703125
4.6924999000000005,2.013523578643799,-1.1336544752120972,10.141240119934082,34.881591796875,29.449462890625,75.531005859375
4.6974999,1.9740192890167236,-0.9193734526634216,10.11789608001709,28.1982421875,21.728515625,64.605712890625
4.7024999,1.8680758476257324,-0.5015852451324463,10.129867553710938,28.9306640625,17.791748046875,48.919677734375
4.7074999,1.8405425548553467,-0.08798690885305405,9.997588157653809,26.06201171875,14.34326171875,28.38134765625
4.7124999,1.9446903467178345,0.3034650683403015,9.857526779174805,18.463134765625,6.16455078125,4.119873046875
4.7174999,2.205059766769409,0.646434485912323,9.516353607177734,7.8125,2.62451171875,-21.026611328125
4.7224999,2.5258827209472656,0.8966285586357117,9.0859956741333,-3.662109375,8.85009765625,-42.724609375
4.727499900000001,2.7940332889556885,1.1037269830703735,8.702324867248535,-18.85986328125,14.984130859375,-62.164306640625
4.7324999000000005,2.932298421859741,1.2437877655029297,8.532336235046387,-33.02001953125,22.03369140625,-80.56640625
4.7374999,2.75812029838562,1.2000936269760132,8.841188430786133,-37.811279296875,33.905029296875,-89.202880859375
4.7424999,-1.9063831567764282,-1.326986312866211,10.678738594055176,-31.3720703125,-10.162353515625,-71.563720703125
4.7474999,-1.9063831567764282,-1.326986312866211,10.678738594055176,-31.3720703125,-10.162353515625,-71.563720703125
4.7524999,-3.2196028232574463,-1.4401123523712158,9.865906715393066,-36.62109375,-24.566650390625,-33.50830078125
4.7574999,-4.037821292877197,-1.844732403755188,9.455301284790039,11.5966796875,-39.520263671875,33.447265625
4.7624999,-4.173692226409912,-1.833359956741333,9.114127159118652,4.5166015625,-42.236328125,36.376953125
4.7674999,-3.6349966526031494,-1.2030863761901855,9.543288230895996,-14.6484375,-57.861328125,33.02001953125
4.772499900000001,-2.3038206100463867,-0.6715735793113708,9.923966407775879,7.9345703125,-41.839599609375,50.079345703125
4.7774999000000005,-0.7015010714530945,-0.6584054827690125,10.187328338623047,10.101318359375,-27.64892578125,63.018798828125
4.7824999,0.6937199234962463,-0.5847837924957275,10.365097999572754,14.16015625,-18.6767578125,68.023681640625
4.7874999,1.643619418144226,-0.9666589498519897,10.219650268554688,33.111572265625,8.697509765625,73.66943359375
4.7924999,2.0057425498962402,-0.5231330990791321,9.983820915222168,24.23095703125,16.326904296875,46.5087890625
4.7974999,1.902193307876587,-0.055665191262960434,9.941922187805176,20.843505859375,11.8408203125,27.435302734375
4.8024999,1.877652645111084,0.3908534348011017,9.795876502990723,14.2822265625,4.302978515625,6.28662109375
4.8074999,2.0248961448669434,0.7350199222564697,9.542689323425293,4.241943359375,-0.06103515625,-16.571044921875
4.812499900000001,2.27209734916687,0.9229647517204285,9.208099365234375,-5.55419921875,7.32421875,-35.70556640625
4.8174999000000005,2.520495891571045,0.9983820915222168,8.953117370605469,-15.625,15.716552734375,-49.31640625
4.8224999,2.6844985485076904,0.9319429993629456,8.884284019470215,-24.078369140625,24.84130859375,-62.255859375
4.8274999,2.5456349849700928,0.8355764150619507,9.190143585205078,-24.90234375,34.66796875,-71.197509765625
4.8324999,1.9925743341445923,0.4010287821292877,9.821015357971191,-15.594482421875,39.398193359375,-73.577880859375
4.8374999,1.035492181777954,-0.048482585698366165,10.295665740966797,-11.53564453125,28.1982421875,-75.0732421875
4.8424999,-3.581127166748047,-1.3970166444778442,9.441534042358398,-2.227783203125,-35.003662109375,25.32958984375
4.8474999,-3.7690720558166504,-1.6831238269805908,9.312846183776855,8.880615234375,-40.435791015625,36.529541015625
4.852499900000001,-3.3291375637054443,-1.2096704244613647,9.589975357055664,-16.54052734375,-53.558349609375,29.327392578125
4.8574999000000005,-2.1697452068328857,-0.9235633015632629,9.971850395202637,7.50732421875,-41.93115234375,47.607421875
4.8624999,-0.7158663272857666,-0.7224503755569458,10.157401084899902,12.6953125,-29.388427734375,59.906005859375
4.8674999,0.5590460896492004,-0.7823054194450378,10.320206642150879,12.51220703125,-20.5078125,64.8193359375
4.8724999,1.436521053314209,-0.9475052952766418,10.199298858642578,31.494140625,5.2490234375,69.305419921875
4.8774999,1.8746598958969116,-1.1186907291412354,10.08198356628418,32.012939453125,24.078369140625,70.770263671875
4.8824999,2.5929205417633057,0.9923965930938721,8.98124885559082,-13.397216796875,16.998291015625,-50.201416015625
4.8874999,2.5929205417633057,0.9923965930938721,8.98124885559082,-13.397216796875,16.998291015625,-50.201416015625
4.8924999,2.7114334106445312,0.9145850539207458,8.877699851989746,-22.918701171875,24.322509765625,-64.666748046875
4.897499900000001,2.542642116546631,0.8457517623901367,9.114127159118652,-25.482177734375,33.87451171875,-74.3408203125
4.9024999000000005,1.9129672050476074,0.2495955228805542,9.6989107131958,-16.265869140625,37.567138671875,-74.493408203125
4.9074999,0.9786299467086792,0.03172317147254944,10.174758911132812,-10.7421875,26.0009765625,-76.904296875
4.9124999,-0.3214215636253357,-0.3190273642539978,10.5530424118042,-14.495849609375,5.401611328125,-71.77734375
4.9174999,-1.601720929145813,-0.9433154463768005,10.268132209777832,-29.754638671875,-8.30078125,-68.7255859375
4.9224999,-2.871845006942749,-1.0330979824066162,9.818022727966309,-35.675048828125,-21.453857421875,-39.398193359375
4.9274999,-3.706224203109741,-1.3239935636520386,9.487024307250977,4.0283203125,-34.454345703125,24.2919921875
4.9324999,-3.3907880783081055,-0.9636662006378174,9.715670585632324,-16.05224609375,-54.13818359375,31.524658203125
4.937499900000001,-2.185307502746582,-0.6631938815116882,10.077195167541504,6.65283203125,-41.19873046875,48.64501953125
4.9424999000000005,-0.7535749673843384,-0.6883329749107361,10.229825019836426,9.857177734375,-29.84619140625,60.821533203125
4.9474999,0.5249287486076355,-0.7356184720993042,10.365097999572754,12.939453125,-21.05712890625,65.032958984375
4.9524999,1.3964180946350098,-1.0444705486297607,10.192116737365723,31.494140625,5.889892578125,71.2890625
4.9574999,1.8854337930679321,-1.2006921768188477,10.050858497619629,30.33447265625,22.705078125,72.021484375
4.9624999,1.9560627937316895,-0.9876081943511963,10.035296440124512,24.749755859375,19.439697265625,62.591552734375
4.9674999,1.9147628545761108,-0.5979518890380859,9.956287384033203,24.688720703125,17.63916015625,50.262451171875
4.9724999,1.8483237028121948,-0.10055647045373917,9.926360130310059,20.965576171875,11.993408203125,32.196044921875
4.977499900000001,1.8914192914962769,0.3824737071990967,9.764751434326172,13.397216796875,4.0283203125,10.009765625
4.9824999000000005,2.0632033348083496,0.7374141216278076,9.531915664672852,3.5400390625,-0.1220703125,-14.34326171875
4.9874999,2.339733600616455,0.9217676520347595,9.233837127685547,-4.852294921875,6.134033203125,-33.75244140625
4.9924999,1.0121487379074097,-0.11552023142576218,10.205883026123047,-11.23046875,25.970458984375,-72.967529296875
4.9974999,-0.3190273642539978,-0.2059013396501541,10.57040023803711,-14.22119140625,6.591796875,-69.793701171875
5.0024999,-1.6508020162582397,-1.1875240802764893,10.390835762023926,-27.89306640625,-7.232666015625,-62.103271484375
5.0074999,-2.896984100341797,-1.2330138683319092,9.938929557800293,-30.487060546875,-21.270751953125,-31.79931640625
5.0124999,-3.599682331085205,-1.778891921043396,9.604340553283691,7.171630859375,-30.6396484375,24.71923828125
5.0174999,-3.6828808784484863,-1.513733983039856,9.406818389892578,-1.800537109375,-41.9921875,31.8603515625
5.022499900000001,-3.1250317096710205,-1.071405291557312,9.68694019317627,-10.101318359375,-50.140380859375,35.21728515625
5.0274999000000005,-1.9488801956176758,-0.5668272376060486,9.946710586547852,6.072998046875,-37.78076171875,51.361083984375
5.0324999,-0.596754789352417,-0.6302735805511475,10.146028518676758,9.58251953125,-30.242919921875,60.9130859375
5.0374999,1.4233529567718506,-1.138442873954773,10.108918190002441,31.097412109375,9.3994140625,68.115234375
5.0424999,1.8740613460540771,-1.2641384601593018,10.019135475158691,28.411865234375,22.003173828125,66.131591796875
5.0474999,1.9548656940460205,-1.0348936319351196,10.02452278137207,25.5126953125,20.050048828125,57.9833984375
5.0524999,1.8944120407104492,-0.6021417379379272,10.002376556396484,25.177001953125,16.754150390625,45.379638671875
5.0574999,1.810615062713623,0.004189853090792894,9.943120002746582,19.256591796875,9.307861328125,25.32958984375
5.062499900000001,1.844732403755188,0.5602431893348694,9.738415718078613,9.46044921875,1.007080078125,1.52587890625
5.0674999000000005,2.0225019454956055,0.9564836025238037,9.465476036071777,-0.518798828125,-0.732421875,-21.392822265625
5.0724999,2.3038206100463867,1.0857704877853394,9.167996406555176,-6.65283203125,7.8125,-36.468505859375
5.0774999,2.562394380569458,1.0576386451721191,8.950124740600586,-14.95361328125,15.80810546875,-50.201416015625
5.0824999,2.6611552238464355,0.8690952062606812,8.9680814743042,-24.200439453125,24.932861328125,-64.0869140625
5.0874999,2.3774423599243164,0.10235211998224258,9.257181167602539,-20.69091796875,36.07177734375,-69.549560546875
5.0924999,1.6585832834243774,0.262763649225235,9.821614265441895,-7.354736328125,34.210205078125,-58.837890625
5.0974999,0.44532153010368347,-0.6919242739677429,10.1568021774292,-16.937255859375,18.5546875,-58.2275390625
5.102499900000001,-0.9253589510917664,-0.32860419154167175,10.51054573059082,-13.85498046875,-0.640869140625,-63.17138671875
5.1074999000000005,-2.2864625453948975,-0.8954314589500427,10.162189483642578,-23.0712890625,-16.326904296875,-42.6025390625
5.1124999,-3.2812533378601074,-0.7583633661270142,9.973047256469727,-18.646240234375,-24.47509765625,1.800537109375
5.1174999,-3.6086604595184326,-0.9588778018951416,9.706093788146973,5.4931640625,-35.064697265625,33.233642578125
5.1224999,0.18734627962112427,-0.8523358106613159,10.133459091186523,11.90185546875,-20.20263671875,57.9833984375
5.1274999,1.1779472827911377,-1.1563993692398071,10.123882293701172,22.52197265625,-1.556396484375,62.5
5.1324999,1.777694821357727,-1.4766238927841187,9.978434562683105,29.9072265625,17.15087890625,66.375732421875
5.1374999,1.9584569931030273,-1.4197616577148438,9.995193481445312,28.411865234375,23.651123046875,64.483642578125
5.1424999,1.896806240081787,-1.0031704902648926,10.031106948852539,27.587890625,20.355224609375,54.87060546875
5.147499900000001,1.7699135541915894,-0.3597288131713867,9.985616683959961,23.193359375,12.6953125,37.200927734375
5.1524999000000005,1.8010382652282715,0.26096799969673157,9.819818496704102,14.34326171875,3.60107421875,11.65771484375
5.1574999,2.0260932445526123,0.7164648771286011,9.561244010925293,5.523681640625,-0.1220703125,-13.824462890625
5.1624999,2.4361002445220947,0.9271546006202698,9.230844497680664,-1.89208984375,5.584716796875,-35.09521484375
5.1674999,2.8407204151153564,1.0157400369644165,8.872312545776367,-13.85498046875,14.495849609375,-54.13818359375
5.1724999,3.0771477222442627,1.0420763492584229,8.754997253417969,-27.77099609375,23.86474609375,-71.990966796875
