# Time (seconds),Accel_X,Accel_Y,Accel_Z,Gyro_X,Gyro_Y,Gyro_Z
0.0024999,0.3627215623855591,0.19153612852096558,6.378153324127197,-5.157470703125,-3.0517578125,-4.913330078125
0.0074999,0.152031809091568,0.23702596127986908,7.450755596160889,6.04248046875,2.532958984375,1.556396484375
0.012499900000000001,0.2190694510936737,0.033518824726343155,6.647500991821289,-6.2255859375,-2.410888671875,0.274658203125
0.0174999,0.11552023142576218,0.05446808785200119,7.64109468460083,6.53076171875,2.471923828125,0.67138671875
0.0224999,0.10833762586116791,-0.14006079733371735,7.18440055847168,-6.072998046875,-1.678466796875,-1.46484375
0.0274999,0.23163901269435883,-0.015562310814857483,7.7213006019592285,5.950927734375,0.79345703125,-1.495361328125
0.0324999,0.1346738487482071,-0.1801636815071106,7.502829551696777,-5.31005859375,-0.152587890625,3.936767578125
0.0374999,0.4321534037590027,0.011372458189725876,7.438784599304199,4.302978515625,-0.1220703125,-3.662109375
0.0424999,0.19213469326496124,-0.16340427100658417,7.600393295288086,-3.11279296875,0.67138671875,1.953125
0.0474999,0.4692635238170624,-0.0520738884806633,7.06409215927124,1.89208984375,-1.556396484375,-3.753662109375
0.0524999,0.03172317147254944,-0.13347674906253815,7.556100368499756,-0.79345703125,2.197265625,5.767822265625
0.0574999,0.3555389642715454,-0.14006079733371735,6.813898086547852,-0.67138671875,-2.50244140625,-6.011962890625
0.0624999,-0.06823474913835526,0.0017956512747332454,7.458536624908447,2.01416015625,2.50244140625,3.204345703125
0.0674999,0.33518823981285095,0.010773907415568829,6.521805286407471,-3.143310546875,-2.960205078125,-2.9296875
0.0724999,0.07302315533161163,0.2082955539226532,7.383718013763428,4.08935546875,3.35693359375,4.730224609375
0.0774999,0.35673606395721436,0.1759738177061081,6.315305709838867,-5.43212890625,-3.143310546875,-4.791259765625
0.0824999,0.1538274586200714,0.23163901269435883,7.391499042510986,6.072998046875,2.50244140625,1.434326171875
0.0874999,0.2064998894929886,0.018555063754320145,6.615777969360352,-6.40869140625,-2.349853515625,0.335693359375
0.0924999,0.11611878126859665,0.04967968538403511,7.593210697174072,6.4697265625,2.288818359375,0.42724609375
0.0974999,0.10354922711849213,-0.14484919607639313,7.154473304748535,-6.011962890625,-1.678466796875,-1.495361328125
0.1024999,0.24001872539520264,-0.009576806798577309,7.662642478942871,5.859375,0.732421875,-1.64794921875
0.1074999,0.1346738487482071,-0.1735796183347702,7.466916561126709,-5.218505859375,-0.152587890625,4.241943359375
0.1124999,0.43275195360183716,0.021547814831137657,7.380126953125,4.241943359375,-0.274658203125,-3.7841796875
0.1174999,0.17537526786327362,-0.1604115068912506,7.552509307861328,-2.899169921875,0.79345703125,1.983642578125
0.1224999,0.4513070285320282,-0.06524199992418289,7.009025573730469,1.800537109375,-1.77001953125,-3.72314453125
0.1274999,0.011372458189725876,-0.12509703636169434,7.493252754211426,-0.701904296875,1.983642578125,6.072998046875
0.1324999,0.3489548861980438,-0.14006079733371735,6.733093738555908,-0.8544921875,-2.349853515625,-5.859375
0.1374999,-0.06464344263076782,0.02513911761343479,7.370550155639648,2.25830078125,2.5634765625,3.265380859375
0.1424999,0.3405751883983612,0.030526071786880493,6.417657852172852,-3.387451171875,-2.99072265625,-2.838134765625
0.1474999,0.08559270948171616,0.22505496442317963,7.294534206390381,4.425048828125,3.41796875,4.2724609375
0.1524999,0.3447650372982025,0.18076223134994507,6.229712963104248,-5.4931640625,-3.11279296875,-4.608154296875
0.1574999,0.14245499670505524,0.23044191300868988,7.331045627593994,6.04248046875,2.655029296875,1.3427734375
0.1624999,0.1777694821357727,0.01975216343998909,6.564302444458008,-6.439208984375,-2.197265625,0.335693359375
0.1674999,0.09217676520347595,0.047884032130241394,7.53395414352417,6.561279296875,1.89208984375,0.244140625
0.1724999,0.08319851011037827,-0.14185644686222076,7.095216751098633,-6.195068359375,-1.5869140625,-0.885009765625
0.17749990000000002,0.2346317619085312,-0.0005985504249110818,7.569867134094238,5.950927734375,0.67138671875,-1.52587890625
0.1824999,0.1256955862045288,-0.1825578808784485,7.390900611877441,-5.0048828125,-0.213623046875,4.180908203125
0.1874999,0.4273650050163269,0.025737667456269264,7.287950038909912,4.058837890625,-0.244140625,-4.150390625
0.1924999,0.15562310814857483,-0.17836803197860718,7.493252754211426,-2.838134765625,0.823974609375,2.410888671875
0.1974999,0.4321534037590027,-0.06883329898118973,6.9491705894470215,1.77001953125,-1.5869140625,-3.692626953125
0.2024999,-0.0077811554074287415,-0.14604631066322327,7.465120792388916,-0.42724609375,2.349853515625,5.67626953125
0.20749990000000001,0.3357867896556854,-0.1430535465478897,6.688800811767578,-1.007080078125,-2.50244140625,-5.9814453125
0.2124999,-0.06224924325942993,0.01496376097202301,7.332242488861084,2.25830078125,2.410888671875,3.23486328125
0.2174999,0.3423708379268646,0.0347159244120121,6.3745622634887695,-3.5400390625,-2.777099609375,-2.838134765625
0.2224999,0.0975637212395668,0.21667525172233582,7.243058681488037,4.2724609375,3.173828125,4.241943359375
0.2274999,0.3447650372982025,0.1867477297782898,6.203376770019531,-5.31005859375,-2.838134765625,-4.69970703125
0.2324999,0.14604631066322327,0.20111294090747833,7.298125267028809,6.072998046875,2.349853515625,1.312255859375
0.2374999,0.14604631066322327,0.20111294090747833,7.298125267028809,6.072998046875,2.349853515625,1.312255859375
0.2424999,0.16160862147808075,0.020949264988303185,6.560112476348877,-6.2255859375,-2.01416015625,0.396728515625
0.2474999,0.08200141042470932,0.01975216343998909,7.4752960205078125,6.195068359375,2.0751953125,0.030517578125
0.2524999,0.06763619929552078,-0.14065934717655182,7.06528902053833,-6.072998046875,-1.678466796875,-0.885009765625
0.2574999,0.2232593148946762,-0.0347159244120121,7.459733963012695,5.767822265625,0.518798828125,-1.861572265625
0.2624999,0.12210428714752197,-0.17657238245010376,7.344213485717773,-4.486083984375,0.06103515625,4.150390625
0.2674999,0.4189853072166443,-0.030526071786880493,7.1688385009765625,3.326416015625,-0.54931640625,-4.0283203125
0.2724999,0.13048399984836578,-0.1759738177061081,7.427412033081055,-2.38037109375,1.15966796875,2.410888671875
0.2774999,0.40940847992897034,-0.13527239859104156,6.84981107711792,1.129150390625,-1.708984375,-3.875732421875
0.2824999,-0.028131870552897453,-0.14784196019172668,7.387309551239014,-0.06103515625,2.288818359375,5.67626953125
0.28749990000000003,0.34177228808403015,-0.18555063009262085,6.588842868804932,-1.739501953125,-2.44140625,-5.767822265625
0.2924999,-0.0347159244120121,0.028730420395731926,7.272387504577637,2.716064453125,2.716064453125,3.35693359375
0.2974999,0.3621230125427246,0.018555063754320145,6.31829833984375,-3.90625,-3.0517578125,-2.74658203125
0.3024999,0.11552023142576218,0.21128830313682556,7.2107367515563965,4.791259765625,3.35693359375,3.997802734375
0.3074999,0.3274070918560028,0.15083470940589905,6.2171430587768555,-5.645751953125,-2.8076171875,-4.364013671875
0.3124999,0.1388636976480484,0.16579847037792206,7.299322605133057,6.256103515625,2.25830078125,1.068115234375
0.3174999,0.1346738487482071,-0.0293289702385664,6.584054470062256,-6.34765625,-2.01416015625,0.823974609375
0.3224999,0.07721300423145294,-0.0293289702385664,7.461529731750488,6.134033203125,2.105712890625,-0.274658203125
0.3274999,0.058059390634298325,-0.1777694821357727,7.0575079917907715,-5.67626953125,-1.40380859375,-1.068115234375
0.3324999,0.2388216257095337,-0.0628477931022644,7.378929615020752,5.462646484375,0.274658203125,-1.800537109375
0.3374999,0.1322796493768692,-0.19871874153614044,7.3017168045043945,-4.425048828125,0.335693359375,4.82177734375
0.3424999,0.43035775423049927,-0.05386953800916672,7.072471618652344,3.326416015625,-0.54931640625,-4.33349609375
0.34749990000000003,0.12689268589019775,-0.17896658182144165,7.372944355010986,-2.13623046875,1.068115234375,2.105712890625
0.35249990000000003,0.3998316824436188,-0.16759411990642548,6.782175064086914,0.823974609375,-1.922607421875,-3.692626953125
0.3574999,-0.05027823522686958,-0.14484919607639313,7.3220672607421875,0.1220703125,2.38037109375,6.04248046875
0.3624999,0.31783026456832886,-0.19632454216480255,6.509235858917236,-1.922607421875,-2.74658203125,-6.134033203125
0.3674999,-0.04908113554120064,0.02454056777060032,7.191583156585693,3.173828125,2.655029296875,2.685546875
0.3724999,0.33099839091300964,0.004189853090792894,6.233304023742676,-4.0283203125,-2.899169921875,-2.471923828125
0.3774999,0.10833762586116791,0.18734627962112427,7.142502307891846,4.7607421875,3.2958984375,3.90625
0.3824999,0.3106476664543152,0.09876082092523575,6.191405773162842,-5.859375,-2.8076171875,-4.57763671875
0.3874999,0.13407529890537262,0.11432313174009323,7.286752700805664,6.28662109375,2.25830078125,0.701904296875
0.3924999,0.11911153793334961,-0.0867898091673851,6.6145806312561035,-6.378173828125,-1.922607421875,1.068115234375
0.3974999,0.08918401598930359,-0.06464344263076782,7.460930824279785,6.103515625,1.77001953125,-0.213623046875
0.4024999,0.0454898327589035,-0.20051439106464386,7.0802531242370605,-5.523681640625,-1.251220703125,-0.640869140625
0.4074999,0.2537853717803955,-0.08319851011037827,7.339425086975098,5.401611328125,0.18310546875,-2.105712890625
0.41249990000000003,0.12509703636169434,-0.21787235140800476,7.308300495147705,-4.241943359375,0.335693359375,4.82177734375
0.41749990000000003,0.4207809567451477,-0.0933738648891449,7.017405033111572,2.9296875,-0.640869140625,-4.5166015625
0.4224999,0.09876082092523575,-0.1951274424791336,7.362170219421387,-1.922607421875,1.190185546875,2.105712890625
0.4274999,0.3758896589279175,-0.19213469326496124,6.755239963531494,0.8544921875,-1.89208984375,-3.41796875
0.4324999,-0.07541735470294952,-0.15083470940589905,7.3202714920043945,0.48828125,2.62451171875,6.2255859375
0.4374999,0.31603461503982544,-0.19632454216480255,6.499659061431885,-2.471923828125,-2.899169921875,-6.34765625
0.4424999,-0.031124621629714966,0.01975216343998909,7.205349922180176,3.387451171875,2.62451171875,2.62451171875
0.4474999,0.3387795388698578,-0.004189853090792894,6.213551998138428,-4.364013671875,-2.899169921875,-2.01416015625
0.4524999,0.12928688526153564,0.1711854189634323,7.1436991691589355,5.035400390625,3.082275390625,4.0283203125
0.4574999,0.30945056676864624,0.06703764945268631,6.207566261291504,-5.889892578125,-2.838134765625,-4.39453125
0.4624999,0.14065934717655182,0.0867898091673851,7.304111003875732,6.622314453125,2.288818359375,0.762939453125
0.4674999,0.12509703636169434,-0.1215057373046875,6.675632953643799,-6.195068359375,-2.01416015625,1.373291015625
0.47249990000000003,0.10893617570400238,-0.09397241473197937,7.5004353523254395,6.134033203125,1.800537109375,-0.518798828125
0.47749990000000003,0.05925649031996727,-0.22445641458034515,7.153275966644287,-5.462646484375,-1.068115234375,-0.67138671875
0.4824999,0.2825157940387726,-0.0975637212395668,7.364564418792725,5.096435546875,0.06103515625,-2.25830078125
0.4874999,0.14484919607639313,-0.2364274114370346,7.378929615020752,-4.119873046875,0.6103515625,4.669189453125
0.4924999,0.444722980260849,-0.09816227108240128,7.022792339324951,2.62451171875,-0.762939453125,-4.57763671875
0.4974999,0.09876082092523575,-0.20111294090747833,7.428010940551758,-1.5869140625,1.312255859375,2.44140625
0.5024999,0.3878606855869293,-0.2041056901216507,6.7911529541015625,0.244140625,-2.0751953125,-3.72314453125
0.5074999,-0.07122749835252762,-0.13347674906253815,7.3920979499816895,0.732421875,2.685546875,5.889892578125
0.5124999,0.32441434264183044,-0.17537526786327362,6.538564682006836,-2.593994140625,-2.838134765625,-5.9814453125
0.5174999,-0.012569558806717396,0.04489128291606903,7.268198013305664,3.448486328125,2.777099609375,2.74658203125
0.5224999,0.3345896899700165,0.018555063754320145,6.242282390594482,-4.302978515625,-2.838134765625,-2.349853515625
0.5274999,0.12389993667602539,0.16400282084941864,7.207744121551514,5.157470703125,3.204345703125,3.814697265625
0.5324999,0.2902969419956207,0.04668693244457245,6.308721542358398,-6.072998046875,-2.899169921875,-3.96728515625
0.5374999,0.12449848651885986,0.055665191262960434,7.385513782501221,6.77490234375,2.0751953125,0.79345703125
0.5424999,0.11611878126859665,-0.1454477459192276,6.823474884033203,-6.011962890625,-1.8310546875,1.46484375
0.5474999,0.12988543510437012,-0.10594342648983002,7.593210697174072,5.9814453125,1.52587890625,-0.823974609375
0.5524999,0.07661445438861847,-0.22744916379451752,7.287351608276367,-5.462646484375,-1.15966796875,-0.518798828125
0.5574999,0.322618693113327,-0.09816227108240128,7.433996200561523,5.126953125,0.06103515625,-2.166748046875
0.5624999,0.1562216579914093,-0.23523031175136566,7.492055892944336,-3.72314453125,0.457763671875,5.157470703125
0.5674999000000001,0.444722980260849,-0.1149216815829277,7.076661586761475,2.349853515625,-0.946044921875,-4.791259765625
0.5724999000000001,0.07481880486011505,-0.19871874153614044,7.506421089172363,-1.312255859375,1.312255859375,2.288818359375
0.5774999000000001,0.3728969097137451,-0.19452889263629913,6.845022678375244,0.274658203125,-1.983642578125,-3.35693359375
0.5824999,-0.08140286058187485,-0.10714052617549896,7.46033239364624,1.03759765625,2.838134765625,6.256103515625
0.5874999,0.3280056416988373,-0.13587094843387604,6.591835975646973,-2.685546875,-2.838134765625,-6.134033203125
0.5924999,0.011372458189725876,0.08559270948171616,7.374739646911621,3.936767578125,2.62451171875,2.655029296875
0.5974999,0.3447650372982025,0.05386953800916672,6.329071998596191,-4.669189453125,-2.86865234375,-1.77001953125
0.6024999,0.14006079733371735,0.20051439106464386,7.3436150550842285,5.2490234375,3.23486328125,3.448486328125
0.6074999,0.14006079733371735,0.20051439106464386,7.3436150550842285,5.2490234375,3.23486328125,3.448486328125
0.6124999,0.2861070930957794,0.05506663769483566,6.4613518714904785,-6.103515625,-2.716064453125,-4.302978515625
0.6174999,0.11552023142576218,0.0736217051744461,7.520786285400391,6.7138671875,1.983642578125,0.3662109375
0.6224999,0.11133038252592087,-0.15442600846290588,6.983886241912842,-6.16455078125,-1.861572265625,1.983642578125
0.6274999,0.15143325924873352,-0.08738835901021957,7.687781810760498,5.828857421875,1.52587890625,-0.640869140625
0.6324999,0.09217676520347595,-0.2388216257095337,7.371747016906738,-5.584716796875,-0.885009765625,-0.30517578125
0.6374999,0.35673606395721436,-0.07302315533161163,7.444770336151123,4.974365234375,0.152587890625,-2.685546875
0.6424999,0.17417816817760468,-0.2513911724090576,7.4770917892456055,-3.90625,0.732421875,5.035400390625
0.6474999,0.4668693244457245,-0.08738835901021957,7.008427143096924,2.471923828125,-1.007080078125,-4.39453125
0.6524999,0.07182604819536209,-0.21607670187950134,7.404068946838379,-1.373291015625,1.434326171875,3.204345703125
0.6574999,0.37828385829925537,-0.18734627962112427,6.73069953918457,0.1220703125,-2.13623046875,-4.33349609375
0.6624999,-0.07003039866685867,-0.08858546614646912,7.320870399475098,1.15966796875,2.777099609375,5.340576171875
0.6674999,0.3363853394985199,-0.09816227108240128,6.458359241485596,-2.8076171875,-2.777099609375,-5.2490234375
0.6724999,0.04429273307323456,0.13946224749088287,7.2352776527404785,3.753662109375,2.777099609375,3.23486328125
0.6774999,0.363918662071228,0.08140286058187485,6.197391033172607,-4.791259765625,-2.86865234375,-2.9296875
0.6824999,0.1759738177061081,0.23702596127986908,7.223905086517334,5.43212890625,3.082275390625,2.99072265625
0.6874999,0.2867056429386139,0.02753331884741783,6.358999729156494,-6.28662109375,-2.777099609375,-2.50244140625
0.6924999000000001,0.1430535465478897,0.10354922711849213,7.425017833709717,6.622314453125,2.25830078125,0.6103515625
0.6974999000000001,0.11252748221158981,-0.15682020783424377,6.890512466430664,-6.622314453125,-1.8310546875,0.762939453125
0.7024999000000001,0.1825578808784485,-0.02992752194404602,7.575253963470459,6.40869140625,1.434326171875,-1.220703125
0.7074999,0.10474632680416107,-0.22505496442317963,7.287351608276367,-5.462646484375,-0.732421875,1.190185546875
0.7124999,0.38905778527259827,-0.01735796220600605,7.357381820678711,4.7607421875,0.213623046875,-2.838134765625
0.7174999,0.18734627962112427,-0.2406172752380371,7.466916561126709,-3.90625,0.518798828125,4.08935546875
0.7224999,0.4800374507904053,-0.060453593730926514,7.004835605621338,2.62451171875,-0.946044921875,-4.669189453125
0.7274999,0.06883329898118973,-0.21787235140800476,7.492654323577881,-1.220703125,1.312255859375,3.7841796875
0.7324999,0.3884592354297638,-0.15682020783424377,6.818686485290527,-0.30517578125,-2.13623046875,-4.33349609375
0.7374999,-0.0520738884806633,-0.08798690885305405,7.5016326904296875,1.3427734375,2.532958984375,4.82177734375
0.7424999,0.3555389642715454,-0.03651157766580582,6.640318393707275,-2.899169921875,-2.5634765625,-5.0048828125
0.7474999,0.06584054976701736,0.13766659796237946,7.48726749420166,3.814697265625,2.8076171875,3.509521484375
0.7524999,0.3513490855693817,0.15682020783424377,6.440402507781982,-5.035400390625,-2.8076171875,-2.960205078125
0.7574999,0.14604631066322327,0.2256535142660141,7.474697589874268,5.584716796875,2.899169921875,2.532958984375
0.7624999,0.228047713637352,0.09217676520347595,6.643909931182861,-6.134033203125,-2.532958984375,-2.13623046875
0.7674999,0.0933738648891449,0.08619125932455063,7.614160060882568,6.439208984375,2.197265625,0.6103515625
0.7724999,0.08619125932455063,-0.10893617570400238,7.151480674743652,-6.134033203125,-1.556396484375,0.640869140625
0.7774999,0.19213469326496124,-0.03711012750864029,7.694964408874512,5.79833984375,1.190185546875,-1.556396484375
0.7824999,0.12988543510437012,-0.1777694821357727,7.468113422393799,-4.974365234375,-0.396728515625,1.5869140625
0.7874999,0.42018240690231323,-0.011372458189725876,7.413046836853027,4.180908203125,-0.1220703125,-2.960205078125
0.7924999,0.19572599232196808,-0.18794482946395874,7.572859764099121,-3.387451171875,0.79345703125,4.058837890625
0.7974999,0.47165772318840027,-0.07062894850969315,7.0371575355529785,2.01416015625,-1.15966796875,-4.94384765625
0.8024999,0.04369417950510979,-0.15741875767707825,7.510610580444336,-0.701904296875,1.77001953125,3.692626953125
0.8074999,0.37888240814208984,-0.1412578970193863,6.7935471534729,-0.67138671875,-2.227783203125,-4.241943359375
0.8124999,-0.06524199992418289,0.004189853090792894,7.441178798675537,1.739501953125,2.9296875,5.126953125
0.8174999000000001,0.35015198588371277,0.008379706181585789,6.558317184448242,-3.2958984375,-2.899169921875,-5.2490234375
0.8224999000000001,0.0736217051744461,0.22206220030784607,7.400477409362793,4.241943359375,2.838134765625,3.0517578125
0.8274999000000001,0.34835633635520935,0.15143325924873352,6.372167587280273,-5.279541015625,-2.899169921875,-2.349853515625
0.8324999000000001,0.14844051003456116,0.24600422382354736,7.422025203704834,5.859375,2.9296875,2.44140625
0.8374999,0.22385786473751068,0.04489128291606903,6.606799602508545,-6.195068359375,-2.5634765625,-2.532958984375
0.8424999,0.09696517139673233,0.08080431073904037,7.587823867797852,6.4697265625,1.983642578125,0.18310546875
0.8474999,0.08200141042470932,-0.14365209639072418,7.140706539154053,-6.439208984375,-1.46484375,1.5869140625
0.8524999,0.21368250250816345,-0.016759412363171577,7.669825077056885,5.889892578125,1.220703125,-1.8310546875
0.8574999,0.1454477459192276,-0.19033902883529663,7.4764933586120605,-5.096435546875,-0.823974609375,1.03759765625
0.8624999,0.44412440061569214,0.010773907415568829,7.404667377471924,4.180908203125,-0.274658203125,-2.9296875
0.8674999,0.19871874153614044,-0.2082955539226532,7.603984832763672,-3.204345703125,0.91552734375,4.913330078125
0.8724999,0.47405192255973816,-0.06823474913835526,7.042544364929199,1.861572265625,-1.220703125,-5.2490234375
0.8774999,0.0347159244120121,-0.15981295704841614,7.528567314147949,-0.457763671875,1.64794921875,3.143310546875
0.8824999,0.3711012601852417,-0.11372458189725876,6.761225700378418,-0.823974609375,-2.288818359375,-3.72314453125
0.8874999,-0.05446808785200119,0.02513911761343479,7.408857345581055,1.89208984375,3.021240234375,5.37109375
0.8924999,0.34416648745536804,0.055665191262960434,6.48828649520874,-3.41796875,-2.74658203125,-5.706787109375
0.8974999,0.08379705995321274,0.22385786473751068,7.343016624450684,4.425048828125,2.716064453125,2.74658203125
0.9024999,0.32022446393966675,0.1646013706922531,6.359598159790039,-5.37109375,-2.74658203125,-1.678466796875
0.9074999,0.12689268589019775,0.21547815203666687,7.392696380615234,5.950927734375,2.838134765625,2.3193359375
0.9124999,0.17896658182144165,0.05686229094862938,6.633734226226807,-6.2255859375,-2.44140625,-2.838134765625
0.9174999,0.0736217051744461,0.048482585698366165,7.550713539123535,6.40869140625,1.64794921875,-0.1220703125
0.9224999,0.058059390634298325,-0.12330138683319092,7.137115478515625,-5.92041015625,-1.3427734375,2.3193359375
0.9274999,0.2172738015651703,-0.030526071786880493,7.571064472198486,5.55419921875,0.946044921875,-2.227783203125
0.9324999,0.1412578970193863,-0.166995570063591,7.428010940551758,-4.7607421875,-0.579833984375,0.762939453125
0.9374999,0.4381389021873474,-0.0017956512747332454,7.270592212677002,3.7841796875,-0.701904296875,-2.9296875
0.9424999000000001,0.1628057211637497,-0.18495208024978638,7.513603687286377,-2.777099609375,1.190185546875,5.523681640625
0.9474999000000001,0.43754035234451294,-0.09576806426048279,6.91265869140625,1.434326171875,-1.312255859375,-5.43212890625
0.9524999000000001,-0.004788403399288654,-0.1322796493768692,7.425017833709717,0.030517578125,1.5869140625,3.021240234375
0.9574999000000001,0.3471592366695404,-0.12389993667602539,6.620566368103027,-1.434326171875,-2.532958984375,-3.47900390625
0.9624999,-0.04908113554120064,0.061052143573760986,7.292140007019043,2.349853515625,3.11279296875,5.401611328125
0.9674999,0.3477577865123749,0.0520738884806633,6.339247703552246,-3.7841796875,-2.899169921875,-5.859375
0.9724999,0.11013327538967133,0.22685061395168304,7.236474514007568,4.8828125,2.8076171875,2.3193359375
0.9774999,0.11013327538967133,0.22685061395168304,7.236474514007568,4.8828125,2.8076171875,2.3193359375
0.9824999,0.31364041566848755,0.09816227108240128,6.2853779792785645,-5.523681640625,-2.777099609375,-0.885009765625
0.9874999,0.1322796493768692,0.1586158573627472,7.340023994445801,6.04248046875,2.9296875,2.38037109375
0.9924999,0.15981295704841614,-0.03232172131538391,6.612186431884766,-6.317138671875,-2.410888671875,-3.021240234375
0.9974999,0.0867898091673851,-0.0011971008498221636,7.497442722320557,6.40869140625,1.64794921875,-0.457763671875
1.0024999,0.058059390634298325,-0.16998831927776337,7.088034152984619,-6.16455078125,-1.129150390625,2.777099609375
1.0074999000000002,0.2454056739807129,-0.04728548228740692,7.441777229309082,5.401611328125,0.946044921875,-2.532958984375
1.0124999000000001,0.1430535465478897,-0.18734627962112427,7.346607685089111,-4.608154296875,-0.30517578125,0.823974609375
1.0174999000000002,0.43275195360183716,-0.035913024097681046,7.127538681030273,3.326416015625,-0.762939453125,-2.9296875
1.0224999000000001,0.1173158809542656,-0.21009120345115662,7.421426773071289,-2.532958984375,1.46484375,5.645751953125
1.0274999,0.3992331326007843,-0.15562310814857483,6.811503887176514,1.0986328125,-1.617431640625,-5.79833984375
1.0324999000000001,-0.05147533491253853,-0.15442600846290588,7.363367557525635,0.396728515625,2.0751953125,2.960205078125
1.0374999,0.31842881441116333,-0.17477671802043915,6.53377628326416,-1.800537109375,-2.50244140625,-3.326416015625
1.0424999000000001,-0.04429273307323456,0.04967968538403511,7.239467620849609,2.655029296875,3.082275390625,5.523681640625
1.0474999,0.3477577865123749,0.015562310814857483,6.233304023742676,-3.997802734375,-2.99072265625,-5.645751953125
1.0524999000000002,0.1256955862045288,0.21009120345115662,7.178415298461914,5.096435546875,2.716064453125,2.105712890625
1.0574999,0.2968810200691223,0.040701430290937424,6.2386908531188965,-5.92041015625,-2.777099609375,-0.91552734375
1.0624999000000002,0.12689268589019775,0.12030863761901855,7.329848289489746,6.195068359375,2.716064453125,1.922607421875
1.0674999,0.12868833541870117,-0.09457096457481384,6.645106792449951,-6.317138671875,-2.25830078125,-2.86865234375
1.0724999000000002,0.10115502029657364,-0.02454056777060032,7.492654323577881,6.4697265625,1.373291015625,-0.457763671875
1.0774999,0.046088382601737976,-0.2124854028224945,7.1006035804748535,-5.9814453125,-1.03759765625,3.41796875
1.0824999000000002,0.2645592987537384,-0.05746084079146385,7.377732753753662,5.401611328125,0.762939453125,-3.021240234375
1.0874999,0.13108254969120026,-0.22864626348018646,7.32505989074707,-4.2724609375,-0.244140625,0.79345703125
1.0924999000000002,0.4231751561164856,-0.07481880486011505,7.036558628082275,3.2958984375,-0.91552734375,-2.99072265625
1.0974999,0.08140286058187485,-0.2651578485965729,7.362170219421387,-2.349853515625,1.495361328125,6.195068359375
1.1024999000000002,0.3728969097137451,-0.21428105235099792,6.7265095710754395,0.732421875,-1.5869140625,-5.950927734375
1.1074999,-0.07661445438861847,-0.1933317929506302,7.294534206390381,0.518798828125,1.800537109375,2.86865234375
1.1124999000000002,0.30945056676864624,-0.19273324310779572,6.469731330871582,-2.13623046875,-2.685546875,-3.265380859375
1.1174999,-0.02454056777060032,0.03950432687997818,7.191583156585693,2.960205078125,3.11279296875,5.340576171875
1.1224999000000002,0.35913026332855225,0.02274491637945175,6.174047470092773,-4.119873046875,-2.9296875,-5.584716796875
1.1274999,0.1472434103488922,0.18734627962112427,7.15507173538208,5.401611328125,2.471923828125,2.01416015625
1.1324999000000002,0.2849099934101105,0.0035913025494664907,6.230909824371338,-5.9814453125,-2.74658203125,-0.48828125
1.1374999000000001,0.14006079733371735,0.08259996026754379,7.331045627593994,6.4697265625,2.838134765625,1.46484375
1.1424999000000002,0.1173158809542656,-0.1472434103488922,6.707355976104736,-6.195068359375,-2.105712890625,-2.44140625
1.1474999000000001,0.13946224749088287,-0.05267243832349777,7.506421089172363,6.2255859375,1.3427734375,-0.732421875
1.1524999000000002,0.05686229094862938,-0.24181437492370605,7.1490864753723145,-6.011962890625,-0.79345703125,3.448486328125
1.1574999000000001,0.2998737692832947,-0.0586579404771328,7.332841396331787,5.2490234375,0.6103515625,-3.204345703125
1.1624999,0.13766659796237946,-0.2298433631658554,7.342418193817139,-4.0283203125,-0.030517578125,1.40380859375
1.1674999000000001,0.4291606545448303,-0.06643909960985184,6.977900981903076,2.86865234375,-0.9765625,-3.265380859375
1.1724999,0.0628477931022644,-0.25079262256622314,7.372944355010986,-2.01416015625,1.77001953125,5.950927734375
1.1774999000000002,0.3728969097137451,-0.20530278980731964,6.741473197937012,0.42724609375,-1.8310546875,-6.2255859375
1.1824999,-0.06883329898118973,-0.181959331035614,7.35199499130249,0.91552734375,2.01416015625,2.899169921875
1.1874999000000002,0.33518823981285095,-0.14365209639072418,6.534375190734863,-2.471923828125,-2.74658203125,-3.0517578125
1.1924999,0.01735796220600605,0.0586579404771328,7.295731067657471,3.387451171875,3.23486328125,5.126953125
1.1974999000000002,0.3776853084564209,0.07481880486011505,6.262633323669434,-4.33349609375,-2.899169921875,-5.55419921875
1.2024999,0.1562216579914093,0.18495208024978638,7.267000675201416,5.55419921875,2.349853515625,1.89208984375
1.2074999000000002,0.25917232036590576,0.016759412363171577,6.384139060974121,-6.16455078125,-2.5634765625,0
1.2124999,0.12270283699035645,0.05985504388809204,7.452551364898682,6.28662109375,2.716064453125,1.40380859375
1.2174999000000002,0.10175357013940811,-0.1346738487482071,6.934206485748291,-5.92041015625,-1.953125,-2.471923828125
1.2224999,0.16879121959209442,-0.04728548228740692,7.629123687744141,5.92041015625,0.885009765625,-1.15966796875
1.2274999000000002,0.08619125932455063,-0.20111294090747833,7.3903021812438965,-5.55419921875,-0.640869140625,3.814697265625
1.2324999,0.3603273630142212,-0.03651157766580582,7.457339763641357,4.638671875,0.396728515625,-3.47900390625
1.2374999000000002,0.17657238245010376,-0.17836803197860718,7.608773231506348,-3.387451171875,0.335693359375,1.190185546875
1.2424999,0.46567222476005554,-0.07302315533161163,7.1454949378967285,2.25830078125,-1.220703125,-3.47900390625
1.2474999000000002,0.06464344263076782,-0.17896658182144165,7.64109468460083,-1.251220703125,2.01416015625,6.04248046875
1.2524999,0.38905778527259827,-0.181959331035614,6.950367450714111,-0.48828125,-2.166748046875,-5.950927734375
1.2574999000000002,-0.05506663769483566,-0.09636662155389786,7.600991725921631,1.64794921875,2.25830078125,2.960205078125
1.2624999000000001,0.34596213698387146,-0.06703764945268631,6.695384979248047,-2.838134765625,-2.716064453125,-3.021240234375
1.2674999000000002,0.058059390634298325,0.13048399984836578,7.51659631729126,3.753662109375,3.173828125,4.852294921875
1.2724999000000001,0.37888240814208984,0.13407529890537262,6.440402507781982,-5.096435546875,-3.021240234375,-5.035400390625
1.2774999000000002,0.16340427100658417,0.2190694510936737,7.478887557983398,6.011962890625,2.62451171875,1.800537109375
1.2824999000000001,0.2454056739807129,0.023343466222286224,6.677428722381592,-6.195068359375,-2.3193359375,0.244140625
1.2874999,0.12389993667602539,0.05446808785200119,7.675810813903809,6.103515625,2.50244140625,0.732421875
1.2924999000000001,0.1173158809542656,-0.14245499670505524,7.2322845458984375,-6.04248046875,-1.953125,-2.105712890625
1.2974999,0.22206220030784607,-0.02274491637945175,7.7865424156188965,6.04248046875,0.79345703125,-1.3427734375
1.3024999000000002,0.13168109953403473,-0.18555063009262085,7.57944393157959,-5.43212890625,-0.18310546875,4.486083984375
1.3074999,0.4124012291431427,-0.008978256024420261,7.527369976043701,4.241943359375,0.274658203125,-4.08935546875
1.3124999000000002,0.19452889263629913,-0.15682020783424377,7.668029308319092,-3.0517578125,0.396728515625,1.190185546875
1.3174999,0.4668693244457245,-0.06703764945268631,7.129333972930908,1.8310546875,-1.52587890625,-2.99072265625
1.3224999000000002,0.04369417950510979,-0.14245499670505524,7.605181694030762,-1.190185546875,2.13623046875,6.439208984375
1.3274999,0.3734954595565796,-0.1562216579914093,6.8557963371276855,-0.518798828125,-2.13623046875,-6.40869140625
1.3324999000000002,-0.05027823522686958,-0.030526071786880493,7.508216381072998,2.01416015625,2.288818359375,2.593994140625
1.3374999,0.3513490855693817,-0.010773907415568829,6.570886611938477,-3.387451171875,-2.960205078125,-2.410888671875
1.3424999000000002,0.08559270948171616,0.1975216418504715,7.4333977699279785,4.0283203125,3.2958984375,5.0048828125
1.3474999,0.08559270948171616,0.1975216418504715,7.4333977699279785,4.0283203125,3.2958984375,5.0048828125
1.3524999000000002,0.37469255924224854,0.18495208024978638,6.373963356018066,-5.218505859375,-2.9296875,-5.2490234375
1.3574999,0.15682020783424377,0.24660277366638184,7.436988830566406,5.889892578125,2.3193359375,1.220703125
1.3624999000000002,0.2172738015651703,0.02753331884741783,6.66904878616333,-6.378173828125,-2.38037109375,0.640869140625
1.3674999,0.10295066982507706,0.05506663769483566,7.626729488372803,6.40869140625,2.349853515625,0.518798828125
1.3724999000000002,0.10474632680416107,-0.15442600846290588,7.1903862953186035,-6.04248046875,-1.5869140625,-1.800537109375
1.3774999,0.228047713637352,-0.023343466222286224,7.677606105804443,5.67626953125,0.885009765625,-1.678466796875
1.3824999000000002,0.13347674906253815,-0.19213469326496124,7.492654323577881,-5.18798828125,-0.152587890625,4.486083984375
1.3874999000000001,0.43095630407333374,0.005985504016280174,7.384915351867676,4.058837890625,-0.06103515625,-4.058837890625
1.3924999000000002,0.17298106849193573,-0.1604115068912506,7.558494567871094,-2.86865234375,0.762939453125,1.678466796875
1.3974999000000001,0.4429273009300232,-0.07122749835252762,6.993463039398193,1.617431640625,-1.46484375,-3.60107421875
1.4024999000000002,0.004788403399288654,-0.12030863761901855,7.487865924835205,-0.67138671875,2.13623046875,6.103515625
1.4074999000000001,0.34656068682670593,-0.14903905987739563,6.704961776733398,-0.946044921875,-2.349853515625,-6.256103515625
1.4124999,-0.05147533491253853,0.033518824726343155,7.35199499130249,2.25830078125,2.410888671875,2.899169921875
1.4174999000000001,0.3477577865123749,0.026336219161748886,6.412869453430176,-3.631591796875,-2.899169921875,-2.593994140625
1.4224999,0.10235211998224258,0.24600422382354736,7.270592212677002,4.39453125,3.204345703125,4.364013671875
1.4274999000000002,0.345363587141037,0.18914192914962769,6.242282390594482,-5.4931640625,-2.899169921875,-4.852294921875
1.4324999,0.14903905987739563,0.24121582508087158,7.317877292633057,6.011962890625,2.3193359375,1.129150390625
1.4374999000000002,0.16160862147808075,0.002992752008140087,6.570886611938477,-6.378173828125,-2.13623046875,0.91552734375
1.4424999,0.08200141042470932,0.023343466222286224,7.494450092315674,6.317138671875,2.13623046875,-0.030517578125
1.4474999000000002,0.06703764945268631,-0.17717093229293823,7.071873188018799,-5.79833984375,-1.495361328125,-1.3427734375
1.4524999,0.22445641458034515,-0.0347159244120121,7.474697589874268,5.67626953125,0.640869140625,-1.52587890625
1.4574999000000002,0.12330138683319092,-0.20709845423698425,7.350199222564697,-4.791259765625,0.1220703125,4.94384765625
1.4624999,0.42437225580215454,-0.012569558806717396,7.183802127838135,3.875732421875,-0.244140625,-4.669189453125
1.4674999000000002,0.15502455830574036,-0.1735796183347702,7.424419403076172,-2.471923828125,0.762939453125,1.708984375
1.4724999,0.43035775423049927,-0.11372458189725876,6.8593878746032715,1.129150390625,-1.739501953125,-3.23486328125
1.4774999000000002,-0.004788403399288654,-0.13826514780521393,7.373542785644531,-0.213623046875,2.38037109375,6.317138671875
1.4824999,0.35434186458587646,-0.1825578808784485,6.579864978790283,-1.312255859375,-2.38037109375,-6.4697265625
1.4874999000000002,-0.028131870552897453,0.019153613597154617,7.238270282745361,2.86865234375,2.50244140625,2.685546875
1.4924999,0.34835633635520935,-0.008978256024420261,6.299144744873047,-4.119873046875,-2.960205078125,-2.197265625
1.4974999000000002,0.11791443079710007,0.2106897532939911,7.1670427322387695,4.791259765625,3.173828125,4.150390625
1.5024999,0.32022446393966675,0.1256955862045288,6.186018466949463,-5.43212890625,-2.86865234375,-4.791259765625
1.5074999000000002,0.13527239859104156,0.18555063009262085,7.264008045196533,6.317138671875,2.13623046875,1.007080078125
1.5124999000000001,0.12330138683319092,-0.05626374110579491,6.559514045715332,-6.4697265625,-2.105712890625,1.373291015625
1.5174999000000002,0.07422025501728058,-0.008978256024420261,7.452551364898682,6.53076171875,2.166748046875,-0.30517578125
1.5224999000000001,0.04728548228740692,-0.2059013396501541,7.071274757385254,-5.523681640625,-1.495361328125,-1.0986328125
1.5274999000000002,0.24480712413787842,-0.04668693244457245,7.399280548095703,5.279541015625,0.3662109375,-1.861572265625
1.5324999000000001,0.12689268589019775,-0.2364274114370346,7.336432456970215,-4.82177734375,0.274658203125,5.0048828125
1.5374999000000003,0.43035775423049927,-0.04429273307323456,7.079654216766357,3.692626953125,-0.274658203125,-4.669189453125
1.5424999000000001,0.11192893236875534,-0.21188685297966003,7.398681640625,-2.01416015625,0.885009765625,2.13623046875
1.5474999,0.38726213574409485,-0.16639702022075653,6.799532890319824,0.6103515625,-1.861572265625,-3.60107421875
1.5524999000000002,-0.06883329898118973,-0.15741875767707825,7.350797653198242,0.274658203125,2.25830078125,6.34765625
1.5574999,0.31184476613998413,-0.18974047899246216,6.537367820739746,-1.861572265625,-2.50244140625,-6.011962890625
1.5624999000000002,-0.041299980133771896,0.028131870552897453,7.2340803146362305,3.021240234375,2.38037109375,2.86865234375
1.5674999,0.32022446393966675,-0.0077811554074287415,6.2620344161987305,-4.39453125,-2.777099609375,-2.105712890625
1.5724999000000002,0.12629413604736328,0.18555063009262085,7.186794757843018,4.974365234375,3.204345703125,3.84521484375
1.5774999,0.3058592677116394,0.05925649031996727,6.251260757446289,-5.645751953125,-2.960205078125,-4.364013671875
1.5824999000000002,0.14604631066322327,0.1149216815829277,7.317877292633057,6.561279296875,2.166748046875,0.8544921875
1.5874999,0.12270283699035645,-0.13587094843387604,6.679224014282227,-6.500244140625,-1.77001953125,1.52587890625
1.5924999000000002,0.11252748221158981,-0.06643909960985184,7.496245384216309,6.256103515625,1.953125,-0.79345703125
1.5974999,0.06224924325942993,-0.2537853717803955,7.143100738525391,-5.584716796875,-1.3427734375,-0.640869140625
1.6024999000000002,0.2998737692832947,-0.07302315533161163,7.3681559562683105,5.157470703125,0.18310546875,-2.13623046875
1.6074999,0.15143325924873352,-0.2717418968677521,7.363367557525635,-4.33349609375,0.335693359375,5.37109375
1.6124999000000002,0.4531026780605316,-0.07062894850969315,7.015010833740234,3.204345703125,-0.6103515625,-5.096435546875
1.6174999,0.0999579206109047,-0.2214636504650116,7.398083209991455,-1.708984375,1.129150390625,2.227783203125
1.6224999000000002,0.3902548849582672,-0.17238251864910126,6.768408298492432,0.244140625,-2.044677734375,-3.23486328125
1.6274999,-0.06763619929552078,-0.14365209639072418,7.357980251312256,0.67138671875,2.50244140625,6.16455078125
1.6324999000000002,0.32860419154167175,-0.16220717132091522,6.524199485778809,-1.983642578125,-2.5634765625,-6.439208984375
1.6374999000000001,-0.0011971008498221636,0.03651157766580582,7.274781703948975,3.47900390625,2.3193359375,2.62451171875
1.6424999000000002,0.32441434264183044,0.016160860657691956,6.2632317543029785,-4.82177734375,-2.8076171875,-1.77001953125
1.6474999000000001,0.13766659796237946,0.181959331035614,7.259219646453857,5.43212890625,3.173828125,3.692626953125
1.6524999000000002,0.2819172441959381,0.05506663769483566,6.380547523498535,-5.7373046875,-3.0517578125,-4.150390625
1.6574999000000001,0.12449848651885986,0.09457096457481384,7.448361396789551,6.4697265625,2.01416015625,0.3662109375
1.6624999000000003,0.10055647045373917,-0.13766659796237946,6.913257598876953,-6.439208984375,-1.8310546875,1.89208984375
1.6674999000000001,0.13706804811954498,-0.05386953800916672,7.642292022705078,6.072998046875,1.556396484375,-1.068115234375
1.6724999,0.06883329898118973,-0.23343466222286224,7.360374450683594,-5.401611328125,-0.9765625,-0.152587890625
1.6774999000000002,0.3363853394985199,-0.04908113554120064,7.452551364898682,4.94384765625,0.1220703125,-2.349853515625
1.6824999,0.1496376097202301,-0.26575639843940735,7.542334079742432,-3.72314453125,0.48828125,5.37109375
1.6874999000000002,0.44831427931785583,-0.08499415963888168,7.07606315612793,2.5634765625,-0.732421875,-5.18798828125
1.6924999,0.06464344263076782,-0.22445641458034515,7.536946773529053,-1.28173828125,1.129150390625,2.593994140625
1.6974999000000002,0.38067805767059326,-0.15741875767707825,6.855197906494141,-0.030517578125,-2.105712890625,-3.631591796875
1.7024999,-0.0586579404771328,-0.09696517139673233,7.513603687286377,1.251220703125,2.685546875,5.79833984375
1.7074999000000002,0.3423708379268646,-0.05746084079146385,6.634931564331055,-2.5634765625,-2.655029296875,-6.011962890625
1.7124999,0.05267243832349777,0.10115502029657364,7.483675956726074,3.997802734375,2.532958984375,2.685546875
1.7174999000000002,0.05267243832349777,0.10115502029657364,7.483675956726074,3.997802734375,2.532958984375,2.685546875
1.7224999,0.33937808871269226,0.11312603205442429,6.452373504638672,-4.69970703125,-2.716064453125,-1.556396484375
1.7274999000000002,0.15502455830574036,0.1951274424791336,7.517194747924805,5.401611328125,3.173828125,3.265380859375
1.7324999,0.262763649225235,0.09636662155389786,6.7247138023376465,-5.9814453125,-2.62451171875,-3.60107421875
1.7374999000000002,0.1149216815829277,0.0802057534456253,7.722497463226318,6.378173828125,1.861572265625,0.152587890625
1.7424999,0.09157821536064148,-0.09876082092523575,7.274781703948975,-6.103515625,-1.5869140625,2.288818359375
1.7474999000000002,0.18375498056411743,-0.04728548228740692,7.817667007446289,5.645751953125,1.3427734375,-1.678466796875
1.7524999,0.11432313174009323,-0.16819266974925995,7.5848307609558105,-4.974365234375,-0.67138671875,-0.06103515625
1.7574999000000002,0.40282443165779114,-0.017956512048840523,7.495646953582764,4.21142578125,-0.274658203125,-2.685546875
1.7624999000000001,0.18974047899246216,-0.1801636815071106,7.6536641120910645,-3.326416015625,0.8544921875,5.462646484375
1.7674999000000002,0.4752490520477295,-0.076015904545784,7.074267387390137,1.983642578125,-1.007080078125,-5.096435546875
1.7724999000000001,0.053270988166332245,-0.15442600846290588,7.546523571014404,-0.6103515625,1.617431640625,2.9296875
1.7774999000000002,0.3866635859012604,-0.14903905987739563,6.798335552215576,-0.732421875,-2.13623046875,-3.631591796875
1.7824999000000001,-0.04369417950510979,-0.004788403399288654,7.442376136779785,1.77001953125,2.838134765625,5.4931640625
1.7874999000000003,0.3561375141143799,0.009576806798577309,6.533177852630615,-3.387451171875,-2.777099609375,-5.79833984375
1.7924999000000001,0.09217676520347595,0.2106897532939911,7.382521152496338,4.364013671875,2.777099609375,2.44140625
1.7974999,0.33758243918418884,0.1472434103488922,6.378153324127197,-5.31005859375,-2.99072265625,-1.617431640625
1.8024999000000002,0.1454477459192276,0.2364274114370346,7.423222541809082,5.859375,2.960205078125,2.685546875
1.8074999,0.21368250250816345,0.06643909960985184,6.643311023712158,-6.378173828125,-2.62451171875,-3.35693359375
1.8124999000000002,0.09457096457481384,0.07841010391712189,7.5902180671691895,6.561279296875,1.739501953125,0.091552734375
1.8174999,0.07302315533161163,-0.11432313174009323,7.158064365386963,-6.2255859375,-1.495361328125,2.9296875
1.8224999000000002,0.2148796021938324,-0.02753331884741783,7.637503623962402,5.645751953125,1.251220703125,-1.983642578125
1.8274999,0.14245499670505524,-0.15921440720558167,7.474697589874268,-4.7607421875,-0.79345703125,0
1.8324999000000002,0.4405331015586853,0.005985504016280174,7.355586051940918,3.936767578125,-0.48828125,-2.62451171875
1.8374999,0.1825578808784485,-0.19033902883529663,7.5848307609558105,-3.143310546875,1.068115234375,6.011962890625
1.8424999000000002,0.4537012279033661,-0.08499415963888168,6.9922661781311035,1.8310546875,-1.28173828125,-5.615234375
1.8474999,0.010773907415568829,-0.152031809091568,7.489062786102295,-0.213623046875,1.495361328125,2.471923828125
1.8524999000000002,0.35075053572654724,-0.1346738487482071,6.691793918609619,-1.28173828125,-2.3193359375,-3.2958984375
1.8574999,-0.05746084079146385,0.03292027488350868,7.354987621307373,2.197265625,2.99072265625,6.04248046875
1.8624999000000002,0.34596213698387146,0.03770867735147476,6.405686855316162,-3.387451171875,-2.8076171875,-6.103515625
1.8674999,0.10235211998224258,0.21308395266532898,7.286752700805664,4.638671875,2.44140625,2.25830078125
1.8724999000000002,0.32202014327049255,0.11133038252592087,6.314706802368164,-5.615234375,-2.86865234375,-0.8544921875
1.8774999,0.1430535465478897,0.181959331035614,7.355586051940918,6.072998046875,3.082275390625,2.5634765625
1.8824999000000002,0.18076223134994507,0.016160860657691956,6.6127848625183105,-6.072998046875,-2.410888671875,-3.173828125
1.8874999000000001,0.090979665517807,0.033518824726343155,7.515997886657715,6.622314453125,1.5869140625,-0.30517578125
1.8924999000000002,0.0586579404771328,-0.13706804811954498,7.107187747955322,-6.16455078125,-1.007080078125,3.0517578125
1.8974999000000001,0.2322375625371933,-0.03172317147254944,7.4986395835876465,5.4931640625,1.129150390625,-2.50244140625
1.9024999000000002,0.14425064623355865,-0.17417816817760468,7.380725383758545,-4.486083984375,-0.457763671875,0.396728515625
1.9074999000000001,0.4405331015586853,-0.02513911761343479,7.189787864685059,3.60107421875,-0.6103515625,-2.838134765625
1.9124999000000003,0.14903905987739563,-0.21667525172233582,7.459733963012695,-2.655029296875,1.40380859375,6.011962890625
1.9174999000000001,0.4231751561164856,-0.14006079733371735,6.855197906494141,1.3427734375,-1.495361328125,-5.7373046875
1.9224999,-0.020949264988303185,-0.16879121959209442,7.389703750610352,0.1220703125,1.800537109375,2.777099609375
1.9274999000000002,0.3292027413845062,-0.15502455830574036,6.570886611938477,-1.52587890625,-2.50244140625,-3.204345703125
1.9324999,-0.041299980133771896,0.03890577703714371,7.264008045196533,2.410888671875,3.021240234375,5.615234375
1.9374999000000002,0.3489548861980438,0.046088382601737976,6.284181118011475,-3.814697265625,-2.9296875,-6.011962890625
1.9424999,0.12988543510437012,0.20290859043598175,7.2113356590271,4.8828125,2.471923828125,2.01416015625
1.9474999000000002,0.3034650683403015,0.08559270948171616,6.278793811798096,-5.645751953125,-2.593994140625,-0.79345703125
1.9524999,0.1364694982767105,0.1280897855758667,7.346009254455566,6.103515625,2.86865234375,1.983642578125
1.9574999000000002,0.13108254969120026,-0.048482585698366165,6.661866188049316,-6.378173828125,-2.44140625,-2.899169921875
1.9624999,0.08379705995321274,-0.02992752194404602,7.517194747924805,6.34765625,1.434326171875,-0.67138671875
1.9674999000000002,0.03292027488350868,-0.1933317929506302,7.1239471435546875,-5.9814453125,-0.885009765625,3.173828125
1.9724999,0.24899697303771973,-0.06703764945268631,7.4118499755859375,5.279541015625,0.762939453125,-2.5634765625
1.9774999000000002,0.13407529890537262,-0.20949265360832214,7.342418193817139,-4.33349609375,-0.244140625,1.129150390625
1.9824999,0.43095630407333374,-0.055665191262960434,7.067084789276123,3.387451171875,-0.79345703125,-2.960205078125
1.9874999000000002,0.1041477769613266,-0.23523031175136566,7.382521152496338,-2.3193359375,1.556396484375,5.645751953125
1.9924999,0.3860650360584259,-0.181959331035614,6.761824131011963,0.823974609375,-1.5869140625,-5.828857421875
1.9974999000000002,-0.05925649031996727,-0.18495208024978638,7.333439826965332,0.457763671875,1.953125,3.0517578125
2.0024999,0.3166331648826599,-0.18734627962112427,6.509834289550781,-2.105712890625,-2.410888671875,-3.2958984375
2.0074999,-0.026336219161748886,0.013766659423708916,7.2352776527404785,2.716064453125,3.0517578125,5.126953125
2.0124999000000003,0.35673606395721436,0.009576806798577309,6.21115779876709,-4.180908203125,-2.960205078125,-5.79833984375
2.0174999000000002,0.14844051003456116,0.15921440720558167,7.174823760986328,5.279541015625,2.44140625,2.166748046875
2.0224999,0.28969839215278625,0.017956512048840523,6.235099792480469,-5.950927734375,-2.655029296875,-0.213623046875
2.0274999,0.1388636976480484,0.05925649031996727,7.3202714920043945,6.317138671875,2.777099609375,1.64794921875
2.0324999000000004,0.11971008777618408,-0.11552023142576218,6.687005519866943,-6.011962890625,-2.227783203125,-2.777099609375
2.0374999000000003,0.12988543510437012,-0.05626374110579491,7.490858554840088,6.439208984375,1.312255859375,-0.640869140625
2.0424999,0.05925649031996727,-0.2106897532939911,7.1490864753723145,-5.706787109375,-0.8544921875,4.0283203125
2.0474999,0.3016694188117981,-0.053270988166332245,7.356184959411621,5.157470703125,0.6103515625,-3.11279296875
2.0524999,0.15562310814857483,-0.20470423996448517,7.372944355010986,-4.0283203125,-0.274658203125,0.701904296875
2.0574999000000003,0.4465186297893524,-0.06643909960985184,7.026383399963379,2.8076171875,-0.9765625,-2.86865234375
2.0624999,0.08379705995321274,-0.23702596127986908,7.404667377471924,-2.01416015625,1.678466796875,6.40869140625
2.0674999,0.38127660751342773,-0.20231004059314728,6.752845764160156,0.54931640625,-1.678466796875,-6.317138671875
2.0724999,-0.07122749835252762,-0.17178396880626678,7.349001884460449,0.91552734375,1.922607421875,2.777099609375
2.0774999000000003,0.31842881441116333,-0.1454477459192276,6.512827396392822,-2.5634765625,-2.62451171875,-2.716064453125
2.0824999,-0.0077811554074287415,0.05446808785200119,7.269394874572754,3.204345703125,3.2958984375,5.523681640625
2.0874999,-0.0077811554074287415,0.05446808785200119,7.269394874572754,3.204345703125,3.2958984375,5.523681640625
2.0924999,0.35913026332855225,0.07062894850969315,6.229114055633545,-4.33349609375,-2.899169921875,-5.767822265625
2.0974999000000003,0.14006079733371735,0.18076223134994507,7.2334818840026855,5.37109375,2.410888671875,1.617431640625
2.1024999,0.25438392162323,0.02274491637945175,6.344634532928467,-6.195068359375,-2.44140625,0.1220703125
2.1074999,0.12449848651885986,0.06643909960985184,7.422623634338379,6.2255859375,2.838134765625,1.434326171875
2.1124999,0.10893617570400238,-0.12389993667602539,6.896498203277588,-6.256103515625,-2.105712890625,-2.13623046875
2.1174999000000003,0.1711854189634323,-0.05147533491253853,7.614160060882568,6.072998046875,1.0986328125,-0.885009765625
2.1224999,0.08918401598930359,-0.21607670187950134,7.351396083831787,-5.55419921875,-0.732421875,3.875732421875
2.1274999,0.35733461380004883,-0.04668693244457245,7.441777229309082,4.57763671875,0.3662109375,-3.448486328125
2.1324999,0.17238251864910126,-0.20350714027881622,7.55011510848999,-3.72314453125,0.091552734375,1.190185546875
2.1374999000000003,0.45848962664604187,-0.07003039866685867,7.108384609222412,2.410888671875,-1.007080078125,-3.23486328125
2.1424999000000002,0.053270988166332245,-0.20709845423698425,7.569867134094238,-1.495361328125,1.89208984375,6.317138671875
2.1474999,0.36990416049957275,-0.18614917993545532,6.884527206420898,-0.091552734375,-1.983642578125,-6.134033203125
2.1524999,-0.07302315533161163,-0.11791443079710007,7.522581577301025,1.556396484375,2.105712890625,2.86865234375
2.1574999000000004,0.3363853394985199,-0.0736217051744461,6.633135795593262,-2.74658203125,-2.716064453125,-2.74658203125
2.1624999000000003,0.048482585698366165,0.11552023142576218,7.4351935386657715,3.631591796875,3.326416015625,5.035400390625
2.1674999,0.39145198464393616,0.13108254969120026,6.3745622634887695,-4.852294921875,-2.9296875,-5.67626953125
2.1724999,0.17238251864910126,0.2082955539226532,7.417236804962158,5.706787109375,2.44140625,1.5869140625
2.1774999000000004,0.26156654953956604,0.030526071786880493,6.622960567474365,-6.103515625,-2.288818359375,0.54931640625
2.1824999000000003,0.1322796493768692,0.05746084079146385,7.657854080200195,6.134033203125,2.5634765625,0.9765625
2.1874999,0.11133038252592087,-0.13048399984836578,7.2340803146362305,-6.195068359375,-2.044677734375,-2.13623046875
2.1924999,0.20290859043598175,-0.03172317147254944,7.826645374298096,5.859375,0.9765625,-1.46484375
2.1974999,0.1107318252325058,-0.1909375786781311,7.615356922149658,-5.37109375,-0.518798828125,4.0283203125
2.2024999000000003,0.395043283700943,-0.005386953707784414,7.576451301574707,4.547119140625,0.213623046875,-3.7841796875
2.2074999,0.18076223134994507,-0.1646013706922531,7.721899032592773,-3.23486328125,0.42724609375,1.678466796875
2.2124999,0.4578910768032074,-0.04908113554120064,7.179612159729004,1.89208984375,-1.220703125,-3.448486328125
2.2174999,0.03770867735147476,-0.15682020783424377,7.659649848937988,-1.068115234375,2.166748046875,5.950927734375
2.2224999000000003,0.3627215623855591,-0.1430535465478897,6.898293495178223,-0.335693359375,-2.0751953125,-6.195068359375
2.2274999,-0.05446808785200119,-0.043095629662275314,7.534552574157715,1.861572265625,2.25830078125,3.0517578125
2.2324999,0.34656068682670593,0.012569558806717396,6.584653377532959,-3.23486328125,-2.74658203125,-2.5634765625
2.2374999,0.08259996026754379,0.18734627962112427,7.443572998046875,3.997802734375,3.326416015625,4.547119140625
2.2424999000000003,0.37409400939941406,0.20111294090747833,6.39192008972168,-5.18798828125,-2.8076171875,-5.462646484375
2.2474999,0.1646013706922531,0.23582886159420013,7.458536624908447,5.859375,2.410888671875,1.28173828125
2.2524999,0.22385786473751068,0.04489128291606903,6.7025675773620605,-6.439208984375,-2.38037109375,0.48828125
2.2574999,0.1149216815829277,0.047884032130241394,7.656058311462402,6.34765625,2.349853515625,0.42724609375
2.2624999000000003,0.10714052617549896,-0.1346738487482071,7.218518257141113,-6.011962890625,-1.89208984375,-1.5869140625
2.2674999000000002,0.22864626348018646,-0.025737667456269264,7.690176010131836,5.67626953125,0.732421875,-1.52587890625
2.2724999,0.12868833541870117,-0.1885433793067932,7.495048522949219,-5.157470703125,-0.152587890625,4.5166015625
2.2774999,0.42616790533065796,0.0071826050989329815,7.383119583129883,4.302978515625,0.06103515625,-4.150390625
2.2824999000000004,0.17717093229293823,-0.1586158573627472,7.568071365356445,-2.8076171875,0.457763671875,1.922607421875
2.2874999000000003,0.44831427931785583,-0.05746084079146385,7.011419773101807,1.5869140625,-1.495361328125,-3.35693359375
2.2924999,0.008379706181585789,-0.12509703636169434,7.526771545410156,-0.6103515625,2.349853515625,6.28662109375
2.2974999,0.3447650372982025,-0.13587094843387604,6.748656272888184,-1.007080078125,-2.288818359375,-6.28662109375
2.3024999000000004,-0.0628477931022644,0.012569558806717396,7.401674747467041,2.38037109375,2.288818359375,2.74658203125
2.3074999000000003,0.33099839091300964,0.028730420395731926,6.454169273376465,-3.631591796875,-2.838134765625,-2.532958984375
2.3124999,0.08439560979604721,0.21607670187950134,7.30650520324707,4.2724609375,3.173828125,4.547119140625
2.3174999,0.33339259028434753,0.18914192914962769,6.279991149902344,-5.43212890625,-2.86865234375,-5.096435546875
2.3224999,0.13946224749088287,0.2082955539226532,7.350199222564697,6.103515625,2.227783203125,1.068115234375
2.3274999000000003,0.15741875767707825,0.008379706181585789,6.610989570617676,-6.317138671875,-2.13623046875,1.007080078125
2.3324999,0.08259996026754379,0.0065840547904372215,7.528567314147949,6.4697265625,2.288818359375,0.152587890625
2.3374999,0.07122749835252762,-0.15801730751991272,7.1023993492126465,-5.889892578125,-1.617431640625,-1.5869140625
2.3424999,0.23343466222286224,-0.03770867735147476,7.494450092315674,5.7373046875,0.6103515625,-1.708984375
2.3474999000000003,0.13407529890537262,-0.19153612852096558,7.3651628494262695,-4.82177734375,0.18310546875,4.94384765625
2.3524999,0.436343252658844,-0.013766659423708916,7.194576263427734,3.753662109375,-0.244140625,-4.2724609375
2.3574999,0.15682020783424377,-0.17178396880626678,7.439981937408447,-2.410888671875,0.640869140625,1.861572265625
2.3624999,0.4255693554878235,-0.10714052617549896,6.864176273345947,1.312255859375,-1.739501953125,-3.35693359375
2.3674999000000003,-0.017956512048840523,-0.14365209639072418,7.387309551239014,-0.274658203125,2.227783203125,6.16455078125
2.3724999,0.33039984107017517,-0.1693897694349289,6.585251808166504,-1.28173828125,-2.44140625,-6.591796875
2.3774999,-0.04668693244457245,0.0077811554074287415,7.240664482116699,2.8076171875,2.25830078125,2.685546875
2.3824999,0.3363853394985199,0.0035913025494664907,6.299144744873047,-3.84521484375,-2.86865234375,-2.25830078125
2.3874999000000003,0.11432313174009323,0.1843535304069519,7.164648532867432,4.39453125,3.173828125,4.2724609375
2.3924999000000002,0.3250128924846649,0.1346738487482071,6.175843238830566,-5.4931640625,-2.716064453125,-4.69970703125
2.3974999,0.1496376097202301,0.1538274586200714,7.250839710235596,6.34765625,2.25830078125,0.9765625
2.4024999,0.13168109953403473,-0.04189852997660637,6.53257942199707,-6.591796875,-1.922607421875,1.251220703125
2.4074999000000004,0.08499415963888168,-0.028730420395731926,7.407660007476807,6.2255859375,2.01416015625,-0.30517578125
2.4124999000000003,0.04908113554120064,-0.19213469326496124,7.01860237121582,-5.645751953125,-1.373291015625,-1.190185546875
2.4174999,0.2364274114370346,-0.0628477931022644,7.340023994445801,5.279541015625,0.244140625,-1.922607421875
2.4224999,0.1149216815829277,-0.23044191300868988,7.286154270172119,-4.57763671875,0.244140625,5.035400390625
2.4274999000000004,0.4189853072166443,-0.04908113554120064,7.044340133666992,3.448486328125,-0.48828125,-4.57763671875
2.4324999000000003,0.1041477769613266,-0.20111294090747833,7.369951248168945,-1.953125,0.8544921875,2.044677734375
2.4374999,0.38726213574409485,-0.1472434103488922,6.778583526611328,0.701904296875,-1.953125,-3.5400390625
2.4424999,-0.06165069341659546,-0.15442600846290588,7.326257228851318,0.274658203125,2.5634765625,6.103515625
2.4474999,0.3208230137825012,-0.19033902883529663,6.511630058288574,-1.922607421875,-2.50244140625,-6.28662109375
2.4524999000000003,-0.03411737456917763,0.0017956512747332454,7.180211067199707,3.0517578125,2.532958984375,2.86865234375
2.4574999,-0.03411737456917763,0.0017956512747332454,7.180211067199707,3.0517578125,2.532958984375,2.86865234375
2.4624999,0.3321954905986786,-0.019153613597154617,6.205770969390869,-4.119873046875,-2.777099609375,-1.983642578125
2.4674999,0.12449848651885986,0.15023615956306458,7.105990409851074,4.7607421875,3.265380859375,3.936767578125
2.4724999000000003,0.3010708689689636,0.06763619929552078,6.14950704574585,-5.79833984375,-2.86865234375,-4.69970703125
2.4774999,0.1412578970193863,0.08200141042470932,7.226897716522217,6.561279296875,2.227783203125,0.67138671875
2.4824999,0.11432313174009323,-0.11851298063993454,6.559514045715332,-6.40869140625,-1.89208984375,1.556396484375
2.4874999,0.10354922711849213,-0.08619125932455063,7.393893241882324,6.256103515625,1.800537109375,-0.42724609375
2.4924999000000003,0.053270988166332245,-0.23104046285152435,7.0341644287109375,-5.523681640625,-1.220703125,-0.701904296875
2.4974999,0.27892449498176575,-0.08858546614646912,7.275979042053223,5.2490234375,0.152587890625,-2.13623046875
2.5024999,0.13706804811954498,-0.2519897222518921,7.273584842681885,-4.302978515625,0.48828125,5.18798828125
2.5074999,0.4411316514015198,-0.08798690885305405,6.9473748207092285,3.11279296875,-0.701904296875,-4.791259765625
2.5124999000000003,0.09696517139673233,-0.2190694510936737,7.332242488861084,-1.708984375,1.129150390625,2.25830078125
2.5174999000000002,0.3860650360584259,-0.1825578808784485,6.712742805480957,0.213623046875,-2.044677734375,-3.631591796875
2.5224999,-0.06344634294509888,-0.15023615956306458,7.29034423828125,0.518798828125,2.8076171875,5.950927734375
2.5274999,0.33279404044151306,-0.16819266974925995,6.465541839599609,-2.197265625,-2.593994140625,-6.072998046875
2.5324999000000004,0.0005985504249110818,0.02753331884741783,7.180809497833252,3.47900390625,2.532958984375,2.86865234375
2.5374999000000003,0.333991140127182,0.021547814831137657,6.18182897567749,-4.547119140625,-2.777099609375,-1.953125
2.5424999,0.13826514780521393,0.16101007163524628,7.141304969787598,5.06591796875,3.23486328125,3.570556640625
2.5474999,0.27712884545326233,0.076015904545784,6.245275020599365,-5.92041015625,-2.74658203125,-4.21142578125
2.5524999000000004,0.13108254969120026,0.07721300423145294,7.3232645988464355,6.53076171875,1.983642578125,0.457763671875
2.5574999000000003,0.10235211998224258,-0.11971008777618408,6.752845764160156,-6.378173828125,-1.800537109375,1.678466796875
2.5624999,0.13826514780521393,-0.08140286058187485,7.5219831466674805,6.072998046875,1.77001953125,-0.946044921875
2.5674999,0.07960720360279083,-0.23283611238002777,7.2119340896606445,-5.340576171875,-0.9765625,-0.18310546875
2.5724999,0.3423708379268646,-0.08858546614646912,7.351396083831787,4.913330078125,-0.030517578125,-2.288818359375
2.5774999000000003,0.17298106849193573,-0.2579752206802368,7.4094557762146,-3.96728515625,0.701904296875,5.157470703125
2.5824999,0.46806642413139343,-0.10594342648983002,6.987477779388428,2.593994140625,-0.946044921875,-4.82177734375
2.5874999,0.08499415963888168,-0.2214636504650116,7.414244174957275,-1.3427734375,1.251220703125,2.716064453125
2.5924999,0.3770867586135864,-0.1825578808784485,6.752845764160156,0.274658203125,-2.197265625,-3.814697265625
2.5974999000000003,-0.07661445438861847,-0.1215057373046875,7.3651628494262695,1.03759765625,2.62451171875,5.767822265625
2.6024999,0.3232172429561615,-0.1041477769613266,6.500856399536133,-2.655029296875,-2.8076171875,-5.828857421875
2.6074999,0.019153613597154617,0.07481880486011505,7.280767440795898,3.7841796875,2.777099609375,2.9296875
2.6124999,0.33698388934135437,0.08259996026754379,6.24467658996582,-4.608154296875,-3.0517578125,-1.953125
2.6174999000000003,0.15801730751991272,0.18555063009262085,7.27418327331543,5.279541015625,3.265380859375,3.23486328125
2.6224999,0.28371289372444153,0.08259996026754379,6.433219909667969,-6.103515625,-2.62451171875,-3.60107421875
2.6274999,0.1412578970193863,0.07481880486011505,7.505223751068115,6.53076171875,1.983642578125,0.335693359375
2.6324999,0.1107318252325058,-0.1173158809542656,7.022193431854248,-6.317138671875,-1.556396484375,1.678466796875
2.6374999000000003,0.17298106849193573,-0.07182604819536209,7.705139636993408,5.92041015625,1.495361328125,-1.40380859375
2.6424999000000002,0.09816227108240128,-0.21009120345115662,7.448959827423096,-5.340576171875,-0.946044921875,-0.030517578125
2.6474999,0.3776853084564209,-0.05147533491253853,7.497442722320557,4.730224609375,-0.18310546875,-2.50244140625
2.6524999,0.17178396880626678,-0.2346317619085312,7.620744228363037,-3.692626953125,0.885009765625,5.2490234375
2.6574999000000004,0.4554968774318695,-0.09157821536064148,7.122750282287598,2.410888671875,-0.91552734375,-5.37109375
2.6624999000000003,0.05027823522686958,-0.18974047899246216,7.598597526550293,-0.885009765625,1.190185546875,2.532958984375
2.6674999,0.36810851097106934,-0.15263035893440247,6.880337238311768,-0.244140625,-2.227783203125,-3.2958984375
2.6724999,-0.07960720360279083,-0.053270988166332245,7.535151481628418,1.3427734375,2.716064453125,5.9814453125
2.6774999000000004,0.3321954905986786,-0.03411737456917763,6.620566368103027,-2.86865234375,-2.960205078125,-6.34765625
2.6824999000000003,0.04967968538403511,0.14604631066322327,7.458536624908447,4.119873046875,2.74658203125,2.44140625
2.6874999,0.33698388934135437,0.13108254969120026,6.409876346588135,-5.126953125,-2.899169921875,-1.220703125
2.6924999,0.15921440720558167,0.21428105235099792,7.463923931121826,5.67626953125,3.11279296875,3.082275390625
2.6974999,0.2651578485965729,0.10953472554683685,6.6612677574157715,-6.011962890625,-2.655029296875,-3.936767578125
2.7024999000000003,0.12330138683319092,0.08499415963888168,7.666234016418457,6.378173828125,1.861572265625,0.030517578125
2.7074999,0.10175357013940811,-0.09038111567497253,7.210138320922852,-6.16455078125,-1.556396484375,2.62451171875
2.7124999,0.19931729137897491,-0.04668693244457245,7.767388820648193,5.79833984375,1.312255859375,-1.556396484375
2.7174999,0.13287819921970367,-0.17178396880626678,7.546523571014404,-5.096435546875,-0.9765625,-0.30517578125
2.7224999000000003,0.4231751561164856,-0.0293289702385664,7.48726749420166,4.364013671875,-0.274658203125,-2.62451171875
2.7274999,0.19452889263629913,-0.20889410376548767,7.666234016418457,-3.387451171875,0.946044921875,5.828857421875
2.7324999,0.4686649739742279,-0.08858546614646912,7.107786178588867,1.739501953125,-1.434326171875,-5.462646484375
2.7374999,0.04249707981944084,-0.16340427100658417,7.593210697174072,-0.762939453125,1.5869140625,2.532958984375
2.7424999000000003,0.37229835987091064,-0.1364694982767105,6.8378400802612305,-0.640869140625,-2.25830078125,-3.173828125
2.7474999,-0.05506663769483566,0.0011971008498221636,7.481880187988281,1.556396484375,2.86865234375,6.04248046875
2.7524999,0.35434186458587646,0.017956512048840523,6.543951988220215,-3.265380859375,-2.99072265625,-6.04248046875
2.7574999,0.08978256583213806,0.18914192914962769,7.399280548095703,4.5166015625,2.5634765625,2.3193359375
2.7624999000000003,0.35075053572654724,0.1472434103488922,6.3751606941223145,-5.18798828125,-2.685546875,-1.46484375
2.7674999000000002,0.17477671802043915,0.21128830313682556,7.422623634338379,5.645751953125,3.0517578125,2.838134765625
2.7724999,0.25917232036590576,0.08379705995321274,6.655282020568848,-6.2255859375,-2.593994140625,-3.326416015625
2.7774999,0.13048399984836578,0.05446808785200119,7.597400665283203,6.65283203125,1.953125,-0.1220703125
2.7824999000000004,0.1107318252325058,-0.1041477769613266,7.1712327003479,-5.9814453125,-1.28173828125,2.410888671875
2.7874999000000003,0.22924481332302094,-0.04728548228740692,7.643488883972168,5.462646484375,1.15966796875,-1.922607421875
2.7924999,0.14604631066322327,-0.16160862147808075,7.468113422393799,-4.82177734375,-0.6103515625,0.54931640625
2.7974999,0.43275195360183716,-0.010175357572734356,7.347805023193359,4.119873046875,-0.3662109375,-2.62451171875
2.8024999000000004,0.17178396880626678,-0.18914192914962769,7.571064472198486,-2.960205078125,1.068115234375,5.523681640625
2.8074999000000003,0.44831427931785583,-0.08738835901021957,6.989273548126221,1.64794921875,-1.251220703125,-5.37109375
2.8124999,0.01496376097202301,-0.13766659796237946,7.483675956726074,-0.335693359375,1.800537109375,2.838134765625
2.8174999,0.365115761756897,-0.11971008777618408,6.704961776733398,-1.129150390625,-2.3193359375,-3.47900390625
2.8224999,-0.047884032130241394,0.04489128291606903,7.357980251312256,1.861572265625,2.960205078125,5.55419921875
2.8274999000000003,-0.047884032130241394,0.04489128291606903,7.357980251312256,1.861572265625,2.960205078125,5.55419921875
2.8324999,0.36092591285705566,0.058059390634298325,6.428431510925293,-3.47900390625,-2.838134765625,-5.859375
2.8374999,0.10534487664699554,0.21308395266532898,7.295731067657471,4.69970703125,2.74658203125,2.25830078125
2.8424999,0.33279404044151306,0.1430535465478897,6.320094108581543,-5.37109375,-2.777099609375,-1.28173828125
2.8474999000000003,0.1472434103488922,0.17657238245010376,7.354389190673828,5.92041015625,2.99072265625,2.777099609375
2.8524999,0.1933317929506302,0.04249707981944084,6.610989570617676,-6.28662109375,-2.349853515625,-3.021240234375
2.8574999,0.08798690885305405,0.021547814831137657,7.518392086029053,6.378173828125,1.77001953125,0
2.8624999,0.0628477931022644,-0.11911153793334961,7.113173484802246,-6.072998046875,-1.28173828125,2.777099609375
2.8674999000000003,0.22026655077934265,-0.04429273307323456,7.524377346038818,5.55419921875,1.0986328125,-2.105712890625
2.8724999,0.13826514780521393,-0.14604631066322327,7.399878978729248,-4.39453125,-0.396728515625,0.640869140625
2.8774999,0.4345476031303406,-0.008379706181585789,7.228095054626465,3.90625,-0.640869140625,-2.716064453125
2.8824999,0.15801730751991272,-0.17178396880626678,7.490858554840088,-2.8076171875,1.312255859375,5.706787109375
2.8874999000000003,0.43514615297317505,-0.10714052617549896,6.892308235168457,1.007080078125,-1.64794921875,-5.67626953125
2.8924999000000002,-0.0035913025494664907,-0.13766659796237946,7.408258438110352,0.030517578125,1.5869140625,2.655029296875
2.8974999,0.3495534360408783,-0.1538274586200714,6.600813865661621,-1.190185546875,-2.471923828125,-3.204345703125
2.9024999,-0.04668693244457245,0.030526071786880493,7.280767440795898,2.25830078125,2.899169921875,5.645751953125
2.9074999000000004,0.35075053572654724,0.020949264988303185,6.321889400482178,-3.753662109375,-2.9296875,-6.195068359375
2.9124999000000003,0.10714052617549896,0.19213469326496124,7.231087684631348,4.974365234375,2.62451171875,2.105712890625
2.9174999,0.30885201692581177,0.09277531504631042,6.282385349273682,-5.462646484375,-2.655029296875,-0.579833984375
2.9224999,0.12928688526153564,0.15143325924873352,7.326855659484863,5.950927734375,2.99072265625,2.410888671875
2.9274999000000004,0.1604115068912506,-0.005985504016280174,6.600813865661621,-6.256103515625,-2.50244140625,-3.143310546875
2.9324999000000003,0.0867898091673851,0.010175357572734356,7.475894927978516,6.65283203125,1.556396484375,-0.3662109375
2.9374999,0.06344634294509888,-0.1388636976480484,7.065887928009033,-6.134033203125,-1.068115234375,3.11279296875
2.9424999,0.24779987335205078,-0.03770867735147476,7.427412033081055,5.340576171875,0.79345703125,-2.38037109375
2.9474999,0.15562310814857483,-0.16101007163524628,7.317278861999512,-4.486083984375,-0.3662109375,0.54931640625
2.9524999000000003,0.44532153010368347,-0.028730420395731926,7.1041951179504395,3.662109375,-0.701904296875,-3.021240234375
2.9574999,0.14245499670505524,-0.19692309200763702,7.3867106437683105,-2.685546875,1.312255859375,5.767822265625
2.9624999,0.41958385705947876,-0.1454477459192276,6.782175064086914,1.0986328125,-1.5869140625,-5.584716796875
2.9674999,-0.033518824726343155,-0.1412578970193863,7.346009254455566,0.30517578125,1.89208984375,3.0517578125
2.9724999000000003,0.32202014327049255,-0.1711854189634323,6.528987884521484,-1.678466796875,-2.471923828125,-3.814697265625
2.9774999,-0.04728548228740692,0.07062894850969315,7.2334818840026855,2.471923828125,3.173828125,5.2490234375
2.9824999,0.3477577865123749,0.02513911761343479,6.237493991851807,-3.72314453125,-2.9296875,-5.31005859375
2.9874999,0.12030863761901855,0.21787235140800476,7.180809497833252,4.852294921875,2.685546875,2.471923828125
2.9924999000000003,0.30705636739730835,0.05925649031996727,6.212953567504883,-5.859375,-2.9296875,-1.434326171875
2.9974999,0.12928688526153564,0.13287819921970367,7.315483093261719,6.195068359375,2.838134765625,1.861572265625
3.0024999,0.12988543510437012,-0.07003039866685867,6.610390663146973,-6.2255859375,-2.349853515625,-2.044677734375
3.0074999,0.0736217051744461,0.0011971008498221636,7.487865924835205,6.561279296875,1.556396484375,-0.457763671875
3.0124999000000003,0.03651157766580582,-0.17238251864910126,7.08144998550415,-6.134033203125,-1.28173828125,2.3193359375
3.0174999000000002,0.2406172752380371,-0.012569558806717396,7.415441036224365,5.615234375,0.8544921875,-2.5634765625
3.0224999,0.13407529890537262,-0.18375498056411743,7.330447196960449,-4.364013671875,-0.274658203125,1.556396484375
3.0274999,0.42676645517349243,-0.019153613597154617,7.104793548583984,3.570556640625,-0.732421875,-3.35693359375
3.0324999000000004,0.11911153793334961,-0.22505496442317963,7.416039943695068,-2.410888671875,1.0986328125,5.2490234375
3.0374999000000003,0.3926490843296051,-0.15981295704841614,6.80551815032959,1.068115234375,-1.52587890625,-5.645751953125
3.0424999,-0.048482585698366165,-0.17537526786327362,7.374739646911621,0.1220703125,1.922607421875,3.387451171875
3.0474999,0.3148375153541565,-0.1693897694349289,6.550535678863525,-1.8310546875,-2.38037109375,-3.631591796875
3.0524999000000004,-0.04728548228740692,0.03232172131538391,7.280767440795898,2.74658203125,3.11279296875,5.096435546875
3.0574999000000003,0.33518823981285095,0.028131870552897453,6.282983779907227,-3.90625,-2.99072265625,-5.523681640625
3.0624999,0.1173158809542656,0.2041056901216507,7.247248649597168,5.096435546875,2.471923828125,2.410888671875
3.0674999,0.2801215946674347,0.06524199992418289,6.312312602996826,-5.67626953125,-2.655029296875,-0.79345703125
3.0724999000000004,0.11133038252592087,0.1280897855758667,7.394492149353027,6.072998046875,2.8076171875,1.708984375
3.0774999000000003,0.1041477769613266,-0.07062894850969315,6.72531270980835,-6.2255859375,-2.38037109375,-2.655029296875
3.0824999,0.08319851011037827,-0.020949264988303185,7.55131196975708,6.500244140625,1.617431640625,-0.48828125
3.0874999,0.03770867735147476,-0.19452889263629913,7.157465934753418,-6.011962890625,-1.068115234375,3.326416015625
3.0924999,0.25917232036590576,-0.061052143573760986,7.425017833709717,5.37109375,0.91552734375,-2.655029296875
3.0974999000000003,0.14245499670505524,-0.19452889263629913,7.369951248168945,-4.0283203125,-0.18310546875,1.0986328125
3.1024999,0.4255693554878235,-0.05147533491253853,7.082048416137695,3.11279296875,-0.885009765625,-2.777099609375
3.1074999,0.09816227108240128,-0.2172738015651703,7.4136457443237305,-2.288818359375,1.46484375,5.828857421875
3.1124999,0.3734954595565796,-0.17896658182144165,6.781576156616211,0.946044921875,-1.495361328125,-5.92041015625
3.1174999000000003,-0.06823474913835526,-0.1711854189634323,7.370550155639648,0.579833984375,1.678466796875,2.86865234375
3.1224999,0.3016694188117981,-0.17836803197860718,6.530185222625732,-2.105712890625,-2.655029296875,-3.265380859375
3.1274999,-0.03770867735147476,0.041299980133771896,7.274781703948975,2.86865234375,3.143310546875,5.37109375
3.1324999,0.3423708379268646,0.02513911761343479,6.244078159332275,-4.150390625,-3.021240234375,-5.462646484375
3.1374999000000003,0.12210428714752197,0.1885433793067932,7.223905086517334,5.157470703125,2.5634765625,2.166748046875
3.1424999000000002,0.2801215946674347,0.014365210197865963,6.309319972991943,-5.889892578125,-2.685546875,-0.823974609375
3.1474999,0.12030863761901855,0.08439560979604721,7.412448406219482,6.2255859375,2.655029296875,1.678466796875
3.1524999,0.1149216815829277,-0.13108254969120026,6.807912349700928,-6.134033203125,-2.105712890625,-2.25830078125
3.1574999000000004,0.10594342648983002,-0.06524199992418289,7.617152690887451,6.28662109375,1.46484375,-0.79345703125
3.1624999000000003,0.05626374110579491,-0.2298433631658554,7.268796443939209,-5.767822265625,-0.885009765625,2.777099609375
3.1674999,0.284311443567276,-0.08200141042470932,7.465719223022461,5.0048828125,0.640869140625,-2.777099609375
3.1724999,0.15562310814857483,-0.21547815203666687,7.459733963012695,-3.936767578125,-0.030517578125,1.556396484375
3.1774999000000004,0.43933600187301636,-0.08738835901021957,7.1041951179504395,2.99072265625,-0.732421875,-3.387451171875
3.1824999000000003,0.08798690885305405,-0.22445641458034515,7.464522361755371,-1.922607421875,1.40380859375,5.401611328125
3.1874999,0.375291109085083,-0.2148796021938324,6.818686485290527,0.457763671875,-1.77001953125,-5.645751953125
3.1924999,-0.07541735470294952,-0.1604115068912506,7.408857345581055,0.91552734375,2.044677734375,3.2958984375
3.1974999000000004,-0.07541735470294952,-0.1604115068912506,7.408857345581055,0.91552734375,2.044677734375,3.2958984375
3.2024999000000003,0.3124433159828186,-0.18495208024978638,6.570288181304932,-2.105712890625,-2.5634765625,-3.509521484375
3.2074999,-0.01496376097202301,0.05147533491253853,7.3202714920043945,3.173828125,2.9296875,5.096435546875
3.2124999,0.35913026332855225,0.020350715145468712,6.2847795486450195,-4.364013671875,-2.9296875,-5.2490234375
3.2174999,0.14245499670505524,0.19692309200763702,7.270592212677002,5.401611328125,2.593994140625,2.25830078125
3.2224999000000003,0.28311434388160706,0.014365210197865963,6.366182327270508,-6.072998046875,-2.62451171875,-0.518798828125
3.2274999,0.12270283699035645,0.08379705995321274,7.4549455642700195,6.28662109375,2.655029296875,1.495361328125
3.2324999,0.1173158809542656,-0.1346738487482071,6.8575921058654785,-6.134033203125,-2.197265625,-2.471923828125
3.2374999,0.12928688526153564,-0.058059390634298325,7.624335289001465,6.378173828125,1.40380859375,-0.67138671875
3.2424999000000003,0.07122749835252762,-0.228047713637352,7.272387504577637,-5.767822265625,-0.885009765625,3.509521484375
3.2474999,0.3058592677116394,-0.07062894850969315,7.438186168670654,4.974365234375,0.67138671875,-3.11279296875
3.2524999,0.1646013706922531,-0.20709845423698425,7.447762966156006,-3.997802734375,-0.06103515625,1.03759765625
3.2574999,0.45010992884635925,-0.07900865375995636,7.083844184875488,2.9296875,-0.762939453125,-3.204345703125
3.2624999000000003,0.09397241473197937,-0.22266076505184174,7.466318130493164,-1.77001953125,1.678466796875,6.256103515625
3.2674999000000002,0.38965633511543274,-0.21368250250816345,6.816890716552734,0.335693359375,-1.8310546875,-5.9814453125
3.2724999,-0.06524199992418289,-0.15442600846290588,7.407061576843262,0.9765625,1.983642578125,2.685546875
3.2774999,0.3190273642539978,-0.16819266974925995,6.565499782562256,-2.288818359375,-2.5634765625,-3.143310546875
3.2824999000000004,-0.010175357572734356,0.07721300423145294,7.307103633880615,3.23486328125,3.082275390625,5.218505859375
3.2874999000000003,0.35913026332855225,0.050876785069704056,6.270414352416992,-4.364013671875,-2.9296875,-5.645751953125
3.2924999,0.1388636976480484,0.21607670187950134,7.26101541519165,5.43212890625,2.593994140625,1.77001953125
3.2974999,0.27234044671058655,0.0077811554074287415,6.358999729156494,-5.9814453125,-2.410888671875,-0.457763671875
3.3024999000000004,0.12330138683319092,0.08379705995321274,7.446565628051758,6.317138671875,2.777099609375,1.312255859375
3.3074999000000003,0.11372458189725876,-0.15801730751991272,6.8575921058654785,-6.256103515625,-2.25830078125,-2.3193359375
3.3124999,0.14065934717655182,-0.06643909960985184,7.612364292144775,6.2255859375,1.28173828125,-0.91552734375
3.3174999,0.07661445438861847,-0.24420857429504395,7.272387504577637,-5.92041015625,-0.885009765625,3.570556640625
3.3224999000000004,0.31842881441116333,-0.07900865375995636,7.417236804962158,4.974365234375,0.579833984375,-3.143310546875
3.3274999000000003,0.1604115068912506,-0.2232593148946762,7.446565628051758,-3.84521484375,0.213623046875,1.40380859375
3.3324999,0.43694180250167847,-0.07960720360279083,7.066486358642578,2.777099609375,-0.9765625,-3.082275390625
3.3374999,0.05925649031996727,-0.20949265360832214,7.452551364898682,-1.861572265625,1.77001953125,6.195068359375
3.3424999,0.3411737382411957,-0.1735796183347702,6.78816032409668,0.18310546875,-2.197265625,-5.4931640625
3.3474999000000003,-0.09935937076807022,-0.12330138683319092,7.436390399932861,1.40380859375,2.593994140625,3.60107421875
3.3524999,0.23762452602386475,-0.16400282084941864,6.536170482635498,-3.265380859375,-3.2958984375,-2.197265625
3.3574999,-0.04728548228740692,-0.01496376097202301,7.427412033081055,3.7841796875,3.631591796875,6.011962890625
3.3624999,0.28072014451026917,-0.06224924325942993,6.338050365447998,-4.45556640625,-3.41796875,-4.69970703125
3.3674999000000003,0.041299980133771896,0.019153613597154617,7.402273178100586,5.79833984375,2.9296875,3.387451171875
3.3724999,0.22744916379451752,0.08379705995321274,6.62355899810791,-4.669189453125,-3.23486328125,0.30517578125
3.3774999,-0.0065840547904372215,0.2651578485965729,7.606977462768555,4.852294921875,2.899169921875,4.5166015625
3.3824999,-0.03411737456917763,0.14484919607639313,7.22869348526001,-7.598876953125,-2.593994140625,-0.91552734375
3.3874999000000003,-0.1412578970193863,-0.0293289702385664,7.807491779327393,8.209228515625,3.0517578125,-3.11279296875
3.3924999000000002,-0.07781155407428741,-0.1646013706922531,7.73087739944458,-3.326416015625,-1.922607421875,-6.34765625
3.3974999,0.055665191262960434,-0.17178396880626678,7.897274494171143,2.38037109375,0.244140625,3.11279296875
3.4024999,0.11192893236875534,-0.5249287486076355,8.229470252990723,-2.593994140625,-1.007080078125,8.514404296875
3.4074999000000004,0.28730419278144836,-0.019153613597154617,8.123526573181152,2.349853515625,2.197265625,2.685546875
3.4124999000000003,0.06883329898118973,-0.30226796865463257,8.325238227844238,-1.40380859375,-1.495361328125,1.8310546875
3.4174999,0.18315643072128296,-0.22445641458034515,7.800907611846924,1.312255859375,-0.518798828125,7.171630859375
3.4224999,-0.25498247146606445,0.050876785069704056,7.479485988616943,1.373291015625,-0.030517578125,1.922607421875
3.4274999000000004,-0.1430535465478897,0.25917232036590576,6.63433313369751,-0.396728515625,2.5634765625,6.622314453125
3.4324999000000003,-0.7212532758712769,0.46806642413139343,6.569090843200684,1.007080078125,0.518798828125,8.758544921875
3.4374999,-0.5524620413780212,1.3293805122375488,6.370372295379639,-0.640869140625,-1.220703125,18.98193359375
3.4424999,-0.9157821536064148,1.2892776727676392,7.3920979499816895,1.861572265625,-2.349853515625,9.124755859375
3.4474999000000004,-0.6362590789794922,2.031480073928833,7.893084526062012,1.40380859375,6.134033203125,15.13671875
3.4524999000000003,-0.3926490843296051,1.4419080018997192,8.79928970336914,-3.23486328125,-10.101318359375,-5.096435546875
3.4574999,-0.1933317929506302,1.5376760959625244,8.940547943115234,12.26806640625,6.072998046875,-0.885009765625
3.4624999,-0.01496376097202301,1.1264718770980835,8.115745544433594,-19.866943359375,-9.674072265625,-22.552490234375
3.4674999,0.2059013396501541,0.10654197633266449,7.981669902801514,8.819580078125,6.4697265625,-5.92041015625
3.4724999000000003,0.24181437492370605,0.3292027413845062,6.710947513580322,-1.15966796875,-6.561279296875,-10.6201171875
3.4774999,0.4040215313434601,-0.8978256583213806,6.582857608795166,-8.7890625,-0.213623046875,-7.568359375
3.4824999,0.49380409717559814,-0.5871779918670654,5.90589714050293,12.847900390625,10.80322265625,-18.24951171875
3.4874999,0.7164648771286011,-0.4842272996902466,5.98490571975708,-9.735107421875,-7.080078125,-36.224365234375
3.4924999000000003,0.8870517015457153,-0.5315127968788147,5.724536418914795,8.72802734375,1.312255859375,-14.6484375
3.4974999,1.3353660106658936,0.5291185975074768,6.641515731811523,-3.11279296875,1.03759765625,-5.767822265625
3.5024999,1.6968904733657837,-0.07422025501728058,7.1472907066345215,-1.556396484375,-2.74658203125,-7.598876953125
3.5074999,1.5867571830749512,0.7547720670700073,7.858368396759033,1.8310546875,3.997802734375,6.103515625
3.5124999000000003,1.4646528959274292,0.5883750915527344,8.392873764038086,-0.48828125,1.15966796875,-9.063720703125
3.5174999000000002,1.0307037830352783,0.44173020124435425,8.64127254486084,-0.457763671875,-0.518798828125,-4.913330078125
3.5224999,0.42437225580215454,0.9373299479484558,8.245630264282227,0.823974609375,0.762939453125,5.889892578125
3.5274999,0.363918662071228,0.9151836037635803,8.257601737976074,0.18310546875,0.335693359375,-6.439208984375
3.5324999000000004,0.10773907601833344,0.8337807655334473,8.008605003356934,-1.708984375,-2.166748046875,-3.2958984375
3.5374999000000003,-0.048482585698366165,1.0965443849563599,7.3867106437683105,0.091552734375,0.762939453125,4.425048828125
3.5424999,0.15741875767707825,0.8846575021743774,7.518392086029053,1.556396484375,1.373291015625,-9.27734375
3.5474999,0.14784196019172668,0.4926069974899292,7.274781703948975,-1.5869140625,-1.251220703125,-5.92041015625
3.5524999000000004,0.10893617570400238,0.9289502501487732,6.860584735870361,-1.800537109375,-0.1220703125,5.31005859375
3.5574999000000003,0.27892449498176575,1.0875661373138428,7.098209381103516,2.777099609375,1.77001953125,-9.735107421875
3.5624999,0.181959331035614,0.8972271084785461,7.000047206878662,-1.708984375,-1.28173828125,-9.521484375
3.5674999,0.181959331035614,0.8972271084785461,7.000047206878662,-1.708984375,-1.28173828125,-9.521484375
3.5724999000000004,0.15801730751991272,0.9319429993629456,6.959944248199463,-0.3662109375,0.885009765625,0.091552734375
3.5774999000000003,0.3010708689689636,0.8954314589500427,7.660248279571533,0.762939453125,1.434326171875,-5.035400390625
3.5824999,0.4345476031303406,0.3758896589279175,7.938574314117432,-0.1220703125,-0.8544921875,-4.7607421875
3.5874999,0.43993455171585083,0.5937620401382446,8.416815757751465,-0.244140625,0.9765625,2.3193359375
3.5924999,0.4016273319721222,0.557250440120697,8.841188430786133,-0.67138671875,1.15966796875,-2.62451171875
3.5974999000000003,0.3687070608139038,0.2992752194404602,8.942941665649414,0.8544921875,-1.373291015625,-3.23486328125
3.6024999,0.15562310814857483,-0.4016273319721222,9.048286437988281,-1.77001953125,0.640869140625,6.34765625
3.6074999,0.12749123573303223,-0.21308395266532898,8.395268440246582,0.67138671875,0.8544921875,5.615234375
3.6124999,0.07062894850969315,-0.4854243993759155,8.464101791381836,1.15966796875,-0.396728515625,-2.74658203125
3.6174999000000003,0.06823474913835526,-0.1041477769613266,7.837419033050537,0.030517578125,-0.823974609375,-0.885009765625
3.6224999,0.008379706181585789,0.12270283699035645,7.623138427734375,-0.335693359375,-1.15966796875,12.6953125
3.6274999,-0.019153613597154617,0.34596213698387146,7.438784599304199,-1.46484375,2.0751953125,4.913330078125
3.6324999,-0.0005985504249110818,0.37648820877075195,7.446565628051758,2.349853515625,-0.823974609375,-8.575439453125
3.6374999000000003,-0.09457096457481384,-0.1496376097202301,7.1454949378967285,-0.640869140625,-0.30517578125,-1.0986328125
3.6424999000000002,-0.19153612852096558,-0.055665191262960434,6.9910688400268555,-1.007080078125,-0.152587890625,12.237548828125
3.6474999,-0.08140286058187485,-0.05386953800916672,7.026981830596924,0.6103515625,1.312255859375,-0.762939453125
3.6524999,0.11432313174009323,0.04668693244457245,6.908469200134277,1.03759765625,-1.953125,-12.847900390625
3.6574999000000004,0.23582886159420013,0.08319851011037827,7.0593037605285645,-2.01416015625,-0.335693359375,-1.0986328125
3.6624999000000003,0.4884171485900879,0.14903905987739563,6.647500991821289,-0.579833984375,2.01416015625,11.77978515625
3.6674999,0.3669114112854004,0.4710591733455658,7.076661586761475,1.64794921875,0.54931640625,-3.326416015625
3.6724999,0.4818331003189087,0.557250440120697,6.803123950958252,0.42724609375,-2.13623046875,-13.61083984375
3.6774999000000004,0.3292027413845062,0.9481038451194763,7.2574238777160645,-1.52587890625,0.091552734375,-1.434326171875
3.6824999000000003,0.24480712413787842,0.993593692779541,7.046135425567627,0.701904296875,3.173828125,14.007568359375
3.6874999,0.17178396880626678,0.8978256583213806,7.451354026794434,-0.091552734375,-1.3427734375,-0.8544921875
3.6924999,0.07122749835252762,1.0342950820922852,7.152677536010742,0.946044921875,-2.0751953125,-11.993408203125
3.6974999000000004,0.013766659423708916,1.0767922401428223,7.640496253967285,-1.46484375,0.48828125,-3.662109375
3.7024999000000003,0.22625206410884857,1.303044319152832,7.622539520263672,0.79345703125,1.190185546875,7.568359375
3.7074999,0.2472013235092163,0.8738836050033569,7.68538761138916,-1.678466796875,-0.06103515625,-0.244140625
3.7124999,0.3124433159828186,0.9804255962371826,7.709928035736084,2.044677734375,-1.220703125,-8.087158203125
3.7174999,0.4471171796321869,0.761954665184021,7.9451584815979,-1.129150390625,-0.518798828125,-4.2724609375
3.7224999000000003,0.375291109085083,0.40222588181495667,8.397064208984375,-1.495361328125,0.48828125,8.575439453125
3.7274999,0.4411316514015198,0.0065840547904372215,8.358158111572266,-0.701904296875,2.86865234375,8.60595703125
3.7324999,0.1538274586200714,-0.010773907415568829,8.143278121948242,1.953125,-3.23486328125,-3.60107421875
3.7374999,0.14484919607639313,0.1173158809542656,7.7661919593811035,0.54931640625,0.030517578125,-9.33837890625
3.7424999000000003,0.05267243832349777,0.4471171796321869,7.457339763641357,-0.640869140625,-0.030517578125,0.091552734375
3.7474999,0.1256955862045288,0.629675030708313,7.6117658615112305,1.52587890625,1.434326171875,14.404296875
3.7524999,0.020350715145468712,0.21188685297966003,7.439981937408447,-2.5634765625,2.9296875,5.096435546875
3.7574999,0.06344634294509888,0.28550854325294495,7.672817707061768,1.5869140625,-5.9814453125,-9.3994140625
3.7624999000000003,0.10175357013940811,0.3447650372982025,7.713519096374512,-0.91552734375,0.9765625,-12.298583984375
3.7674999000000002,0.12449848651885986,-0.07003039866685867,7.870339393615723,-0.54931640625,0.6103515625,1.77001953125
3.7724999,0.2579752206802368,0.1711854189634323,7.709928035736084,3.7841796875,2.44140625,18.524169921875
3.7774999,0.030526071786880493,-0.25737667083740234,7.132925510406494,-1.922607421875,3.509521484375,3.875732421875
3.7824999000000004,0.023942016065120697,0.3944447338581085,6.843226909637451,-0.91552734375,-7.9345703125,-15.68603515625
3.7874999000000003,0.12330138683319092,0.6937199234962463,6.737283706665039,-0.54931640625,0.885009765625,-17.730712890625
3.7924999,0.32202014327049255,0.790086567401886,7.024587631225586,-0.244140625,1.52587890625,-0.946044921875
3.7974999,0.5692214369773865,0.4381389021873474,7.757213592529297,1.03759765625,1.129150390625,14.5263671875
3.8024999000000004,0.49799394607543945,0.005386953707784414,7.89547872543335,-2.13623046875,1.52587890625,7.6904296875
3.8074999000000003,0.4016273319721222,0.0694318488240242,8.304288864135742,1.28173828125,-2.99072265625,-4.8828125
3.8124999,0.2819172441959381,0.47405192255973816,8.377910614013672,-0.18310546875,-0.213623046875,-9.09423828125
3.8174999,0.2735375463962555,0.4878185987472534,8.761581420898438,-1.03759765625,1.03759765625,-1.708984375
3.8224999000000004,0.23523031175136566,0.40880993008613586,8.910619735717773,1.52587890625,1.251220703125,0.3662109375
3.8274999000000003,0.01975216343998909,0.08140286058187485,8.948927879333496,0.091552734375,3.11279296875,9.307861328125
3.8324999,-0.07062894850969315,0.07900865375995636,8.662819862365723,-0.091552734375,-4.425048828125,1.312255859375
3.8374999,-0.09038111567497253,0.43993455171585083,8.630498886108398,-0.06103515625,-0.8544921875,-10.1318359375
3.8424999,0.1562216579914093,0.4273650050163269,8.65623664855957,-0.946044921875,0.732421875,-2.716064453125
3.8474999000000003,0.17896658182144165,0.2932897210121155,8.738836288452148,-0.030517578125,1.556396484375,4.08935546875
3.8524999,0.31842881441116333,0.009576806798577309,8.924386978149414,3.90625,0.6103515625,9.246826171875
3.8574999,-0.1107318252325058,-0.09397241473197937,8.909422874450684,-1.708984375,3.662109375,6.500244140625
3.8624999,-0.12928688526153564,0.52552729845047,8.60775375366211,-2.197265625,-7.75146484375,-8.819580078125
3.8674999000000003,0.04728548228740692,0.9062053561210632,8.685564994812012,0.823974609375,0.640869140625,-15.106201171875
3.8724999,0.304063618183136,1.1049240827560425,8.818443298339844,0.091552734375,1.40380859375,-0.885009765625
3.8774999,0.3663128614425659,0.08738835901021957,8.983643531799316,-1.03759765625,1.007080078125,10.162353515625
3.8824999,0.4572925269603729,-0.11372458189725876,8.75080680847168,7.720947265625,1.251220703125,17.15087890625
3.8874999000000003,-0.06643909960985184,-0.5776011347770691,9.043498039245605,4.8828125,4.5166015625,7.62939453125
3.8924999000000002,-0.21188685297966003,0.47225627303123474,8.671199798583984,-9.307861328125,-6.77490234375,-8.056640625
3.8974999,0.0077811554074287415,1.2180501222610474,8.737639427185059,-1.983642578125,-2.86865234375,-22.613525390625
3.9024999,0.3513490855693817,1.8213889598846436,9.169792175292969,-0.79345703125,1.983642578125,-14.2822265625
3.9074999000000004,0.6542156338691711,0.9127894043922424,8.999804496765137,-0.18310546875,1.678466796875,5.615234375
3.9124999000000003,0.7876923680305481,-0.15801730751991272,9.347561836242676,3.60107421875,0.335693359375,20.99609375
3.9174999,0.2256535142660141,-0.9349357485771179,8.953117370605469,7.110595703125,8.087158203125,17.822265625
3.9224999,-0.1256955862045288,-0.5392939448356628,8.811859130859375,-6.16455078125,-8.575439453125,0
3.9274999000000004,-0.34835633635520935,0.5201402902603149,8.679579734802246,-4.180908203125,-2.593994140625,-21.1181640625
3.9324999000000003,0.020949264988303185,1.4520833492279053,8.701127052307129,-0.06103515625,0.030517578125,-20.01953125
3.9374999,0.020949264988303185,1.4520833492279053,8.701127052307129,-0.06103515625,0.030517578125,-20.01953125
3.9424999,0.4411316514015198,1.4748282432556152,9.036913871765137,-0.3662109375,1.617431640625,-3.7841796875
3.9474999000000004,0.5746083855628967,0.1933317929506302,9.031527519226074,-0.152587890625,1.953125,8.026123046875
3.9524999000000003,0.5033808946609497,-0.7170634269714355,9.405022621154785,7.232666015625,-0.885009765625,24.96337890625
3.9574999,-0.16400282084941864,-1.2994530200958252,8.842984199523926,13.031005859375,6.2255859375,25.482177734375
3.9624999,-0.4465186297893524,-0.24899697303771973,8.572439193725586,-3.509521484375,-7.843017578125,1.708984375
3.9674999000000004,-0.5249287486076355,0.8379706144332886,8.594585418701172,-15.19775390625,1.03759765625,-24.47509765625
3.9724999000000003,0.013168109580874443,2.097320795059204,8.31326675415039,0.274658203125,-4.302978515625,-33.02001953125
3.9774999,0.4273650050163269,1.6172832250595093,8.947132110595703,-3.0517578125,2.593994140625,-18.218994140625
3.9824999,1.0552444458007812,1.2838906049728394,9.243413925170898,2.25830078125,2.62451171875,-2.9296875
3.9874999,0.6530185341835022,-0.6961141228675842,9.697115898132324,0.67138671875,0.244140625,12.359619140625
3.9924999000000003,0.4076128304004669,-0.9457096457481384,9.698312759399414,12.5732421875,0.91552734375,45.7763671875
3.9974999,-0.29388827085494995,-1.094150185585022,9.407417297363281,16.66259765625,1.922607421875,25.0244140625
4.0024999,-0.46327802538871765,0.06464344263076782,8.981847763061523,-3.90625,-5.828857421875,-11.23046875
4.0074999,-0.25258827209472656,1.6178817749023438,9.07103157043457,-19.683837890625,4.21142578125,-31.341552734375
4.0124999,0.2753331959247589,2.1924901008605957,8.825626373291016,-7.354736328125,-5.828857421875,-43.487548828125
4.0174999,0.8307880163192749,2.229600429534912,9.54209041595459,-1.0986328125,0.762939453125,-28.106689453125
4.022499900000001,1.1222820281982422,0.8583213090896606,9.771934509277344,0.732421875,2.716064453125,-13.00048828125
4.0274999000000005,1.2599486112594604,0.06883329898118973,9.77133560180664,1.28173828125,1.068115234375,16.754150390625
4.0324999,0.5638344883918762,-1.3108254671096802,9.784503936767578,0.213623046875,-0.48828125,27.191162109375
4.0374999,0.046088382601737976,-1.1917139291763306,9.68274974822998,7.965087890625,2.044677734375,41.93115234375
4.0424999,-0.6428431272506714,-0.5704185366630554,9.181164741516113,11.962890625,2.74658203125,22.705078125
4.0474999,-0.9085995554924011,0.1951274424791336,9.344569206237793,-9.002685546875,-3.448486328125,-16.571044921875
4.0524999,-0.5147533416748047,1.7423802614212036,9.097368240356445,-10.43701171875,-4.0283203125,-21.453857421875
4.0574999,0.15801730751991272,2.075772762298584,9.390657424926758,-0.274658203125,-0.152587890625,-27.03857421875
4.062499900000001,0.8361749649047852,1.6184803247451782,9.555258750915527,-1.739501953125,-1.3427734375,-23.162841796875
4.0674999000000005,1.301847219467163,1.0205284357070923,9.728838920593262,1.77001953125,4.486083984375,-2.44140625
4.0724999,1.05105459690094,-0.6991068720817566,9.696516990661621,-1.03759765625,0.457763671875,6.9580078125
4.0774999,0.7015010714530945,-0.983418345451355,9.534908294677734,2.74658203125,0.457763671875,13.763427734375
4.0824999,0.01496376097202301,-1.270722508430481,9.48462963104248,1.190185546875,1.983642578125,12.75634765625
4.0874999,-0.8313865661621094,-2.02848744392395,9.597756385803223,-1.40380859375,-3.72314453125,6.04248046875
4.0924999,-1.0845733880996704,-1.3766659498214722,9.840168952941895,12.51220703125,-2.532958984375,39.97802734375
4.0974999,-1.1941081285476685,-1.1426327228546143,9.890447616577148,20.751953125,-0.396728515625,19.4091796875
4.1024999,-0.7134721279144287,0.1999158412218094,9.564237594604492,-5.7373046875,5.523681640625,-33.69140625
4.1074999000000005,0.06344634294509888,1.3617022037506104,9.452906608581543,-26.7333984375,-2.166748046875,-52.30712890625
4.1124999,1.0342950820922852,2.4163479804992676,8.610746383666992,0.335693359375,-2.471923828125,-30.975341796875
4.1174999,1.6148890256881714,2.1332337856292725,8.908226013183594,-1.861572265625,1.28173828125,-15.7470703125
4.1224999,1.7334020137786865,1.1677719354629517,8.797493934631348,-2.9296875,-0.06103515625,-5.18798828125
4.1274999,1.5496470928192139,0.3058592677116394,9.115324020385742,2.716064453125,2.349853515625,2.38037109375
4.1324999,0.9085995554924011,-0.4967968463897705,9.493009567260742,0.42724609375,-0.152587890625,13.885498046875
4.1374999,0.30705636739730835,-0.8343793153762817,9.698312759399414,-1.46484375,-1.861572265625,11.90185546875
4.1424999,-0.25977087020874023,-1.3623007535934448,10.075399398803711,-0.579833984375,-0.42724609375,8.11767578125
4.147499900000001,-0.4531026780605316,-0.8409633636474609,9.972448348999023,4.39453125,2.685546875,12.5732421875
4.1524999000000005,-0.6063315868377686,-0.9481038451194763,10.020931243896484,0.30517578125,1.190185546875,5.615234375
4.1574999,-0.7655459642410278,-0.9684545993804932,9.829395294189453,-1.28173828125,-2.349853515625,0.213623046875
4.1624999,-0.9870096445083618,-1.7256208658218384,10.193912506103516,4.2724609375,-4.425048828125,30.426025390625
4.1674999,-1.1540051698684692,-1.856104850769043,9.967061996459961,26.18408203125,-0.640869140625,56.21337890625
4.1724999,-1.1150994300842285,-1.6238672733306885,10.104728698730469,23.37646484375,2.105712890625,3.326416015625
4.1774999,-0.5919663906097412,0.2687491476535797,9.46727180480957,-2.410888671875,1.983642578125,-57.7392578125
4.1824999,0.29149407148361206,2.676118850708008,8.676587104797363,-24.749755859375,-0.1220703125,-89.691162109375
4.187499900000001,1.245583415031433,3.8151605129241943,8.355165481567383,-31.402587890625,-4.058837890625,-84.503173828125
4.1924999000000005,1.9476830959320068,3.0867245197296143,8.088809967041016,10.43701171875,-4.180908203125,-32.16552734375
4.1974999,2.09672212600708,1.1887211799621582,8.666411399841309,-2.0751953125,7.049560546875,34.11865234375
4.2024999,1.912368655204773,-0.6434416770935059,8.899248123168945,-4.241943359375,-0.030517578125,39.093017578125
4.2074999,1.1965023279190063,-1.5705963373184204,9.509170532226562,1.28173828125,1.983642578125,12.8173828125
4.2124999,0.5871779918670654,-1.258152961730957,9.648633003234863,-2.105712890625,-2.13623046875,-9.063720703125
4.2174999,0.08379705995321274,-0.5249287486076355,9.841964721679688,-0.457763671875,0.30517578125,-15.9912109375
4.2224999,-0.2124854028224945,-0.39803603291511536,9.895236015319824,-0.42724609375,0.701904296875,-5.950927734375
4.2274999,-0.2998737692832947,-0.2148796021938324,9.910199165344238,0.67138671875,-0.3662109375,11.04736328125
4.2324999000000005,-0.3477577865123749,-0.24779987335205078,9.88625717163086,0.396728515625,0.274658203125,14.7705078125
4.2374999,-0.26336219906806946,-0.12988543510437012,9.825204849243164,-0.946044921875,-0.152587890625,-1.922607421875
4.2424999,-0.10714052617549896,0.17836803197860718,9.77253246307373,-0.640869140625,-0.244140625,-7.659912109375
4.2474999,0.019153613597154617,0.25318682193756104,9.694122314453125,0.091552734375,0.762939453125,-0.885009765625
4.2524999,0.09876082092523575,-0.2603694200515747,9.730035781860352,0.152587890625,-0.823974609375,7.904052734375
4.2574999,0.13826514780521393,-0.0802057534456253,9.630077362060547,1.861572265625,1.312255859375,15.07568359375
4.2624999,0.15801730751991272,-0.2777273952960968,9.720458984375,-0.762939453125,0.06103515625,2.899169921875
4.2674999,0.22505496442317963,-0.10714052617549896,9.700706481933594,-1.373291015625,-1.40380859375,-6.77490234375
4.272499900000001,0.10893617570400238,-0.18734627962112427,9.713275909423828,0.396728515625,0.8544921875,-1.953125
4.2774999000000005,-0.20530278980731964,-1.2006921768188477,9.861717224121094,3.35693359375,0,15.838623046875
4.2824999,-0.545877993106842,-1.413776159286499,9.828198432922363,9.429931640625,0.42724609375,44.158935546875
4.2874999,-0.7332242727279663,-1.094150185585022,9.750985145568848,6.34765625,-1.129150390625,21.514892578125
4.2924999,-0.5548562407493591,0.32680854201316833,9.658209800720215,-8.880615234375,0.48828125,-25.787353515625
4.2974999,0.22206220030784607,2.009932279586792,9.531316757202148,-10.223388671875,-5.950927734375,-49.86572265625
4.3024999,1.0684125423431396,2.876034736633301,9.579200744628906,1.068115234375,1.708984375,-42.05322265625
4.3074999,1.0684125423431396,2.876034736633301,9.579200744628906,1.068115234375,1.708984375,-42.05322265625
4.312499900000001,1.7735048532485962,2.276885747909546,9.668983459472656,-0.152587890625,2.471923828125,-12.51220703125
4.3174999000000005,1.7699135541915894,0.42018240690231323,9.944316864013672,-1.922607421875,1.46484375,17.7001953125
4.3224999,1.3503297567367554,-1.0528502464294434,9.82640266418457,4.150390625,2.838134765625,35.064697265625
4.3274999,0.4728548228740692,-1.8339585065841675,9.977835655212402,-0.06103515625,-0.67138671875,30.914306640625
4.3324999,-0.10295066982507706,-1.3036428689956665,9.761159896850586,-1.190185546875,-0.91552734375,-0.274658203125
4.3374999,-0.21607670187950134,-0.05626374110579491,9.752182006835938,-1.46484375,-1.129150390625,-17.63916015625
4.3424999,0.05027823522686958,0.8242039084434509,9.6989107131958,-1.15966796875,-0.518798828125,-10.3759765625
4.3474999,0.34656068682670593,0.8032546639442444,9.70310115814209,-1.40380859375,0.1220703125,2.0751953125
4.352499900000001,0.4339490532875061,0.1412578970193863,9.786299705505371,1.89208984375,1.77001953125,7.568359375
4.3574999000000005,0.22864626348018646,-0.5476736426353455,9.7791166305542,2.166748046875,0.67138671875,28.106689453125
4.3624999,-0.1215057373046875,-0.6835445761680603,9.821614265441895,-0.274658203125,-0.885009765625,22.216796875
4.3674999,-0.29149407148361206,-0.30226796865463257,9.765948295593262,-0.946044921875,-1.15966796875,-6.134033203125
4.3724999,-0.21966800093650818,0.1388636976480484,9.731831550598145,-1.40380859375,-1.312255859375,-14.190673828125
4.3774999,0.04967968538403511,0.406415730714798,9.694122314453125,-0.335693359375,0.396728515625,-11.65771484375
4.3824999,0.10295066982507706,-0.24420857429504395,9.710882186889648,0.79345703125,1.40380859375,0.946044921875
4.3874999,0.07122749835252762,-0.6530185341835022,9.70429801940918,1.89208984375,-0.1220703125,21.697998046875
4.3924999,-0.09816227108240128,-0.596754789352417,9.6803560256958,1.678466796875,1.15966796875,21.209716796875
4.397499900000001,-0.12689268589019775,-0.16101007163524628,9.686341285705566,-1.8310546875,-2.593994140625,-3.35693359375
4.4024999000000005,0.0694318488240242,0.6380547285079956,9.685144424438477,-0.8544921875,-0.640869140625,-12.786865234375
4.4074999,0.2322375625371933,0.6889315247535706,9.736021041870117,-0.640869140625,0.18310546875,-6.34765625
4.4124999,0.1346738487482071,-0.26994624733924866,9.854534149169922,0.762939453125,1.03759765625,3.662109375
4.4174999,-0.33758243918418884,-1.5083470344543457,9.987412452697754,5.2490234375,-0.457763671875,32.2265625
4.4224999,-0.849941611289978,-2.015319347381592,10.055048942565918,11.04736328125,0.54931640625,42.877197265625
4.4274999,-1.1414356231689453,-1.4646528959274292,9.88625717163086,8.941650390625,-1.03759765625,0.67138671875
4.4324999,-0.8493430614471436,0.3471592366695404,9.532513618469238,-4.45556640625,-0.152587890625,-47.54638671875
4.437499900000001,-0.10833762586116791,2.078765630722046,9.548076629638672,-19.53125,-1.5869140625,-74.920654296875
4.4424999000000005,1.0127472877502441,2.9496564865112305,9.073426246643066,-1.77001953125,-2.25830078125,-64.75830078125
4.4474999,1.96683669090271,2.604292869567871,9.394847869873047,0.3662109375,3.2958984375,-25.848388671875
4.4524999,2.515707492828369,1.2964602708816528,9.391256332397461,-0.518798828125,2.197265625,16.66259765625
4.4574999,2.3122003078460693,-0.2579752206802368,9.589376449584961,-1.251220703125,1.373291015625,36.956787109375
4.4624999,1.5957354307174683,-1.2856862545013428,9.656414031982422,2.532958984375,1.03759765625,27.435302734375
4.4674999,0.34835633635520935,-2.0207061767578125,9.871294021606445,0.48828125,-0.640869140625,25.177001953125
4.4724999,-0.8942343592643738,-2.1745336055755615,9.838972091674805,1.28173828125,-0.885009765625,33.538818359375
4.477499900000001,-1.7531541585922241,-1.8327614068984985,9.8784761428833,5.126953125,-3.41796875,39.61181640625
4.4824999000000005,-2.075174331665039,-1.1761516332626343,9.789292335510254,3.326416015625,-2.50244140625,18.402099609375
4.4874999,-1.6711528301239014,-0.05746084079146385,9.683947563171387,-3.265380859375,0.79345703125,-17.39501953125
4.4924999,-0.7116764783859253,1.0181342363357544,9.66958236694336,-5.889892578125,-2.471923828125,-43.365478515625
4.4974999,0.46088382601737976,1.5508441925048828,9.643844604492188,-0.396728515625,0.06103515625,-47.05810546875
4.5024999,1.3551181554794312,1.4484920501708984,9.761159896850586,0.335693359375,2.655029296875,-27.64892578125
4.5074999,1.6962919235229492,0.8918401598930359,9.782708168029785,0.762939453125,2.9296875,-2.166748046875
4.5124999,1.4963760375976562,0.2621650993824005,9.795876502990723,0.335693359375,0.54931640625,6.866455078125
4.5174999,0.9744400978088379,-0.14065934717655182,9.754576683044434,-0.396728515625,-1.007080078125,1.77001953125
4.522499900000001,0.37828385829925537,-0.3106476664543152,9.750985145568848,0.18310546875,0.06103515625,-1.15966796875
4.5274999000000005,0.05267243832349777,-0.34356793761253357,9.749788284301758,0.885009765625,0.8544921875,-0.213623046875
4.5324999,-0.0933738648891449,-0.3016694188117981,9.755773544311523,0.8544921875,0.91552734375,-0.18310546875
4.5374999,-0.08918401598930359,-0.2753331959247589,9.740809440612793,0.823974609375,0.579833984375,-0.152587890625
4.5424999,-0.017956512048840523,-0.2867056429386139,9.75517463684082,0.213623046875,0.030517578125,-0.3662109375
4.5474999,0.09816227108240128,-0.3687070608139038,9.737217903137207,0.518798828125,0.274658203125,-1.373291015625
4.5524999,0.2172738015651703,-0.444722980260849,9.755773544311523,0.640869140625,0.48828125,-4.39453125
4.5574999,0.32441434264183044,-0.43514615297317505,9.764751434326172,0.30517578125,0.213623046875,-8.758544921875
4.562499900000001,0.38546648621559143,-0.31543606519699097,9.761758804321289,0.67138671875,0.030517578125,-10.68115234375
4.5674999000000005,0.375291109085083,-0.12749123573303223,9.7605619430542,0.3662109375,-0.244140625,-9.124755859375
4.5724999,0.30226796865463257,0.08080431073904037,9.758766174316406,-0.091552734375,-0.396728515625,-6.439208984375
4.5774999,0.17537526786327362,0.2585737705230713,9.752182006835938,0.30517578125,-0.1220703125,-3.753662109375
4.5824999,0.048482585698366165,0.40880993008613586,9.741408348083496,0.640869140625,-0.091552734375,-1.28173828125
4.5874999,-0.0293289702385664,0.47824180126190186,9.710882186889648,-0.030517578125,-0.6103515625,0.48828125
4.5924999,-0.03711012750864029,0.48303020000457764,9.709685325622559,-2.01416015625,-0.640869140625,0.79345703125
4.5974999,0.013168109580874443,0.3489548861980438,9.697713851928711,-1.922607421875,-0.67138671875,0.030517578125
4.602499900000001,0.09457096457481384,0.2106897532939911,9.724050521850586,-0.396728515625,-0.518798828125,-0.244140625
4.6074999000000005,0.1646013706922531,0.020350715145468712,9.753378868103027,-0.701904296875,-0.579833984375,-0.091552734375
4.6124999,0.2232593148946762,-0.08319851011037827,9.7791166305542,-0.67138671875,-0.6103515625,0.152587890625
4.6174999,0.2561795711517334,-0.15502455830574036,9.78869342803955,-0.091552734375,-0.091552734375,-0.030517578125
4.6224999,0.28131869435310364,-0.1951274424791336,9.800065994262695,0.213623046875,0.6103515625,-0.48828125
4.6274999,0.28790274262428284,-0.1867477297782898,9.797073364257812,0.67138671875,1.068115234375,-0.48828125
4.6324999,0.2645592987537384,-0.16998831927776337,9.78989028930664,0.91552734375,1.03759765625,-0.6103515625
4.6374999,0.23762452602386475,-0.12749123573303223,9.77672290802002,0.762939453125,0.48828125,-0.54931640625
4.6424999,0.19632454216480255,-0.08978256583213806,9.7605619430542,0.67138671875,0.274658203125,-0.640869140625
4.647499900000001,0.17238251864910126,-0.0586579404771328,9.746196746826172,0.762939453125,0.244140625,-0.274658203125
4.6524999000000005,0.16519992053508759,-0.04668693244457245,9.733627319335938,0.6103515625,0.18310546875,-0.6103515625
4.6574999,0.1777694821357727,-0.02513911761343479,9.727641105651855,0.42724609375,0,-1.3427734375
4.6624999,0.18734627962112427,-0.035913024097681046,9.699509620666504,0.518798828125,0.213623046875,-1.52587890625
4.6674999,0.18375498056411743,-0.021547814831137657,9.721057891845703,-0.579833984375,-0.1220703125,-1.15966796875
4.6724999,0.1843535304069519,0.009576806798577309,9.701904296875,-0.244140625,-0.457763671875,-0.8544921875
4.6774999,0.1843535304069519,0.009576806798577309,9.701904296875,-0.244140625,-0.457763671875,-0.8544921875
4.6824999,0.15083470940589905,0.03292027488350868,9.727043151855469,-0.091552734375,-0.152587890625,-0.213623046875
4.687499900000001,0.15682020783424377,0.04369417950510979,9.743802070617676,-0.518798828125,-0.457763671875,-0.091552734375
4.6924999000000005,0.15741875767707825,0.04967968538403511,9.753378868103027,-0.1220703125,-0.335693359375,0.06103515625
4.6974999,0.15921440720558167,0.008379706181585789,9.766547203063965,-0.091552734375,0,-0.152587890625
4.7024999,0.18076223134994507,-0.011971008032560349,9.77133560180664,-0.30517578125,-0.457763671875,0.06103515625
4.7074999,0.17836803197860718,-0.03172317147254944,9.77133560180664,-0.244140625,-0.823974609375,0.152587890625
4.7124999,0.18614917993545532,-0.03950432687997818,9.767146110534668,-0.42724609375,-0.579833984375,0.06103515625
4.7174999,0.19871874153614044,-0.04369417950510979,9.766547203063965,-0.42724609375,-0.518798828125,0.091552734375
4.7224999,0.21009120345115662,-0.04967968538403511,9.764153480529785,-0.335693359375,-0.42724609375,0.1220703125
4.727499900000001,0.2190694510936737,-0.04728548228740692,9.761159896850586,-0.274658203125,-0.213623046875,-0.1220703125
4.7324999000000005,0.22445641458034515,-0.047884032130241394,9.755773544311523,-0.335693359375,-0.1220703125,-0.18310546875
4.7374999,0.22266076505184174,-0.04249707981944084,9.753378868103027,-0.42724609375,-0.244140625,-0.152587890625
4.7424999,0.21308395266532898,-0.04189852997660637,9.746196746826172,-0.3662109375,-0.274658203125,-0.091552734375
4.7474999,0.20949265360832214,-0.03890577703714371,9.750985145568848,-0.091552734375,-0.06103515625,-0.152587890625
4.7524999,0.21009120345115662,-0.04668693244457245,9.75637149810791,0.213623046875,0.030517578125,-0.1220703125
4.7574999,0.20889410376548767,-0.047884032130241394,9.759963035583496,0.335693359375,0.48828125,-0.30517578125
4.7624999,0.20051439106464386,-0.033518824726343155,9.761758804321289,0.244140625,0.518798828125,-0.213623046875
4.7674999,0.1843535304069519,-0.019153613597154617,9.750386238098145,-0.091552734375,-0.1220703125,-0.244140625
4.772499900000001,0.1693897694349289,0.002394201699644327,9.742605209350586,-0.335693359375,-0.54931640625,-0.1220703125
4.7774999000000005,0.1759738177061081,0.04010287672281265,9.742006301879883,-0.42724609375,-0.54931640625,-0.1220703125
4.7824999,0.19871874153614044,0.10295066982507706,9.741408348083496,-0.335693359375,-0.213623046875,0.457763671875
4.7874999,0.2711433470249176,0.20290859043598175,9.733028411865234,-0.213623046875,-0.579833984375,0.701904296875
4.7924999,0.3818751573562622,0.2867056429386139,9.740211486816406,-0.701904296875,-1.068115234375,2.899169921875
4.7974999,0.5333084464073181,0.3292027413845062,9.732429504394531,-0.518798828125,-0.518798828125,5.828857421875
4.8024999,0.6841431260108948,0.30226796865463257,9.750386238098145,-0.457763671875,-0.152587890625,8.087158203125
4.8074999,0.7823054194450378,0.22924481332302094,9.764153480529785,-0.396728515625,0,10.68115234375
4.812499900000001,0.8032546639442444,0.17657238245010376,9.774328231811523,-0.152587890625,0.335693359375,12.115478515625
4.8174999000000005,0.7236474752426147,0.17657238245010376,9.774927139282227,-0.030517578125,0.946044921875,10.43701171875
4.8224999,0.5057750940322876,0.14185644686222076,9.762955665588379,-0.274658203125,1.251220703125,6.011962890625
4.8274999,0.23702596127986908,0.05446808785200119,9.780912399291992,-1.129150390625,2.410888671875,-4.45556640625
4.8324999,-0.015562310814857483,0.016759412363171577,9.759963035583496,0.732421875,0.946044921875,-13.214111328125
4.8374999,-0.23822307586669922,-0.1777694821357727,9.77133560180664,-0.48828125,1.434326171875,-3.631591796875
4.8424999,-0.28131869435310364,-0.24001872539520264,9.750386238098145,-0.213623046875,0.457763671875,-0.152587890625
4.8474999,-0.21787235140800476,-0.33997663855552673,9.737217903137207,0.06103515625,-0.42724609375,2.99072265625
4.852499900000001,-0.181959331035614,-0.4279635548591614,9.728838920593262,-0.42724609375,0.54931640625,7.843017578125
4.8574999000000005,-0.0933738648891449,-0.4321534037590027,9.729436874389648,0.030517578125,0.244140625,4.669189453125
4.8624999,-0.1041477769613266,-0.456095427274704,9.744999885559082,-0.1220703125,-0.396728515625,1.953125
4.8674999,-0.09876082092523575,-0.4124012291431427,9.746794700622559,-0.152587890625,0.1220703125,0.54931640625
4.8724999,-0.05626374110579491,-0.3292027413845062,9.765948295593262,0.06103515625,-0.244140625,-0.42724609375
4.8774999,0.013168109580874443,-0.25977087020874023,9.756970405578613,0.06103515625,0.1220703125,-0.18310546875
4.8824999,0.08439560979604721,-0.14185644686222076,9.754576683044434,-0.213623046875,0.30517578125,-0.152587890625
4.8874999,0.16819266974925995,-0.08858546614646912,9.746196746826172,-0.152587890625,-0.30517578125,-0.1220703125
4.8924999,0.1999158412218094,-0.016160860657691956,9.747393608093262,0.18310546875,-0.06103515625,-0.18310546875
4.897499900000001,0.21667525172233582,-0.03890577703714371,9.742006301879883,-0.18310546875,0.274658203125,-0.274658203125
4.9024999000000005,0.23403321206569672,-0.008379706181585789,9.756970405578613,0.030517578125,0.06103515625,-0.152587890625
4.9074999,0.20949265360832214,-0.02693476900458336,9.754576683044434,0.18310546875,0.030517578125,-0.18310546875
4.9124999,0.21308395266532898,-0.031124621629714966,9.751583099365234,-0.030517578125,-0.030517578125,-0.274658203125
4.9174999,0.20111294090747833,-0.04369417950510979,9.753378868103027,-0.1220703125,0.091552734375,-0.18310546875
4.9224999,0.18375498056411743,-0.02693476900458336,9.746196746826172,-0.030517578125,0.213623046875,-0.274658203125
4.9274999,0.20111294090747833,-0.05686229094862938,9.744400978088379,-0.18310546875,-0.30517578125,-0.06103515625
4.9324999,0.18794482946395874,-0.03890577703714371,9.742006301879883,-0.1220703125,0.06103515625,-0.18310546875
4.937499900000001,0.18495208024978638,-0.03232172131538391,9.73781681060791,-0.06103515625,0.274658203125,-0.30517578125
4.9424999000000005,0.20290859043598175,-0.03770867735147476,9.729436874389648,-0.1220703125,-0.244140625,-0.152587890625
4.9474999,0.17956513166427612,-0.02454056777060032,9.731232643127441,-0.152587890625,0.030517578125,-0.274658203125
4.9524999,0.18794482946395874,-0.019153613597154617,9.731232643127441,0.091552734375,0,-0.274658203125
4.9574999,0.19931729137897491,-0.046088382601737976,9.731232643127441,-0.152587890625,-0.274658203125,-0.152587890625
4.9624999,0.18076223134994507,-0.03172317147254944,9.73781681060791,-0.030517578125,0.091552734375,-0.18310546875
4.9674999,0.20470423996448517,-0.0586579404771328,9.746794700622559,-0.091552734375,0,-0.1220703125
4.9724999,0.18974047899246216,-0.06404489278793335,9.753378868103027,0.06103515625,0,-0.06103515625
4.977499900000001,0.18914192914962769,-0.058059390634298325,9.774328231811523,0.18310546875,0.06103515625,-0.274658203125
4.9824999000000005,0.18914192914962769,-0.058059390634298325,9.785101890563965,-0.091552734375,0.06103515625,-0.091552734375
4.9874999,0.18555063009262085,-0.05925649031996727,9.798270225524902,-0.030517578125,0.091552734375,-0.1220703125
4.9924999,0.181959331035614,-0.03770867735147476,9.79647445678711,-0.091552734375,0.213623046875,-0.54931640625
4.9974999,0.18375498056411743,-0.046088382601737976,9.802460670471191,0.152587890625,-0.030517578125,-0.18310546875
5.0024999,0.1825578808784485,-0.04728548228740692,9.800664901733398,-0.091552734375,-0.213623046875,-0.152587890625
5.0074999,0.18076223134994507,-0.03770867735147476,9.784503936767578,0.213623046875,-0.1220703125,-0.091552734375
5.0124999,0.18914192914962769,-0.020949264988303185,9.774927139282227,-0.06103515625,0.030517578125,-0.274658203125
5.0174999,0.1801636815071106,-0.04249707981944084,9.743802070617676,-0.274658203125,0.1220703125,-0.274658203125
5.022499900000001,0.19692309200763702,0.002992752008140087,9.72285270690918,0.1220703125,-0.1220703125,-0.18310546875
5.0274999000000005,0.1885433793067932,-0.03770867735147476,9.715071678161621,-0.06103515625,0.18310546875,-0.18310546875
5.0324999,0.2017114907503128,-0.03950432687997818,9.713874816894531,0.030517578125,-0.06103515625,0.030517578125
5.0374999,0.2059013396501541,-0.013766659423708916,9.713874816894531,0.030517578125,-0.18310546875,-0.30517578125
5.0424999,0.2064998894929886,-0.09157821536064148,9.733627319335938,-0.06103515625,0.213623046875,-0.274658203125
5.0474999,0.2064998894929886,-0.09157821536064148,9.733627319335938,-0.06103515625,0.213623046875,-0.274658203125
5.0524999,0.19692309200763702,0.002394201699644327,9.734824180603027,0.1220703125,0.030517578125,-0.091552734375
5.0574999,0.19572599232196808,-0.07841010391712189,9.744400978088379,-0.06103515625,-0.335693359375,-0.244140625
5.062499900000001,0.18794482946395874,-0.0035913025494664907,9.769539833068848,-0.030517578125,-0.030517578125,-0.274658203125
5.0674999000000005,0.16998831927776337,-0.043095629662275314,9.756970405578613,-0.1220703125,-0.030517578125,-0.274658203125
5.0724999,0.19692309200763702,-0.025737667456269264,9.767744064331055,-0.1220703125,-0.30517578125,-0.030517578125
5.0774999,0.1735796183347702,-0.058059390634298325,9.767146110534668,-0.1220703125,0.18310546875,-0.1220703125
5.0824999,0.1909375786781311,-0.05506663769483566,9.767744064331055,0.06103515625,0.213623046875,-0.030517578125
5.0874999,0.1975216418504715,-0.09038111567497253,9.765948295593262,-0.1220703125,0.030517578125,-0.18310546875
5.0924999,0.181959331035614,-0.050876785069704056,9.7605619430542,0,0.396728515625,-0.518798828125
5.0974999,0.18734627962112427,-0.0867898091673851,9.756970405578613,0.091552734375,-0.091552734375,-0.1220703125
5.102499900000001,0.19213469326496124,-0.02693476900458336,9.750386238098145,-0.06103515625,-0.640869140625,-0.213623046875
5.1074999000000005,0.1586158573627472,-0.08080431073904037,9.751583099365234,-0.1220703125,0.274658203125,-0.06103515625
5.1124999,0.20231004059314728,-0.046088382601737976,9.774328231811523,-0.091552734375,0.06103515625,-0.030517578125
5.1174999,0.1825578808784485,-0.0933738648891449,9.751583099365234,-0.091552734375,0.152587890625,-0.091552734375
5.1224999,0.2059013396501541,-0.0454898327589035,9.752182006835938,0.18310546875,0.244140625,0.06103515625
5.1274999,0.2190694510936737,-0.07781155407428741,9.740809440612793,-0.30517578125,-0.030517578125,-0.396728515625
5.1324999,0.18375498056411743,-0.02992752194404602,9.722254753112793,0.213623046875,0.06103515625,-0.30517578125
5.1374999,0.2017114907503128,-0.03411737456917763,9.731831550598145,0.030517578125,-0.457763671875,-0.30517578125
5.1424999,0.1711854189634323,-0.04189852997660637,9.743204116821289,-0.18310546875,-0.091552734375,0.18310546875
5.147499900000001,0.18974047899246216,-0.03411737456917763,9.737217903137207,-0.18310546875,0,-0.030517578125
5.1524999000000005,0.18614917993545532,-0.06344634294509888,9.743204116821289,0.18310546875,-0.06103515625,0.030517578125
5.1574999,0.19572599232196808,-0.058059390634298325,9.73661994934082,0.06103515625,0.1220703125,-0.091552734375
5.1624999,0.1735796183347702,-0.08379705995321274,9.721057891845703,-0.274658203125,-0.091552734375,-0.6103515625
5.1674999,0.1867477297782898,-0.058059390634298325,9.732429504394531,-0.030517578125,-0.152587890625,-0.18310546875
5.1724999,0.1693897694349289,-0.04249707981944084,9.731831550598145,0.030517578125,-0.396728515625,-0.091552734375
5.1774999,0.19692309200763702,-0.06404489278793335,9.75278091430664,-0.18310546875,0.06103515625,0.18310546875
5.1824999,0.2064998894929886,-0.02992752194404602,9.753378868103027,-0.06103515625,0.213623046875,0.06103515625
5.187499900000001,0.2124854028224945,-0.026336219161748886,9.761159896850586,0.30517578125,0.579833984375,-0.18310546875
5.1924999000000005,0.2082955539226532,-0.05147533491253853,9.747992515563965,-0.274658203125,0.18310546875,-0.6103515625
5.1974999,0.19692309200763702,-0.009576806798577309,9.7605619430542,-0.06103515625,-0.18310546875,-0.335693359375
5.2024999,0.1735796183347702,-0.01735796220600605,9.75397777557373,0.1220703125,-0.42724609375,-0.335693359375
5.2074999,0.20231004059314728,-0.06224924325942993,9.765948295593262,-0.3662109375,-0.091552734375,0.30517578125
5.2124999,0.1909375786781311,-0.04967968538403511,9.75637149810791,-0.091552734375,0.152587890625,0.152587890625
