# Time (seconds),Accel_X,Accel_Y,Accel_Z,Gyro_X,Gyro_Y,Gyro_Z
0.0024999,0.8804676532745361,-0.5518634915351868,9.749189376831055,5.828857421875,-0.274658203125,1.0986328125
0.0074999,0.9457096457481384,-0.5656301379203796,9.727043151855469,-5.615234375,0.6103515625,1.15966796875
0.012499900000000001,0.8924387097358704,-0.6458359360694885,9.66419506072998,-0.18310546875,-0.518798828125,-2.86865234375
0.0174999,0.8792705535888672,-0.5542576909065247,9.731831550598145,5.79833984375,-0.274658203125,1.03759765625
0.0224999,0.9463081955909729,-0.5692214369773865,9.72165584564209,-5.31005859375,0.54931640625,1.373291015625
0.0274999,0.8798691034317017,-0.5614402890205383,9.755773544311523,6.04248046875,-0.335693359375,0.823974609375
0.0324999,0.9445125460624695,-0.558447539806366,9.730035781860352,-5.523681640625,0.885009765625,1.52587890625
0.0374999,0.9014169573783875,-0.6434416770935059,9.679159164428711,-0.732421875,-0.67138671875,-2.62451171875
0.0424999,0.8750807046890259,-0.5452794432640076,9.728838920593262,5.55419921875,-0.213623046875,1.007080078125
0.0474999,0.943913996219635,-0.5476736426353455,9.70549488067627,-4.669189453125,0.457763671875,1.068115234375
0.0524999,0.9032126069068909,-0.6386532783508301,9.658807754516602,-0.30517578125,-1.03759765625,-2.899169921875
0.0574999,0.8822633028030396,-0.5476736426353455,9.718663215637207,5.67626953125,0.06103515625,1.068115234375
0.0624999,0.9660604000091553,-0.5392939448356628,9.73781681060791,-5.401611328125,0.79345703125,1.52587890625
0.0674999,0.9295487999916077,-0.6368576288223267,9.675567626953125,-0.823974609375,-0.48828125,-2.899169921875
0.0724999,0.9068039059638977,-0.547075092792511,9.748590469360352,6.011962890625,-0.152587890625,0.54931640625
0.0774999,0.982221245765686,-0.5524620413780212,9.745597839355469,-4.791259765625,0.6103515625,1.434326171875
0.0824999,0.8966285586357117,-0.5632359385490417,9.768342971801758,6.103515625,-0.396728515625,0.640869140625
0.0874999,0.9750386476516724,-0.5512649416923523,9.79408073425293,-4.8828125,0.823974609375,1.373291015625
0.0924999,0.933738648891449,-0.6458359360694885,9.729436874389648,-1.28173828125,-0.457763671875,-2.899169921875
0.0974999,0.9038111567497253,-0.5596446394920349,9.783307075500488,5.7373046875,-0.091552734375,0.823974609375
0.1024999,0.9690531492233276,-0.5518634915351868,9.791686058044434,-4.486083984375,0.48828125,1.495361328125
0.1074999,0.9241618514060974,-0.6476315855979919,9.725846290588379,-1.007080078125,-0.54931640625,-3.082275390625
0.1124999,0.8780734539031982,-0.5632359385490417,9.767146110534668,6.16455078125,-0.091552734375,0.42724609375
0.1174999,0.9612720012664795,-0.5620388388633728,9.807249069213867,-4.57763671875,0.67138671875,1.77001953125
0.1224999,0.9068039059638977,-0.6625953316688538,9.733028411865234,-1.220703125,-0.6103515625,-2.8076171875
0.1274999,0.8756792545318604,-0.5925649404525757,9.777320861816406,6.103515625,-0.06103515625,0.48828125
0.1324999,0.889445960521698,-0.5979518890380859,9.770736694335938,5.889892578125,-0.06103515625,0.6103515625
0.1374999,0.9774328470230103,-0.5728127360343933,9.804255485534668,-4.638671875,0.79345703125,1.739501953125
0.1424999,0.933738648891449,-0.6584054827690125,9.716269493103027,-1.46484375,-0.6103515625,-2.838134765625
0.1474999,0.9062053561210632,-0.5943605899810791,9.770736694335938,5.92041015625,-0.152587890625,0.457763671875
0.1524999,0.9846154451370239,-0.5811924338340759,9.815030097961426,-4.241943359375,0.6103515625,1.861572265625
0.1574999,0.9403226971626282,-0.6805518269538879,9.73661994934082,-1.46484375,-0.701904296875,-2.62451171875
0.1624999,0.9816226959228516,-0.578798234462738,9.815628051757812,-4.45556640625,0.701904296875,1.678466796875
0.1674999,0.9343371987342834,-0.6625953316688538,9.72285270690918,-1.77001953125,-0.518798828125,-2.777099609375
0.1724999,0.8978256583213806,-0.6003460884094238,9.755773544311523,6.072998046875,-0.48828125,0.79345703125
0.17749990000000002,0.9738415479660034,-0.5644330382347107,9.797672271728516,-4.45556640625,0.579833984375,1.77001953125
0.1824999,0.8852560520172119,-0.6111199855804443,9.759963035583496,6.16455078125,-0.1220703125,0.335693359375
0.1874999,0.9588778018951416,-0.5901707410812378,9.807249069213867,-3.875732421875,0.762939453125,1.739501953125
0.1924999,0.9056068062782288,-0.6871358752250671,9.721057891845703,-1.617431640625,-0.579833984375,-2.9296875
0.1974999,0.9056068062782288,-0.6871358752250671,9.721057891845703,-1.617431640625,-0.579833984375,-2.9296875
0.2024999,0.861314058303833,-0.6260837316513062,9.767146110534668,6.195068359375,-0.18310546875,0.18310546875
0.20749990000000001,0.9409212470054626,-0.596754789352417,9.806650161743164,-4.08935546875,0.518798828125,1.64794921875
0.2124999,0.8900445103645325,-0.6727706789970398,9.725247383117676,-2.105712890625,-0.6103515625,-2.5634765625
0.2174999,0.8637082576751709,-0.6153098344802856,9.777320861816406,6.103515625,-0.457763671875,0.396728515625
0.2224999,0.9415197968482971,-0.5847837924957275,9.80904483795166,-4.0283203125,0.640869140625,1.89208984375
0.2274999,0.899621307849884,-0.6703764796257019,9.738415718078613,-2.01416015625,-0.579833984375,-2.655029296875
0.2324999,0.8649053573608398,-0.6308721303939819,9.775525093078613,5.767822265625,-0.091552734375,0.274658203125
0.2374999,0.9445125460624695,-0.5913678407669067,9.835979461669922,-4.39453125,0.6103515625,1.89208984375
0.2424999,0.9427168965339661,-0.5704185366630554,9.81024169921875,-4.33349609375,0.8544921875,1.89208984375
0.2474999,0.8888474106788635,-0.6512228846549988,9.70429801940918,-2.0751953125,-0.30517578125,-2.716064453125
0.2524999,0.8457517623901367,-0.6147112846374512,9.731831550598145,6.317138671875,-0.30517578125,0.213623046875
0.2574999,0.9283517003059387,-0.5746083855628967,9.783307075500488,-3.814697265625,0.79345703125,1.800537109375
0.2624999,0.8816647529602051,-0.6673837304115295,9.68694019317627,-2.13623046875,-0.54931640625,-2.8076171875
0.2674999,0.8577227592468262,-0.6212953329086304,9.744400978088379,6.40869140625,-0.3662109375,0.213623046875
0.2724999,0.9427168965339661,-0.5770025849342346,9.77791976928711,-4.08935546875,0.732421875,2.105712890625
0.2774999,0.899621307849884,-0.6625953316688538,9.687539100646973,-2.44140625,-0.30517578125,-2.74658203125
0.2824999,0.8678981065750122,-0.6230909824371338,9.734824180603027,6.103515625,0,0.1220703125
0.28749990000000003,0.9564836025238037,-0.5805938839912415,9.77133560180664,-4.241943359375,0.6103515625,2.0751953125
0.2924999,0.9014169573783875,-0.657806932926178,9.679159164428711,-2.3193359375,-0.518798828125,-2.62451171875
0.2974999,0.9062053561210632,-0.6458359360694885,9.692327499389648,-2.410888671875,-0.54931640625,-2.685546875
0.3024999,0.8762778043746948,-0.6093243360519409,9.75397777557373,6.072998046875,-0.274658203125,0.213623046875
0.3074999,0.9528923034667969,-0.569819986820221,9.791686058044434,-3.692626953125,0.579833984375,1.800537109375
0.3124999,0.8990227580070496,-0.6590040326118469,9.6989107131958,-2.105712890625,-0.6103515625,-2.5634765625
0.3174999,0.861314058303833,-0.6362590789794922,9.749189376831055,5.92041015625,-0.3662109375,0.274658203125
0.3224999,0.943913996219635,-0.5931634902954102,9.803657531738281,-3.662109375,0.518798828125,1.739501953125
0.3274999,0.8954314589500427,-0.67815762758255,9.710882186889648,-2.471923828125,-0.396728515625,-2.593994140625
0.3324999,0.8619126081466675,-0.6386532783508301,9.764751434326172,6.256103515625,-0.244140625,0.396728515625
0.3374999,0.945111095905304,-0.5608417391777039,9.779715538024902,-4.302978515625,0.701904296875,2.13623046875
0.3424999,0.945111095905304,-0.5608417391777039,9.779715538024902,-4.302978515625,0.701904296875,2.13623046875
0.34749990000000003,0.8948329091072083,-0.6470330357551575,9.68933391571045,-2.25830078125,-0.48828125,-2.655029296875
0.35249990000000003,0.861314058303833,-0.6212953329086304,9.734824180603027,6.89697265625,-0.579833984375,-0.1220703125
0.3574999,0.9475052952766418,-0.5841852426528931,9.798270225524902,-3.814697265625,0.54931640625,1.77001953125
0.3624999,0.8978256583213806,-0.6709750294685364,9.707889556884766,-2.105712890625,-0.48828125,-2.532958984375
0.3674999,0.8643068075180054,-0.6482301354408264,9.774328231811523,6.683349609375,-0.457763671875,0.18310546875
0.3724999,0.9391255974769592,-0.6009446382522583,9.827000617980957,-4.241943359375,0.640869140625,1.800537109375
0.3774999,0.884058952331543,-0.6925228238105774,9.715670585632324,-2.25830078125,-0.48828125,-2.777099609375
0.3824999,0.8523358106613159,-0.6530185341835022,9.779715538024902,6.4697265625,-0.42724609375,0
0.3874999,0.9415197968482971,-0.5991489887237549,9.819219589233398,-4.241943359375,0.762939453125,2.01416015625
0.3924999,0.8732850551605225,-0.6386532783508301,9.773730278015137,6.378173828125,-0.457763671875,0.152587890625
0.3974999,0.9493009448051453,-0.585382342338562,9.812037467956543,-3.96728515625,0.67138671875,2.044677734375
0.4024999,0.9002198576927185,-0.6661866307258606,9.709086418151855,-2.5634765625,-0.30517578125,-2.593994140625
0.4074999,0.8655039072036743,-0.6260837316513062,9.756970405578613,6.195068359375,-0.213623046875,0.091552734375
0.41249990000000003,0.9421183466911316,-0.5740098357200623,9.780912399291992,-4.2724609375,0.79345703125,1.922607421875
0.41749990000000003,0.8936358094215393,-0.657806932926178,9.673172950744629,-2.166748046875,-0.18310546875,-2.74658203125
0.4224999,0.8619126081466675,-0.6212953329086304,9.720458984375,6.866455078125,-0.396728515625,0
0.4274999,0.9463081955909729,-0.5805938839912415,9.759963035583496,-3.936767578125,0.48828125,1.8310546875
0.4324999,0.8978256583213806,-0.6685808300971985,9.673172950744629,-2.44140625,-0.457763671875,-2.685546875
0.4374999,0.8732850551605225,-0.6308721303939819,9.727641105651855,6.04248046875,0,0.1220703125
0.4424999,0.9510966539382935,-0.6003460884094238,9.77791976928711,-3.5400390625,0.6103515625,1.708984375
0.4474999,0.9020155072212219,-0.6787561774253845,9.68694019317627,-2.227783203125,-0.6103515625,-2.86865234375
0.4524999,0.9558850526809692,-0.5931634902954102,9.801262855529785,-3.96728515625,0.762939453125,1.953125
0.4574999,0.9002198576927185,-0.6476315855979919,9.710283279418945,-2.655029296875,-0.457763671875,-2.38037109375
0.4624999,0.8798691034317017,-0.6147112846374512,9.779715538024902,6.04248046875,-0.06103515625,0.091552734375
0.4674999,0.9582792520523071,-0.5704185366630554,9.810839653015137,-4.0283203125,0.67138671875,1.861572265625
0.47249990000000003,0.9044097065925598,-0.6596025824546814,9.72285270690918,-2.25830078125,-0.701904296875,-2.471923828125
0.47749990000000003,0.8732850551605225,-0.6500257849693298,9.764153480529785,6.805419921875,-0.30517578125,0.18310546875
0.4824999,0.8822633028030396,-0.6775590777397156,9.687539100646973,-2.227783203125,-0.6103515625,-2.410888671875
0.4874999,0.851138710975647,-0.6470330357551575,9.742006301879883,6.53076171875,-0.213623046875,0.06103515625
0.4924999,0.9361328482627869,-0.5991489887237549,9.787496566772461,-3.814697265625,0.457763671875,1.739501953125
0.4974999,0.8912416100502014,-0.669179379940033,9.716867446899414,-2.166748046875,-0.640869140625,-2.74658203125
0.5024999,0.8684966564178467,-0.6218938827514648,9.770736694335938,6.34765625,-0.244140625,0.244140625
0.5074999,0.9475052952766418,-0.5674257874488831,9.81143856048584,-4.0283203125,0.518798828125,2.0751953125
0.5124999,0.8918401598930359,-0.6458359360694885,9.712677955627441,-2.593994140625,-0.67138671875,-2.685546875
0.5174999,0.8583213090896606,-0.6254851818084717,9.750985145568848,5.950927734375,0,0.06103515625
0.5224999,0.9421183466911316,-0.5913678407669067,9.797073364257812,-3.875732421875,0.701904296875,1.8310546875
0.5274999,0.8900445103645325,-0.6757634282112122,9.689932823181152,-2.349853515625,-0.30517578125,-2.5634765625
0.5324999,0.8720879554748535,-0.6500257849693298,9.750386238098145,6.28662109375,-0.091552734375,0.030517578125
0.5374999,0.9552865028381348,-0.586579442024231,9.79408073425293,-4.08935546875,0.579833984375,1.861572265625
0.5424999,0.8738836050033569,-0.6236895322799683,9.746196746826172,5.67626953125,0.06103515625,0.244140625
0.5474999,0.9576807022094727,-0.5805938839912415,9.791686058044434,-3.90625,0.885009765625,1.861572265625
0.5524999,0.9014169573783875,-0.6673837304115295,9.68694019317627,-2.532958984375,-0.457763671875,-2.685546875
0.5574999,0.8768763542175293,-0.6392518281936646,9.75278091430664,6.378173828125,0.1220703125,0.244140625
0.5624999,0.8708908557891846,-0.6177040338516235,9.762955665588379,6.256103515625,-0.030517578125,0.213623046875
0.5674999000000001,0.9552865028381348,-0.5859808921813965,9.810839653015137,-3.90625,0.732421875,1.953125
0.5724999000000001,0.8780734539031982,-0.6368576288223267,9.762357711791992,6.622314453125,-0.3662109375,0.06103515625
0.5774999000000001,0.9612720012664795,-0.5931634902954102,9.785101890563965,-3.96728515625,0.823974609375,1.861572265625
0.5824999,0.9097966551780701,-0.6649895310401917,9.683348655700684,-2.685546875,-0.30517578125,-2.44140625
0.5874999,0.8786720037460327,-0.6200982332229614,9.729436874389648,6.072998046875,0.06103515625,0.244140625
0.5924999,0.9540894031524658,-0.5776011347770691,9.776124000549316,-4.39453125,0.885009765625,2.01416015625
0.5974999,0.8984242081642151,-0.6482301354408264,9.693524360656738,-2.532958984375,-0.457763671875,-2.5634765625
0.6024999,0.8684966564178467,-0.6278793811798096,9.761159896850586,6.744384765625,-0.244140625,0.152587890625
0.6074999,0.9498994946479797,-0.586579442024231,9.810839653015137,-3.997802734375,0.579833984375,2.044677734375
0.6124999,0.9026140570640564,-0.6685808300971985,9.715071678161621,-2.349853515625,-0.335693359375,-2.50244140625
0.6174999,0.8816647529602051,-0.6380547285079956,9.774328231811523,6.317138671875,0.030517578125,0.152587890625
0.6224999,0.9636662006378174,-0.5847837924957275,9.81263542175293,-3.96728515625,0.732421875,1.983642578125
0.6274999,0.9157821536064148,-0.6661866307258606,9.723451614379883,-2.44140625,-0.518798828125,-2.44140625
0.6324999,0.943913996219635,-0.5817909836769104,9.802460670471191,-3.90625,0.67138671875,1.861572265625
0.6374999,0.8930372595787048,-0.6667851805686951,9.697713851928711,-2.410888671875,-0.518798828125,-2.8076171875
0.6424999,0.8643068075180054,-0.6368576288223267,9.761758804321289,6.256103515625,-0.030517578125,0.091552734375
0.6474999,0.9355342984199524,-0.586579442024231,9.779715538024902,-4.08935546875,0.701904296875,1.922607421875
0.6524999,0.8834604024887085,-0.6715735793113708,9.691129684448242,-2.44140625,-0.48828125,-2.685546875
0.6574999,0.8505401611328125,-0.6350619792938232,9.73542308807373,6.195068359375,0.091552734375,0
0.6624999,0.9361328482627869,-0.586579442024231,9.788095474243164,-3.814697265625,0.67138671875,1.708984375
0.6674999,0.8918401598930359,-0.6596025824546814,9.699509620666504,-2.349853515625,-0.6103515625,-2.9296875
0.6724999,0.8696937561035156,-0.6254851818084717,9.758167266845703,6.591796875,-0.244140625,-0.091552734375
0.6774999,0.9014169573783875,-0.656609833240509,9.6989107131958,-2.471923828125,-0.640869140625,-2.777099609375
0.6824999,0.8708908557891846,-0.6314706802368164,9.75637149810791,6.103515625,-0.18310546875,0.06103515625
0.6874999,0.9516952037811279,-0.5829881429672241,9.7791166305542,-3.814697265625,0.518798828125,1.861572265625
0.6924999000000001,0.9044097065925598,-0.6757634282112122,9.691728591918945,-2.288818359375,-0.457763671875,-2.685546875
0.6974999000000001,0.8822633028030396,-0.6482301354408264,9.739612579345703,6.4697265625,-0.213623046875,0.1220703125
0.7024999000000001,0.9714473485946655,-0.586579442024231,9.774927139282227,-3.96728515625,0.732421875,1.861572265625
0.7074999,0.9367313981056213,-0.6901286244392395,9.697115898132324,-2.716064453125,-0.030517578125,-2.99072265625
0.7124999,0.9409212470054626,-0.6177040338516235,9.731232643127441,6.134033203125,0.91552734375,-0.3662109375
0.7174999,1.1953052282333374,-0.5811924338340759,9.668983459472656,-4.5166015625,3.143310546875,0.823974609375
0.7224999,1.5340847969055176,-1.0426748991012573,9.363722801208496,8.1787109375,15.594482421875,-8.4228515625
0.7274999,1.9363106489181519,-1.6525976657867432,7.900267124176025,-1.64794921875,33.111572265625,-21.514892578125
0.7324999,1.9183541536331177,-1.3856441974639893,7.003039836883545,12.3291015625,41.961669921875,-40.34423828125
0.7374999,1.9033904075622559,-1.235408067703247,6.080075263977051,50.811767578125,41.961669921875,-43.45703125
0.7424999,1.0384849309921265,-0.07900865375995636,6.061520099639893,30.731201171875,34.11865234375,-16.815185546875
0.7474999,0.15981295704841614,-0.09696517139673233,6.3063273429870605,32.470703125,24.810791015625,-28.900146484375
0.7524999,-0.93254154920578,1.5269020795822144,7.020398139953613,-8.880615234375,15.380859375,-12.51220703125
0.7574999,-1.6310498714447021,1.2982559204101562,6.711545944213867,-1.64794921875,-4.33349609375,-20.69091796875
0.7624999,-1.521515130996704,2.6024973392486572,6.533177852630615,-38.665771484375,-13.00048828125,8.514404296875
0.7674999,-1.3593080043792725,1.7064672708511353,5.625176906585693,25.543212890625,-14.5263671875,-8.30078125
0.7724999,-1.1665748357772827,1.5203180313110352,5.616198539733887,-17.730712890625,-4.2724609375,23.86474609375
0.7774999,-0.6775590777397156,0.8194155097007751,5.3779754638671875,46.630859375,-17.08984375,12.359619140625
0.7824999,-0.7487865686416626,0.26156654953956604,5.477933406829834,-53.40576171875,-15.869140625,11.505126953125
0.7874999,0.2017114907503128,0.9056068062782288,6.736684799194336,-40.374755859375,-15.9912109375,16.4794921875
0.7924999,0.8649053573608398,0.6272808313369751,7.419631004333496,2.86865234375,-31.890869140625,12.420654296875
0.7974999,1.091755986213684,0.768538773059845,6.710348606109619,21.240234375,-12.664794921875,-11.53564453125
0.8024999,1.3066356182098389,-0.22864626348018646,5.908291339874268,-3.47900390625,6.683349609375,35.82763671875
0.8074999,1.3066356182098389,-0.22864626348018646,5.908291339874268,-3.47900390625,6.683349609375,35.82763671875
0.8124999,0.9080010056495667,-0.5985504388809204,5.804741859436035,99.517822265625,-6.134033203125,3.570556640625
0.8174999000000001,0.7140706777572632,-0.7661445140838623,6.27400541305542,-6.28662109375,-3.11279296875,-12.603759765625
0.8224999000000001,0.37409400939941406,0.629675030708313,6.619967937469482,-75.50048828125,-24.84130859375,5.340576171875
0.8274999000000001,0.25677812099456787,0.5937620401382446,7.218518257141113,-21.636962890625,-24.261474609375,24.169921875
0.8324999000000001,0.4812345504760742,1.3335703611373901,7.375936985015869,47.05810546875,-9.3994140625,1.0986328125
0.8374999,2.030881643295288,-1.4047977924346924,8.522759437561035,15.19775390625,-3.509521484375,11.322021484375
0.8424999,1.9399019479751587,-1.1887211799621582,8.270770072937012,49.835205078125,6.34765625,-7.537841796875
0.8474999,1.4610615968704224,-0.8649053573608398,7.890690326690674,9.33837890625,8.819580078125,-18.646240234375
0.8524999,0.7841010689735413,-0.8445546627044678,8.435371398925781,-22.0947265625,-2.410888671875,-7.4462890625
0.8574999,0.4076128304004669,-0.5626373887062073,8.535927772521973,-17.608642578125,-9.1552734375,6.072998046875
0.8624999,0.21607670187950134,-0.24839842319488525,8.875306129455566,-15.13671875,-10.25390625,12.786865234375
0.8674999,0.2687491476535797,-0.4273650050163269,9.199121475219727,2.44140625,-12.20703125,7.232666015625
0.8724999,0.46088382601737976,-0.39624038338661194,9.467870712280273,3.570556640625,-9.21630859375,-0.732421875
0.8774999,0.7332242727279663,-0.6619967818260193,9.690531730651855,-5.401611328125,-6.103515625,-6.988525390625
0.8824999,1.4939818382263184,-1.280897855758667,9.64923095703125,6.683349609375,-2.0751953125,9.82666015625
0.8874999,1.3341689109802246,-1.3646949529647827,9.678560256958008,6.591796875,0.6103515625,0.67138671875
0.8924999,1.1366472244262695,-1.1965023279190063,9.625288963317871,-1.28173828125,3.692626953125,-10.406494140625
0.8974999,0.9678560495376587,-0.9295487999916077,9.683947563171387,-1.46484375,5.2490234375,-8.056640625
0.9024999,0.9068039059638977,-0.6105214357376099,9.75936508178711,1.5869140625,-0.18310546875,6.072998046875
0.9074999,0.8062474131584167,-0.38905778527259827,9.819818496704102,3.2958984375,-6.195068359375,12.51220703125
0.9124999,0.8032546639442444,-0.30286651849746704,9.87967300415039,1.28173828125,-3.631591796875,0.396728515625
0.9174999,0.8008604645729065,-0.304063618183136,9.801262855529785,-4.57763671875,2.5634765625,-12.8173828125
0.9224999,0.8798691034317017,-0.3531447649002075,9.733627319335938,-5.767822265625,5.767822265625,-9.21630859375
0.9274999,0.9977835416793823,-0.4686649739742279,9.734824180603027,1.0986328125,-0.1220703125,7.2021484375
0.9324999,1.0211269855499268,-0.6260837316513062,9.780912399291992,4.8828125,-7.171630859375,15.045166015625
0.9374999,0.9355342984199524,-0.71766197681427,9.72285270690918,-4.669189453125,3.84521484375,-14.984130859375
0.9424999000000001,0.9900023937225342,-0.6554127335548401,9.66299819946289,-5.9814453125,6.927490234375,-9.857177734375
0.9474999000000001,1.0127472877502441,-0.596754789352417,9.664793968200684,3.96728515625,-0.54931640625,9.796142578125
0.9524999000000001,1.01753568649292,-0.5494692921638489,9.749788284301758,5.615234375,-7.87353515625,15.2587890625
0.9574999000000001,0.9498994946479797,-0.5620388388633728,9.782109260559082,1.678466796875,-2.166748046875,-3.875732421875
0.9624999,0.8804676532745361,-0.4692635238170624,9.753378868103027,-8.758544921875,6.317138671875,-16.998291015625
0.9674999,0.8960300087928772,-0.5374982953071594,9.713275909423828,-2.8076171875,5.0048828125,-2.960205078125
0.9724999,0.9373299479484558,-0.6021417379379272,9.752182006835938,7.2021484375,-5.2490234375,16.387939453125
0.9774999,0.9498994946479797,-0.6554127335548401,9.838972091674805,4.638671875,-5.950927734375,7.568359375
0.9824999,0.9217676520347595,-0.6697779297828674,9.822212219238281,-6.53076171875,3.265380859375,-14.46533203125
0.9874999,0.9199720025062561,-0.6224924325942993,9.77133560180664,-6.8359375,6.9580078125,-10.7421875
0.9924999,0.9175778031349182,-0.6159083843231201,9.731831550598145,6.89697265625,-2.410888671875,11.688232421875
0.9974999,0.9624691009521484,-0.5626373887062073,9.791088104248047,6.77490234375,-7.720947265625,12.63427734375
1.0024999,0.9528923034667969,-0.5644330382347107,9.764153480529785,-6.256103515625,1.312255859375,-10.284423828125
1.0074999000000002,0.9828197956085205,-0.5674257874488831,9.781511306762695,-8.11767578125,7.232666015625,-12.20703125
1.0124999000000001,0.9864110946655273,-0.5949591398239136,9.75936508178711,8.36181640625,-2.44140625,10.92529296875
1.0174999000000002,0.9774328470230103,-0.5650315880775452,9.726444244384766,5.92041015625,-7.32421875,10.498046875
1.0224999000000001,0.973242998123169,-0.5536591410636902,9.677363395690918,-9.307861328125,3.509521484375,-12.3291015625
1.0274999,0.9654618501663208,-0.5793967843055725,9.726444244384766,-4.730224609375,6.683349609375,-8.209228515625
1.0324999000000001,0.9014169573783875,-0.545877993106842,9.73781681060791,10.43701171875,-5.035400390625,13.397216796875
1.0374999,0.9259575009346008,-0.5548562407493591,9.711481094360352,2.38037109375,-5.340576171875,4.302978515625
1.0424999000000001,0.9493009448051453,-0.6027402877807617,9.830592155456543,10.833740234375,-2.532958984375,9.521484375
1.0474999,0.945111095905304,-0.5386953949928284,9.763554573059082,4.33349609375,-6.500244140625,7.01904296875
1.0524999000000002,0.9199720025062561,-0.568622887134552,9.737217903137207,-13.824462890625,5.645751953125,-12.87841796875
1.0574999,0.9175778031349182,-0.6278793811798096,9.780313491821289,3.143310546875,3.875732421875,-0.8544921875
1.0624999000000002,0.9169792532920837,-0.5776011347770691,9.785101890563965,12.0849609375,-7.62939453125,12.359619140625
1.0674999,0.9265560507774353,-0.5231330990791321,9.648633003234863,-10.101318359375,0.67138671875,-6.77490234375
1.0724999000000002,0.9768342971801758,-0.5949591398239136,9.77133560180664,-6.9580078125,7.293701171875,-8.392333984375
1.0774999,0.9870096445083618,-0.5758054852485657,9.809642791748047,14.83154296875,-5.2490234375,11.077880859375
1.0824999000000002,1.0115501880645752,-0.608127236366272,9.762357711791992,-14.434814453125,7.568359375,-11.322021484375
1.0874999,0.9630676507949829,-0.6889315247535706,9.874286651611328,12.908935546875,-1.64794921875,6.65283203125
1.0924999000000002,0.9307458996772766,-0.5650315880775452,9.733627319335938,5.706787109375,-6.4697265625,5.584716796875
1.0974999,0.9522937536239624,-0.5793967843055725,9.686341285705566,-18.00537109375,6.16455078125,-10.8642578125
1.1024999000000002,0.9475052952766418,-0.6494272351264954,9.817423820495605,8.4228515625,1.556396484375,2.5634765625
1.1074999,0.9259575009346008,-0.5033808946609497,9.71926212310791,12.26806640625,-7.38525390625,7.781982421875
1.1124999000000002,0.9576807022094727,-0.5321113467216492,9.670180320739746,-18.9208984375,4.45556640625,-9.063720703125
1.1174999,0.9684545993804932,-0.6314706802368164,9.825803756713867,3.143310546875,3.448486328125,0.06103515625
1.1224999000000002,0.9582792520523071,-0.6817489266395569,9.882665634155273,-1.3427734375,4.33349609375,-0.67138671875
1.1274999,0.8924387097358704,-0.6386532783508301,9.870695114135742,20.416259765625,-7.4462890625,7.38525390625
1.1324999000000002,0.9020155072212219,-0.5494692921638489,9.673771858215332,-18.035888671875,2.5634765625,-6.988525390625
1.1374999000000001,0.9493009448051453,-0.6817489266395569,9.824007987976074,-3.96728515625,4.5166015625,-0.06103515625
1.1424999000000002,0.9127894043922424,-0.6404489278793335,9.774328231811523,22.705078125,-7.26318359375,6.378173828125
1.1474999000000001,0.9534908533096313,-0.5111620426177979,9.606734275817871,-18.768310546875,2.9296875,-7.2021484375
1.1524999000000002,0.99479079246521,-0.6392518281936646,9.761758804321289,-4.486083984375,4.150390625,1.40380859375
1.1574999000000001,0.9534908533096313,-0.5542576909065247,9.779715538024902,23.895263671875,-7.537841796875,4.8828125
1.1624999,0.9594763517379761,-0.42437225580215454,9.611522674560547,-21.270751953125,3.936767578125,-7.50732421875
1.1674999000000001,0.9510966539382935,-0.5776011347770691,9.814431190490723,-1.89208984375,3.173828125,3.570556640625
1.1724999,0.8930372595787048,-0.5057750940322876,9.799467086791992,23.3154296875,-7.415771484375,2.44140625
1.1774999000000002,0.9277531504631042,-0.4686649739742279,9.626486778259277,-24.96337890625,5.401611328125,-7.26318359375
1.1824999,0.9283517003059387,-0.6494272351264954,9.894637107849121,4.180908203125,0.885009765625,5.859375
1.1874999000000002,0.9331400990486145,-0.5770025849342346,9.798270225524902,19.439697265625,-6.927490234375,-0.885009765625
1.1924999,0.9648633003234863,-0.585382342338562,9.666589736938477,-27.984619140625,7.26318359375,-5.645751953125
1.1974999000000002,0.9570821523666382,-0.5494692921638489,9.655217170715332,-27.2216796875,8.148193359375,-2.01416015625
1.2024999,0.9331400990486145,-0.669179379940033,9.926959037780762,27.83203125,-8.514404296875,2.74658203125
1.2074999000000002,0.9983820915222168,-0.5027823448181152,9.618705749511719,-20.355224609375,4.302978515625,-7.6904296875
1.2124999,0.9864110946655273,-0.619499683380127,9.852140426635742,-0.885009765625,2.74658203125,7.537841796875
1.2174999000000002,0.9798270463943481,-0.5722141861915588,9.742605209350586,20.904541015625,-8.026123046875,-3.60107421875
1.2224999,0.9457096457481384,-0.5027823448181152,9.571419715881348,-28.076171875,8.544921875,-3.143310546875
1.2274999000000002,0.933738648891449,-0.7003039717674255,9.922170639038086,19.287109375,-4.2724609375,7.537841796875
1.2324999,0.8732850551605225,-0.5620388388633728,9.618106842041016,-0.152587890625,-2.777099609375,-8.392333984375
1.2374999000000002,0.8918401598930359,-0.667982280254364,9.86770248413086,27.52685546875,-9.490966796875,1.434326171875
1.2424999,0.9457096457481384,-0.4908113479614258,9.564237594604492,-22.308349609375,5.279541015625,-7.01904296875
1.2474999000000002,0.9552865028381348,-0.6093243360519409,9.84376049041748,5.859375,1.03759765625,8.36181640625
1.2524999,0.9295487999916077,-0.5386953949928284,9.703699111938477,12.725830078125,-7.049560546875,-6.988525390625
1.2574999000000002,0.9840168952941895,-0.5123591423034668,9.697115898132324,-25.054931640625,9.613037109375,1.373291015625
1.2624999000000001,0.9145850539207458,-0.6542156338691711,9.94970417022705,25.81787109375,-7.659912109375,3.753662109375
1.2674999000000002,0.9678560495376587,-0.5057750940322876,9.647436141967773,-15.777587890625,2.3193359375,-8.331298828125
1.2724999000000001,0.9624691009521484,-0.6003460884094238,9.916184425354004,-0.91552734375,3.997802734375,8.453369140625
1.2774999000000002,0.9289502501487732,-0.5871779918670654,9.767146110534668,16.4794921875,-8.544921875,-5.889892578125
1.2824999000000001,0.9247604012489319,-0.6751648783683777,9.889848709106445,24.658203125,-7.537841796875,2.349853515625
1.2874999,0.9900023937225342,-0.5285200476646423,9.609726905822754,-18.6767578125,3.143310546875,-6.805419921875
1.2924999000000001,0.9678560495376587,-0.6739677786827087,9.944915771484375,7.50732421875,1.678466796875,8.697509765625
1.2974999,0.9594763517379761,-0.5997475385665894,9.697115898132324,5.584716796875,-6.134033203125,-8.453369140625
1.3024999000000002,0.9738415479660034,-0.5716156363487244,9.782708168029785,-16.937255859375,8.60595703125,5.43212890625
1.3074999,0.9487023949623108,-0.645237386226654,9.845556259155273,23.040771484375,-8.36181640625,-1.77001953125
1.3124999000000002,0.9403226971626282,-0.4902127981185913,9.583989143371582,-23.49853515625,6.28662109375,-2.99072265625
1.3174999,0.9361328482627869,-0.6141127347946167,9.890447616577148,18.035888671875,-3.082275390625,6.28662109375
1.3224999000000002,0.9169792532920837,-0.48243165016174316,9.561244010925293,-8.9111328125,-1.52587890625,-8.575439453125
1.3274999,0.9421183466911316,-0.5482721924781799,9.806650161743164,-2.0751953125,5.157470703125,8.48388671875
1.3324999000000002,0.9355342984199524,-0.5626373887062073,9.609726905822754,-21.820068359375,5.31005859375,-3.631591796875
1.3374999,0.9588778018951416,-0.6625953316688538,9.943120002746582,16.693115234375,-2.25830078125,6.34765625
1.3424999000000002,0.9157821536064148,-0.5374982953071594,9.599552154541016,-8.819580078125,-1.8310546875,-8.60595703125
1.3474999,0.9289502501487732,-0.5949591398239136,9.93593692779541,-0.152587890625,4.913330078125,8.72802734375
1.3524999000000002,0.9343371987342834,-0.5781996846199036,9.690531730651855,8.575439453125,-7.080078125,-8.209228515625
1.3574999,0.9660604000091553,-0.5374982953071594,9.782109260559082,-16.05224609375,8.026123046875,5.706787109375
1.3624999000000002,1.0283095836639404,-0.5333084464073181,9.665990829467773,-22.03369140625,6.256103515625,-0.3662109375
1.3674999,0.9882067441940308,-0.6422445774078369,9.906009674072266,20.69091796875,-4.638671875,2.86865234375
1.3724999000000002,0.9882067441940308,-0.6422445774078369,9.906009674072266,20.69091796875,-4.638671875,2.86865234375
1.3774999,0.9792284965515137,-0.5973533391952515,9.949105262756348,11.1083984375,1.190185546875,7.598876953125
1.3824999000000002,0.9175778031349182,-0.5279214978218079,9.569623947143555,-4.638671875,-4.150390625,-8.941650390625
1.3874999000000001,0.9666589498519897,-0.5734112858772278,9.932345390319824,-2.3193359375,5.828857421875,8.392333984375
1.3924999000000002,0.9552865028381348,-0.5883750915527344,9.691728591918945,8.48388671875,-7.232666015625,-8.4228515625
1.3974999000000001,1.003769040107727,-0.5578489899635315,9.797672271728516,-14.0380859375,7.568359375,5.92041015625
1.4024999000000002,0.9475052952766418,-0.6769605278968811,9.817423820495605,18.00537109375,-7.598876953125,-4.7607421875
1.4074999000000001,1.0019733905792236,-0.5422866940498352,9.64923095703125,-20.1416015625,6.317138671875,1.708984375
1.4124999,0.943913996219635,-0.6530185341835022,9.86111831665039,20.56884765625,-5.18798828125,0.274658203125
1.4174999000000001,0.9828197956085205,-0.5500678420066833,9.638457298278809,-19.6533203125,2.99072265625,-3.23486328125
1.4224999,0.9487023949623108,-0.6135141849517822,9.9000244140625,17.2119140625,-1.46484375,4.57763671875
1.4274999000000002,0.9277531504631042,-0.5620388388633728,9.593565940856934,-13.916015625,-0.8544921875,-6.927490234375
1.4324999,0.9235633015632629,-0.6045359373092651,9.906009674072266,9.918212890625,2.25830078125,7.476806640625
1.4374999000000002,0.9870096445083618,-0.5716156363487244,9.897629737854004,0.946044921875,5.0048828125,8.4228515625
1.4424999,1.0181342363357544,-0.5446808934211731,9.875483512878418,-7.293701171875,6.134033203125,7.50732421875
1.4474999000000002,1.0181342363357544,-0.5446808934211731,9.875483512878418,-7.293701171875,6.134033203125,7.50732421875
1.4524999,0.9552865028381348,-0.6171054840087891,9.740211486816406,10.55908203125,-6.591796875,-7.50732421875
1.4574999000000002,0.9792284965515137,-0.5404910445213318,9.770736694335938,-13.763427734375,6.256103515625,5.55419921875
1.4624999,0.9127894043922424,-0.702099621295929,9.79288387298584,15.960693359375,-5.9814453125,-4.852294921875
1.4674999000000002,0.945111095905304,-0.5321113467216492,9.64683723449707,-17.27294921875,5.218505859375,3.082275390625
1.4724999,0.8756792545318604,-0.679354727268219,9.81024169921875,18.402099609375,-4.486083984375,-2.25830078125
1.4774999000000002,0.9379284977912903,-0.5183446407318115,9.620500564575195,-18.890380859375,3.84521484375,0.06103515625
1.4824999,0.9032126069068909,-0.6003460884094238,9.82999324798584,18.6767578125,-2.74658203125,0.457763671875
1.4874999000000002,1.003769040107727,-0.5327098965644836,9.655815124511719,-18.1884765625,2.227783203125,-2.227783203125
1.4924999,1.0115501880645752,-0.5710170865058899,9.667187690734863,-16.571044921875,0.732421875,-4.180908203125
1.4974999000000002,0.9816226959228516,-0.5811924338340759,9.90122127532959,15.380859375,-0.152587890625,4.486083984375
1.5024999,0.9163807034492493,-0.5758054852485657,9.625288963317871,-13.85498046875,-0.8544921875,-5.92041015625
1.5074999000000002,0.8984242081642151,-0.5518634915351868,9.865906715393066,12.51220703125,1.068115234375,5.889892578125
1.5124999000000001,0.8403648138046265,-0.5596446394920349,9.571419715881348,-11.138916015625,-1.556396484375,-6.866455078125
1.5174999000000002,0.8804676532745361,-0.545877993106842,9.891644477844238,9.82666015625,2.227783203125,6.591796875
1.5224999000000001,0.9331400990486145,-0.5590460896492004,9.9185791015625,7.171630859375,2.777099609375,7.26318359375
1.5274999000000002,0.9301473498344421,-0.5889736413955688,9.549273490905762,-6.28662109375,-3.173828125,-7.87353515625
1.5324999000000001,0.9810241460800171,-0.5925649404525757,9.910199165344238,5.31005859375,2.960205078125,7.415771484375
1.5374999000000003,0.9666589498519897,-0.6027402877807617,9.586981773376465,-4.5166015625,-3.173828125,-8.23974609375
1.5424999000000001,1.006163239479065,-0.5734112858772278,9.923966407775879,3.753662109375,3.265380859375,7.50732421875
1.5474999,1.0013748407363892,-0.5560533404350281,9.952696800231934,2.74658203125,3.5400390625,7.568359375
1.5524999000000002,0.9594763517379761,-0.6218938827514648,9.655815124511719,-2.288818359375,-3.692626953125,-8.026123046875
1.5574999,0.9870096445083618,-0.5758054852485657,9.955689430236816,2.105712890625,3.570556640625,7.4462890625
1.5624999000000002,0.9493009448051453,-0.6338648796081543,9.639056205749512,-1.8310546875,-3.72314453125,-8.1787109375
1.5674999,0.9774328470230103,-0.5752069354057312,9.907805442810059,2.01416015625,3.35693359375,7.476806640625
1.5724999000000002,0.9349357485771179,-0.6404489278793335,9.59596061706543,-2.01416015625,-3.570556640625,-7.9345703125
1.5774999,0.9612720012664795,-0.5817909836769104,9.87967300415039,2.349853515625,3.448486328125,7.2021484375
1.5824999000000002,0.9217676520347595,-0.6362590789794922,9.586981773376465,-2.44140625,-3.23486328125,-7.99560546875
1.5874999,0.9546879529953003,-0.579995334148407,9.90122127532959,3.173828125,3.23486328125,7.171630859375
1.5924999000000002,0.9199720025062561,-0.6057330369949341,9.602544784545898,-3.662109375,-3.23486328125,-7.537841796875
1.5974999,0.9391255974769592,-0.5524620413780212,9.928754806518555,4.180908203125,3.11279296875,7.080078125
1.6024999000000002,0.9133879542350769,-0.5901707410812378,9.592967987060547,-4.8828125,-2.838134765625,-7.568359375
1.6074999,0.950498104095459,-0.5422866940498352,9.864110946655273,9.3994140625,1.739501953125,5.79833984375
1.6124999000000002,0.9307458996772766,-0.5925649404525757,9.627084732055664,-10.406494140625,-1.3427734375,-6.04248046875
1.6174999,0.9882067441940308,-0.5554547905921936,9.840767860412598,11.3525390625,1.40380859375,4.852294921875
1.6224999000000002,0.9959878921508789,-0.6254851818084717,9.68155288696289,-12.3291015625,-0.79345703125,-4.791259765625
1.6274999,1.0115501880645752,-0.6057330369949341,9.879075050354004,12.969970703125,0.3662109375,3.84521484375
1.6324999000000002,1.0426748991012573,-0.657806932926178,9.718663215637207,-13.824462890625,0.030517578125,-3.662109375
1.6374999000000001,0.9558850526809692,-0.6278793811798096,9.874286651611328,14.16015625,-0.244140625,2.349853515625
1.6424999000000002,0.9911994934082031,-0.6051344871520996,9.711481094360352,-14.373779296875,0.579833984375,-2.105712890625
1.6474999000000001,0.8643068075180054,-0.6206967830657959,9.81263542175293,14.58740234375,-1.190185546875,0.579833984375
1.6524999000000002,0.8882488012313843,-0.7080851793289185,9.733028411865234,11.749267578125,-2.471923828125,-3.265380859375
1.6574999000000001,0.9720458984375,-0.5141547918319702,9.776124000549316,-9.857177734375,2.5634765625,3.875732421875
1.6624999000000003,0.9217676520347595,-0.6817489266395569,9.706692695617676,8.23974609375,-3.0517578125,-4.913330078125
1.6674999000000001,1.0348936319351196,-0.48303020000457764,9.865906715393066,-5.584716796875,2.899169921875,5.096435546875
1.6724999,0.9427168965339661,-0.6344634294509888,9.651026725769043,3.326416015625,-2.86865234375,-6.28662109375
1.6774999000000002,1.0085574388504028,-0.5021837949752808,9.894038200378418,-0.579833984375,2.532958984375,6.072998046875
1.6824999,0.9253589510917664,-0.6105214357376099,9.587580680847168,-1.89208984375,-2.685546875,-6.561279296875
1.6874999000000002,0.9421183466911316,-0.507570743560791,9.867103576660156,4.180908203125,2.105712890625,5.950927734375
1.6924999,0.8900445103645325,-0.5602431893348694,9.59715747833252,-7.26318359375,-1.77001953125,-5.9814453125
1.6974999000000002,0.9516952037811279,-0.497395396232605,9.824007987976074,9.429931640625,1.40380859375,4.8828125
1.7024999,0.9852139949798584,-0.5392939448356628,9.835380554199219,12.481689453125,0.1220703125,2.99072265625
1.7074999000000002,1.037886381149292,-0.5764040350914001,9.711481094360352,-12.969970703125,0.274658203125,-1.983642578125
1.7124999,0.9361328482627869,-0.6189011335372925,9.820416450500488,13.336181640625,-1.068115234375,0.091552734375
1.7174999000000002,0.9594763517379761,-0.5410895943641663,9.724050521850586,-12.39013671875,1.190185546875,0.91552734375
1.7224999,0.8954314589500427,-0.6835445761680603,9.756970405578613,10.894775390625,-2.227783203125,-2.777099609375
1.7274999000000002,0.9810241460800171,-0.5339069962501526,9.790489196777344,-8.636474609375,2.3193359375,3.662109375
1.7324999,0.9032126069068909,-0.6961141228675842,9.67077922821045,5.645751953125,-2.44140625,-5.096435546875
1.7374999000000002,0.9894038438796997,-0.5279214978218079,9.850942611694336,-2.166748046875,2.227783203125,5.401611328125
1.7424999,0.8900445103645325,-0.6607996821403503,9.591172218322754,-0.91552734375,-2.410888671875,-6.04248046875
1.7474999000000002,0.9265560507774353,-0.5129576921463013,9.859322547912598,4.8828125,1.89208984375,5.615234375
1.7524999,0.910993754863739,-0.5871779918670654,9.640851974487305,-7.8125,-1.617431640625,-5.340576171875
1.7574999000000002,0.9534908533096313,-0.5231330990791321,9.874286651611328,10.345458984375,0.79345703125,3.997802734375
1.7624999000000001,0.9642647504806519,-0.5907692909240723,9.84376049041748,12.51220703125,-0.335693359375,1.0986328125
1.7674999000000002,1.004966139793396,-0.5428852438926697,9.7605619430542,-12.20703125,0.9765625,0.152587890625
1.7724999000000001,0.9050082564353943,-0.6673837304115295,9.764153480529785,10.6201171875,-1.708984375,-2.349853515625
1.7774999000000002,0.9882067441940308,-0.5482721924781799,9.836577415466309,-7.781982421875,1.800537109375,3.509521484375
1.7824999000000001,0.8960300087928772,-0.7003039717674255,9.672574996948242,4.364013671875,-2.288818359375,-4.69970703125
1.7874999000000003,0.9762357473373413,-0.5488707423210144,9.892242431640625,-0.6103515625,2.288818359375,5.37109375
1.7924999000000001,0.8954314589500427,-0.6248866319656372,9.630077362060547,-3.5400390625,-2.044677734375,-5.55419921875
1.7974999,0.9361328482627869,-0.5009866952896118,9.827000617980957,7.293701171875,1.495361328125,4.669189453125
1.8024999000000002,0.983418345451355,-0.5560533404350281,9.676764488220215,-10.009765625,-0.8544921875,-4.302978515625
1.8074999,0.9510966539382935,-0.5321113467216492,9.815030097961426,12.20703125,-0.091552734375,2.288818359375
1.8124999000000002,1.0480618476867676,-0.5602431893348694,9.715670585632324,-12.0849609375,0.457763671875,-0.6103515625
1.8174999,0.9343371987342834,-0.6494272351264954,9.768342971801758,10.7421875,-1.0986328125,-1.373291015625
1.8224999000000002,0.9056068062782288,-0.6961141228675842,9.66958236694336,4.608154296875,-1.89208984375,-4.486083984375
1.8274999,0.9678560495376587,-0.5530605912208557,9.925761222839355,-0.3662109375,1.922607421875,5.06591796875
1.8324999000000002,0.8816647529602051,-0.6206967830657959,9.679159164428711,-3.90625,-1.5869140625,-5.2490234375
1.8374999,0.9271546006202698,-0.524330198764801,9.86889934539795,7.8125,1.251220703125,4.364013671875
1.8424999000000002,0.9379284977912903,-0.5668272376060486,9.780912399291992,11.688232421875,-0.244140625,1.312255859375
1.8474999,1.0073603391647339,-0.5482721924781799,9.7605619430542,-11.16943359375,0.701904296875,0.518798828125
1.8524999000000002,0.8966285586357117,-0.6637924313545227,9.728838920593262,8.9111328125,-1.434326171875,-2.685546875
1.8574999,0.973242998123169,-0.5416881442070007,9.843161582946777,-5.0048828125,1.89208984375,3.631591796875
1.8624999000000002,0.8643068075180054,-0.657806932926178,9.633070945739746,0.640869140625,-1.739501953125,-5.18798828125
1.8674999,0.9469067454338074,-0.5117605924606323,9.818022727966309,4.5166015625,1.251220703125,4.608154296875
1.8724999000000002,0.9588778018951416,-0.6057330369949341,9.637260437011719,-8.026123046875,-1.129150390625,-4.39453125
1.8774999,1.0456676483154297,-0.595557689666748,9.717466354370117,-11.627197265625,0.640869140625,-1.007080078125
1.8824999000000002,0.9391255974769592,-0.6913257241249084,9.773730278015137,9.735107421875,-0.823974609375,-1.556396484375
1.8874999000000001,1.047463297843933,-0.5847837924957275,9.814431190490723,-6.927490234375,1.678466796875,2.99072265625
1.8924999000000002,0.9085995554924011,-0.6847416758537292,9.663596153259277,2.288818359375,-1.556396484375,-4.547119140625
1.8974999000000001,0.9929951429367065,-0.5398924946784973,9.892841339111328,2.38037109375,1.373291015625,4.45556640625
1.9024999000000002,0.9594763517379761,-0.6141127347946167,9.689932823181152,-7.080078125,-1.03759765625,-4.730224609375
1.9074999000000001,0.9199720025062561,-0.5650315880775452,9.889249801635742,9.918212890625,0.54931640625,2.38037109375
1.9124999000000003,1.027711033821106,-0.5602431893348694,9.73781681060791,-11.23046875,0.335693359375,-1.0986328125
1.9174999000000001,0.9205705523490906,-0.6416460275650024,9.79647445678711,9.918212890625,-0.79345703125,-1.434326171875
1.9224999,0.8930372595787048,-0.6811503767967224,9.749189376831055,8.60595703125,-1.190185546875,-2.44140625
1.9274999000000002,0.9702502489089966,-0.5692214369773865,9.834781646728516,-4.486083984375,1.617431640625,3.47900390625
1.9324999,0.8900445103645325,-0.6416460275650024,9.642647743225098,-1.007080078125,-1.495361328125,-4.7607421875
1.9374999000000002,0.960673451423645,-0.5386953949928284,9.81143856048584,5.889892578125,1.129150390625,3.692626953125
1.9424999,0.9612720012664795,-0.5512649416923523,9.64803409576416,-9.246826171875,-0.18310546875,-3.11279296875
1.9474999000000002,0.9283517003059387,-0.5895721912384033,9.720458984375,10.55908203125,-0.30517578125,0.274658203125
1.9524999,1.0462661981582642,-0.5398924946784973,9.765350341796875,-8.758544921875,0.823974609375,1.28173828125
1.9574999000000002,0.9002198576927185,-0.690727174282074,9.64803409576416,5.401611328125,-1.77001953125,-3.814697265625
1.9624999,1.004966139793396,-0.5710170865058899,9.882665634155273,0.1220703125,1.5869140625,4.0283203125
1.9674999000000002,0.9558850526809692,-0.67815762758255,9.658209800720215,-5.584716796875,-0.91552734375,-4.33349609375
1.9724999,0.9929951429367065,-0.5931634902954102,9.718064308166504,-10.345458984375,0.48828125,-0.9765625
1.9774999000000002,0.8798691034317017,-0.639850378036499,9.716867446899414,8.819580078125,-0.9765625,-1.983642578125
1.9824999,0.9624691009521484,-0.5201402902603149,9.774927139282227,-4.608154296875,1.46484375,3.47900390625
1.9874999000000002,0.8858546018600464,-0.5919663906097412,9.633070945739746,-0.8544921875,-1.220703125,-4.39453125
1.9924999,0.943913996219635,-0.49380409717559814,9.79647445678711,5.767822265625,0.9765625,3.35693359375
1.9974999000000002,0.9433154463768005,-0.5225345492362976,9.640851974487305,-9.46044921875,-0.30517578125,-2.5634765625
2.0024999,1.0295066833496094,-0.5321113467216492,9.77013874053955,-7.50732421875,0.885009765625,2.0751953125
2.0074999,0.8786720037460327,-0.6619967818260193,9.64683723449707,2.655029296875,-1.46484375,-4.058837890625
2.0124999000000003,1.0019733905792236,-0.5309142470359802,9.856928825378418,2.960205078125,1.03759765625,3.60107421875
2.0174999000000002,0.950498104095459,-0.5949591398239136,9.70310115814209,-7.720947265625,-0.518798828125,-3.448486328125
2.0224999,1.0558429956436157,-0.5327098965644836,9.837176322937012,-9.09423828125,0.79345703125,0.885009765625
2.0274999,0.9032126069068909,-0.6799532771110535,9.740211486816406,5.37109375,-1.068115234375,-3.509521484375
2.0324999000000004,1.0007762908935547,-0.5536591410636902,9.926360130310059,0.30517578125,1.312255859375,3.875732421875
2.0374999000000003,0.9546879529953003,-0.6506243348121643,9.698312759399414,-5.645751953125,-0.9765625,-3.814697265625
2.0424999,0.9068039059638977,-0.5937620401382446,9.86650562286377,9.27734375,0.213623046875,1.739501953125
2.0474999,1.0211269855499268,-0.5506663918495178,9.776124000549316,-9.490966796875,0.67138671875,0
2.0524999,0.8732850551605225,-0.6649895310401917,9.683947563171387,6.89697265625,-1.220703125,-2.8076171875
2.0574999000000003,0.9792284965515137,-0.5303156971931458,9.835380554199219,-1.312255859375,1.28173828125,3.72314453125
2.0624999,0.9582792520523071,-0.6530185341835022,9.621698379516602,-4.39453125,-0.67138671875,-3.997802734375
2.0674999,0.9265560507774353,-0.5925649404525757,9.852140426635742,8.636474609375,0.42724609375,2.166748046875
2.0724999,1.0211269855499268,-0.5871779918670654,9.770736694335938,-9.8876953125,0.48828125,-0.06103515625
2.0774999000000003,0.8804676532745361,-0.6590040326118469,9.728838920593262,7.293701171875,-0.79345703125,-2.288818359375
2.0824999,1.0324994325637817,-0.5560533404350281,9.78869342803955,-9.46044921875,0.18310546875,-0.3662109375
2.0874999,0.8948329091072083,-0.6440402865409851,9.721057891845703,7.50732421875,-1.03759765625,-2.288818359375
2.0924999,0.9864110946655273,-0.5219359993934631,9.833584785461426,-2.410888671875,1.251220703125,3.570556640625
2.0974999000000003,0.9678560495376587,-0.6314706802368164,9.613917350769043,-3.448486328125,-1.129150390625,-3.814697265625
2.1024999,0.9307458996772766,-0.5668272376060486,9.806051254272461,8.30078125,0.3662109375,2.227783203125
2.1074999,1.027711033821106,-0.5793967843055725,9.736021041870117,-9.58251953125,0.42724609375,-0.30517578125
2.1124999,0.8732850551605225,-0.6715735793113708,9.696516990661621,6.9580078125,-0.8544921875,-2.227783203125
2.1174999000000003,0.9630676507949829,-0.5339069962501526,9.82759952545166,-1.678466796875,1.3427734375,3.448486328125
2.1224999,0.9481038451194763,-0.67815762758255,9.625288963317871,-4.241943359375,-0.67138671875,-4.0283203125
2.1274999,0.9475052952766418,-0.545877993106842,9.801861763000488,8.60595703125,0.946044921875,1.5869140625
2.1324999,1.07379949092865,-0.5871779918670654,9.70429801940918,4.69970703125,1.3427734375,-3.60107421875
2.1374999000000003,1.3479355573654175,-0.5524620413780212,9.526528358459473,-8.697509765625,7.354736328125,4.45556640625
2.1424999000000002,1.4329297542572021,-0.6865373253822327,9.338583946228027,-5.401611328125,12.20703125,-10.101318359375
2.1474999,2.0177135467529297,-1.3293805122375488,8.631096839904785,15.045166015625,18.402099609375,-4.5166015625
2.1524999,1.8668787479400635,-0.8427590131759644,8.381501197814941,-13.18359375,31.951904296875,-12.481689453125
2.1574999000000004,2.6844985485076904,-1.8872294425964355,7.805097579956055,27.16064453125,36.0107421875,-16.7236328125
2.1624999000000003,1.557428240776062,-0.5644330382347107,7.3885064125061035,-15.045166015625,46.630859375,-6.65283203125
2.1674999,1.557428240776062,-0.5644330382347107,7.3885064125061035,-15.045166015625,46.630859375,-6.65283203125
2.1724999,0.9852139949798584,-0.13048399984836578,7.542334079742432,72.052001953125,15.380859375,12.8173828125
2.1774999000000004,0.3208230137825012,0.9780313968658447,7.4567413330078125,11.199951171875,20.93505859375,-6.927490234375
2.1824999000000003,-1.125873327255249,2.0889410972595215,8.107365608215332,-76.72119140625,-12.02392578125,24.90234375
2.1874999,-2.1338322162628174,2.5121161937713623,8.796895980834961,16.632080078125,-24.4140625,1.800537109375
2.1924999,-2.1338322162628174,2.5121161937713623,8.796895980834961,16.632080078125,-24.4140625,1.800537109375
2.1974999,-2.564189910888672,3.0364463329315186,9.206304550170898,-129.8828125,-22.27783203125,20.56884765625
2.2024999000000003,-2.054224967956543,2.456450939178467,9.367314338684082,18.98193359375,-62.01171875,27.740478515625
2.2074999,-1.3658920526504517,1.7064672708511353,9.644442558288574,95.27587890625,-40.283203125,12.603759765625
2.2124999,0.019153613597154617,0.7026981711387634,9.702502250671387,-57.403564453125,-23.8037109375,8.880615234375
2.2174999,1.2665326595306396,-0.35913026332855225,9.936535835266113,-130.06591796875,-6.317138671875,15.13671875
2.2224999000000003,2.358887195587158,-1.0324994325637817,9.661202430725098,64.02587890625,10.040283203125,-3.72314453125
2.2274999,2.6024973392486572,-1.081580638885498,9.855133056640625,131.988525390625,-0.274658203125,-11.23046875
2.2324999,1.8010382652282715,-0.04249707981944084,9.847352027893066,3.84521484375,-7.598876953125,-2.227783203125
2.2374999,0.9594763517379761,0.6542156338691711,10.066421508789062,-46.295166015625,-21.087646484375,-6.927490234375
2.2424999000000003,1.137245774269104,0.3842693865299225,9.551667213439941,-30.33447265625,-14.22119140625,-3.72314453125
2.2474999,1.4287399053573608,-0.058059390634298325,9.003395080566406,-64.14794921875,14.129638671875,19.287109375
2.2524999,1.945288896560669,-1.3401544094085693,9.021950721740723,36.56005859375,23.712158203125,21.8505859375
2.2574999,1.86508309841156,-1.7070658206939697,9.492411613464355,84.53369140625,5.645751953125,7.8125
2.2624999000000003,0.9097966551780701,-0.9355342984199524,10.255562782287598,7.965087890625,5.18798828125,-13.24462890625
2.2674999000000002,-0.19393034279346466,0.3447650372982025,10.916961669921875,-0.823974609375,-15.472412109375,-18.341064453125
2.2724999,-0.9624691009521484,1.813009262084961,10.897209167480469,-19.71435546875,-28.076171875,-2.8076171875
2.2774999,-1.1162965297698975,2.4857800006866455,10.645817756652832,-36.1328125,-28.74755859375,4.2724609375
2.2824999000000004,-0.6530185341835022,2.3487119674682617,10.3148193359375,-31.31103515625,-26.153564453125,0.213623046875
2.2874999000000003,0.12509703636169434,1.6418237686157227,10.094552993774414,-20.904541015625,-17.120361328125,-2.74658203125
2.2924999,1.0534487962722778,0.436343252658844,9.977835655212402,-25.543212890625,-14.434814453125,-2.3193359375
2.2974999,1.7675193548202515,-0.7948749661445618,9.859322547912598,-28.717041015625,-8.819580078125,-0.823974609375
2.3024999000000004,2.299630641937256,-1.853710651397705,9.583989143371582,-14.892578125,-3.509521484375,-0.732421875
2.3074999000000003,2.6126725673675537,-2.6635494232177734,9.181763648986816,-9.46044921875,1.15966796875,1.03759765625
2.3124999,2.5103204250335693,-3.064578056335449,8.696937561035156,-14.923095703125,8.575439453125,2.838134765625
2.3174999,1.6753426790237427,-2.9257144927978516,8.381501197814941,33.172607421875,4.180908203125,-3.021240234375
2.3224999,0.424970805644989,0.6278793811798096,10.552444458007812,-2.532958984375,-3.570556640625,-1.52587890625
2.3274999000000003,0.5620388388633728,0.9415197968482971,10.729615211486816,-7.965087890625,-3.23486328125,0.091552734375
2.3324999,0.7829039692878723,0.8026561141014099,10.60391902923584,-10.955810546875,-2.3193359375,0.274658203125
2.3374999,0.9792284965515137,0.4429273009300232,10.299856185913086,-7.75146484375,-0.79345703125,-0.213623046875
2.3424999,1.1079168319702148,-0.1711854189634323,9.967659950256348,-7.781982421875,-1.220703125,0.152587890625
2.3474999000000003,1.1767501831054688,-0.7374141216278076,9.658807754516602,-2.8076171875,-1.708984375,1.0986328125
2.3524999,1.1647791862487793,-1.1180921792984009,9.44991397857666,2.38037109375,-1.434326171875,1.77001953125
2.3574999,1.1192892789840698,-1.3329718112945557,9.309853553771973,4.547119140625,-0.885009765625,0.579833984375
2.3624999,0.9247604012489319,-0.17657238245010376,9.943120002746582,-2.227783203125,-0.18310546875,0.640869140625
2.3674999000000003,0.9032126069068909,-0.10773907601833344,10.049062728881836,-4.2724609375,-2.0751953125,2.044677734375
2.3724999,0.8936358094215393,-0.20231004059314728,10.023324966430664,-2.197265625,-2.777099609375,2.838134765625
2.3774999,0.8900445103645325,-0.4255693554878235,9.915586471557617,-1.03759765625,-3.23486328125,1.220703125
2.3824999,0.9588778018951416,-0.6739677786827087,9.806650161743164,0.732421875,-0.67138671875,-2.349853515625
2.3874999000000003,1.0169371366500854,-0.8325836658477783,9.64564037322998,3.021240234375,1.251220703125,-3.84521484375
2.3924999000000002,1.1228805780410767,-0.8667010068893433,9.603741645812988,0.79345703125,2.74658203125,-3.0517578125
2.3974999,1.1426327228546143,-0.7595604658126831,9.601346969604492,2.38037109375,3.082275390625,0.091552734375
2.4024999,1.0067617893218994,-0.4465186297893524,9.78869342803955,0.06103515625,-2.44140625,3.997802734375
2.4074999000000004,0.9115923047065735,-0.45010992884635925,9.837176322937012,-1.678466796875,-3.5400390625,-0.335693359375
2.4124999000000003,0.8846575021743774,-0.5117605924606323,9.816226959228516,-0.244140625,0.1220703125,-4.8828125
2.4174999,0.9319429993629456,-0.6302735805511475,9.744999885559082,-1.52587890625,1.617431640625,-4.852294921875
2.4224999,1.0330979824066162,-0.6727706789970398,9.707290649414062,0.48828125,3.41796875,-0.6103515625
2.4274999000000004,1.0684125423431396,-0.6697779297828674,9.737217903137207,0.18310546875,-0.091552734375,4.852294921875
2.4324999000000003,1.0426748991012573,-0.5644330382347107,9.749189376831055,2.0751953125,-2.62451171875,6.2255859375
2.4374999,1.003769040107727,-0.5147533416748047,9.77791976928711,0.42724609375,-3.631591796875,0.1220703125
2.4424999,0.9498994946479797,-0.47584760189056396,9.724050521850586,0.3662109375,0.9765625,-6.9580078125
2.4474999,0.9846154451370239,-0.45669397711753845,9.673771858215332,-3.448486328125,3.2958984375,-7.537841796875
2.4524999000000003,1.0241197347640991,-0.4531026780605316,9.641449928283691,-0.48828125,3.814697265625,0.152587890625
2.4574999,1.0552444458007812,-0.46627077460289,9.741408348083496,1.190185546875,-2.166748046875,8.85009765625
2.4624999,0.9762357473373413,-0.5758054852485657,9.834781646728516,0.8544921875,-2.105712890625,-3.47900390625
2.4674999,0.9654618501663208,-0.5877765417098999,9.77672290802002,-3.875732421875,4.150390625,-12.39013671875
2.4724999000000003,1.0091559886932373,-0.585382342338562,9.706692695617676,-3.570556640625,6.500244140625,-6.866455078125
2.4774999,1.0965443849563599,-0.5656301379203796,9.725247383117676,2.044677734375,-0.54931640625,8.087158203125
2.4824999,0.9576807022094727,-0.5428852438926697,9.746196746826172,-6.439208984375,8.6669921875,-11.3525390625
2.4874999,1.0259153842926025,-0.5267243981361389,9.726444244384766,3.173828125,-0.06103515625,8.209228515625
2.4924999000000003,1.105522632598877,-0.5704185366630554,9.803058624267578,6.40869140625,-9.6435546875,16.998291015625
2.4974999,1.0372878313064575,-0.5937620401382446,9.79527759552002,3.509521484375,-4.180908203125,-0.152587890625
2.5024999,1.002571940422058,-0.5045779943466187,9.767146110534668,-8.087158203125,6.683349609375,-17.39501953125
2.5074999,1.0193313360214233,-0.5482721924781799,9.745597839355469,6.500244140625,-4.058837890625,13.5498046875
2.5124999000000003,1.002571940422058,-0.6129156351089478,9.843161582946777,6.195068359375,-8.514404296875,12.5732421875
2.5174999000000002,0.9331400990486145,-0.6440402865409851,9.818022727966309,-3.692626953125,1.312255859375,-9.735107421875
2.5224999,0.900818407535553,-0.6027402877807617,9.773131370544434,-8.575439453125,8.7890625,-14.862060546875
2.5274999,0.9433154463768005,-0.5805938839912415,9.758167266845703,4.08935546875,0.396728515625,5.462646484375
2.5324999000000004,1.0157400369644165,-0.5925649404525757,9.761758804321289,7.232666015625,-8.72802734375,15.0146484375
2.5374999000000003,1.0330979824066162,-0.5811924338340759,9.765948295593262,-1.495361328125,-1.15966796875,-3.96728515625
2.5424999,1.0193313360214233,-0.5770025849342346,9.723451614379883,-9.429931640625,8.48388671875,-15.167236328125
2.5474999,1.028908133506775,-0.5704185366630554,9.702502250671387,3.509521484375,1.983642578125,2.50244140625
2.5524999000000004,1.0217255353927612,-0.585382342338562,9.710882186889648,8.331298828125,-8.697509765625,14.556884765625
2.5574999000000003,1.027711033821106,-0.5859808921813965,9.725846290588379,-1.861572265625,-1.52587890625,-3.143310546875
2.5624999,1.0348936319351196,-0.5764040350914001,9.742605209350586,-10.07080078125,8.331298828125,-14.70947265625
2.5674999,0.9804255962371826,-0.5512649416923523,9.770736694335938,8.636474609375,-9.27734375,13.885498046875
2.5724999,0.9738415479660034,-0.5105634927749634,9.757569313049316,-4.82177734375,0.06103515625,-5.43212890625
2.5774999000000003,1.0055646896362305,-0.5500678420066833,9.805453300476074,-9.33837890625,8.880615234375,-13.031005859375
2.5824999,1.0259153842926025,-0.5811924338340759,9.848548889160156,8.026123046875,-1.373291015625,7.14111328125
2.5874999,1.0259153842926025,-0.547075092792511,9.764153480529785,6.89697265625,-8.544921875,10.833740234375
2.5924999,1.0462661981582642,-0.5339069962501526,9.737217903137207,-9.674072265625,3.875732421875,-10.101318359375
2.5974999000000003,1.0450690984725952,-0.5817909836769104,9.752182006835938,-4.119873046875,7.659912109375,-8.270263671875
2.6024999,1.0283095836639404,-0.5883750915527344,9.782708168029785,11.138916015625,-6.4697265625,11.8408203125
2.6074999,0.9768342971801758,-0.5363011956214905,9.730634689331055,0.732421875,-5.2490234375,3.570556640625
2.6124999,1.0157400369644165,-0.595557689666748,9.768941879272461,-12.63427734375,8.23974609375,-13.18359375
2.6174999000000003,0.9642647504806519,-0.645237386226654,9.79527759552002,5.615234375,2.197265625,1.007080078125
2.6224999,0.9570821523666382,-0.557250440120697,9.739013671875,10.284423828125,-9.307861328125,11.65771484375
2.6274999,0.9983820915222168,-0.5638344883918762,9.706692695617676,-5.79833984375,8.331298828125,-8.48388671875
2.6324999,1.0121487379074097,-0.5422866940498352,9.73781681060791,13.763427734375,-6.500244140625,10.162353515625
2.6374999000000003,0.9900023937225342,-0.4752490520477295,9.697115898132324,-1.0986328125,-4.57763671875,2.044677734375
2.6424999000000002,1.0528502464294434,-0.5590460896492004,9.725247383117676,-14.34326171875,9.063720703125,-11.383056640625
2.6474999,1.0073603391647339,-0.6278793811798096,9.82999324798584,10.589599609375,-0.701904296875,4.150390625
2.6524999,1.0073603391647339,-0.6278793811798096,9.82999324798584,10.589599609375,-0.701904296875,4.150390625
2.6574999000000004,0.9900023937225342,-0.5237316489219666,9.749189376831055,8.209228515625,-8.453369140625,7.904052734375
2.6624999000000003,0.993593692779541,-0.547075092792511,9.712079048156738,-16.7236328125,6.195068359375,-9.21630859375
2.6674999,1.0133458375930786,-0.6290764808654785,9.823410034179688,2.8076171875,4.33349609375,-1.556396484375
2.6724999,0.9684545993804932,-0.5883750915527344,9.791686058044434,15.44189453125,-9.307861328125,9.09423828125
2.6774999000000004,0.9864110946655273,-0.5303156971931458,9.707290649414062,-13.97705078125,2.410888671875,-5.79833984375
2.6824999000000003,0.9762357473373413,-0.606930136680603,9.744400978088379,-5.706787109375,7.568359375,-4.486083984375
2.6874999,0.9636662006378174,-0.43335050344467163,9.638457298278809,-8.880615234375,-0.640869140625,-3.021240234375
2.6924999,1.0217255353927612,-0.586579442024231,9.693524360656738,-13.275146484375,8.819580078125,-5.401611328125
2.6974999,0.9977835416793823,-0.6021417379379272,9.815628051757812,20.904541015625,-6.8359375,7.110595703125
2.7024999000000003,1.0007762908935547,-0.4944026470184326,9.664793968200684,-3.662109375,-2.838134765625,-1.89208984375
2.7074999,1.0396820306777954,-0.5811924338340759,9.740211486816406,-18.49365234375,9.3994140625,-4.913330078125
2.7124999,1.0396820306777954,-0.6230909824371338,9.889249801635742,21.026611328125,-5.79833984375,6.40869140625
2.7174999,1.0360907316207886,-0.4734533727169037,9.731831550598145,0.274658203125,-3.814697265625,-2.227783203125
2.7224999000000003,1.0552444458007812,-0.5398924946784973,9.739013671875,-22.0947265625,9.674072265625,-4.150390625
2.7274999,1.027711033821106,-0.6033388376235962,9.870096206665039,21.270751953125,-5.462646484375,6.16455078125
2.7324999,0.9852139949798584,-0.4644751250743866,9.6989107131958,2.01416015625,-4.058837890625,-3.35693359375
2.7374999,0.9911994934082031,-0.5500678420066833,9.657610893249512,-24.017333984375,9.979248046875,-2.532958984375
2.7424999000000003,0.9870096445083618,-0.629675030708313,9.849745750427246,22.552490234375,-6.103515625,6.317138671875
2.7474999,1.0097545385360718,-0.6344634294509888,9.77672290802002,-20.44677734375,9.674072265625,2.13623046875
2.7524999,1.0043675899505615,-0.6536170840263367,9.923367500305176,28.167724609375,-9.58251953125,4.058837890625
2.7574999,1.0235211849212646,-0.4728548228740692,9.662399291992188,-12.908935546875,1.52587890625,-7.87353515625
2.7624999000000003,1.0654197931289673,-0.5554547905921936,9.769539833068848,-12.51220703125,7.9345703125,5.218505859375
2.7674999000000002,0.9882067441940308,-0.5578489899635315,9.830592155456543,28.228759765625,-10.894775390625,0.54931640625
2.7724999,1.0271124839782715,-0.41778820753097534,9.584588050842285,-22.52197265625,5.889892578125,-6.65283203125
2.7774999,1.0115501880645752,-0.5716156363487244,9.800664901733398,0.67138671875,3.509521484375,7.904052734375
2.7824999000000004,1.0103530883789062,-0.5410895943641663,9.77133560180664,21.331787109375,-10.19287109375,-4.21142578125
2.7874999000000003,1.006163239479065,-0.4537012279033661,9.586981773376465,-28.50341796875,10.101318359375,-2.8076171875
2.7924999,0.9774328470230103,-0.5781996846199036,9.744400978088379,-23.834228515625,11.29150390625,3.173828125
2.7974999,0.9469067454338074,-0.6703764796257019,9.958083152770996,27.16064453125,-9.429931640625,3.0517578125
2.8024999000000004,1.0205284357070923,-0.5039794445037842,9.668384552001953,-14.617919921875,1.64794921875,-8.30078125
2.8074999000000003,1.0570400953292847,-0.5770025849342346,9.822811126708984,-6.195068359375,6.866455078125,8.209228515625
2.8124999,1.0426748991012573,-0.5793967843055725,9.825803756713867,23.0712890625,-11.383056640625,-4.150390625
2.8174999,1.0492589473724365,-0.46507367491722107,9.59057331085205,-26.947021484375,9.58251953125,-2.685546875
2.8224999,1.060032844543457,-0.6446388363838196,9.937732696533203,16.9677734375,-2.532958984375,7.38525390625
2.8274999000000003,0.9798270463943481,-0.536899745464325,9.696516990661621,1.46484375,-5.79833984375,-9.21630859375
2.8324999,1.0426748991012573,-0.5728127360343933,9.765350341796875,-18.585205078125,10.986328125,5.7373046875
2.8374999,0.9702502489089966,-0.6476315855979919,9.911396026611328,26.55029296875,-10.528564453125,-0.18310546875
2.8424999,1.0019733905792236,-0.49559974670410156,9.581595420837402,-22.003173828125,5.096435546875,-5.950927734375
2.8474999000000003,1.0217255353927612,-0.5267243981361389,9.677961349487305,-22.03369140625,11.199951171875,3.936767578125
2.8524999,0.9882067441940308,-0.6218938827514648,9.877877235412598,25.5126953125,-8.697509765625,1.40380859375
2.8574999,1.0426748991012573,-0.4537012279033661,9.57321548461914,-19.4091796875,3.173828125,-6.7138671875
2.8624999,1.0079588890075684,-0.5793967843055725,9.870695114135742,5.767822265625,3.7841796875,8.7890625
2.8674999000000003,0.9864110946655273,-0.517746090888977,9.731831550598145,9.368896484375,-8.72802734375,-8.4228515625
2.8724999,1.0181342363357544,-0.5033808946609497,9.718663215637207,-20.660400390625,10.498046875,4.33349609375
2.8774999,0.983418345451355,-0.6075286865234375,9.891644477844238,24.871826171875,-8.60595703125,0.152587890625
2.8824999,0.9953893423080444,-0.47824180126190186,9.5624418258667,-20.721435546875,3.936767578125,-5.523681640625
2.8874999000000003,1.026513934135437,-0.6015431880950928,9.894637107849121,10.284423828125,1.77001953125,8.148193359375
2.8924999000000002,0.9654618501663208,-0.5374982953071594,9.657012939453125,2.86865234375,-6.9580078125,-9.246826171875
2.8974999,1.0414776802062988,-0.5273229479789734,9.757569313049316,-14.83154296875,9.82666015625,6.439208984375
2.9024999,1.0115501880645752,-0.6111199855804443,9.932345390319824,18.707275390625,-2.685546875,5.43212890625
2.9074999000000004,1.0073603391647339,-0.4920084476470947,9.624092102050781,-9.3994140625,-2.74658203125,-8.60595703125
2.9124999000000003,1.0283095836639404,-0.5524620413780212,9.834781646728516,-2.0751953125,6.744384765625,8.48388671875
2.9174999,1.004966139793396,-0.5895721912384033,9.734824180603027,12.664794921875,-9.27734375,-7.781982421875
2.9224999,1.0534487962722778,-0.5249287486076355,9.66299819946289,-20.08056640625,9.6435546875,4.058837890625
2.9274999000000004,1.0426748991012573,-0.6649895310401917,9.876082420349121,23.0712890625,-7.6904296875,-0.701904296875
2.9324999000000003,1.0241197347640991,-0.5267243981361389,9.610923767089844,-20.99609375,4.21142578125,-3.5400390625
2.9374999,1.0169371366500854,-0.6236895322799683,9.920374870300293,15.289306640625,-0.1220703125,6.317138671875
2.9424999,0.9630676507949829,-0.5183446407318115,9.628880500793457,-6.591796875,-4.150390625,-8.819580078125
2.9474999,0.9714473485946655,-0.5626373887062073,9.86770248413086,-2.716064453125,7.080078125,8.514404296875
2.9524999000000003,0.9510966539382935,-0.5871779918670654,9.761758804321289,11.627197265625,-9.002685546875,-8.087158203125
2.9574999,1.0067617893218994,-0.6512228846549988,9.889848709106445,21.54541015625,-7.99560546875,-2.471923828125
2.9624999,1.061229944229126,-0.5099649429321289,9.634267807006836,-21.820068359375,5.18798828125,-1.495361328125
2.9674999,1.0193313360214233,-0.6344634294509888,9.9000244140625,18.707275390625,-2.227783203125,4.119873046875
2.9724999000000003,1.0091559886932373,-0.5195417404174805,9.586981773376465,-13.702392578125,-1.373291015625,-7.080078125
2.9774999,1.0223240852355957,-0.5758054852485657,9.897629737854004,6.439208984375,4.302978515625,8.026123046875
2.9824999,0.9624691009521484,-0.524330198764801,9.61451530456543,0.732421875,-6.77490234375,-9.27734375
2.9874999,1.0342950820922852,-0.5099649429321289,9.781511306762695,-7.87353515625,8.087158203125,8.087158203125
2.9924999000000003,0.9786299467086792,-0.6141127347946167,9.774927139282227,13.763427734375,-8.60595703125,-7.14111328125
2.9974999,1.006163239479065,-0.49559974670410156,9.643245697021484,-18.402099609375,8.026123046875,4.45556640625
3.0024999,0.9558850526809692,-0.667982280254364,9.86650562286377,20.56884765625,-6.378173828125,-2.593994140625
3.0074999,1.0187327861785889,-0.5380968451499939,9.633070945739746,-20.782470703125,4.45556640625,-0.640869140625
3.0124999000000003,0.9953893423080444,-0.6326677799224854,9.911396026611328,19.439697265625,-2.349853515625,2.5634765625
3.0174999000000002,0.9373299479484558,-0.524330198764801,9.616311073303223,-7.4462890625,-4.21142578125,-8.331298828125
3.0224999,1.0055646896362305,-0.5494692921638489,9.892242431640625,2.166748046875,5.828857421875,8.4228515625
3.0274999,0.9774328470230103,-0.558447539806366,9.643245697021484,2.899169921875,-6.622314453125,-8.941650390625
3.0324999000000004,1.0654197931289673,-0.5680243372917175,9.837775230407715,-7.659912109375,7.01904296875,7.720947265625
3.0374999000000003,1.0121487379074097,-0.6374561786651611,9.746196746826172,11.688232421875,-7.232666015625,-7.476806640625
3.0424999,1.0199298858642578,-0.4812345504760742,9.616909980773926,-18.98193359375,5.096435546875,2.716064453125
3.0474999,0.9385270476341248,-0.6434416770935059,9.834781646728516,19.6533203125,-4.058837890625,-1.46484375
3.0524999000000004,1.003769040107727,-0.5111620426177979,9.609128952026367,-19.500732421875,2.899169921875,-0.640869140625
3.0574999000000003,0.9786299467086792,-0.6117185354232788,9.884461402893066,18.646240234375,-1.52587890625,1.64794921875
3.0624999,1.0271124839782715,-0.5817909836769104,9.932944297790527,15.625,0.396728515625,4.2724609375
3.0674999,0.9720458984375,-0.5668272376060486,9.6618013381958,-13.48876953125,-1.678466796875,-5.828857421875
3.0724999000000004,0.9786299467086792,-0.5374982953071594,9.915586471557617,11.260986328125,2.62451171875,6.2255859375
3.0774999000000003,0.9157821536064148,-0.5309142470359802,9.57979965209961,-8.941650390625,-3.41796875,-7.232666015625
3.0824999,0.9654618501663208,-0.5153518915176392,9.862914085388184,6.53076171875,3.84521484375,7.4462890625
3.0874999,0.9463081955909729,-0.5207388401031494,9.55585765838623,-4.33349609375,-4.302978515625,-8.331298828125
3.0924999,1.0408791303634644,-0.4991910457611084,9.86770248413086,2.227783203125,4.669189453125,7.965087890625
3.0974999000000003,1.0235211849212646,-0.5476736426353455,9.633668899536133,-0.030517578125,-4.913330078125,-8.36181640625
3.1024999,1.1115081310272217,-0.5392939448356628,9.907805442810059,-1.739501953125,5.218505859375,8.148193359375
3.1074999,1.0295066833496094,-0.608127236366272,9.696516990661621,3.265380859375,-5.157470703125,-8.36181640625
3.1124999,1.0983400344848633,-0.5817909836769104,9.899425506591797,-4.7607421875,5.18798828125,7.720947265625
3.1174999000000003,0.9696516990661621,-0.6392518281936646,9.712079048156738,6.16455078125,-5.279541015625,-7.99560546875
3.1224999,1.0307037830352783,-0.5201402902603149,9.807847023010254,-10.101318359375,4.7607421875,6.256103515625
3.1274999,0.9588778018951416,-0.6290764808654785,9.723451614379883,10.6201171875,-4.69970703125,-6.622314453125
3.1324999,1.035492181777954,-0.47884035110473633,9.761758804321289,-10.528564453125,4.39453125,5.859375
3.1374999000000003,0.9612720012664795,-0.6009446382522583,9.72285270690918,10.986328125,-4.39453125,-6.4697265625
3.1424999000000002,1.039083480834961,-0.4489128291606903,9.749788284301758,-10.986328125,4.2724609375,5.706787109375
3.1474999,0.9630676507949829,-0.5913678407669067,9.738415718078613,11.016845703125,-4.241943359375,-6.2255859375
3.1524999,1.0414776802062988,-0.44352585077285767,9.763554573059082,-10.833740234375,4.241943359375,5.67626953125
3.1574999000000004,0.9684545993804932,-0.5991489887237549,9.75278091430664,10.6201171875,-4.241943359375,-6.2255859375
3.1624999000000003,1.0492589473724365,-0.45489832758903503,9.797073364257812,-10.55908203125,4.241943359375,5.645751953125
3.1674999,1.0564415454864502,-0.47165772318840027,9.816226959228516,-9.521484375,3.96728515625,5.92041015625
3.1724999,0.9762357473373413,-0.6386532783508301,9.732429504394531,9.09423828125,-4.241943359375,-6.500244140625
3.1774999000000004,1.0564415454864502,-0.4985924959182739,9.803657531738281,-8.209228515625,4.0283203125,5.9814453125
3.1824999000000003,0.9493009448051453,-0.6446388363838196,9.674968719482422,7.62939453125,-3.997802734375,-6.683349609375
3.1874999,1.0516531467437744,-0.5195417404174805,9.79408073425293,-6.500244140625,4.119873046875,6.4697265625
3.1924999,0.9331400990486145,-0.6308721303939819,9.626486778259277,5.523681640625,-3.814697265625,-6.866455078125
3.1974999000000004,1.0432734489440918,-0.5099649429321289,9.808445930480957,-4.69970703125,4.150390625,6.744384765625
3.2024999000000003,0.9576807022094727,-0.6177040338516235,9.627683639526367,3.326416015625,-3.7841796875,-7.415771484375
3.2074999,1.026513934135437,-0.4944026470184326,9.837775230407715,-1.983642578125,3.84521484375,6.77490234375
3.2124999,0.9594763517379761,-0.5973533391952515,9.640253067016602,0.732421875,-3.692626953125,-7.354736328125
3.2174999,0.9852139949798584,-0.5135562419891357,9.86231517791748,1.03759765625,3.387451171875,6.927490234375
3.2224999000000003,0.9498994946479797,-0.5859808921813965,9.621099472045898,-2.349853515625,-3.387451171875,-7.232666015625
3.2274999,0.9576807022094727,-0.5566518902778625,9.627084732055664,-5.706787109375,-2.777099609375,-6.7138671875
3.2324999,0.9929951429367065,-0.4842272996902466,9.8599214553833,7.232666015625,2.593994140625,5.889892578125
3.2374999,0.9900023937225342,-0.545877993106842,9.658209800720215,-8.819580078125,-2.197265625,-5.584716796875
3.2424999000000003,1.05105459690094,-0.5165489912033081,9.853337287902832,10.3759765625,1.8310546875,4.791259765625
3.2474999,1.0881646871566772,-0.6003460884094238,9.68155288696289,-11.53564453125,-1.15966796875,-4.608154296875
3.2524999,1.0791864395141602,-0.5638344883918762,9.86111831665039,12.6953125,0.823974609375,2.99072265625
3.2574999,1.1222820281982422,-0.5823895931243896,9.712677955627441,-13.36669921875,-0.335693359375,-2.685546875
3.2624999000000003,0.9953893423080444,-0.5877765417098999,9.84615421295166,14.09912109375,-0.48828125,1.28173828125
3.2674999000000002,1.0330979824066162,-0.5201402902603149,9.672574996948242,-14.16015625,0.732421875,-0.335693359375
3.2724999,0.9074024558067322,-0.6362590789794922,9.800664901733398,13.763427734375,-1.068115234375,-1.220703125
3.2774999,0.9570821523666382,-0.5249287486076355,9.6803560256958,-12.969970703125,1.77001953125,1.77001953125
3.2824999000000004,0.9331400990486145,-0.6985083222389221,9.749189376831055,8.056640625,-2.8076171875,-5.18798828125
3.2874999000000003,1.0582371950149536,-0.4985924959182739,9.833584785461426,-5.31005859375,2.838134765625,5.55419921875
3.2924999,0.9570821523666382,-0.6590040326118469,9.662399291992188,2.50244140625,-2.899169921875,-6.53076171875
3.2974999,1.01753568649292,-0.507570743560791,9.836577415466309,0.213623046875,2.777099609375,5.889892578125
3.3024999000000004,0.9624691009521484,-0.6087257862091064,9.624092102050781,-3.0517578125,-2.685546875,-6.439208984375
3.3074999000000003,0.9870096445083618,-0.49978959560394287,9.810839653015137,5.92041015625,2.25830078125,5.67626953125
3.3124999,1.0031704902648926,-0.5776011347770691,9.663596153259277,-8.636474609375,-1.556396484375,-5.096435546875
3.3174999,1.013944387435913,-0.5279214978218079,9.82999324798584,10.833740234375,1.129150390625,3.60107421875
3.3224999000000004,1.0684125423431396,-0.5716156363487244,9.719860076904297,-12.02392578125,-0.579833984375,-3.0517578125
3.3274999000000003,0.9846154451370239,-0.618302583694458,9.841365814208984,12.75634765625,-0.030517578125,1.0986328125
3.3324999,1.039083480834961,-0.5524620413780212,9.70429801940918,-12.6953125,0.823974609375,0
3.3374999,0.943913996219635,-0.6703764796257019,9.70310115814209,7.50732421875,-2.3193359375,-4.82177734375
3.3424999,1.0372878313064575,-0.4734533727169037,9.822212219238281,-4.5166015625,2.716064453125,5.035400390625
3.3474999000000003,0.93254154920578,-0.6572083830833435,9.64683723449707,0.732421875,-2.410888671875,-5.950927734375
3.3524999,0.9804255962371826,-0.4794389009475708,9.840767860412598,2.838134765625,2.410888671875,5.706787109375
3.3574999,0.9570821523666382,-0.6171054840087891,9.645041465759277,-6.378173828125,-1.953125,-5.4931640625
3.3624999,0.9900023937225342,-0.524330198764801,9.856329917907715,9.09423828125,1.312255859375,4.0283203125
3.3674999000000003,1.0534487962722778,-0.5793967843055725,9.712079048156738,-11.29150390625,-0.579833984375,-3.143310546875
3.3724999,1.006163239479065,-0.579995334148407,9.835380554199219,12.51220703125,0.1220703125,1.129150390625
3.3774999,1.0606313943862915,-0.5279214978218079,9.723451614379883,-12.237548828125,0.823974609375,0.274658203125
3.3824999,0.961870551109314,-0.6045359373092651,9.770736694335938,10.894775390625,-1.28173828125,-2.44140625
3.3874999000000003,1.0402805805206299,-0.4423287510871887,9.774328231811523,-8.697509765625,2.25830078125,3.60107421875
3.3924999000000002,0.9235633015632629,-0.6482301354408264,9.657012939453125,-2.655029296875,-2.288818359375,-5.92041015625
3.3974999,0.9714473485946655,-0.4836287498474121,9.82879638671875,6.683349609375,1.617431640625,4.547119140625
3.4024999,1.0133458375930786,-0.6685808300971985,9.674370765686035,-10.31494140625,-0.885009765625,-3.84521484375
3.4074999000000004,0.9798270463943481,-0.5740098357200623,9.815030097961426,11.627197265625,0.1220703125,1.861572265625
3.4124999000000003,1.0672154426574707,-0.656609833240509,9.691728591918945,-12.115478515625,0.6103515625,-0.091552734375
3.4174999,0.9600749015808105,-0.6344634294509888,9.766547203063965,11.04736328125,-1.28173828125,-2.410888671875
3.4224999,1.0462661981582642,-0.5315127968788147,9.786299705505371,-7.99560546875,1.28173828125,3.326416015625
3.4274999000000004,0.945111095905304,-0.6254851818084717,9.706093788146973,4.730224609375,-2.105712890625,-5.0048828125
3.4324999000000003,1.0271124839782715,-0.4231751561164856,9.909601211547852,0.244140625,2.105712890625,5.218505859375
3.4374999,0.9702502489089966,-0.6147112846374512,9.689932823181152,-4.638671875,-1.556396484375,-5.279541015625
3.4424999,0.9714473485946655,-0.5554547905921936,9.767146110534668,11.77978515625,-0.152587890625,0.152587890625
3.4474999000000004,1.0767922401428223,-0.579995334148407,9.70549488067627,-10.92529296875,0.946044921875,1.52587890625
3.4524999000000003,0.9558850526809692,-0.6314706802368164,9.689932823181152,8.4228515625,-1.495361328125,-3.814697265625
3.4574999,1.0558429956436157,-0.46986207365989685,9.813833236694336,-3.72314453125,1.64794921875,4.302978515625
3.4624999,0.9624691009521484,-0.6380547285079956,9.687539100646973,-0.640869140625,-1.953125,-5.340576171875
3.4674999,1.0205284357070923,-0.43275195360183716,9.849146842956543,5.4931640625,1.312255859375,4.364013671875
3.4724999000000003,1.039083480834961,-0.6135141849517822,9.719860076904297,-9.09423828125,-0.885009765625,-3.631591796875
3.4774999,1.0007762908935547,-0.5380968451499939,9.847352027893066,10.711669921875,0.244140625,1.46484375
3.4824999,1.0678139925003052,-0.5943605899810791,9.779715538024902,-11.322021484375,0.579833984375,0.3662109375
3.4874999,0.943913996219635,-0.6320692300796509,9.764751434326172,9.09423828125,-1.190185546875,-3.0517578125
3.4924999000000003,1.0001777410507202,-0.4944026470184326,9.808445930480957,-5.462646484375,1.5869140625,3.90625
3.4974999,0.9816226959228516,-0.46746787428855896,9.777320861816406,4.425048828125,1.434326171875,4.669189453125
3.5024999,0.9941922426223755,-0.6619967818260193,9.633070945739746,-8.453369140625,-0.946044921875,-3.570556640625
3.5074999,0.9594763517379761,-0.5692214369773865,9.750386238098145,10.7421875,-0.030517578125,1.40380859375
3.5124999000000003,1.0773907899856567,-0.6488286852836609,9.70429801940918,-11.8408203125,0.518798828125,1.5869140625
3.5174999000000002,0.9139865040779114,-0.9026140570640564,9.509170532226562,9.002685546875,-1.312255859375,0.335693359375
3.5224999,1.0360907316207886,-0.8577227592468262,9.452906608581543,0.8544921875,1.52587890625,12.451171875
3.5274999,0.945111095905304,-1.070208191871643,8.252813339233398,20.56884765625,-3.143310546875,1.77001953125
3.5324999000000004,0.9445125460624695,-0.28969839215278625,8.437167167663574,36.56005859375,3.021240234375,13.916015625
3.5374999000000003,1.2198457717895508,-0.5536591410636902,7.134721279144287,4.302978515625,3.204345703125,9.246826171875
3.5424999,1.3221979141235352,1.6148890256881714,7.360973358154297,42.205810546875,18.707275390625,23.162841796875
3.5474999,1.8267759084701538,1.802833914756775,7.208342552185059,-1.28173828125,10.43701171875,4.82177734375
3.5524999000000004,1.6777368783950806,3.6792895793914795,7.148487567901611,46.600341796875,-2.3193359375,9.3994140625
3.5574999000000003,1.3389573097229004,3.4602200984954834,7.00124454498291,32.440185546875,-24.35302734375,10.955810546875
3.5624999,1.1378443241119385,2.117671489715576,6.975506782531738,-30.517578125,-4.180908203125,47.943115234375
3.5674999,0.6518214344978333,2.75812029838562,6.773196697235107,55.938720703125,10.07080078125,60.36376953125
3.5724999000000004,0.578798234462738,1.5652093887329102,7.247248649597168,7.26318359375,-0.457763671875,-3.021240234375
3.5774999000000003,0.16759411990642548,2.5252842903137207,7.616554260253906,14.83154296875,-8.4228515625,9.002685546875
3.5824999,-0.20111294090747833,1.2844891548156738,7.533355712890625,-26.30615234375,-23.101806640625,-1.708984375
3.5874999,-0.304063618183136,1.3796586990356445,7.224503517150879,6.40869140625,-21.42333984375,46.539306640625
3.5924999,-0.8846575021743774,0.12389993667602539,6.215946197509766,17.76123046875,-0.42724609375,19.683837890625
3.5974999000000003,-1.1402385234832764,0.7254431247711182,5.96874475479126,15.44189453125,12.115478515625,39.55078125
3.6024999,-0.9307458996772766,0.09277531504631042,5.696404457092285,26.79443359375,0.885009765625,0.518798828125
3.6074999,-1.058835744857788,-0.20530278980731964,5.808931827545166,-20.20263671875,-21.636962890625,8.819580078125
3.6124999,0.017956512048840523,0.07661445438861847,5.770026206970215,13.153076171875,-15.869140625,33.172607421875
3.6174999000000003,1.0833762884140015,-1.237802267074585,6.522404193878174,10.223388671875,2.5634765625,0.518798828125
3.6224999,1.2395979166030884,-1.3994108438491821,6.599018573760986,-26.336669921875,-3.173828125,-10.772705078125
3.6274999,0.8391677141189575,-1.6915035247802734,7.115567684173584,21.240234375,-2.685546875,32.16552734375
3.6324999,1.2503718137741089,-2.056619167327881,7.091026782989502,21.78955078125,6.77490234375,-10.25390625
3.6374999000000003,1.0360907316207886,-2.1350293159484863,6.9276227951049805,-39.459228515625,-6.8359375,-5.7373046875
3.6424999000000002,0.973242998123169,-1.5705963373184204,7.6967597007751465,19.439697265625,-6.378173828125,34.60693359375
3.6474999,1.159990668296814,-1.136048674583435,8.037335395812988,18.218994140625,3.84521484375,-10.7421875
3.6524999,0.9307458996772766,-0.6242880821228027,8.50061321258545,-44.86083984375,-10.345458984375,-6.7138671875
3.6574999000000004,0.8445546627044678,-0.0065840547904372215,9.280524253845215,17.7001953125,-9.033203125,35.552978515625
3.6624999000000003,1.1737574338912964,0.5512649416923523,9.452308654785156,27.069091796875,-0.244140625,-16.815185546875
3.6674999,1.1330559253692627,0.3315969407558441,8.912415504455566,-54.534912109375,-7.904052734375,-19.744873046875
3.6724999,1.37906014919281,0.7368155717849731,8.845976829528809,44.281005859375,-4.33349609375,1.52587890625
3.6774999000000004,1.347337007522583,0.39624038338661194,8.58381175994873,-38.116455078125,3.631591796875,-27.313232421875
3.6824999000000003,1.0582371950149536,0.6314706802368164,9.048885345458984,-10.162353515625,1.52587890625,-23.468017578125
3.6874999,1.2096704244613647,0.262763649225235,9.288904190063477,-45.34912109375,15.31982421875,1.77001953125
3.6924999,1.0761936902999878,0.05686229094862938,9.505578994750977,19.8974609375,2.74658203125,12.725830078125
3.6974999000000004,1.158793568611145,-0.16819266974925995,9.715670585632324,16.54052734375,-6.561279296875,-18.463134765625
3.7024999000000003,1.0546458959579468,-0.5009866952896118,9.881468772888184,-36.468505859375,12.054443359375,-11.138916015625
3.7074999,1.0570400953292847,-0.45848962664604187,10.094552993774414,-10.07080078125,8.1787109375,9.27734375
3.7124999,0.9343371987342834,-0.5925649404525757,9.973047256469727,8.544921875,-8.72802734375,-1.373291015625
3.7174999,0.922366201877594,-0.6506243348121643,9.68933391571045,-19.22607421875,4.669189453125,-7.232666015625
3.7224999000000003,0.9181763529777527,-1.105522632598877,9.531316757202148,-10.009765625,3.143310546875,-10.650634765625
3.7274999,1.0079588890075684,-1.0654197931289673,9.621099472045898,-2.5634765625,5.889892578125,2.899169921875
3.7324999,1.0732009410858154,-0.9295487999916077,9.722254753112793,23.01025390625,-10.986328125,4.669189453125
3.7374999,1.094150185585022,-0.6961141228675842,9.651026725769043,-7.720947265625,1.77001953125,-8.6669921875
3.7424999000000003,1.158793568611145,-0.5722141861915588,9.75397777557373,-9.307861328125,8.941650390625,0.457763671875
3.7474999,1.0881646871566772,-0.44831427931785583,9.894637107849121,22.8271484375,-8.026123046875,4.69970703125
3.7524999,1.0881646871566772,-0.24121582508087158,9.766547203063965,-8.7890625,0.091552734375,-7.6904296875
3.7574999,1.0809820890426636,-0.2711433470249176,9.847352027893066,-15.716552734375,9.613037109375,0.3662109375
3.7624999000000003,1.0654197931289673,-0.36571431159973145,9.722254753112793,-18.829345703125,10.284423828125,1.068115234375
3.7674999000000002,1.0432734489440918,-0.42676645517349243,9.64803409576416,-5.92041015625,-2.13623046875,-8.4228515625
3.7724999,1.083974838256836,-0.5524620413780212,9.714473724365234,-18.035888671875,10.467529296875,1.800537109375
3.7774999,1.061229944229126,-0.6224924325942993,9.806650161743164,24.871826171875,-8.697509765625,3.143310546875
3.7824999000000004,1.0672154426574707,-0.5039794445037842,9.623494148254395,-8.97216796875,-0.335693359375,-9.765625
3.7874999000000003,1.1210849285125732,-0.5614402890205383,9.679159164428711,-15.56396484375,10.7421875,3.448486328125
3.7924999,1.0636241436004639,-0.5548562407493591,9.774328231811523,25.93994140625,-9.3994140625,1.739501953125
3.7974999,1.0881646871566772,-0.40043023228645325,9.59177017211914,-14.801025390625,1.861572265625,-8.60595703125
3.8024999000000004,1.0935516357421875,-0.4944026470184326,9.68933391571045,-9.307861328125,8.636474609375,6.34765625
3.8074999000000003,1.0283095836639404,-0.48901569843292236,9.813833236694336,25.146484375,-10.92529296875,-1.007080078125
3.8124999,1.0720038414001465,-0.40282443165779114,9.634865760803223,-21.759033203125,5.218505859375,-7.354736328125
3.8174999,1.0576386451721191,-0.524330198764801,9.860519409179688,0.732421875,4.791259765625,8.026123046875
3.8224999000000004,1.0594342947006226,-0.5039794445037842,9.852140426635742,19.989013671875,-11.322021484375,-4.82177734375
3.8274999000000003,1.0672154426574707,-0.4189853072166443,9.66958236694336,-9.33837890625,-1.953125,-9.674072265625
3.8324999,1.1037269830703735,-0.46327802538871765,9.729436874389648,-11.444091796875,10.406494140625,7.32421875
3.8374999,1.0576386451721191,-0.46806642413139343,9.827000617980957,24.139404296875,-11.505126953125,-2.838134765625
3.8424999,1.0654197931289673,-0.37469255924224854,9.583391189575195,-23.468017578125,6.53076171875,-5.706787109375
3.8474999000000003,1.0492589473724365,-0.536899745464325,9.84615421295166,8.97216796875,2.74658203125,8.331298828125
3.8524999,0.9965864419937134,-0.5117605924606323,9.767744064331055,9.490966796875,-9.82666015625,-9.063720703125
3.8574999,1.0450690984725952,-0.507570743560791,9.697713851928711,-22.796630859375,11.932373046875,2.655029296875
3.8624999,0.9911994934082031,-0.6099228858947754,9.931148529052734,23.834228515625,-7.110595703125,2.777099609375
3.8674999000000003,1.0384849309921265,-0.4800374507904053,9.777320861816406,18.035888671875,-11.29150390625,-6.378173828125
3.8724999,1.0869675874710083,-0.3944447338581085,9.627084732055664,-24.4140625,9.735107421875,-0.732421875
3.8774999,1.0301052331924438,-0.5656301379203796,9.873088836669922,19.866943359375,-3.326416015625,5.37109375
3.8824999,1.027711033821106,-0.47165772318840027,9.657610893249512,-7.568359375,-3.997802734375,-9.58251953125
3.8874999000000003,1.0911574363708496,-0.5111620426177979,9.767146110534668,-7.965087890625,9.490966796875,8.026123046875
3.8924999000000002,1.0229226350784302,-0.5500678420066833,9.807249069213867,19.71435546875,-11.016845703125,-5.18798828125
3.8974999,1.0911574363708496,-0.43754035234451294,9.645041465759277,-23.651123046875,8.36181640625,-1.373291015625
3.9024999,1.0360907316207886,-0.5764040350914001,9.8970308303833,18.890380859375,-2.5634765625,5.55419921875
3.9074999000000004,1.0283095836639404,-0.45848962664604187,9.658807754516602,-7.8125,-3.936767578125,-9.246826171875
3.9124999000000003,1.0606313943862915,-0.47225627303123474,9.7791166305542,-5.706787109375,8.9111328125,8.392333984375
3.9174999,1.0079588890075684,-0.5135562419891357,9.804854393005371,17.120361328125,-10.772705078125,-6.195068359375
3.9224999,1.0271124839782715,-0.568622887134552,9.910199165344238,21.026611328125,-4.57763671875,3.41796875
3.9274999000000004,1.0708067417144775,-0.44532153010368347,9.648633003234863,-13.519287109375,-1.28173828125,-7.904052734375
3.9324999000000003,1.0678139925003052,-0.547075092792511,9.856329917907715,2.105712890625,6.28662109375,8.7890625
3.9374999,1.0313023328781128,-0.5273229479789734,9.759963035583496,9.1552734375,-9.490966796875,-8.514404296875
3.9424999,1.0618284940719604,-0.45489832758903503,9.680954933166504,-17.9443359375,10.040283203125,4.608154296875
3.9474999000000004,1.0283095836639404,-0.5446808934211731,9.864709854125977,22.0947265625,-8.148193359375,-1.0986328125
3.9524999000000003,1.0295066833496094,-0.39624038338661194,9.561842918395996,-20.660400390625,4.302978515625,-3.936767578125
3.9574999,1.0372878313064575,-0.4967968463897705,9.835979461669922,14.129638671875,1.0986328125,6.4697265625
3.9624999,1.0013748407363892,-0.42377370595932007,9.605537414550781,-5.18798828125,-5.340576171875,-9.429931640625
3.9674999000000004,1.0522516965866089,-0.4537012279033661,9.743204116821289,-4.913330078125,8.9111328125,8.4228515625
3.9724999000000003,1.0121487379074097,-0.5147533416748047,9.762955665588379,13.427734375,-9.796142578125,-7.171630859375
3.9774999,1.048660397529602,-0.5614402890205383,9.8970308303833,20.99609375,-6.317138671875,-0.396728515625
3.9824999,1.0402805805206299,-0.4531026780605316,9.640253067016602,-19.500732421875,2.960205078125,-4.180908203125
3.9874999,1.0432734489440918,-0.5279214978218079,9.927556991577148,14.0380859375,1.373291015625,6.4697265625
3.9924999000000003,1.0324994325637817,-0.4578910768032074,9.659406661987305,-6.805419921875,-5.126953125,-9.002685546875
3.9974999,1.061229944229126,-0.4902127981185913,9.906607627868652,-1.28173828125,7.99560546875,8.72802734375
4.0024999,1.0899603366851807,-0.4357447028160095,9.761758804321289,-15.106201171875,9.09423828125,5.4931640625
4.0074999,0.9858125448226929,-0.5279214978218079,9.858723640441895,19.012451171875,-7.843017578125,-3.47900390625
4.0124999,1.0558429956436157,-0.4100070297718048,9.631275177001953,-20.263671875,5.615234375,-0.274658203125
4.0174999,0.9929951429367065,-0.4920084476470947,9.873687744140625,19.012451171875,-2.288818359375,2.838134765625
4.022499900000001,0.9786299467086792,-0.41539400815963745,9.607333183288574,-15.80810546875,-0.48828125,-6.011962890625
4.0274999000000005,1.0085574388504028,-0.4620809257030487,9.871294021606445,10.6201171875,3.5400390625,7.293701171875
4.0324999,1.0492589473724365,-0.4602852761745453,9.854534149169922,-1.312255859375,7.4462890625,8.36181640625
4.0374999,1.016338586807251,-0.4926069974899292,9.714473724365234,6.89697265625,-8.331298828125,-8.544921875
4.0424999,1.1139023303985596,-0.4381389021873474,9.755773544311523,-12.115478515625,8.11767578125,6.561279296875
4.0474999,1.0247182846069336,-0.5692214369773865,9.825204849243164,15.7470703125,-7.62939453125,-5.06591796875
4.0524999,1.0660183429718018,-0.41958385705947876,9.618705749511719,-18.12744140625,6.04248046875,2.471923828125
4.0574999,1.0127472877502441,-0.5716156363487244,9.843161582946777,19.287109375,-4.547119140625,-0.9765625
4.062499900000001,1.071405291557312,-0.4531026780605316,9.606734275817871,-18.98193359375,2.471923828125,-1.89208984375
4.0674999000000005,1.0749965906143188,-0.52552729845047,9.870695114135742,17.364501953125,-0.396728515625,3.35693359375
4.0724999,1.0630255937576294,-0.4794389009475708,9.642048835754395,-15.0146484375,-1.373291015625,-5.67626953125
4.0774999,1.0821791887283325,-0.47225627303123474,9.925163269042969,11.71875,3.021240234375,6.256103515625
4.0824999,1.0552444458007812,-0.4842272996902466,9.68933391571045,6.439208984375,-6.77490234375,-8.087158203125
4.0874999,1.1222820281982422,-0.4752490520477295,9.802460670471191,-9.521484375,6.744384765625,6.8359375
4.0924999,1.0283095836639404,-0.5847837924957275,9.793481826782227,11.962890625,-6.04248046875,-6.65283203125
4.0974999,1.061229944229126,-0.45848962664604187,9.701904296875,-13.763427734375,5.523681640625,5.0048828125
4.1024999,0.9989806413650513,-0.5907692909240723,9.824007987976074,15.472412109375,-5.096435546875,-4.45556640625
4.1074999000000005,1.0534487962722778,-0.3866635859012604,9.603142738342285,-16.66259765625,4.486083984375,2.899169921875
4.1124999,0.9959878921508789,-0.5398924946784973,9.80904483795166,17.15087890625,-3.60107421875,-2.349853515625
4.1174999,1.0582371950149536,-0.36571431159973145,9.580398559570312,-17.730712890625,2.86865234375,0.518798828125
4.1224999,1.0085574388504028,-0.5129576921463013,9.837176322937012,17.51708984375,-2.0751953125,-0.335693359375
4.1274999,1.0773907899856567,-0.42197805643081665,9.645041465759277,-17.2119140625,1.373291015625,-1.312255859375
4.1324999,1.0648212432861328,-0.5153518915176392,9.910798072814941,16.845703125,-0.67138671875,1.434326171875
4.1374999,1.0971429347991943,-0.5273229479789734,9.690531730651855,-14.739990234375,-0.946044921875,-4.302978515625
4.1424999,1.0905588865280151,-0.49978959560394287,9.876680374145508,13.7939453125,1.556396484375,4.241943359375
4.147499900000001,1.0085574388504028,-0.49320554733276367,9.668983459472656,-13.031005859375,-1.953125,-5.035400390625
4.1524999000000005,1.0372878313064575,-0.43514615297317505,9.852738380432129,12.237548828125,2.197265625,5.126953125
4.1574999,0.9534908533096313,-0.4644751250743866,9.637260437011719,-11.688232421875,-2.410888671875,-5.950927734375
4.1624999,0.9391255974769592,-0.47884035110473633,9.610325813293457,-10.25390625,-2.74658203125,-6.317138671875
4.1674999,0.9391255974769592,-0.47884035110473633,9.610325813293457,-10.25390625,-2.74658203125,-6.317138671875
4.1724999,1.004966139793396,-0.4321534037590027,9.824606895446777,9.979248046875,3.082275390625,6.16455078125
4.1774999,0.9510966539382935,-0.5039794445037842,9.600150108337402,-9.6435546875,-2.899169921875,-6.622314453125
4.1824999,1.0235211849212646,-0.45010992884635925,9.825204849243164,9.46044921875,3.204345703125,6.011962890625
4.187499900000001,0.9846154451370239,-0.5153518915176392,9.610325813293457,-9.063720703125,-3.082275390625,-6.65283203125
4.1924999000000005,1.0833762884140015,-0.456095427274704,9.849745750427246,8.941650390625,2.99072265625,5.950927734375
4.1974999,1.0384849309921265,-0.5303156971931458,9.644442558288574,-9.429931640625,-3.021240234375,-6.28662109375
4.2024999,1.1019313335418701,-0.46567222476005554,9.86231517791748,9.368896484375,2.99072265625,5.67626953125
4.2074999,1.05105459690094,-0.5464765429496765,9.673172950744629,-9.765625,-2.8076171875,-5.9814453125
4.2124999,1.113303780555725,-0.4770447015762329,9.86889934539795,10.101318359375,2.716064453125,5.37109375
4.2174999,1.0492589473724365,-0.5428852438926697,9.70549488067627,-10.68115234375,-2.288818359375,-5.523681640625
4.2224999,1.1049240827560425,-0.4812345504760742,9.871294021606445,11.29150390625,2.166748046875,4.69970703125
4.2274999,1.058835744857788,-0.5303156971931458,9.721057891845703,-11.871337890625,-1.953125,-4.94384765625
4.2324999000000005,1.0833762884140015,-0.4902127981185913,9.877279281616211,12.14599609375,1.64794921875,3.90625
4.2374999,1.0899603366851807,-0.5494692921638489,9.694721221923828,-12.603759765625,-1.495361328125,-4.058837890625
4.2424999,1.0558429956436157,-0.5027823448181152,9.864110946655273,13.427734375,1.220703125,2.99072265625
4.2474999,1.094150185585022,-0.5225345492362976,9.6803560256958,-13.7939453125,-0.6103515625,-2.99072265625
4.2524999,1.002571940422058,-0.49380409717559814,9.843161582946777,13.916015625,0.732421875,1.8310546875
4.2574999,1.047463297843933,-0.436343252658844,9.655217170715332,-14.16015625,-0.06103515625,-1.708984375
4.2624999,0.961870551109314,-0.4967968463897705,9.79408073425293,14.22119140625,-0.274658203125,0.3662109375
4.2674999,1.0384849309921265,-0.3824737071990967,9.581595420837402,-14.007568359375,0.701904296875,-0.213623046875
4.272499900000001,0.9810241460800171,-0.52552729845047,9.769539833068848,13.85498046875,-1.251220703125,-1.251220703125
4.2774999000000005,1.0462661981582642,-0.3878606855869293,9.618705749511719,-13.336181640625,1.52587890625,1.434326171875
4.2824999,1.0097545385360718,-0.5608417391777039,9.786897659301758,12.51220703125,-1.983642578125,-2.838134765625
4.2874999,1.0749965906143188,-0.3860650360584259,9.722254753112793,-11.41357421875,2.50244140625,3.11279296875
4.2924999,1.0384849309921265,-0.5722141861915588,9.791686058044434,10.284423828125,-2.5634765625,-4.45556640625
4.2974999,1.1444283723831177,-0.40462008118629456,9.797672271728516,-8.514404296875,3.0517578125,4.7607421875
4.3024999,1.0307037830352783,-0.5710170865058899,9.750386238098145,6.744384765625,-3.173828125,-5.645751953125
4.3074999,1.1180921792984009,-0.43514615297317505,9.838373184204102,-4.669189453125,3.60107421875,5.828857421875
4.312499900000001,1.0133458375930786,-0.43335050344467163,9.847352027893066,-0.152587890625,3.47900390625,6.04248046875
4.3174999000000005,0.943913996219635,-0.5165489912033081,9.667786598205566,-2.44140625,-3.265380859375,-6.77490234375
4.3224999,0.9774328470230103,-0.4255693554878235,9.821614265441895,4.8828125,2.960205078125,5.828857421875
4.3274999,0.9894038438796997,-0.49380409717559814,9.639056205749512,-7.080078125,-2.899169921875,-5.950927734375
4.3324999,1.0576386451721191,-0.4321534037590027,9.780313491821289,9.033203125,2.288818359375,4.669189453125
4.3374999,1.1312602758407593,-0.5207388401031494,9.634865760803223,-10.772705078125,-2.0751953125,-4.302978515625
4.3424999,1.0977414846420288,-0.4812345504760742,9.801861763000488,12.176513671875,1.007080078125,2.44140625
4.3474999,1.1677719354629517,-0.48901569843292236,9.635464668273926,-12.63427734375,-0.42724609375,-1.8310546875
4.352499900000001,1.0295066833496094,-0.5141547918319702,9.804255485534668,12.63427734375,-0.274658203125,0.1220703125
4.3574999000000005,1.0636241436004639,-0.4189853072166443,9.68694019317627,-12.176513671875,0.9765625,0.9765625
4.3624999,0.9798270463943481,-0.5548562407493591,9.792284965515137,10.986328125,-1.64794921875,-2.86865234375
4.3674999,1.0678139925003052,-0.4273650050163269,9.78989028930664,-8.819580078125,1.983642578125,3.387451171875
4.3724999,0.9810241460800171,-0.6003460884094238,9.742605209350586,6.561279296875,-2.8076171875,-5.2490234375
4.3774999,1.0833762884140015,-0.4345476031303406,9.819219589233398,-3.41796875,2.960205078125,5.218505859375
4.3824999,0.983418345451355,-0.5728127360343933,9.65222454071045,0.30517578125,-3.0517578125,-6.16455078125
4.3874999,1.027711033821106,-0.4058171808719635,9.814431190490723,2.8076171875,2.9296875,5.7373046875
4.3924999,1.0001777410507202,-0.4884171485900879,9.665990829467773,-5.92041015625,-2.50244140625,-5.79833984375
4.397499900000001,1.0450690984725952,-0.4040215313434601,9.834183692932129,8.48388671875,2.197265625,4.425048828125
4.4024999000000005,0.9774328470230103,-0.6003460884094238,9.713874816894531,6.591796875,-2.105712890625,-4.425048828125
4.4074999,0.9678560495376587,-0.5829881429672241,9.677961349487305,-0.457763671875,-2.593994140625,-6.011962890625
4.4124999,1.0235211849212646,-0.39384618401527405,9.802460670471191,4.150390625,2.410888671875,5.31005859375
4.4174999,1.0336965322494507,-0.5195417404174805,9.718663215637207,-7.4462890625,-2.0751953125,-4.791259765625
4.4224999,1.013944387435913,-0.41718965768814087,9.861717224121094,10.1318359375,1.28173828125,3.41796875
4.4274999,1.1085153818130493,-0.46148237586021423,9.720458984375,-11.505126953125,-0.946044921875,-2.197265625
4.4324999,1.0085574388504028,-0.4884171485900879,9.819818496704102,11.444091796875,0.06103515625,-0.335693359375
4.437499900000001,1.1222820281982422,-0.4040215313434601,9.739013671875,-10.43701171875,1.129150390625,1.5869140625
4.4424999000000005,1.006163239479065,-0.5620388388633728,9.70429801940918,7.965087890625,-1.5869140625,-3.570556640625
4.4474999,1.0959458351135254,-0.3824737071990967,9.807249069213867,-4.21142578125,2.197265625,4.57763671875
4.4524999,0.9882067441940308,-0.6141127347946167,9.673172950744629,0.244140625,-2.288818359375,-5.523681640625
4.4574999,1.0480618476867676,-0.38546648621559143,9.779715538024902,4.119873046875,2.197265625,4.8828125
4.4624999,1.0534487962722778,-0.6165069341659546,9.671976089477539,-7.4462890625,-1.953125,-4.69970703125
4.4674999,1.1174936294555664,-0.5518634915351868,9.694721221923828,-11.505126953125,-0.48828125,-1.3427734375
4.4724999,1.0115501880645752,-0.5039794445037842,9.802460670471191,11.138916015625,-0.06103515625,-0.946044921875
4.477499900000001,1.1264718770980835,-0.4183867573738098,9.768342971801758,-9.124755859375,1.28173828125,2.38037109375
4.4824999000000005,1.006163239479065,-0.5327098965644836,9.706692695617676,5.126953125,-1.5869140625,-4.425048828125
4.4874999,1.082777738571167,-0.3513490855693817,9.861717224121094,-1.312255859375,2.166748046875,4.669189453125
4.4924999,0.9894038438796997,-0.5668272376060486,9.700108528137207,-3.448486328125,-1.89208984375,-5.18798828125
4.4974999,1.0223240852355957,-0.4010287821292877,9.841964721679688,7.32421875,1.953125,4.119873046875
4.5024999,1.0396820306777954,-0.5596446394920349,9.649829864501953,-9.857177734375,-1.129150390625,-2.99072265625
4.5074999,1.0073603391647339,-0.48303020000457764,9.756970405578613,11.260986328125,0.518798828125,0.457763671875
4.5124999,1.1192892789840698,-0.47824180126190186,9.715670585632324,-10.467529296875,0.701904296875,1.220703125
4.5174999,1.003769040107727,-0.5404910445213318,9.6989107131958,7.75146484375,-1.251220703125,-3.35693359375
4.522499900000001,1.1162965297698975,-0.3645172119140625,9.822811126708984,-3.631591796875,1.77001953125,4.150390625
4.5274999000000005,1.0672154426574707,-0.36810851097106934,9.823410034179688,5.523681640625,1.800537109375,4.302978515625
4.5324999,1.0618284940719604,-0.5416881442070007,9.700108528137207,-9.185791015625,-1.251220703125,-3.387451171875
4.5374999,1.0313023328781128,-0.46806642413139343,9.788095474243164,11.077880859375,0.457763671875,0.946044921875
4.5424999,1.1432312726974487,-0.4985924959182739,9.740809440612793,-10.162353515625,0.244140625,0.762939453125
4.5474999,1.0109516382217407,-0.5602431893348694,9.706093788146973,7.6904296875,-1.0986328125,-3.11279296875
4.5524999,1.1121066808700562,-0.3992331326007843,9.804255485534668,-3.448486328125,1.8310546875,3.997802734375
4.5574999,0.9959878921508789,-0.5620388388633728,9.685144424438477,-1.617431640625,-1.77001953125,-4.974365234375
4.562499900000001,1.1216834783554077,-0.4770447015762329,9.77672290802002,-9.33837890625,0.640869140625,1.373291015625
4.5674999000000005,1.1216834783554077,-0.4770447015762329,9.77672290802002,-9.33837890625,0.640869140625,1.373291015625
4.5724999,1.0887632369995117,-0.4010287821292877,9.864709854125977,-1.190185546875,1.617431640625,4.2724609375
4.5774999,1.0319008827209473,-0.5943605899810791,9.711481094360352,-3.875732421875,-1.556396484375,-4.69970703125
4.5824999,1.0121487379074097,-0.43035775423049927,9.852738380432129,7.99560546875,1.15966796875,2.838134765625
4.5874999,1.0965443849563599,-0.517746090888977,9.68155288696289,-10.223388671875,-0.640869140625,-1.556396484375
4.5924999,1.004966139793396,-0.5117605924606323,9.765948295593262,9.765625,-0.274658203125,-1.03759765625
4.5974999,1.1366472244262695,-0.3866635859012604,9.731232643127441,-7.110595703125,1.28173828125,2.777099609375
4.602499900000001,0.9965864419937134,-0.5548562407493591,9.668983459472656,2.105712890625,-1.434326171875,-4.5166015625
4.6074999000000005,1.0989385843276978,-0.3621230125427246,9.795876502990723,2.838134765625,1.556396484375,4.21142578125
4.6124999,1.0540473461151123,-0.5548562407493591,9.673771858215332,-7.171630859375,-1.28173828125,-3.60107421875
4.6174999,1.0145429372787476,-0.46746787428855896,9.77133560180664,10.009765625,0.640869140625,1.251220703125
4.6224999,1.1354501247406006,-0.4710591733455658,9.759963035583496,-9.796142578125,0.335693359375,0.6103515625
4.6274999,0.9816226959228516,-0.5644330382347107,9.724050521850586,6.89697265625,-0.946044921875,-3.23486328125
4.6324999,1.0648212432861328,-0.5374982953071594,9.709685325622559,-10.009765625,-0.3662109375,-1.03759765625
4.6374999,1.0648212432861328,-0.5374982953071594,9.709685325622559,-10.009765625,-0.3662109375,-1.03759765625
4.6424999,0.970848798751831,-0.5093663930892944,9.780313491821289,9.1552734375,-0.396728515625,-1.739501953125
4.647499900000001,1.071405291557312,-0.39803603291511536,9.750386238098145,-5.340576171875,1.068115234375,2.74658203125
4.6524999000000005,0.9864110946655273,-0.5327098965644836,9.70429801940918,0.48828125,-1.556396484375,-4.486083984375
4.6574999,1.0678139925003052,-0.3645172119140625,9.822811126708984,5.0048828125,1.251220703125,3.753662109375
4.6624999,1.0660183429718018,-0.5123591423034668,9.684545516967773,-8.636474609375,-0.8544921875,-2.471923828125
4.6674999,1.035492181777954,-0.47584760189056396,9.765350341796875,9.613037109375,0.1220703125,-0.244140625
4.6724999,1.1581950187683105,-0.4315548539161682,9.7605619430542,-7.720947265625,0.79345703125,1.983642578125
4.6774999,0.993593692779541,-0.5883750915527344,9.691728591918945,3.143310546875,-1.40380859375,-3.997802734375
4.6824999,1.0983400344848633,-0.4183867573738098,9.84495735168457,2.685546875,1.434326171875,3.84521484375
4.687499900000001,0.9888052940368652,-0.4644751250743866,9.775525093078613,9.3994140625,0.152587890625,0.701904296875
4.6924999000000005,1.1025298833847046,-0.47405192255973816,9.7791166305542,-8.453369140625,0.518798828125,1.220703125
4.6974999,0.9433154463768005,-0.5560533404350281,9.709685325622559,4.730224609375,-1.068115234375,-3.72314453125
4.7024999,1.0761936902999878,-0.3908534348011017,9.815030097961426,0.67138671875,1.373291015625,3.936767578125
4.7074999,1.048660397529602,-0.5440823435783386,9.6989107131958,-5.92041015625,-1.007080078125,-3.5400390625
4.7124999,1.0301052331924438,-0.4165911078453064,9.785101890563965,9.033203125,0.579833984375,1.15966796875
4.7174999,1.159990668296814,-0.44831427931785583,9.807249069213867,-8.72802734375,0.274658203125,0.823974609375
4.7224999,1.037886381149292,-0.5602431893348694,9.695320129394531,-5.18798828125,-1.129150390625,-3.60107421875
4.727499900000001,1.0031704902648926,-0.4297592043876648,9.782109260559082,8.636474609375,0.54931640625,1.312255859375
4.7324999000000005,1.1312602758407593,-0.48602294921875,9.783307075500488,-9.27734375,0.30517578125,0.579833984375
4.7374999,1.0660183429718018,-0.37229835987091064,9.803657531738281,-0.6103515625,1.40380859375,3.692626953125
4.7424999,1.0271124839782715,-0.5452794432640076,9.677961349487305,-5.157470703125,-1.03759765625,-3.60107421875
4.7474999,0.9953893423080444,-0.4141969084739685,9.770736694335938,8.819580078125,0.518798828125,1.28173828125
4.7524999,1.1240776777267456,-0.4884171485900879,9.785700798034668,-8.7890625,0.457763671875,0.732421875
4.7574999,0.9570821523666382,-0.5716156363487244,9.73542308807373,5.523681640625,-0.885009765625,-3.173828125
4.7624999,1.072602391242981,-0.4010287821292877,9.791088104248047,0.274658203125,1.40380859375,3.631591796875
4.7674999,1.0348936319351196,-0.524330198764801,9.670180320739746,-5.55419921875,-0.9765625,-3.448486328125
4.772499900000001,1.0043675899505615,-0.4141969084739685,9.723451614379883,8.60595703125,0.48828125,1.15966796875
4.7774999000000005,1.113303780555725,-0.4776432514190674,9.729436874389648,-8.60595703125,0.518798828125,1.220703125
4.7824999,0.9091981053352356,-0.5931634902954102,9.618705749511719,4.058837890625,-1.190185546875,-2.960205078125
4.7874999,1.0330979824066162,-0.5021837949752808,9.710882186889648,0.67138671875,1.0986328125,6.011962890625
4.7924999,0.9582792520523071,-0.6554127335548401,9.50498104095459,-6.988525390625,-1.8310546875,0.335693359375
4.7974999,0.839766263961792,-0.3800795078277588,9.29189682006836,-16.448974609375,2.38037109375,1.64794921875
4.8024999,0.8493430614471436,0.2890998423099518,10.014945983886719,4.974365234375,-2.532958984375,18.157958984375
4.8074999,0.7212532758712769,-0.15741875767707825,9.6618013381958,-9.27734375,-15.56396484375,5.157470703125
4.812499900000001,0.707486629486084,0.053270988166332245,10.09814453125,-7.781982421875,-4.69970703125,8.636474609375
4.8174999000000005,0.6500257849693298,0.39145198464393616,10.241796493530273,14.068603515625,-26.42822265625,15.716552734375
4.8224999,0.8361749649047852,0.09038111567497253,10.272322654724121,-26.91650390625,-2.471923828125,-10.467529296875
4.8274999,0.8589198589324951,-0.3034650683403015,9.847949981689453,-10.040283203125,-6.744384765625,1.068115234375
4.8324999,1.3844470977783203,-1.8513164520263672,8.744223594665527,22.27783203125,10.986328125,-4.364013671875
4.8374999,1.1528080701828003,-1.6915035247802734,8.85675048828125,14.862060546875,14.923095703125,-15.960693359375
4.8424999,1.138442873954773,-1.173158884048462,9.296685218811035,0.3662109375,28.86962890625,-30.45654296875
4.8474999,1.2791022062301636,-0.5500678420066833,9.794678688049316,-1.556396484375,30.3955078125,-18.280029296875
4.852499900000001,1.2270283699035645,-0.19153612852096558,10.047266960144043,2.716064453125,17.76123046875,3.082275390625
4.8574999000000005,0.8924387097358704,-0.1586158573627472,10.050260543823242,5.92041015625,10.7421875,7.598876953125
4.8624999,0.05147533491253853,-0.45908817648887634,9.895833969116211,6.500244140625,-1.434326171875,-5.126953125
4.8674999,-0.005386953707784414,-0.5476736426353455,9.874286651611328,5.67626953125,-4.547119140625,-1.5869140625
4.8724999,0.22625206410884857,-0.5578489899635315,9.852738380432129,4.57763671875,-4.119873046875,0.3662109375
4.8774999,0.6009446382522583,-0.5566518902778625,9.82759952545166,4.669189453125,-2.5634765625,0.213623046875
4.8824999,0.9648633003234863,-0.5752069354057312,9.806051254272461,5.828857421875,-0.579833984375,-0.335693359375
4.8874999,1.2120646238327026,-0.585382342338562,9.798869132995605,6.53076171875,0.885009765625,-0.244140625
4.8924999,1.3150153160095215,-0.5596446394920349,9.81263542175293,6.16455078125,1.46484375,-0.274658203125
4.897499900000001,1.2755109071731567,-0.4985924959182739,9.855731010437012,5.340576171875,0.54931640625,-0.6103515625
4.9024999000000005,1.1408370733261108,-0.42377370595932007,9.901819229125977,4.638671875,-1.190185546875,-0.823974609375
4.9074999,0.9840168952941895,-0.35673606395721436,9.928754806518555,4.119873046875,-2.899169921875,-0.9765625
4.9124999,0.8457517623901367,-0.31184476613998413,9.935338973999023,3.692626953125,-4.39453125,-0.79345703125
4.9174999,0.7763199210166931,-0.28730419278144836,9.931148529052734,3.143310546875,-5.340576171875,-0.762939453125
4.9224999,0.767341673374176,-0.2663549482822418,9.9185791015625,2.38037109375,-7.843017578125,0.152587890625
4.9274999,0.7817068696022034,-0.25079262256622314,9.9185791015625,1.800537109375,-9.429931640625,0.30517578125
4.9324999,0.8098387122154236,-0.1867477297782898,9.914987564086914,0.18310546875,-11.627197265625,0.06103515625
4.937499900000001,0.884058952331543,-0.09516951441764832,9.895236015319824,-3.387451171875,-12.20703125,-0.579833984375
4.9424999000000005,1.0307037830352783,-0.023942016065120697,9.851541519165039,-6.805419921875,-9.124755859375,-0.732421875
4.9474999,1.2300211191177368,-0.050876785069704056,9.774328231811523,-8.575439453125,-5.279541015625,-0.274658203125
4.9524999,1.403002142906189,-0.2214636504650116,9.658209800720215,-7.99560546875,-1.007080078125,-0.030517578125
4.9574999,1.488594889640808,-0.5225345492362976,9.5408935546875,-5.67626953125,1.312255859375,-0.274658203125
4.9624999,1.048660397529602,-1.0271124839782715,9.503783226013184,2.685546875,1.800537109375,-0.54931640625
4.9674999,0.838569164276123,-0.6512228846549988,9.761159896850586,1.434326171875,-1.556396484375,-0.213623046875
4.9724999,0.8439561128616333,-0.44771572947502136,9.834781646728516,0.244140625,-1.251220703125,0.18310546875
4.977499900000001,0.910993754863739,-0.3100491166114807,9.864709854125977,-1.068115234375,0.030517578125,-0.274658203125
4.9824999000000005,1.0169371366500854,-0.30047231912612915,9.841964721679688,-1.312255859375,1.068115234375,-0.48828125
4.9874999,1.0564415454864502,-0.3321954905986786,9.798869132995605,0,0.518798828125,-0.3662109375
4.9924999,1.0989385843276978,-0.43933600187301636,9.773131370544434,0.79345703125,-0.457763671875,-0.18310546875
4.9974999,1.0773907899856567,-0.5333084464073181,9.755773544311523,1.434326171875,-0.67138671875,-0.274658203125
5.0024999,1.0684125423431396,-0.5321113467216492,9.724050521850586,-0.48828125,0.244140625,-0.732421875
5.0074999,1.0552444458007812,-0.5428852438926697,9.763554573059082,0.6103515625,0.30517578125,-0.701904296875
5.0124999,1.0319008827209473,-0.49380409717559814,9.73781681060791,-0.885009765625,0.244140625,0.152587890625
5.0174999,1.036689281463623,-0.47644615173339844,9.768342971801758,-0.091552734375,-0.54931640625,-0.1220703125
5.022499900000001,1.0211269855499268,-0.48243165016174316,9.773131370544434,-0.1220703125,-0.244140625,-0.48828125
5.0274999000000005,1.0408791303634644,-0.5267243981361389,9.765350341796875,0.091552734375,0,-0.335693359375
5.0324999,1.026513934135437,-0.5207388401031494,9.721057891845703,0.030517578125,-0.213623046875,-0.091552734375
5.0374999,1.026513934135437,-0.5279214978218079,9.761758804321289,0.1220703125,-0.54931640625,0.1220703125
5.0424999,1.0330979824066162,-0.4926069974899292,9.739013671875,0.396728515625,-0.3662109375,0.030517578125
5.0474999,1.0438719987869263,-0.4908113479614258,9.750985145568848,-0.3662109375,-0.1220703125,-0.335693359375
5.0524999,1.0654197931289673,-0.5099649429321289,9.744400978088379,0.335693359375,0.213623046875,-0.732421875
5.0574999,1.0564415454864502,-0.48722004890441895,9.763554573059082,0.3662109375,0.30517578125,-0.152587890625
5.062499900000001,1.0450690984725952,-0.535702645778656,9.747992515563965,1.5869140625,0.091552734375,-0.79345703125
5.0674999000000005,1.0450690984725952,-0.47165772318840027,9.753378868103027,-0.640869140625,-0.091552734375,-1.220703125
5.0724999,1.058835744857788,-0.4950011968612671,9.746196746826172,0.152587890625,0.91552734375,-0.79345703125
5.0774999,1.0456676483154297,-0.4357447028160095,9.742006301879883,-1.007080078125,0.030517578125,0.67138671875
5.0824999,1.05105459690094,-0.444722980260849,9.743802070617676,-0.762939453125,-0.3662109375,-0.1220703125
5.0874999,1.0708067417144775,-0.4345476031303406,9.768342971801758,-0.579833984375,0.91552734375,-1.495361328125
5.0924999,1.0193313360214233,-0.3669114112854004,9.757569313049316,-1.40380859375,0.091552734375,0.823974609375
5.0974999,1.026513934135437,-0.40521863102912903,9.789292335510254,-1.5869140625,-1.03759765625,1.800537109375
5.102499900000001,1.0193313360214233,-0.46327802538871765,9.798270225524902,-0.396728515625,-1.46484375,1.52587890625
5.1074999000000005,0.9995791912078857,-0.5734112858772278,9.767744064331055,1.03759765625,-1.708984375,0.152587890625
5.1124999,1.0528502464294434,-0.6458359360694885,9.775525093078613,1.52587890625,0.48828125,-1.8310546875
5.1174999,1.0642226934432983,-0.6458359360694885,9.729436874389648,2.593994140625,1.40380859375,-2.288818359375
5.1224999,1.0019733905792236,-0.3758896589279175,9.847352027893066,-0.67138671875,-2.8076171875,3.143310546875
5.1274999,0.9642647504806519,-0.48063600063323975,9.81263542175293,-0.274658203125,-2.8076171875,-0.152587890625
5.1324999,1.0073603391647339,-0.5811924338340759,9.741408348083496,2.044677734375,1.03759765625,-3.35693359375
5.1374999,1.0492589473724365,-0.6338648796081543,9.621698379516602,1.007080078125,2.38037109375,-4.180908203125
5.1424999,1.0492589473724365,-0.6338648796081543,9.621698379516602,1.007080078125,2.38037109375,-4.180908203125
5.147499900000001,1.114500880241394,-0.5805938839912415,9.64683723449707,0.946044921875,3.875732421875,-1.983642578125
5.1524999000000005,1.0851719379425049,-0.48602294921875,9.699509620666504,-1.0986328125,0.457763671875,3.47900390625
5.1574999,1.0313023328781128,-0.3663128614425659,9.823410034179688,-0.091552734375,-2.62451171875,5.2490234375
5.1624999,0.9804255962371826,-0.40043023228645325,9.899425506591797,-1.0986328125,-4.425048828125,0.732421875
5.1674999,0.9792284965515137,-0.45908817648887634,9.849146842956543,0.762939453125,0.335693359375,-4.974365234375
5.1724999,0.9989806413650513,-0.4710591733455658,9.79408073425293,0.579833984375,-2.655029296875,-3.35693359375
5.1774999,0.9989806413650513,-0.4710591733455658,9.79408073425293,0.579833984375,-2.655029296875,-3.35693359375
5.1824999,0.9888052940368652,-0.5039794445037842,9.755773544311523,-1.64794921875,2.685546875,-8.941650390625
5.187499900000001,1.0456676483154297,-0.4950011968612671,9.676764488220215,-2.01416015625,5.706787109375,-4.302978515625
5.1924999000000005,1.0911574363708496,-0.5303156971931458,9.754576683044434,0.701904296875,1.03759765625,6.77490234375
5.1974999,1.0103530883789062,-0.5219359993934631,9.763554573059082,2.838134765625,-5.55419921875,9.796142578125
5.2024999,0.9888052940368652,-0.47405192255973816,9.749788284301758,-2.593994140625,2.471923828125,-12.054443359375
5.2074999,0.9888052940368652,-0.47405192255973816,9.749788284301758,-2.593994140625,2.471923828125,-12.054443359375
5.2124999,1.071405291557312,-0.44771572947502136,9.68694019317627,-3.875732421875,7.2021484375,-6.65283203125
5.2174999,1.1198878288269043,-0.4686649739742279,9.706093788146973,1.708984375,0.946044921875,9.033203125
5.2224999,1.0169371366500854,-0.5560533404350281,9.832387924194336,2.62451171875,-4.608154296875,-3.662109375
5.227499900000001,1.0169371366500854,-0.5560533404350281,9.832387924194336,2.62451171875,-4.608154296875,-3.662109375
5.2324999000000005,0.9720458984375,-0.5219359993934631,9.803058624267578,-6.378173828125,4.8828125,-15.93017578125
5.2374999,1.0360907316207886,-0.5099649429321289,9.731831550598145,-4.119873046875,7.75146484375,-4.94384765625
5.2424999,1.0414776802062988,-0.4770447015762329,9.696516990661621,5.55419921875,-2.960205078125,14.862060546875
5.2474999,1.081580638885498,-0.5069721937179565,9.761159896850586,6.103515625,-8.758544921875,10.986328125
5.2524999,1.015141487121582,-0.47884035110473633,9.73781681060791,-2.3193359375,-0.54931640625,-11.749267578125
5.2574999,1.0450690984725952,-0.436343252658844,9.68694019317627,-8.85009765625,8.97216796875,-15.869140625
5.2624999,1.0905588865280151,-0.424970805644989,9.68694019317627,2.38037109375,2.899169921875,6.134033203125
5.2674999,1.091755986213684,-0.5021837949752808,9.750985145568848,7.843017578125,-8.97216796875,17.2119140625
