# Time (seconds),Accel_X,Accel_Y,Accel_Z,Gyro_X,Gyro_Y,Gyro_Z
0.0024999,0.4770447015762329,0.002992752008140087,9.722254753112793,-1.708984375,0.885009765625,-1.007080078125
0.0074999,0.4770447015762329,0.002992752008140087,9.722254753112793,-1.708984375,0.885009765625,-1.007080078125
0.012499900000000001,0.5345055460929871,0.02753331884741783,9.751583099365234,3.0517578125,0.67138671875,0.1220703125
0.0174999,0.5386953949928284,0.01735796220600605,9.874884605407715,-0.762939453125,-0.8544921875,0.1220703125
0.0224999,0.4818331003189087,0.0011971008498221636,9.782708168029785,-1.922607421875,-0.30517578125,-1.03759765625
0.0274999,0.5303156971931458,0.02454056777060032,9.929951667785645,-0.457763671875,0.030517578125,0.518798828125
0.0324999,0.4405331015586853,-0.0077811554074287415,9.818022727966309,-2.62451171875,0.274658203125,-0.91552734375
0.0374999,0.47884035110473633,0.01975216343998909,9.740211486816406,2.86865234375,-0.244140625,-0.396728515625
0.0424999,0.5081692934036255,0.0586579404771328,9.84376049041748,0.518798828125,-0.518798828125,0.457763671875
0.0474999,0.47884035110473633,0.0520738884806633,9.75936508178711,-2.86865234375,0.18310546875,-0.640869140625
0.0524999,0.4884171485900879,0.03411737456917763,9.663596153259277,1.556396484375,1.0986328125,-0.335693359375
0.0574999,0.5554547905921936,0.05746084079146385,9.794678688049316,1.373291015625,-0.54931640625,0.3662109375
0.0624999,0.4776432514190674,0.0035913025494664907,9.773730278015137,-2.655029296875,-0.518798828125,-0.885009765625
0.0674999,0.4920084476470947,-0.011372458189725876,9.68574333190918,1.495361328125,0.18310546875,-0.640869140625
0.0724999,0.5315127968788147,0.014365210197865963,9.847352027893066,1.40380859375,0.518798828125,0.67138671875
0.0774999,0.4776432514190674,-0.02753331884741783,9.869498252868652,-3.021240234375,-0.06103515625,-0.48828125
0.0824999,0.4854243993759155,-0.030526071786880493,9.712677955627441,1.251220703125,-0.06103515625,-0.701904296875
0.0874999,0.4692635238170624,-0.02274491637945175,9.901819229125977,-2.86865234375,0,-0.335693359375
0.0924999,0.47644615173339844,-0.010773907415568829,9.730035781860352,0,1.03759765625,-0.640869140625
0.0974999,0.5099649429321289,-0.017956512048840523,9.913790702819824,2.86865234375,-0.54931640625,0.3662109375
0.1024999,0.4776432514190674,-0.010773907415568829,9.893440246582031,-2.471923828125,-0.457763671875,0
0.1074999,0.45429977774620056,-0.03711012750864029,9.747393608093262,-0.579833984375,0.701904296875,-0.823974609375
0.1124999,0.5111620426177979,0.0011971008498221636,9.88625717163086,2.8076171875,0.335693359375,0.213623046875
0.1174999,0.4884171485900879,-0.010773907415568829,9.875483512878418,-1.8310546875,-0.640869140625,-0.030517578125
0.1224999,0.45848962664604187,-0.03950432687997818,9.743802070617676,-0.823974609375,-0.335693359375,-0.885009765625
0.1274999,0.5488707423210144,0.004788403399288654,9.766547203063965,2.777099609375,0.640869140625,0.335693359375
0.1324999,0.5321113467216492,-0.009576806798577309,9.841365814208984,-1.40380859375,-0.3662109375,0
0.1374999,0.5225345492362976,-0.0005985504249110818,9.700108528137207,-1.556396484375,-0.1220703125,-0.8544921875
0.1424999,0.5644330382347107,0.02992752194404602,9.753378868103027,3.11279296875,-0.091552734375,-0.06103515625
0.1474999,0.47884035110473633,-0.0005985504249110818,9.755773544311523,-2.471923828125,0.67138671875,-0.823974609375
0.1524999,0.5033808946609497,0.028131870552897453,9.740211486816406,3.082275390625,-0.1220703125,-0.152587890625
0.1574999,0.518943190574646,0.033518824726343155,9.867103576660156,-0.213623046875,-0.48828125,0.42724609375
0.1624999,0.4495113790035248,0.0035913025494664907,9.783307075500488,-2.685546875,0.213623046875,-0.79345703125
0.1674999,0.47584760189056396,0.031124621629714966,9.70310115814209,2.3193359375,0.579833984375,-0.30517578125
0.1724999,0.5225345492362976,0.04369417950510979,9.835979461669922,0.701904296875,-0.8544921875,0.30517578125
0.17749990000000002,0.46986207365989685,0.02274491637945175,9.77253246307373,-2.655029296875,-0.1220703125,-0.67138671875
0.1824999,0.48063600063323975,0.019153613597154617,9.70429801940918,1.617431640625,0.91552734375,-0.396728515625
0.1874999,0.5422866940498352,0.020350715145468712,9.824606895446777,1.495361328125,-0.42724609375,0.274658203125
0.1924999,0.47225627303123474,-0.023942016065120697,9.835979461669922,-2.899169921875,-0.3662109375,-0.79345703125
0.1974999,0.49320554733276367,-0.005386953707784414,9.697713851928711,1.0986328125,0.6103515625,-0.518798828125
0.2024999,0.5225345492362976,0.0005985504249110818,9.86650562286377,1.77001953125,0.396728515625,0.640869140625
0.20749990000000001,0.4752490520477295,-0.01975216343998909,9.884461402893066,-2.899169921875,-0.42724609375,-0.67138671875
0.2124999,0.47165772318840027,-0.010175357572734356,9.701305389404297,0.91552734375,-0.06103515625,-0.946044921875
0.2174999,0.49978959560394287,-0.023942016065120697,9.881468772888184,2.105712890625,0.6103515625,0.54931640625
0.2224999,0.4602852761745453,-0.005985504016280174,9.874884605407715,-2.716064453125,-0.335693359375,-0.3662109375
0.2274999,0.47405192255973816,-0.004788403399288654,9.697115898132324,0.3662109375,-0.335693359375,-0.946044921875
0.2324999,0.5183446407318115,0.0035913025494664907,9.8970308303833,2.471923828125,0.213623046875,0.54931640625
0.2374999,0.5009866952896118,-0.014365210197865963,9.860519409179688,-2.38037109375,0,-0.152587890625
0.2424999,0.46507367491722107,-0.03770867735147476,9.744400978088379,-0.518798828125,0.06103515625,-1.15966796875
0.2474999,0.5339069962501526,-0.008978256024420261,9.847949981689453,2.86865234375,-0.244140625,0.274658203125
0.2524999,0.49978959560394287,-0.016160860657691956,9.86111831665039,-2.105712890625,0,-0.030517578125
0.2574999,0.47644615173339844,-0.026336219161748886,9.725247383117676,-1.312255859375,0.6103515625,-1.007080078125
0.2624999,0.5488707423210144,0.0071826050989329815,9.743802070617676,3.35693359375,-0.48828125,0.152587890625
0.2674999,0.5434837937355042,0.020949264988303185,9.859322547912598,-0.67138671875,-0.42724609375,0.274658203125
0.2724999,0.43933600187301636,0.017956512048840523,9.784503936767578,-2.349853515625,0.396728515625,-0.823974609375
0.2774999,0.47824180126190186,0.028730420395731926,9.731232643127441,2.777099609375,0.48828125,-0.1220703125
0.2824999,0.5057750940322876,0.07900865375995636,9.865906715393066,0.152587890625,-0.732421875,0.091552734375
0.28749990000000003,0.4620809257030487,0.05506663769483566,9.755773544311523,-2.5634765625,0.030517578125,-0.762939453125
0.2924999,0.4908113479614258,0.03711012750864029,9.68155288696289,2.01416015625,1.03759765625,-0.06103515625
0.2974999,0.5422866940498352,0.07541735470294952,9.803657531738281,0.640869140625,-0.48828125,0.457763671875
0.3024999,0.47405192255973816,0.02693476900458336,9.742006301879883,-2.8076171875,-0.244140625,-0.885009765625
0.3074999,0.4878185987472534,-0.004788403399288654,9.693524360656738,1.77001953125,0.79345703125,-0.6103515625
0.3124999,0.5398924946784973,0.02753331884741783,9.81263542175293,1.373291015625,-0.030517578125,0.579833984375
0.3174999,0.49320554733276367,-0.03292027488350868,9.700706481933594,1.40380859375,0.06103515625,-0.762939453125
0.3224999,0.5081692934036255,-0.023343466222286224,9.893440246582031,1.678466796875,0.396728515625,0.579833984375
0.3274999,0.4668693244457245,-0.040701430290937424,9.9185791015625,-2.960205078125,-0.244140625,-0.457763671875
0.3324999,0.45669397711753845,-0.01735796220600605,9.723451614379883,1.068115234375,-0.396728515625,-0.946044921875
0.3374999,0.4967968463897705,-0.023942016065120697,9.926360130310059,2.044677734375,0.244140625,0.579833984375
0.3424999,0.45489832758903503,-0.02454056777060032,9.870096206665039,-2.9296875,0.18310546875,-0.152587890625
0.34749990000000003,0.45489832758903503,-0.02454056777060032,9.870096206665039,-2.9296875,0.18310546875,-0.152587890625
0.35249990000000003,0.4644751250743866,-0.004788403399288654,9.712079048156738,0.1220703125,0.030517578125,-0.823974609375
0.3574999,0.5117605924606323,-0.02274491637945175,9.883264541625977,2.685546875,-0.396728515625,0.42724609375
0.3624999,0.49380409717559814,-0.035913024097681046,9.855731010437012,-2.349853515625,-0.06103515625,-0.152587890625
0.3674999,0.45429977774620056,-0.0586579404771328,9.753378868103027,-0.640869140625,0.6103515625,-0.9765625
0.3724999,0.5321113467216492,-0.02214636653661728,9.821015357971191,3.23486328125,-0.42724609375,0.152587890625
0.3774999,0.47824180126190186,-0.004189853090792894,9.709685325622559,-1.983642578125,0.213623046875,-1.03759765625
0.3824999,0.34177228808403015,-0.06524199992418289,9.566631317138672,0.946044921875,0.1220703125,1.617431640625
0.3874999,-0.15981295704841614,0.07062894850969315,9.572616577148438,-11.41357421875,-8.23974609375,13.702392578125
0.3924999,-1.0672154426574707,-0.19393034279346466,9.460089683532715,-16.815185546875,-23.25439453125,27.34375
0.3974999,-2.74076247215271,0.005985504016280174,8.27974796295166,-20.233154296875,-48.4619140625,51.300048828125
0.4024999,-6.324283599853516,-0.5692214369773865,7.4094557762146,-81.84814453125,-105.65185546875,296.69189453125
0.4074999,-4.686051368713379,-2.3307554721832275,5.603629112243652,41.07666015625,-174.74365234375,133.1787109375
0.41249990000000003,-0.5374982953071594,-3.560776472091675,5.17746114730835,11.322021484375,-43.701171875,-234.375
0.41749990000000003,11.845911026000977,-3.4853591918945312,4.613626480102539,47.698974609375,263.275146484375,-207.58056640625
0.4224999,13.381792068481445,-1.868674397468567,5.45339298248291,74.40185546875,143.12744140625,-4.39453125
0.4274999,11.028291702270508,1.6813281774520874,7.780557155609131,37.872314453125,92.193603515625,47.882080078125
0.4324999,5.155314922332764,3.5015199184417725,8.965087890625,10.955810546875,34.271240234375,51.20849609375
0.4374999,-1.5167267322540283,4.13179349899292,9.885659217834473,-18.463134765625,-19.927978515625,62.713623046875
0.4424999,-6.7935471534729,3.8744168281555176,10.508151054382324,-32.318115234375,-54.412841796875,60.516357421875
0.4474999,-9.473855972290039,3.137601375579834,10.670358657836914,-21.392822265625,-55.084228515625,34.820556640625
0.4524999,-9.585186958312988,2.189497470855713,10.666767120361328,-14.129638671875,-48.553466796875,-4.486083984375
0.4574999,-7.739855766296387,1.3988122940063477,10.57040023803711,-16.11328125,-44.769287109375,-29.11376953125
0.4624999,-4.8309006690979,0.8044517636299133,10.547656059265137,-19.8974609375,-43.914794921875,-32.40966796875
0.4674999,-1.567603588104248,0.32680854201316833,10.515932083129883,-23.529052734375,-43.0908203125,-22.64404296875
0.47249990000000003,1.0594342947006226,0.11013327538967133,10.468048095703125,-23.834228515625,-45.59326171875,-0.885009765625
0.47749990000000003,3.818153142929077,-1.0809820890426636,9.244611740112305,4.57763671875,-28.778076171875,10.711669921875
0.4824999,3.7714662551879883,-1.9159599542617798,8.094796180725098,33.8134765625,-20.20263671875,3.387451171875
0.4874999,3.2555158138275146,-2.7090392112731934,7.30650520324707,51.055908203125,-13.824462890625,-8.4228515625
0.4924999,2.782660961151123,-2.9466638565063477,7.7631988525390625,34.0576171875,4.82177734375,-7.9345703125
0.4974999,2.404975652694702,-2.4839842319488525,8.523956298828125,1.190185546875,32.623291015625,-7.9345703125
0.5024999,2.1924901008605957,-1.4790180921554565,9.978434562683105,12.6953125,22.4609375,-17.2119140625
0.5074999,1.9381062984466553,-0.13048399984836578,10.66018295288086,12.51220703125,22.76611328125,-9.33837890625
0.5124999,1.3395558595657349,1.0145429372787476,10.663175582885742,3.936767578125,28.9306640625,-0.579833984375
0.5174999,0.6536170840263367,1.5885528326034546,10.435128211975098,-3.47900390625,23.5595703125,3.936767578125
0.5224999,-0.09876082092523575,1.5867571830749512,10.204087257385254,-3.7841796875,11.932373046875,2.288818359375
0.5274999,-0.6973112225532532,1.136048674583435,10.083779335021973,-1.922607421875,-2.3193359375,3.082275390625
0.5324999,-0.9642647504806519,0.4842272996902466,9.99339771270752,-0.579833984375,-7.2021484375,0.274658203125
0.5374999,-0.5973533391952515,-0.35434186458587646,9.900622367858887,-0.396728515625,-9.765625,0.579833984375
0.5424999,-0.09576806426048279,-0.3968389332294464,9.81263542175293,-0.885009765625,-9.8876953125,1.3427734375
0.5474999,0.4357447028160095,-0.27892449498176575,9.728240013122559,-1.373291015625,-6.28662109375,0.244140625
0.5524999,0.8888474106788635,-0.14365209639072418,9.703699111938477,-2.01416015625,-1.220703125,-1.678466796875
0.5574999,1.1779472827911377,-0.07062894850969315,9.607931137084961,0.091552734375,1.190185546875,1.8310546875
0.5624999,1.3090298175811768,-0.0694318488240242,9.644442558288574,0.640869140625,1.190185546875,-0.091552734375
0.5674999000000001,1.2557587623596191,-0.07841010391712189,9.723451614379883,0.396728515625,4.547119140625,-2.50244140625
0.5724999000000001,1.0420763492584229,-0.10893617570400238,9.769539833068848,0.946044921875,5.584716796875,0.457763671875
0.5774999000000001,0.8032546639442444,-0.09457096457481384,9.77791976928711,1.556396484375,1.77001953125,0.8544921875
0.5824999,0.5488707423210144,-0.04668693244457245,9.806650161743164,0.06103515625,0.274658203125,-2.0751953125
0.5874999,0.3734954595565796,-0.010773907415568829,9.8970308303833,-0.701904296875,1.220703125,-0.701904296875
0.5924999,0.31783026456832886,0.014365210197865963,9.82759952545166,0.396728515625,-1.678466796875,1.617431640625
0.5974999,0.41958385705947876,-0.04249707981944084,9.79288387298584,0.3662109375,-0.396728515625,1.129150390625
0.6024999,0.507570743560791,-0.0035913025494664907,9.701904296875,0.91552734375,-1.434326171875,-0.274658203125
0.6074999,0.586579442024231,-0.050876785069704056,9.729436874389648,-1.3427734375,1.3427734375,-2.716064453125
0.6124999,0.5979518890380859,-0.09576806426048279,9.739013671875,0.701904296875,-0.274658203125,2.38037109375
0.6174999,0.5895721912384033,-0.08319851011037827,9.682151794433594,0.335693359375,-2.655029296875,-0.762939453125
0.6224999,0.6027402877807617,-0.05686229094862938,9.9000244140625,-1.556396484375,0.9765625,-1.708984375
0.6274999,0.5662286877632141,-0.08259996026754379,9.843161582946777,0.3662109375,-0.885009765625,2.13623046875
0.6324999,0.5907692909240723,-0.02214636653661728,9.816226959228516,0.274658203125,-2.593994140625,-1.678466796875
0.6374999,0.6362590789794922,-0.023942016065120697,9.928754806518555,-0.91552734375,1.556396484375,-0.701904296875
0.6424999,0.6536170840263367,-0.020350715145468712,9.749788284301758,0.6103515625,-0.579833984375,1.617431640625
0.6474999,0.6625953316688538,-0.02454056777060032,9.715071678161621,0.30517578125,-0.54931640625,-1.89208984375
0.6524999,0.6356605291366577,-0.03770867735147476,9.6803560256958,1.617431640625,-0.1220703125,2.105712890625
0.6574999,0.5805938839912415,-0.0071826050989329815,9.77253246307373,0.152587890625,0.152587890625,-1.983642578125
0.6624999,0.5129576921463013,-0.02693476900458336,9.922170639038086,-0.762939453125,2.44140625,-0.457763671875
0.6674999,0.47405192255973816,-0.012569558806717396,9.739013671875,1.0986328125,-1.64794921875,0.48828125
0.6724999,0.43095630407333374,0.02214636653661728,9.883264541625977,-0.152587890625,0.67138671875,-1.800537109375
0.6774999,0.49619829654693604,-0.010175357572734356,9.84495735168457,-0.3662109375,1.129150390625,0.885009765625
0.6824999,0.48602294921875,0.04728548228740692,9.719860076904297,0.79345703125,-1.983642578125,-0.152587890625
0.6874999,0.5626373887062073,-0.02753331884741783,9.90122127532959,-1.556396484375,0.8544921875,-2.227783203125
0.6924999000000001,0.5680243372917175,0.008978256024420261,9.747393608093262,0.30517578125,-0.67138671875,2.8076171875
0.6974999000000001,0.6063315868377686,-0.08559270948171616,9.73542308807373,0.030517578125,-1.983642578125,-1.312255859375
0.7024999000000001,0.6087257862091064,-0.038307227194309235,9.860519409179688,-0.946044921875,0.91552734375,-0.213623046875
0.7074999,0.5973533391952515,-0.076015904545784,9.889848709106445,-0.3662109375,-0.762939453125,-2.685546875
0.7124999,0.6877344250679016,-0.033518824726343155,9.92097282409668,0.457763671875,1.800537109375,1.77001953125
0.7174999,0.6853402256965637,-0.053270988166332245,9.761159896850586,1.007080078125,-0.457763671875,-1.678466796875
0.7224999,0.730231523513794,0.03531447425484657,9.855133056640625,-0.762939453125,3.173828125,-1.8310546875
0.7274999,0.6889315247535706,0.0071826050989329815,9.72285270690918,0.701904296875,2.288818359375,1.28173828125
0.7324999,0.586579442024231,0.0293289702385664,9.720458984375,-0.213623046875,0.1220703125,-2.44140625
0.7374999,0.4537012279033661,-0.02214636653661728,9.828198432922363,-0.48828125,2.288818359375,1.46484375
0.7424999,0.38546648621559143,-0.02454056777060032,9.68813705444336,0.06103515625,-2.716064453125,1.52587890625
0.7474999,0.3214215636253357,-0.04010287672281265,9.822212219238281,-0.823974609375,-2.349853515625,-2.74658203125
0.7524999,0.34356793761253357,-0.05925649031996727,9.84615421295166,0.274658203125,-1.983642578125,3.021240234375
0.7574999,0.45669397711753845,-0.04189852997660637,9.742605209350586,0.640869140625,-4.0283203125,-2.50244140625
0.7624999,0.5422866940498352,-0.08080431073904037,9.88745403289795,-0.3662109375,0.8544921875,-2.105712890625
0.7674999,0.5997475385665894,-0.15741875767707825,9.898228645324707,-0.54931640625,-0.8544921875,-4.669189453125
0.7724999,0.5099649429321289,-0.0293289702385664,9.788095474243164,0.885009765625,-0.946044921875,2.13623046875
0.7774999,0.47405192255973816,0.011971008032560349,9.721057891845703,0.762939453125,-2.899169921875,-1.52587890625
0.7824999,0.5159504413604736,0.03770867735147476,9.834781646728516,-1.64794921875,1.220703125,-3.60107421875
0.7874999,0.5841852426528931,0.08439560979604721,9.702502250671387,0.701904296875,0.9765625,1.953125
0.7924999,0.579995334148407,0.06344634294509888,9.737217903137207,-0.3662109375,1.922607421875,0.06103515625
0.7974999,0.5889736413955688,-0.005386953707784414,9.856928825378418,-0.54931640625,2.288818359375,1.708984375
0.8024999,0.4752490520477295,-0.053270988166332245,9.729436874389648,1.03759765625,-2.99072265625,-0.79345703125
0.8074999,0.44173020124435425,-0.05506663769483566,9.92097282409668,0.18310546875,-0.823974609375,-1.495361328125
0.8124999,0.5476736426353455,-0.015562310814857483,9.754576683044434,-0.946044921875,-1.495361328125,-4.852294921875
0.8174999000000001,0.6153098344802856,0.028131870552897453,9.828198432922363,-1.64794921875,3.5400390625,0.640869140625
0.8224999000000001,0.6709750294685364,0.01735796220600605,9.68155288696289,0.54931640625,-0.30517578125,4.150390625
0.8274999000000001,0.6470330357551575,-0.03950432687997818,9.792284965515137,-0.54931640625,-0.762939453125,-1.77001953125
0.8324999000000001,0.6165069341659546,-0.07661445438861847,9.864709854125977,1.77001953125,-1.64794921875,0.946044921875
0.8374999,0.6189011335372925,-0.10354922711849213,9.724648475646973,1.03759765625,-3.2958984375,-3.41796875
0.8424999,0.6554127335548401,-0.061052143573760986,9.882067680358887,-1.0986328125,2.44140625,-2.0751953125
0.8474999,0.6757634282112122,-0.020350715145468712,9.749189376831055,-0.335693359375,1.89208984375,2.166748046875
0.8524999,0.6829460263252258,0,9.787496566772461,-1.434326171875,2.197265625,-0.244140625
0.8574999,0.5542576909065247,-0.0293289702385664,9.885659217834473,1.220703125,1.434326171875,3.936767578125
0.8624999,0.48901569843292236,-0.030526071786880493,9.725247383117676,1.708984375,-3.509521484375,-2.532958984375
0.8674999,0.43754035234451294,-0.0454898327589035,9.86351203918457,-0.030517578125,0.42724609375,-4.730224609375
0.8724999,0.4920084476470947,0.06703764945268631,9.800664901733398,-2.01416015625,1.922607421875,0.030517578125
0.8774999,0.5500678420066833,0.012569558806717396,9.870695114135742,-0.54931640625,1.495361328125,4.669189453125
0.8824999,0.45848962664604187,-0.02454056777060032,9.758167266845703,1.0986328125,-4.486083984375,-0.67138671875
0.8874999,0.50876784324646,-0.1496376097202301,9.90122127532959,0.701904296875,-1.129150390625,-4.0283203125
0.8924999,0.6033388376235962,-0.11133038252592087,9.716867446899414,1.007080078125,-0.91552734375,-1.007080078125
0.8974999,0.6847416758537292,-0.031124621629714966,9.78869342803955,-1.800537109375,2.166748046875,-0.885009765625
0.9024999,0.7410054206848145,0.004189853090792894,9.831789016723633,-0.518798828125,3.082275390625,5.79833984375
0.9074999,0.6649895310401917,0.002992752008140087,9.724648475646973,0.732421875,-2.5634765625,0.091552734375
0.9124999,0.5973533391952515,-0.10654197633266449,9.91738224029541,0.640869140625,-0.18310546875,-4.547119140625
0.9174999,0.5770025849342346,-0.12090718746185303,9.724648475646973,1.220703125,-0.3662109375,-2.288818359375
0.9224999,0.6015431880950928,-0.04728548228740692,9.86770248413086,-0.8544921875,2.593994140625,-0.274658203125
0.9274999,0.5997475385665894,0.002992752008140087,9.793481826782227,0.091552734375,2.62451171875,6.195068359375
0.9324999,0.47884035110473633,-0.05686229094862938,9.86351203918457,-0.152587890625,-0.6103515625,-4.57763671875
0.9374999,0.4770447015762329,-0.03711012750864029,9.671976089477539,1.03759765625,-0.823974609375,-2.3193359375
0.9424999000000001,0.4854243993759155,-0.031124621629714966,9.86111831665039,-0.823974609375,2.044677734375,1.03759765625
0.9474999000000001,0.5734112858772278,0.02513911761343479,9.803058624267578,0.579833984375,0.79345703125,6.683349609375
0.9524999000000001,0.517746090888977,-0.002992752008140087,9.782109260559082,-0.30517578125,-3.90625,-3.23486328125
0.9574999000000001,0.5770025849342346,-0.06703764945268631,9.896432876586914,-0.701904296875,0.152587890625,-4.852294921875
0.9624999,0.5602431893348694,-0.06883329898118973,9.702502250671387,-1.007080078125,-3.23486328125,-7.171630859375
0.9674999,0.6697779297828674,-0.10474632680416107,9.896432876586914,-0.213623046875,2.716064453125,-2.288818359375
0.9724999,0.6206967830657959,-0.04010287672281265,9.678560256958008,0.732421875,1.312255859375,4.302978515625
0.9774999,0.5770025849342346,0.01496376097202301,9.858723640441895,0.8544921875,3.875732421875,5.31005859375
0.9824999,0.4854243993759155,0.010175357572734356,9.75637149810791,0.885009765625,-1.3427734375,4.2724609375
0.9874999,0.5051765441894531,-0.038307227194309235,9.904812812805176,-0.732421875,-0.762939453125,-3.753662109375
0.9924999,0.4866214990615845,-0.048482585698366165,9.765350341796875,-0.518798828125,-1.800537109375,-4.33349609375
0.9974999,0.4878185987472534,-0.09038111567497253,9.911994934082031,-0.3662109375,2.86865234375,1.190185546875
1.0024999,0.4878185987472534,-0.09038111567497253,9.911994934082031,-0.3662109375,2.86865234375,1.190185546875
1.0074999000000002,0.5428852438926697,-0.07242459803819656,9.873088836669922,2.3193359375,0.3662109375,8.4228515625
1.0124999000000001,0.5141547918319702,-0.03292027488350868,9.79527759552002,-0.732421875,-3.997802734375,-5.218505859375
1.0174999000000002,0.5907692909240723,-0.03711012750864029,9.93593692779541,-1.922607421875,0.79345703125,-5.7373046875
1.0224999000000001,0.5662286877632141,0.005386953707784414,9.718663215637207,0.732421875,0.823974609375,3.2958984375
1.0274999,0.6428431272506714,-0.004189853090792894,9.807847023010254,1.861572265625,4.669189453125,7.6904296875
1.0324999000000001,0.6428431272506714,-0.004189853090792894,9.807847023010254,1.861572265625,4.669189453125,7.6904296875
1.0374999,0.6087257862091064,-0.0077811554074287415,9.730035781860352,1.861572265625,-1.64794921875,4.39453125
1.0424999000000001,0.4752490520477295,-0.025737667456269264,9.859322547912598,1.28173828125,2.410888671875,6.65283203125
1.0474999,0.5225345492362976,-0.043095629662275314,9.820416450500488,2.166748046875,-2.685546875,2.655029296875
1.0524999000000002,0.4620809257030487,-0.009576806798577309,9.762955665588379,-3.631591796875,-3.082275390625,-11.688232421875
1.0574999,0.5506663918495178,-0.05985504388809204,9.896432876586914,-0.732421875,3.662109375,2.01416015625
1.0624999000000002,0.5345055460929871,-0.02693476900458336,9.70549488067627,2.86865234375,-1.251220703125,8.941650390625
1.0674999,0.6494272351264954,-0.06763619929552078,9.82879638671875,-0.396728515625,-2.227783203125,-5.401611328125
1.0724999000000002,0.6344634294509888,-0.020350715145468712,9.82999324798584,0.885009765625,3.47900390625,6.561279296875
1.0774999,0.6344634294509888,-0.020350715145468712,9.82999324798584,0.885009765625,3.47900390625,6.561279296875
1.0824999000000002,0.6979097723960876,-0.0347159244120121,9.793481826782227,3.5400390625,-1.0986328125,5.950927734375
1.0874999,0.5949591398239136,0.0071826050989329815,9.750985145568848,-3.662109375,-2.86865234375,-13.031005859375
1.0924999000000002,0.6159083843231201,-0.04908113554120064,9.925761222839355,-1.678466796875,4.364013671875,-0.396728515625
1.0974999,0.5165489912033081,-0.020949264988303185,9.764751434326172,4.57763671875,0.18310546875,11.322021484375
1.1024999000000002,0.5333084464073181,-0.05446808785200119,9.876680374145508,-0.396728515625,-2.13623046875,-6.072998046875
1.1074999,0.5542576909065247,0.05506663769483566,9.846753120422363,-3.0517578125,0.946044921875,-6.439208984375
1.1124999000000002,0.4405331015586853,-0.01496376097202301,9.916783332824707,1.312255859375,2.99072265625,8.60595703125
1.1174999,0.557250440120697,-0.009576806798577309,9.849146842956543,3.60107421875,-2.593994140625,3.753662109375
1.1224999000000002,0.4794389009475708,-0.023942016065120697,9.779715538024902,-5.126953125,-2.899169921875,-14.312744140625
1.1274999,0.5602431893348694,-0.0999579206109047,9.975440979003906,0,4.547119140625,3.631591796875
1.1324999000000002,0.5057750940322876,-0.04728548228740692,9.654618263244629,5.462646484375,-1.8310546875,10.894775390625
1.1374999000000001,0.6272808313369751,0.0005985504249110818,9.765350341796875,-2.01416015625,2.99072265625,-1.15966796875
1.1424999000000002,0.6272808313369751,0.0005985504249110818,9.765350341796875,-2.01416015625,2.99072265625,-1.15966796875
1.1474999000000001,0.595557689666748,-0.004788403399288654,9.692925453186035,2.99072265625,0.579833984375,9.82666015625
1.1524999000000002,0.6757634282112122,-0.033518824726343155,9.733028411865234,0.152587890625,-3.23486328125,-5.767822265625
1.1574999000000001,0.5578489899635315,-0.011971008032560349,9.882665634155273,-3.997802734375,0.8544921875,-8.392333984375
1.1624999,0.5871779918670654,-0.060453593730926514,9.970054626464844,4.150390625,3.84521484375,12.664794921875
1.1674999000000001,0.5506663918495178,-0.013766659423708916,9.700108528137207,1.983642578125,-4.058837890625,-1.3427734375
1.1724999,0.5638344883918762,-0.0347159244120121,9.941922187805176,-7.110595703125,0.762939453125,-12.51220703125
1.1774999000000002,0.5380968451499939,-0.020949264988303185,9.753378868103027,4.669189453125,3.021240234375,11.077880859375
1.1824999,0.5345055460929871,-0.002992752008140087,9.68694019317627,1.434326171875,-3.11279296875,0.1220703125
1.1874999000000002,0.5943605899810791,-0.016160860657691956,9.829395294189453,-3.692626953125,1.190185546875,-9.94873046875
1.1924999,0.5093663930892944,-0.011372458189725876,9.815030097961426,1.922607421875,1.861572265625,7.75146484375
1.1974999000000002,0.5333084464073181,0.014365210197865963,9.740809440612793,-4.2724609375,-1.3427734375,-10.55908203125
1.2024999,0.5021837949752808,-0.03950432687997818,9.971251487731934,1.708984375,3.84521484375,7.87353515625
1.2074999000000002,0.5165489912033081,0.043095629662275314,9.634267807006836,3.5400390625,-3.173828125,3.84521484375
1.2124999,0.47884035110473633,-0.012569558806717396,9.841365814208984,-7.293701171875,-1.0986328125,-13.275146484375
1.2174999000000002,0.5374982953071594,-0.01496376097202301,9.909601211547852,4.45556640625,3.11279296875,9.27734375
1.2224999,0.5093663930892944,-0.005985504016280174,9.619902610778809,1.64794921875,-3.72314453125,1.190185546875
1.2274999000000002,0.6482301354408264,-0.08499415963888168,9.9401273727417,-4.791259765625,1.007080078125,-10.25390625
1.2324999,0.6075286865234375,-0.002992752008140087,9.822811126708984,3.7841796875,1.3427734375,9.979248046875
1.2374999000000002,0.6434416770935059,-0.12389993667602539,9.782708168029785,0.030517578125,-1.77001953125,-3.0517578125
1.2424999,0.6518214344978333,-0.053270988166332245,9.865307807922363,-3.143310546875,1.312255859375,-6.378173828125
1.2474999000000002,0.5446808934211731,-0.07062894850969315,9.864110946655273,3.265380859375,1.373291015625,9.33837890625
1.2524999,0.6218938827514648,-0.07781155407428741,9.781511306762695,0.091552734375,-2.410888671875,-4.7607421875
1.2574999000000002,0.518943190574646,-0.03232172131538391,9.964667320251465,-2.9296875,3.47900390625,-3.875732421875
1.2624999000000001,0.4429273009300232,0.033518824726343155,9.583391189575195,6.805419921875,-0.579833984375,12.6953125
1.2674999000000002,0.5398924946784973,-0.08259996026754379,9.70549488067627,-6.103515625,-2.899169921875,-12.20703125
1.2724999000000001,0.6135141849517822,-0.07422025501728058,9.903017044067383,2.197265625,2.99072265625,3.47900390625
1.2774999000000002,0.578798234462738,-0.04369417950510979,9.532513618469238,2.44140625,-2.838134765625,4.913330078125
1.2824999000000001,0.5404910445213318,-0.7553706169128418,9.635464668273926,-5.67626953125,0.9765625,-9.124755859375
1.2874999,0.11192893236875534,-1.468244194984436,8.938752174377441,-11.810302734375,-0.457763671875,38.26904296875
1.2924999000000001,0.17537526786327362,-2.120664119720459,8.237849235534668,-66.741943359375,-13.031005859375,185.028076171875
1.2974999,0.4279635548591614,-2.406172752380371,7.3017168045043945,6.317138671875,-8.36181640625,276.55029296875
1.3024999000000002,0.3010708689689636,-1.9357120990753174,5.315127849578857,202.33154296875,-44.00634765625,215.545654296875
1.3074999,-0.29209262132644653,0.008978256024420261,1.4209587574005127,116.76025390625,-136.65771484375,145.965576171875
1.3124999000000002,0.6757634282112122,1.6663644313812256,0.3992331326007843,-10.223388671875,-105.16357421875,110.595703125
1.3174999,0.4644751250743866,3.491943120956421,0.30226796865463257,42.8466796875,-32.89794921875,156.890869140625
1.3224999000000002,1.7537527084350586,5.0499701499938965,1.437718152999878,56.610107421875,-51.26953125,214.813232421875
1.3274999,0.9127894043922424,4.6938323974609375,3.4584243297576904,21.759033203125,-50.384521484375,118.59130859375
1.3324999000000002,0.3818751573562622,4.571728229522705,5.2450971603393555,22.491455078125,-28.1982421875,129.638671875
1.3374999,-1.7387889623641968,1.6418237686157227,7.289745807647705,28.045654296875,-23.92578125,75.531005859375
1.3424999000000002,-2.5079262256622314,0.1867477297782898,9.370905876159668,28.564453125,-23.25439453125,103.6376953125
1.3474999,-2.4893712997436523,-0.851138710975647,9.52114200592041,103.668212890625,-7.50732421875,69.76318359375
1.3524999000000002,-1.2246341705322266,-0.46746787428855896,9.469666481018066,93.963623046875,-44.769287109375,49.591064453125
1.3574999,0.40043023228645325,0.4926069974899292,8.296507835388184,39.031982421875,-103.21044921875,98.602294921875
1.3624999000000002,4.676474571228027,4.0743327140808105,5.550358295440674,-32.257080078125,-25.7568359375,-44.189453125
1.3674999,4.9170918464660645,4.472967147827148,5.2911858558654785,-39.4287109375,-6.9580078125,-14.801025390625
1.3724999000000002,5.585672378540039,4.768651008605957,5.488707542419434,-54.412841796875,37.9638671875,-30.09033203125
1.3774999,5.675455093383789,4.534019470214844,5.86699104309082,-77.392578125,79.681396484375,-55.72509765625
1.3824999000000002,5.1780595779418945,3.7924153804779053,6.247669219970703,-97.47314453125,67.5048828125,-46.7529296875
1.3874999000000001,4.835689067840576,3.5691561698913574,6.744466304779053,-109.31396484375,89.4775390625,-57.92236328125
1.3924999000000002,4.326322555541992,3.0364463329315186,7.8314337730407715,-107.7880859375,139.2822265625,-79.16259765625
1.3974999000000001,3.846285104751587,2.5067291259765625,9.321824073791504,-68.05419921875,185.272216796875,-86.97509765625
1.4024999000000002,3.514089584350586,1.5682021379470825,11.276091575622559,-0.823974609375,205.902099609375,-101.043701171875
1.4074999000000001,3.007715940475464,0.3214215636253357,12.872425079345703,38.330078125,160.5224609375,-99.517822265625
1.4124999,2.1254525184631348,-0.8307880163192749,13.67807388305664,44.5556640625,92.803955078125,-73.455810546875
1.4174999000000001,0.8595184087753296,-1.6514005661010742,13.313556671142578,37.2314453125,42.90771484375,-54.19921875
1.4224999,-1.912368655204773,-1.5280991792678833,10.828974723815918,6.16455078125,13.641357421875,-37.7197265625
1.4274999000000002,-2.6174609661102295,-0.9678560495376587,9.791686058044434,-1.0986328125,13.5498046875,-21.820068359375
1.4324999,-2.913144826889038,-0.3932476341724396,9.214085578918457,0.274658203125,9.27734375,-4.669189453125
1.4374999000000002,-2.5785553455352783,0.041299980133771896,9.172784805297852,-0.823974609375,-2.716064453125,3.96728515625
1.4424999,-2.1547815799713135,0.32441434264183044,9.323619842529297,-5.157470703125,-15.472412109375,7.9345703125
1.4474999000000002,-1.4311341047286987,0.5327098965644836,9.484031677246094,-9.27734375,-27.83203125,3.72314453125
1.4524999,-0.7799112200737,0.6326677799224854,9.632472038269043,-9.82666015625,-24.0478515625,1.068115234375
1.4574999000000002,-0.11252748221158981,0.5847837924957275,9.795876502990723,-9.521484375,-21.484375,1.46484375
1.4624999,0.45250412821769714,0.4572925269603729,9.876680374145508,-4.608154296875,-18.37158203125,-2.105712890625
1.4674999000000002,0.8409633636474609,0.24660277366638184,9.906009674072266,-2.8076171875,-10.345458984375,-11.53564453125
1.4724999,1.094150185585022,0.011971008032560349,9.909002304077148,-3.753662109375,-2.227783203125,-15.5029296875
1.4774999000000002,1.237802267074585,-0.12210428714752197,9.81024169921875,-1.190185546875,0.396728515625,-13.18359375
1.4824999,1.2844891548156738,-0.17836803197860718,9.819818496704102,-0.152587890625,-1.434326171875,-0.335693359375
1.4874999000000002,1.1959037780761719,-0.07003039866685867,9.744400978088379,2.899169921875,-1.556396484375,0.1220703125
1.4924999,1.0989385843276978,0.03770867735147476,9.77672290802002,-0.06103515625,2.38037109375,-3.387451171875
1.4974999000000002,0.9762357473373413,0.11791443079710007,9.700108528137207,-0.244140625,4.33349609375,-1.556396484375
1.5024999,0.8074445128440857,0.21787235140800476,9.697713851928711,1.953125,5.035400390625,-1.953125
1.5074999000000002,0.5859808921813965,0.272938996553421,9.752182006835938,-0.67138671875,6.256103515625,0.030517578125
1.5124999000000001,0.4339490532875061,0.23582886159420013,9.812037467956543,1.312255859375,1.800537109375,1.800537109375
1.5174999000000002,0.2148796021938324,0.2651578485965729,9.810839653015137,1.129150390625,-2.349853515625,-1.556396484375
1.5224999000000001,0.19632454216480255,0.1999158412218094,9.82640266418457,0.67138671875,-3.143310546875,-0.885009765625
1.5274999000000002,0.22924481332302094,0.23523031175136566,9.837775230407715,-2.288818359375,0.06103515625,-3.265380859375
1.5324999000000001,0.3687070608139038,0.2711433470249176,9.823410034179688,-2.3193359375,1.800537109375,0.701904296875
1.5374999000000003,0.4100070297718048,0.21667525172233582,9.798270225524902,-0.8544921875,-2.777099609375,-1.373291015625
1.5424999000000001,0.48063600063323975,0.08858546614646912,9.794678688049316,0.42724609375,-2.74658203125,-1.251220703125
1.5474999,0.5165489912033081,0.05147533491253853,9.68274974822998,0.8544921875,0.732421875,-5.43212890625
1.5524999000000002,0.5877765417098999,0.016160860657691956,9.764153480529785,-2.227783203125,5.55419921875,-1.8310546875
1.5574999,0.657806932926178,0.0736217051744461,9.730634689331055,1.129150390625,1.129150390625,2.44140625
1.5624999000000002,0.52552729845047,0.10594342648983002,9.834781646728516,0.79345703125,-0.91552734375,0.396728515625
1.5674999,0.524330198764801,0.14784196019172668,9.871891975402832,0.30517578125,-1.678466796875,-0.030517578125
1.5724999000000002,0.4159925580024719,0.15143325924873352,9.798270225524902,1.312255859375,-1.800537109375,-4.913330078125
1.5774999,0.4423287510871887,0.22086510062217712,9.858723640441895,-2.227783203125,4.69970703125,-3.448486328125
1.5824999000000002,0.43694180250167847,0.20231004059314728,9.78989028930664,-0.091552734375,1.64794921875,3.082275390625
1.5874999,0.44352585077285767,0.2621650993824005,9.894038200378418,0.946044921875,-2.685546875,1.373291015625
1.5924999000000002,0.4255693554878235,0.1562216579914093,9.88625717163086,0.244140625,-1.678466796875,0.8544921875
1.5974999,0.4602852761745453,0.18136078119277954,9.781511306762695,0.48828125,-1.312255859375,-4.302978515625
1.6024999000000002,0.43275195360183716,0.2148796021938324,9.75637149810791,-2.655029296875,4.425048828125,-3.082275390625
1.6074999,0.44532153010368347,0.1867477297782898,9.774328231811523,0.518798828125,2.227783203125,5.18798828125
1.6124999000000002,0.3627215623855591,0.20470423996448517,9.767744064331055,2.3193359375,-4.2724609375,1.220703125
1.6174999,0.4213795065879822,0.14245499670505524,9.849745750427246,-0.6103515625,-1.617431640625,-2.3193359375
1.6224999000000002,0.4357447028160095,0.12689268589019775,9.789292335510254,-0.67138671875,0.823974609375,-3.997802734375
1.6274999,0.43514615297317505,0.17537526786327362,9.78869342803955,-2.38037109375,4.82177734375,0.579833984375
1.6324999000000002,0.497395396232605,0.12928688526153564,9.817423820495605,2.349853515625,-0.030517578125,6.072998046875
1.6374999000000001,0.41958385705947876,0.11851298063993454,9.791088104248047,-1.068115234375,3.265380859375,-1.251220703125
1.6424999000000002,0.3908534348011017,0.11013327538967133,9.877279281616211,-0.06103515625,1.800537109375,3.7841796875
1.6474999000000001,0.48243165016174316,0.13826514780521393,9.835979461669922,2.960205078125,-3.7841796875,2.8076171875
1.6524999000000002,0.40043023228645325,0.11911153793334961,9.774328231811523,0,-3.570556640625,-7.293701171875
1.6574999000000001,0.4836287498474121,0.08978256583213806,9.802460670471191,-4.2724609375,5.462646484375,-2.471923828125
1.6624999000000003,0.45190557837486267,0.1388636976480484,9.68155288696289,0.640869140625,1.77001953125,3.662109375
1.6674999000000001,0.44592007994651794,0.11851298063993454,9.834781646728516,1.983642578125,-3.143310546875,1.922607421875
1.6724999,0.44592007994651794,0.11851298063993454,9.834781646728516,1.983642578125,-3.143310546875,1.922607421875
1.6774999000000002,0.48901569843292236,0.16101007163524628,9.718663215637207,1.64794921875,-3.35693359375,-3.7841796875
1.6824999,0.5315127968788147,0.18794482946395874,9.803058624267578,-1.3427734375,5.340576171875,5.859375
1.6874999000000002,0.47225627303123474,0.181959331035614,9.877279281616211,-0.518798828125,-3.2958984375,-4.82177734375
1.6924999,0.47225627303123474,0.181959331035614,9.877279281616211,-0.518798828125,-3.2958984375,-4.82177734375
1.6974999000000002,0.47165772318840027,0.17298106849193573,9.768941879272461,-3.0517578125,3.662109375,-2.777099609375
1.7024999,0.36092591285705566,0.17238251864910126,9.853935241699219,-0.9765625,3.326416015625,3.35693359375
1.7074999000000002,0.43035775423049927,0.08738835901021957,9.762357711791992,3.90625,-3.60107421875,3.997802734375
1.7124999,0.3687070608139038,0.14664486050605774,9.769539833068848,1.190185546875,-5.126953125,-8.1787109375
1.7174999000000002,0.4513070285320282,0.10654197633266449,9.850942611694336,-5.462646484375,5.92041015625,-2.13623046875
1.7224999,0.46746787428855896,0.181959331035614,9.797073364257812,1.3427734375,2.8076171875,6.4697265625
1.7274999000000002,0.5081692934036255,0.18555063009262085,9.850942611694336,2.74658203125,-4.82177734375,-1.190185546875
1.7324999,0.5129576921463013,0.21547815203666687,9.761159896850586,-0.823974609375,-0.79345703125,-5.340576171875
1.7374999000000002,0.47225627303123474,0.19812019169330597,9.85034465789795,-3.021240234375,5.43212890625,-0.213623046875
1.7424999,0.46088382601737976,0.17836803197860718,9.831789016723633,1.983642578125,0.701904296875,7.171630859375
1.7474999000000002,0.4638765752315521,0.14245499670505524,9.778518676757812,0.885009765625,-3.90625,-6.04248046875
1.7524999,0.46507367491722107,0.19871874153614044,9.855133056640625,-3.814697265625,4.69970703125,-2.13623046875
1.7574999000000002,0.47465047240257263,0.1825578808784485,9.873088836669922,0.67138671875,3.11279296875,7.965087890625
1.7624999000000001,0.5057750940322876,0.2406172752380371,9.75517463684082,5.401611328125,-6.89697265625,-4.0283203125
1.7674999000000002,0.4495113790035248,0.22266076505184174,9.923966407775879,-4.669189453125,1.03759765625,-7.659912109375
1.7724999000000001,0.4644751250743866,0.17417816817760468,9.780313491821289,-2.166748046875,5.37109375,6.103515625
1.7774999000000002,0.41778820753097534,0.14245499670505524,9.751583099365234,4.0283203125,-3.631591796875,0.54931640625
1.7824999000000001,0.49559974670410156,0.12988543510437012,9.794678688049316,-0.274658203125,-3.814697265625,-6.744384765625
1.7874999000000003,0.45489832758903503,0.19871874153614044,9.82759952545166,-3.47900390625,4.791259765625,0.42724609375
1.7924999000000001,0.46567222476005554,0.23163901269435883,9.686341285705566,4.180908203125,-7.38525390625,-7.8125
1.7974999,0.4423287510871887,0.1711854189634323,9.961075782775879,-6.195068359375,3.021240234375,-5.615234375
1.8024999000000002,0.4531026780605316,0.13706804811954498,9.768941879272461,0.54931640625,4.669189453125,9.21630859375
1.8074999,0.42197805643081665,0.11671733111143112,9.729436874389648,3.84521484375,-5.31005859375,-3.875732421875
1.8124999000000002,0.45489832758903503,0.11671733111143112,9.888651847839355,-3.387451171875,-0.518798828125,-6.439208984375
1.8174999,0.3734954595565796,0.14006079733371735,9.814431190490723,-0.9765625,4.5166015625,5.096435546875
1.8224999000000002,0.43754035234451294,0.08499415963888168,9.763554573059082,4.0283203125,-3.143310546875,1.220703125
1.8274999,0.3758896589279175,0.166995570063591,9.832387924194336,-1.495361328125,-3.84521484375,-10.162353515625
1.8324999000000002,0.4602852761745453,0.1538274586200714,9.926360130310059,-4.608154296875,7.049560546875,3.692626953125
1.8374999,0.4854243993759155,0.1843535304069519,9.766547203063965,6.40869140625,-1.64794921875,4.180908203125
1.8424999000000002,0.45250412821769714,0.09816227108240128,9.742605209350586,-0.274658203125,-3.753662109375,-6.805419921875
1.8474999,0.4620809257030487,0.16998831927776337,9.874286651611328,-3.570556640625,2.62451171875,0.18310546875
1.8524999000000002,0.5261258482933044,0.08738835901021957,9.792284965515137,3.2958984375,0.30517578125,5.218505859375
1.8574999,0.4531026780605316,0.20231004059314728,9.70429801940918,1.739501953125,-5.523681640625,-9.033203125
1.8624999000000002,0.4578910768032074,0.15023615956306458,9.956287384033203,-6.500244140625,4.974365234375,-0.67138671875
1.8674999,0.45908817648887634,0.1322796493768692,9.640253067016602,4.852294921875,1.617431640625,6.9580078125
1.8724999000000002,0.41778820753097534,0.12629413604736328,9.736021041870117,1.220703125,-5.4931640625,-9.857177734375
1.8774999,0.49978959560394287,0.09876082092523575,9.877279281616211,-5.645751953125,3.5400390625,1.64794921875
1.8824999000000002,0.47225627303123474,0.09457096457481384,9.646238327026367,4.119873046875,-0.06103515625,3.692626953125
1.8874999000000001,0.5039794445037842,0.11552023142576218,9.774927139282227,-0.701904296875,-2.777099609375,-6.77490234375
1.8924999000000002,0.4776432514190674,0.1472434103488922,9.838972091674805,-2.5634765625,3.173828125,2.62451171875
1.8974999000000001,0.5267243981361389,0.09935937076807022,9.765350341796875,3.60107421875,-0.213623046875,2.3193359375
1.9024999000000002,0.45429977774620056,0.1280897855758667,9.926360130310059,-3.662109375,5.7373046875,4.547119140625
1.9074999000000001,0.47465047240257263,0.12629413604736328,9.693524360656738,6.04248046875,-1.46484375,2.62451171875
1.9124999000000003,0.353743314743042,0.22266076505184174,9.822811126708984,-2.685546875,-3.72314453125,-10.589599609375
1.9174999000000001,0.4908113479614258,0.2256535142660141,9.882665634155273,-2.99072265625,5.37109375,7.4462890625
1.9224999,0.4554968774318695,0.27473464608192444,9.817423820495605,1.77001953125,2.50244140625,6.439208984375
1.9274999000000002,0.4465186297893524,0.22625206410884857,9.79527759552002,1.708984375,-3.5400390625,-5.859375
1.9324999,0.43993455171585083,0.25737667083740234,9.916783332824707,-3.509521484375,1.373291015625,-0.42724609375
1.9374999000000002,0.4339490532875061,0.11851298063993454,9.77791976928711,2.655029296875,2.288818359375,4.730224609375
1.9424999,0.49799394607543945,0.16579847037792206,9.746794700622559,0.244140625,-4.45556640625,-7.2021484375
1.9474999000000002,0.4159925580024719,0.17717093229293823,9.93354320526123,-3.5400390625,4.08935546875,2.44140625
1.9524999,0.4776432514190674,0.15562310814857483,9.90241813659668,-3.021240234375,5.126953125,6.89697265625
1.9574999000000002,0.4345476031303406,0.2364274114370346,9.679159164428711,5.615234375,-3.387451171875,-3.143310546875
1.9624999,0.4016273319721222,0.1604115068912506,10.027515411376953,-5.31005859375,-0.18310546875,-3.11279296875
1.9674999000000002,0.46627077460289,0.12509703636169434,9.679757118225098,2.86865234375,1.617431640625,6.683349609375
1.9724999,0.38905778527259827,0.08619125932455063,9.81143856048584,-0.396728515625,-4.058837890625,-8.575439453125
1.9774999000000002,0.4321534037590027,0.020949264988303185,9.876082420349121,-2.25830078125,3.448486328125,4.638671875
1.9824999,0.4423287510871887,0.047884032130241394,9.695320129394531,3.753662109375,-1.251220703125,-1.007080078125
1.9874999000000002,0.47405192255973816,0.07302315533161163,9.938929557800293,-3.41796875,-0.823974609375,-4.33349609375
1.9924999,0.49619829654693604,0.16101007163524628,9.759963035583496,1.434326171875,3.326416015625,5.950927734375
1.9974999000000002,0.5949591398239136,0.13706804811954498,9.734824180603027,0.885009765625,-3.2958984375,-5.55419921875
2.0024999,0.4537012279033661,0.14365209639072418,9.953893661499023,-1.953125,5.340576171875,7.26318359375
2.0074999,0.45489832758903503,0.15083470940589905,9.608530044555664,4.2724609375,-3.662109375,-3.265380859375
2.0124999000000003,0.37409400939941406,0.19812019169330597,9.94970417022705,-4.69970703125,0.030517578125,-3.2958984375
2.0174999000000002,0.5093663930892944,0.1538274586200714,9.619303703308105,3.662109375,2.044677734375,6.378173828125
2.0224999,0.33997663855552673,0.19452889263629913,9.758167266845703,-1.220703125,-3.875732421875,-8.7890625
2.0274999,0.518943190574646,0.15502455830574036,9.835979461669922,-1.678466796875,3.72314453125,7.720947265625
2.0324999000000004,0.4118026793003082,0.13527239859104156,9.658209800720215,3.662109375,-3.936767578125,-6.134033203125
2.0374999000000003,0.46148237586021423,0.13587094843387604,10.00836181640625,-5.06591796875,1.89208984375,0.640869140625
2.0424999,0.46986207365989685,0.13048399984836578,9.601346969604492,5.18798828125,0.244140625,3.662109375
2.0474999,0.4531026780605316,0.13826514780521393,9.9586820602417,-3.5400390625,-2.50244140625,-7.049560546875
2.0524999,0.5051765441894531,0.13168109953403473,9.692327499389648,1.800537109375,3.448486328125,7.110595703125
2.0574999000000003,0.4686649739742279,0.16579847037792206,9.715071678161621,3.7841796875,-1.89208984375,-1.251220703125
2.0624999,0.4040215313434601,0.12090718746185303,9.941324234008789,-4.058837890625,-0.885009765625,-2.899169921875
2.0674999,0.4776432514190674,0.2232593148946762,9.694122314453125,3.35693359375,1.5869140625,4.638671875
2.0724999,0.4638765752315521,0.17537526786327362,9.869498252868652,-2.197265625,-2.9296875,-6.988525390625
2.0774999000000003,0.49799394607543945,0.19871874153614044,9.725247383117676,0.518798828125,2.655029296875,5.706787109375
2.0824999,0.4950011968612671,0.12270283699035645,9.776124000549316,1.129150390625,-2.593994140625,-5.218505859375
2.0874999,0.4489128291606903,0.10115502029657364,9.886856079101562,-2.838134765625,1.983642578125,2.01416015625
2.0924999,0.4878185987472534,0.10235211998224258,9.749788284301758,3.509521484375,-0.091552734375,-0.213623046875
2.0974999000000003,0.44412440061569214,0.12689268589019775,9.998186111450195,-3.692626953125,-0.885009765625,-2.532958984375
2.1024999,0.5081692934036255,0.2017114907503128,9.720458984375,3.11279296875,2.197265625,3.875732421875
2.1074999,0.48303020000457764,0.20769700407981873,9.892841339111328,-1.89208984375,-2.62451171875,-5.889892578125
2.1124999,0.4602852761745453,0.13826514780521393,9.869498252868652,-2.166748046875,1.52587890625,3.204345703125
2.1174999000000003,0.456095427274704,0.08918401598930359,9.710882186889648,3.0517578125,-0.640869140625,-1.739501953125
2.1224999,0.424970805644989,0.07841010391712189,9.980828285217285,-3.47900390625,-0.335693359375,-0.579833984375
2.1274999,0.4602852761745453,0.08499415963888168,9.677363395690918,3.387451171875,1.40380859375,1.953125
2.1324999,0.42018240690231323,0.1107318252325058,9.910798072814941,-3.11279296875,-1.8310546875,-4.150390625
2.1374999000000003,0.49619829654693604,0.19572599232196808,9.68813705444336,2.197265625,2.593994140625,4.5166015625
2.1424999000000002,0.4572925269603729,0.1586158573627472,9.865307807922363,-1.190185546875,-2.62451171875,-5.584716796875
2.1474999,0.50876784324646,0.21428105235099792,9.767744064331055,0.1220703125,2.288818359375,5.0048828125
2.1524999,0.47884035110473633,0.1364694982767105,9.814431190490723,1.129150390625,-2.01416015625,-4.852294921875
2.1574999000000004,0.4836287498474121,0.1322796493768692,9.899425506591797,-1.922607421875,1.434326171875,3.265380859375
2.1624999000000003,0.43035775423049927,0.13108254969120026,9.960477828979492,-2.9296875,-1.190185546875,-2.166748046875
2.1674999,0.5051765441894531,0.1843535304069519,9.68274974822998,2.899169921875,1.40380859375,2.838134765625
2.1724999,0.4842272996902466,0.17058686912059784,9.892242431640625,-2.471923828125,-1.617431640625,-4.425048828125
2.1774999000000004,0.5261258482933044,0.22864626348018646,9.623494148254395,1.922607421875,2.25830078125,4.486083984375
2.1824999000000003,0.4812345504760742,0.15143325924873352,9.81143856048584,-1.0986328125,-2.349853515625,-5.340576171875
2.1874999,0.50876784324646,0.23163901269435883,9.730035781860352,0.6103515625,2.44140625,4.669189453125
2.1924999,0.4967968463897705,0.1215057373046875,9.831191062927246,0.30517578125,-2.105712890625,-5.340576171875
2.1974999,0.49380409717559814,0.14185644686222076,9.820416450500488,-0.79345703125,1.983642578125,4.364013671875
2.2024999000000003,0.36750996112823486,0.1280897855758667,9.567230224609375,0.9765625,-2.0751953125,-4.119873046875
2.2074999,-0.2256535142660141,0.3106476664543152,8.908824920654297,-19.500732421875,-6.744384765625,15.899658203125
2.2124999,-3.2579100131988525,-0.7350199222564697,9.051877975463867,-47.149658203125,-114.959716796875,123.321533203125
2.2174999,0.19871874153614044,-3.153762102127075,8.423399925231934,47.54638671875,149.810791015625,-332.733154296875
2.2224999000000003,4.937442302703857,-4.341884613037109,9.35893440246582,62.896728515625,291.259765625,-350.982666015625
2.2274999,7.781754016876221,-4.454412460327148,8.547898292541504,91.949462890625,193.206787109375,-132.62939453125
2.2324999,6.921637058258057,-2.4678235054016113,9.259574890136719,57.18994140625,76.446533203125,23.223876953125
2.2374999,3.29502010345459,1.0271124839782715,9.457695007324219,-2.777099609375,-4.69970703125,72.052001953125
2.2424999000000003,-1.4101848602294922,4.043208122253418,10.032303810119629,-40.4052734375,-48.2177734375,68.05419921875
2.2474999,-5.474342346191406,5.8885393142700195,10.881647109985352,-71.197509765625,-47.454833984375,41.900634765625
2.2524999,-7.624335289001465,6.338648796081543,11.759719848632812,-96.160888671875,-37.689208984375,13.885498046875
2.2574999,-7.436390399932861,5.495890140533447,12.433089256286621,-98.93798828125,-27.984619140625,-17.4560546875
2.2624999000000003,-0.13527239859104156,0.706289529800415,11.131241798400879,-96.282958984375,-5.92041015625,-12.786865234375
2.2674999000000002,1.2731167078018188,-0.44412440061569214,10.157999038696289,-90.240478515625,-2.44140625,-19.622802734375
2.2724999,1.6406266689300537,-1.30543851852417,9.339181900024414,-82.000732421875,-6.103515625,-25.238037109375
2.2774999,1.578976035118103,-2.0015525817871094,8.624512672424316,-70.526123046875,-2.471923828125,-25.81787109375
2.2824999000000004,1.3634978532791138,-2.5007436275482178,8.095394134521484,-56.33544921875,-6.65283203125,-19.71435546875
2.2874999000000003,1.1839327812194824,-2.787449359893799,7.750629425048828,-39.520263671875,-3.96728515625,-17.059326171875
2.2924999,1.0295066833496094,-2.849698543548584,7.648875713348389,-27.008056640625,-0.823974609375,-16.448974609375
2.2974999,0.8379706144332886,-2.7904419898986816,7.729081630706787,-17.181396484375,-2.655029296875,-13.519287109375
2.3024999000000004,0.6272808313369751,-2.734178304672241,7.8763251304626465,-4.425048828125,-7.26318359375,-10.833740234375
2.3074999000000003,0.6272808313369751,-2.734178304672241,7.8763251304626465,-4.425048828125,-7.26318359375,-10.833740234375
2.3124999,0.4076128304004669,-2.7970261573791504,7.913434982299805,12.481689453125,-12.0849609375,-8.60595703125
2.3174999,0.11911153793334961,-3.463212728500366,7.335235595703125,70.1904296875,-25.726318359375,-2.0751953125
2.3224999,0.23163901269435883,-3.581127166748047,7.153275966644287,89.78271484375,-20.69091796875,-6.439208984375
2.3274999000000003,0.3926490843296051,-3.599083662033081,7.00124454498291,108.0322265625,-12.451171875,-12.908935546875
2.3324999,0.6027402877807617,-3.465606927871704,6.918045997619629,127.44140625,-8.453369140625,-16.78466796875
2.3374999,0.6877344250679016,-3.199850559234619,6.879738807678223,147.369384765625,-12.664794921875,-13.61083984375
2.3424999,0.739209771156311,-2.8107926845550537,6.938396453857422,163.330078125,-18.707275390625,-5.92041015625
2.3474999000000003,0.7990648150444031,-1.9231425523757935,6.980295181274414,142.425537109375,-4.150390625,2.50244140625
2.3524999,1.1336544752120972,-0.6847416758537292,7.750629425048828,8.7890625,51.025390625,-2.9296875
2.3574999,1.3808557987213135,1.035492181777954,8.20492935180664,21.66748046875,7.049560546875,-20.782470703125
2.3624999,1.5640122890472412,2.719813108444214,8.901042938232422,29.541015625,-20.538330078125,-11.1083984375
2.3674999000000003,1.4143747091293335,4.093486309051514,9.096769332885742,8.087158203125,-19.95849609375,-9.857177734375
2.3724999,0.46148237586021423,4.473566055297852,8.882488250732422,-18.218994140625,4.21142578125,6.4697265625
2.3774999,0.16160862147808075,3.599682331085205,9.096170425415039,-16.05224609375,1.708984375,13.946533203125
2.3824999,0.0454898327589035,2.2828712463378906,9.512762069702148,-7.32421875,-6.988525390625,13.00048828125
2.3874999000000003,0.047884032130241394,0.8607155084609985,9.966463088989258,-1.89208984375,-14.7705078125,13.275146484375
2.3924999000000002,0.13048399984836578,-0.4668693244457245,10.248380661010742,-0.579833984375,-13.824462890625,11.474609375
2.3974999,0.21128830313682556,-1.3623007535934448,10.216058731079102,-0.732421875,-6.28662109375,4.82177734375
2.4024999,0.3585317134857178,-1.7687164545059204,10.128670692443848,-1.40380859375,-1.312255859375,-2.86865234375
2.4074999000000004,0.578798234462738,-1.6466121673583984,10.02811336517334,1.190185546875,2.5634765625,-3.570556640625
2.4124999000000003,0.7703344225883484,-1.157596468925476,9.838373184204102,3.90625,2.349853515625,-3.326416015625
2.4174999,0.9199720025062561,-0.5476736426353455,9.722254753112793,1.52587890625,4.69970703125,-3.753662109375
2.4224999,0.9283517003059387,0.0736217051744461,9.696516990661621,-0.885009765625,8.575439453125,-0.091552734375
2.4274999000000004,0.8068459630012512,0.4076128304004669,9.59715747833252,0.885009765625,3.692626953125,-0.823974609375
2.4324999000000003,0.39624038338661194,0.4967968463897705,9.898826599121094,-0.79345703125,0.213623046875,-0.244140625
2.4374999,0.28072014451026917,0.2992752194404602,9.891045570373535,0.54931640625,-4.669189453125,1.03759765625
2.4424999,0.2902969419956207,0.1975216418504715,9.946112632751465,-0.8544921875,-5.462646484375,-2.3193359375
2.4474999,0.36152446269989014,0.1280897855758667,9.88745403289795,-1.861572265625,-0.30517578125,-0.06103515625
2.4524999000000003,0.5363011956214905,0.046088382601737976,9.75517463684082,1.15966796875,-1.312255859375,2.44140625
2.4574999,0.6739677786827087,0.0071826050989329815,9.700706481933594,-0.1220703125,-0.67138671875,-3.021240234375
2.4624999,0.7416039705276489,-0.02274491637945175,9.696516990661621,-0.48828125,4.486083984375,-0.762939453125
2.4674999,0.7721300721168518,-0.0694318488240242,9.671976089477539,2.655029296875,1.312255859375,0.335693359375
2.4724999000000003,0.669179379940033,0.020350715145468712,9.804255485534668,-0.06103515625,1.861572265625,-1.8310546875
2.4774999,0.5446808934211731,0.019153613597154617,9.917980194091797,-0.885009765625,2.044677734375,0.732421875
2.4824999,0.6715735793113708,0.018555063754320145,9.733627319335938,1.800537109375,0.06103515625,0.885009765625
2.4874999,0.6889315247535706,0.04908113554120064,9.782708168029785,0.823974609375,1.129150390625,-0.67138671875
2.4924999000000003,0.7266402244567871,0.02214636653661728,9.835979461669922,-1.5869140625,3.173828125,-0.91552734375
2.4974999,0.6524199843406677,0.04249707981944084,9.782708168029785,2.227783203125,0.396728515625,-3.387451171875
2.5024999,0.5488707423210144,0.10175357013940811,9.843161582946777,-0.67138671875,2.716064453125,1.77001953125
2.5074999,0.5165489912033081,0.02513911761343479,9.753378868103027,-0.6103515625,-1.556396484375,-0.18310546875
2.5124999000000003,0.3734954595565796,0.08858546614646912,9.70429801940918,1.03759765625,-1.953125,-0.48828125
2.5174999000000002,0.38486793637275696,0.02274491637945175,9.798270225524902,-2.38037109375,-0.244140625,-0.3662109375
2.5224999,0.4118026793003082,0.04010287672281265,9.743802070617676,1.52587890625,-2.44140625,0.579833984375
2.5274999,0.4255693554878235,0.0454898327589035,9.916184425354004,0.06103515625,-0.3662109375,0.1220703125
2.5324999000000004,0.5704185366630554,0.023942016065120697,9.874286651611328,-0.946044921875,1.28173828125,0.6103515625
2.5374999000000003,0.5764040350914001,0.08080431073904037,9.84256362915039,1.708984375,-0.579833984375,-1.556396484375
2.5424999,0.6536170840263367,0.09277531504631042,9.81024169921875,-1.434326171875,2.74658203125,-1.40380859375
2.5474999,0.6560112833976746,0.1215057373046875,9.746196746826172,1.556396484375,1.495361328125,1.800537109375
2.5524999000000004,0.5907692909240723,0.12629413604736328,9.764751434326172,0.335693359375,-0.335693359375,-2.13623046875
2.5574999000000003,0.5919663906097412,0.13527239859104156,9.82999324798584,-2.13623046875,1.03759765625,-0.457763671875
2.5624999,0.5003881454467773,0.1149216815829277,9.786897659301758,1.678466796875,-2.5634765625,0.579833984375
2.5674999,0.4967968463897705,0.16998831927776337,9.806650161743164,-1.708984375,-0.48828125,-0.48828125
2.5724999,0.5231330990791321,0.09457096457481384,9.804854393005371,0.885009765625,-2.01416015625,1.708984375
2.5774999000000003,0.5111620426177979,0.1496376097202301,9.779715538024902,0.42724609375,-1.8310546875,-1.708984375
2.5824999,0.6153098344802856,0.08319851011037827,9.817423820495605,-1.0986328125,1.922607421875,0.091552734375
2.5874999,0.628477931022644,0.0736217051744461,9.744999885559082,2.227783203125,0.457763671875,-0.42724609375
2.5924999,0.6572083830833435,0.10594342648983002,9.799467086791992,-1.617431640625,3.7841796875,-2.25830078125
2.5974999000000003,0.646434485912323,0.06224924325942993,9.743802070617676,1.312255859375,2.532958984375,0.701904296875
2.6024999,0.5165489912033081,0.14006079733371735,9.797672271728516,0.3662109375,0.79345703125,-1.8310546875
2.6074999,0.46986207365989685,0.13766659796237946,9.800065994262695,-1.28173828125,1.220703125,2.197265625
2.6124999,0.33698388934135437,0.1586158573627472,9.720458984375,0.885009765625,-4.8828125,-0.9765625
2.6174999000000003,0.34835633635520935,0.17657238245010376,9.837775230407715,-1.708984375,-1.556396484375,0.579833984375
2.6224999,0.4273650050163269,0.11671733111143112,9.700108528137207,1.190185546875,-3.47900390625,1.678466796875
2.6274999,0.5464765429496765,0.08379705995321274,9.867103576660156,-0.79345703125,-1.861572265625,-3.265380859375
2.6324999,0.7098808288574219,0.028730420395731926,9.79288387298584,-0.091552734375,2.777099609375,0.885009765625
2.6374999000000003,0.8008604645729065,0.02274491637945175,9.774927139282227,1.312255859375,2.01416015625,-1.861572265625
2.6424999000000002,0.7703344225883484,0.0071826050989329815,9.884461402893066,-1.5869140625,5.523681640625,-0.396728515625
2.6474999,0.7068880796432495,0.01975216343998909,9.750386238098145,2.166748046875,0.79345703125,0.457763671875
2.6524999,0.49619829654693604,0.09576806426048279,9.892841339111328,-0.67138671875,0.213623046875,-0.30517578125
2.6574999000000004,0.3280056416988373,0.13407529890537262,9.823410034179688,0.06103515625,-4.57763671875,-3.753662109375
2.6624999000000003,0.4124012291431427,0.05386953800916672,9.84256362915039,-0.9765625,0.54931640625,1.03759765625
2.6674999,0.5267243981361389,0.12270283699035645,9.694122314453125,1.007080078125,-1.129150390625,-1.5869140625
2.6724999,0.6063315868377686,0.07003039866685867,9.784503936767578,-1.89208984375,4.058837890625,-1.46484375
2.6774999000000004,0.6811503767967224,0.1041477769613266,9.710882186889648,2.38037109375,1.28173828125,3.082275390625
2.6824999000000003,0.5554547905921936,0.07541735470294952,9.901819229125977,-0.701904296875,-0.91552734375,-0.823974609375
2.6874999,0.5494692921638489,0.05626374110579491,9.90241813659668,0.457763671875,-1.007080078125,1.373291015625
2.6924999,0.45669397711753845,0.1149216815829277,9.875483512878418,0.946044921875,-3.997802734375,-3.5400390625
2.6974999,0.5536591410636902,0.1256955862045288,9.906607627868652,-1.5869140625,1.03759765625,0.1220703125
2.7024999000000003,0.5793967843055725,0.19692309200763702,9.727043151855469,0.335693359375,-0.244140625,-0.885009765625
2.7074999,0.6655880808830261,0.19871874153614044,9.850942611694336,-1.434326171875,2.9296875,0.640869140625
2.7124999,0.6380547285079956,0.152031809091568,9.699509620666504,2.0751953125,-0.48828125,2.8076171875
2.7174999,0.5620388388633728,0.04967968538403511,9.718663215637207,0.762939453125,0.152587890625,-0.3662109375
2.7224999000000003,0.5506663918495178,0.1604115068912506,9.718064308166504,1.46484375,1.0986328125,0.48828125
2.7274999,0.5518634915351868,0.11133038252592087,9.903017044067383,-0.152587890625,0.67138671875,2.044677734375
2.7324999,0.46088382601737976,0.12629413604736328,9.740809440612793,1.5869140625,-4.150390625,0.6103515625
2.7374999,0.4231751561164856,0.10953472554683685,9.909002304077148,-0.701904296875,-3.5400390625,-5.55419921875
2.7424999000000003,0.5165489912033081,0.11851298063993454,9.766547203063965,-0.6103515625,2.349853515625,1.220703125
2.7474999,0.5614402890205383,0.14185644686222076,9.799467086791992,-0.335693359375,0.518798828125,-0.3662109375
2.7524999,0.6524199843406677,0.07721300423145294,9.884461402893066,-1.03759765625,2.3193359375,2.5634765625
2.7574999,0.5931634902954102,0.08858546614646912,9.768941879272461,2.532958984375,-2.960205078125,0.823974609375
2.7624999000000003,0.5877765417098999,0.010773907415568829,9.95329475402832,-0.67138671875,-1.03759765625,-2.3193359375
2.7674999000000002,0.579995334148407,0.13108254969120026,9.825803756713867,-1.953125,2.655029296875,-2.044677734375
2.7724999,0.6344634294509888,0.10055647045373917,9.767146110534668,0.274658203125,3.326416015625,4.5166015625
2.7774999,0.5488707423210144,0.1538274586200714,9.851541519165039,1.46484375,-3.204345703125,-0.091552734375
2.7824999000000004,0.5345055460929871,0.05147533491253853,9.872490882873535,-0.244140625,-0.91552734375,-0.54931640625
2.7874999000000003,0.497395396232605,0.06584054976701736,9.781511306762695,0.79345703125,-2.685546875,-4.150390625
2.7924999,0.48901569843292236,0.06703764945268631,9.845556259155273,-2.3193359375,4.57763671875,-1.922607421875
2.7974999,0.5374982953071594,0.04429273307323456,9.708487510681152,1.190185546875,1.495361328125,4.119873046875
2.8024999000000004,0.46627077460289,0.08140286058187485,9.824007987976074,0.213623046875,-1.739501953125,1.251220703125
2.8074999000000003,0.5309142470359802,-0.03411737456917763,9.84376049041748,1.0986328125,-2.410888671875,-1.068115234375
2.8124999,0.4710591733455658,0.0586579404771328,9.801861763000488,-0.762939453125,-0.732421875,-6.34765625
2.8174999,0.5674257874488831,0.08259996026754379,9.840168952941895,-1.495361328125,5.584716796875,1.190185546875
2.8224999,0.5231330990791321,0.1825578808784485,9.755773544311523,1.556396484375,-1.46484375,3.387451171875
2.8274999000000003,0.6446388363838196,0.09397241473197937,9.757569313049316,0.67138671875,3.35693359375,3.997802734375
2.8324999,0.5883750915527344,0.15143325924873352,9.892841339111328,0.67138671875,-2.197265625,2.3193359375
2.8374999,0.6332663297653198,0.03950432687997818,9.733627319335938,0.8544921875,-1.3427734375,-0.091552734375
2.8424999,0.5416881442070007,0.10175357013940811,9.749788284301758,-0.457763671875,-1.129150390625,-6.591796875
2.8474999000000003,0.5811924338340759,0.02992752194404602,9.750386238098145,-2.044677734375,6.103515625,0.579833984375
2.8524999,0.5201402902603149,0.12749123573303223,9.655815124511719,2.25830078125,-1.373291015625,4.57763671875
2.8574999,0.5398924946784973,0.07062894850969315,9.908403396606445,0.244140625,-2.685546875,0.42724609375
2.8624999,0.5129576921463013,0.13946224749088287,9.700706481933594,0.396728515625,-2.349853515625,-4.150390625
2.8674999000000003,0.5315127968788147,0.07242459803819656,9.926360130310059,-2.655029296875,4.302978515625,-3.47900390625
2.8724999,0.5716156363487244,0.10474632680416107,9.809642791748047,1.46484375,2.105712890625,6.378173828125
2.8774999,0.49978959560394287,0.06524199992418289,9.806051254272461,-1.46484375,2.410888671875,-4.608154296875
2.8824999,0.5704185366630554,0.030526071786880493,9.837775230407715,-0.579833984375,3.936767578125,5.279541015625
2.8874999000000003,0.5201402902603149,0.030526071786880493,9.710882186889648,3.753662109375,-5.43212890625,2.655029296875
2.8924999000000002,0.5626373887062073,0.03711012750864029,9.898826599121094,-1.46484375,-1.983642578125,-5.401611328125
2.8974999,0.5847837924957275,0.08978256583213806,9.6989107131958,-1.373291015625,3.753662109375,-2.5634765625
2.9024999,0.557250440120697,0.11611878126859665,9.861717224121094,0.244140625,2.62451171875,3.204345703125
2.9074999000000004,0.6607996821403503,0.09038111567497253,9.77133560180664,2.9296875,-3.692626953125,3.570556640625
2.9124999000000003,0.5596446394920349,0.12030863761901855,9.798270225524902,-1.007080078125,-3.265380859375,-7.4462890625
2.9174999,0.6823474764823914,0.0454898327589035,9.844358444213867,-3.326416015625,7.080078125,-1.129150390625
2.9224999,0.5793967843055725,0.10115502029657364,9.833584785461426,2.197265625,0.30517578125,4.69970703125
2.9274999000000004,0.6242880821228027,0.030526071786880493,9.883264541625977,1.739501953125,-3.35693359375,1.28173828125
2.9324999000000003,0.47824180126190186,0.07481880486011505,9.956287384033203,-3.96728515625,6.77490234375,-1.28173828125
2.9374999,0.497395396232605,0.15322890877723694,9.774927139282227,3.631591796875,-0.79345703125,7.415771484375
2.9424999,0.44532153010368347,0.13587094843387604,9.849745750427246,1.739501953125,-6.622314453125,-2.197265625
2.9474999,0.5165489912033081,0.16340427100658417,9.840168952941895,-3.265380859375,1.89208984375,-4.302978515625
2.9524999000000003,0.497395396232605,0.13706804811954498,9.783905029296875,-1.251220703125,3.96728515625,1.312255859375
2.9574999,0.5434837937355042,0.041299980133771896,9.782109260559082,3.570556640625,-2.99072265625,4.94384765625
2.9624999,0.6320692300796509,0.004189853090792894,9.904213905334473,-5.2490234375,7.01904296875,-2.50244140625
2.9674999,0.6260837316513062,0.08379705995321274,9.807249069213867,2.227783203125,2.227783203125,6.7138671875
2.9724999000000003,0.6260837316513062,0.08379705995321274,9.807249069213867,2.227783203125,2.227783203125,6.7138671875
2.9774999,0.6446388363838196,0.030526071786880493,9.932345390319824,2.655029296875,-4.57763671875,-1.373291015625
2.9824999,0.6218938827514648,0.14903905987739563,9.750386238098145,-1.678466796875,0.54931640625,-5.401611328125
2.9874999,0.5273229479789734,0.0005985504249110818,9.787496566772461,4.852294921875,-3.11279296875,4.791259765625
2.9924999000000003,0.5273229479789734,0.0005985504249110818,9.787496566772461,4.852294921875,-3.11279296875,4.791259765625
2.9974999,0.4106055796146393,0.03890577703714371,9.757569313049316,1.190185546875,-5.4931640625,-8.575439453125
3.0024999,0.47644615173339844,0.02753331884741783,9.874884605407715,-5.340576171875,5.645751953125,0.244140625
3.0074999,0.40282443165779114,0.090979665517807,9.6803560256958,1.64794921875,0.8544921875,4.7607421875
3.0124999000000003,0.5027823448181152,0.04489128291606903,9.652822494506836,3.631591796875,-4.180908203125,-4.058837890625
3.0174999000000002,0.517746090888977,0.15083470940589905,9.618106842041016,-2.25830078125,0.244140625,-4.119873046875
3.0224999,0.6051344871520996,0.07122749835252762,9.827000617980957,-4.45556640625,6.40869140625,5.4931640625
3.0274999,0.6003460884094238,0.08738835901021957,9.675567626953125,6.9580078125,-5.06591796875,2.685546875
3.0324999000000004,0.585382342338562,0.09576806426048279,9.946112632751465,-1.373291015625,-4.2724609375,-8.85009765625
3.0374999000000003,0.5823895931243896,0.10893617570400238,9.859322547912598,-4.913330078125,6.805419921875,3.90625
3.0424999,0.4967968463897705,0.02274491637945175,9.835979461669922,3.570556640625,-2.105712890625,3.173828125
3.0474999,0.5668272376060486,0.01975216343998909,9.713275909423828,1.03759765625,-3.90625,-6.988525390625
3.0524999000000004,0.6171054840087891,-0.021547814831137657,9.81024169921875,1.64794921875,2.105712890625,9.82666015625
3.0574999000000003,0.6171054840087891,-0.021547814831137657,9.81024169921875,1.64794921875,2.105712890625,9.82666015625
3.0624999,0.5530605912208557,0.07721300423145294,9.585784912109375,3.875732421875,-9.063720703125,-5.706787109375
3.0674999,0.5925649404525757,0.08978256583213806,9.925163269042969,-6.256103515625,4.302978515625,-7.2021484375
3.0724999000000004,0.5285200476646423,0.09397241473197937,9.675567626953125,1.983642578125,5.4931640625,9.368896484375
3.0774999000000003,0.4554968774318695,0.05446808785200119,9.783307075500488,3.84521484375,-6.591796875,-2.25830078125
3.0824999,0.5315127968788147,0.08619125932455063,9.848548889160156,-4.180908203125,0.701904296875,-5.889892578125
3.0874999,0.42197805643081665,0.05746084079146385,9.920374870300293,-0.06103515625,4.5166015625,5.79833984375
3.0924999,0.49978959560394287,0.06643909960985184,9.660005569458008,4.302978515625,-5.401611328125,0.335693359375
3.0974999000000003,0.48303020000457764,0.12509703636169434,9.82759952545166,-4.21142578125,-1.312255859375,-9.490966796875
3.1024999,0.5524620413780212,0.06643909960985184,9.871294021606445,-1.617431640625,7.720947265625,8.026123046875
3.1074999,0.4106055796146393,-0.3866635859012604,8.999804496765137,6.89697265625,-6.53076171875,1.28173828125
3.1124999,0.13826514780521393,-1.1426327228546143,7.848791599273682,-28.50341796875,-0.152587890625,8.819580078125
3.1174999000000003,0.3405751883983612,-3.2980127334594727,4.138976097106934,-29.388427734375,-52.42919921875,466.61376953125
3.1224999,-0.8852560520172119,3.154360771179199,0.619499683380127,224.91455078125,-140.228271484375,99.517822265625
3.1274999,-0.8852560520172119,3.154360771179199,0.619499683380127,224.91455078125,-140.228271484375,99.517822265625
3.1324999,-1.659181833267212,5.895721912384033,-0.013168109580874443,136.932373046875,-167.022705078125,7.2021484375
3.1374999000000003,-1.789067268371582,7.766790390014648,0.36571431159973145,38.543701171875,-191.34521484375,-97.869873046875
3.1424999000000002,0.1909375786781311,9.211092948913574,1.1653777360916138,-39.24560546875,-173.980712890625,-140.899658203125
3.1474999,1.2425906658172607,9.164405822753906,1.6645687818527222,-43.212890625,-150.909423828125,-59.99755859375
3.1524999,3.229179620742798,8.896254539489746,2.6342203617095947,-70.37353515625,-99.517822265625,-56.57958984375
3.1574999000000004,3.4608185291290283,7.304709434509277,3.27227520942688,-121.337890625,-35.94970703125,-90.75927734375
3.1624999000000003,3.4177229404449463,5.425859451293945,3.6092591285705566,-148.4375,18.218994140625,-88.775634765625
3.1674999,2.4151508808135986,2.321178436279297,5.273828029632568,-166.412353515625,67.9931640625,-3.875732421875
3.1724999,1.9943699836730957,1.534683346748352,7.0126166343688965,-129.0283203125,160.369873046875,6.805419921875
3.1774999000000004,1.5376760959625244,1.4766238927841187,8.984241485595703,-34.576416015625,266.9677734375,-20.263671875
3.1824999000000003,0.9080010056495667,0.8607155084609985,10.63504409790039,31.18896484375,263.580322265625,-63.53759765625
3.1874999,0.8463503122329712,0.6111199855804443,11.775880813598633,32.1044921875,166.107177734375,-24.90234375
3.1924999,0.3621230125427246,0.28072014451026917,11.993753433227539,33.87451171875,71.136474609375,-7.476806640625
3.1974999000000004,-0.33518823981285095,-0.055665191262960434,11.383830070495605,37.567138671875,40.46630859375,-26.67236328125
3.2024999000000003,-1.136048674583435,0.11552023142576218,10.58416748046875,21.240234375,29.11376953125,-29.022216796875
3.2074999,-1.7172411680221558,0.6877344250679016,9.718064308166504,3.11279296875,21.820068359375,-25.2685546875
3.2124999,-2.2601263523101807,1.047463297843933,9.115324020385742,-3.326416015625,17.791748046875,-7.4462890625
3.2174999,-2.5528175830841064,1.092953085899353,8.963293075561523,-2.349853515625,14.129638671875,-2.13623046875
3.2224999000000003,-2.692279815673828,0.9636662006378174,9.232640266418457,-2.44140625,3.570556640625,-2.9296875
3.2274999,-2.126051187515259,0.30466216802597046,9.907206535339355,-5.096435546875,-22.003173828125,-2.532958984375
3.2324999,-1.5897499322891235,0.02513911761343479,10.102334022521973,-11.16943359375,-27.740478515625,-1.312255859375
3.2374999,-0.8469488620758057,-0.06524199992418289,10.187328338623047,-12.26806640625,-28.289794921875,-2.777099609375
3.2424999000000003,-0.06823474913835526,-0.15023615956306458,10.056844711303711,-6.65283203125,-27.191162109375,-5.523681640625
3.2474999,0.5710170865058899,-0.040701430290937424,10.001777648925781,-4.486083984375,-23.590087890625,2.532958984375
3.2524999,1.1881226301193237,-0.19273324310779572,9.938929557800293,-5.828857421875,-21.66748046875,2.38037109375
3.2574999,1.5328876972198486,-0.02753331884741783,9.617507934570312,-2.13623046875,-14.95361328125,-4.425048828125
3.2624999000000003,1.567603588104248,-0.152031809091568,9.678560256958008,-3.0517578125,-4.425048828125,-12.237548828125
3.2674999000000002,1.5939397811889648,0.0035913025494664907,9.532513618469238,-2.349853515625,1.922607421875,-13.671875
3.2724999,1.3934253454208374,-0.03950432687997818,9.551069259643555,-0.42724609375,-0.030517578125,-14.739990234375
3.2774999,1.256955862045288,0.05746084079146385,9.641449928283691,-1.77001953125,1.495361328125,-8.941650390625
3.2824999000000004,0.7134721279144287,0.13347674906253815,9.857526779174805,-2.471923828125,-0.640869140625,-2.44140625
3.2874999000000003,0.618302583694458,0.08978256583213806,9.830592155456543,1.0986328125,-1.129150390625,-0.6103515625
3.2924999,0.5554547905921936,0.11971008777618408,9.86111831665039,1.5869140625,0.152587890625,-1.28173828125
3.2974999,0.6093243360519409,0.02693476900458336,9.981427192687988,-1.03759765625,3.173828125,-2.25830078125
3.3024999000000004,0.6440402865409851,0.15741875767707825,9.793481826782227,2.288818359375,2.01416015625,-1.373291015625
3.3074999000000003,0.6362590789794922,0.17956513166427612,9.944915771484375,-1.708984375,2.44140625,-5.279541015625
3.3124999,0.6189011335372925,0.19393034279346466,9.775525093078613,0.579833984375,5.279541015625,-2.38037109375
3.3174999,0.524330198764801,0.2124854028224945,9.79288387298584,1.068115234375,0.213623046875,-3.5400390625
3.3224999000000004,0.44352585077285767,0.17717093229293823,9.853337287902832,-1.800537109375,0,-0.48828125
3.3274999000000003,0.3758896589279175,0.09516951441764832,9.813234329223633,0.213623046875,-3.814697265625,1.3427734375
3.3324999,0.3429693877696991,0.16340427100658417,9.964069366455078,-0.396728515625,-3.631591796875,-0.18310546875
3.3374999,0.40282443165779114,0.11611878126859665,9.916783332824707,-1.739501953125,-4.21142578125,0.18310546875
3.3424999,0.6530185341835022,0.10534487664699554,9.829395294189453,-1.251220703125,0.244140625,-2.349853515625
3.3474999000000003,0.7948749661445618,0.12868833541870117,9.6618013381958,0.152587890625,2.01416015625,0.885009765625
3.3524999,0.8738836050033569,0.09397241473197937,9.727641105651855,-0.213623046875,2.86865234375,-6.439208984375
3.3574999,0.8403648138046265,0.19452889263629913,9.728240013122559,-1.28173828125,5.279541015625,-1.312255859375
3.3624999,0.5644330382347107,0.13946224749088287,9.749788284301758,-0.9765625,1.15966796875,-0.274658203125
3.3674999000000003,0.4638765752315521,0.0454898327589035,9.803657531738281,0.9765625,-2.44140625,1.495361328125
3.3724999,0.3663128614425659,0.090979665517807,9.775525093078613,0.335693359375,-3.021240234375,-2.86865234375
3.3774999,0.4513070285320282,0.012569558806717396,9.86351203918457,-1.5869140625,-0.30517578125,-1.617431640625
3.3824999,0.5081692934036255,0.16101007163524628,9.774927139282227,1.220703125,0,0.396728515625
3.3874999000000003,0.6009446382522583,0.18375498056411743,9.778518676757812,-1.617431640625,2.13623046875,-0.396728515625
3.3924999000000002,0.6613982319831848,0.1412578970193863,9.778518676757812,-0.274658203125,1.15966796875,1.953125
3.3974999,0.5153518915176392,0.06344634294509888,9.847949981689453,3.021240234375,-2.227783203125,-0.518798828125
3.4024999,0.5428852438926697,0.07242459803819656,9.845556259155273,-1.983642578125,-0.213623046875,-3.90625
3.4074999000000004,0.6224924325942993,0.14784196019172668,9.716269493103027,-0.152587890625,2.13623046875,0.396728515625
3.4124999000000003,0.6171054840087891,0.24001872539520264,9.75637149810791,-0.885009765625,1.434326171875,-1.3427734375
3.4174999,0.6177040338516235,0.1975216418504715,9.713275909423828,-0.91552734375,2.655029296875,3.11279296875
3.4224999,0.5398924946784973,0.18914192914962769,9.68813705444336,2.13623046875,-2.0751953125,-0.152587890625
3.4274999000000004,0.5434837937355042,0.09696517139673233,9.845556259155273,-0.54931640625,-1.190185546875,-2.74658203125
3.4324999000000003,0.5410895943641663,-0.0017956512747332454,9.631275177001953,2.25830078125,-0.79345703125,0.42724609375
3.4374999,0.568622887134552,0.1364694982767105,9.780313491821289,-1.64794921875,0.457763671875,-3.35693359375
3.4424999,0.6338648796081543,0.27653029561042786,9.767146110534668,-0.91552734375,0.030517578125,-5.706787109375
3.4474999000000004,0.6607996821403503,0.19812019169330597,9.787496566772461,-0.030517578125,2.01416015625,2.532958984375
3.4524999000000003,0.6045359373092651,0.12629413604736328,9.70429801940918,2.50244140625,-2.593994140625,3.936767578125
3.4574999,0.5781996846199036,0.05746084079146385,9.847352027893066,-1.861572265625,-3.5400390625,-5.889892578125
3.4624999,0.5913678407669067,0.008978256024420261,9.696516990661621,-0.54931640625,-0.18310546875,-2.655029296875
3.4674999,0.5776011347770691,0.14365209639072418,9.765948295593262,0.18310546875,2.44140625,0.244140625
3.4724999000000003,0.6254851818084717,0.055665191262960434,9.82759952545166,-1.739501953125,3.5400390625,2.655029296875
3.4774999,0.579995334148407,0.1388636976480484,9.838972091674805,1.953125,-1.77001953125,0.823974609375
3.4824999,0.5339069962501526,0.11312603205442429,9.9000244140625,0.244140625,-1.190185546875,-2.288818359375
3.4874999,0.4752490520477295,0.050876785069704056,9.909601211547852,-0.457763671875,-2.899169921875,-2.593994140625
3.4924999000000003,0.4884171485900879,0.026336219161748886,9.75936508178711,-0.06103515625,-2.0751953125,-3.753662109375
3.4974999,0.4926069974899292,0.06763619929552078,9.852140426635742,-1.556396484375,2.01416015625,-1.922607421875
3.5024999,0.619499683380127,0.06404489278793335,9.7605619430542,-0.152587890625,3.814697265625,5.096435546875
3.5074999,0.5315127968788147,0.16220717132091522,9.794678688049316,1.861572265625,-2.5634765625,1.495361328125
3.5124999000000003,0.6458359360694885,0.09636662155389786,9.803058624267578,-0.701904296875,-1.861572265625,-3.41796875
3.5174999000000002,0.6212953329086304,0.1173158809542656,9.727043151855469,0.6103515625,-0.30517578125,-3.265380859375
3.5224999,0.6590040326118469,0.17238251864910126,9.885659217834473,-2.0751953125,3.84521484375,0.244140625
3.5274999,0.667982280254364,0.14185644686222076,9.749189376831055,1.5869140625,2.227783203125,5.096435546875
3.5324999000000004,0.4794389009475708,0.16759411990642548,9.804854393005371,-0.244140625,0.823974609375,-2.777099609375
3.5374999000000003,0.5237316489219666,0.15502455830574036,9.834183692932129,-1.373291015625,3.662109375,4.302978515625
3.5424999,0.48063600063323975,0.1951274424791336,9.723451614379883,2.593994140625,-1.922607421875,2.8076171875
3.5474999,0.49978959560394287,0.14484919607639313,9.821015357971191,-1.129150390625,-3.570556640625,-4.730224609375
3.5524999000000004,0.5530605912208557,0.12509703636169434,9.701305389404297,-0.79345703125,0.67138671875,-2.777099609375
3.5574999000000003,0.5386953949928284,0.10773907601833344,9.761159896850586,-0.54931640625,2.960205078125,1.52587890625
3.5624999,0.6051344871520996,0.1173158809542656,9.750386238098145,1.64794921875,1.46484375,5.2490234375
3.5674999,0.5446808934211731,0.12868833541870117,9.75936508178711,1.129150390625,-5.126953125,-3.90625
3.5724999000000004,0.6356605291366577,0.12868833541870117,9.822811126708984,-3.326416015625,0.67138671875,-5.340576171875
3.5774999000000003,0.5931634902954102,0.11611878126859665,9.734225273132324,0.457763671875,3.60107421875,1.861572265625
3.5824999,0.596754789352417,0.0975637212395668,9.767744064331055,-2.410888671875,4.974365234375,2.960205078125
3.5874999,0.48722004890441895,0.2148796021938324,9.700108528137207,2.685546875,0.67138671875,5.79833984375
3.5924999,0.5476736426353455,0.10594342648983002,9.77253246307373,1.251220703125,-2.9296875,-1.77001953125
3.5974999000000003,0.4692635238170624,0.18136078119277954,9.774927139282227,-1.251220703125,-2.38037109375,-7.598876953125
3.6024999,0.5704185366630554,0.13048399984836578,9.838972091674805,4.241943359375,0.67138671875,7.99560546875
3.6074999,0.5979518890380859,0.13826514780521393,9.882067680358887,0.3662109375,-4.82177734375,-3.387451171875
3.6124999,0.641047477722168,0.11611878126859665,9.797672271728516,-2.99072265625,0.152587890625,-5.706787109375
3.6174999000000003,0.641047477722168,0.11611878126859665,9.797672271728516,-2.99072265625,0.152587890625,-5.706787109375
3.6224999,0.5614402890205383,0.09816227108240128,9.786299705505371,-1.0986328125,4.08935546875,2.288818359375
3.6274999,0.5440823435783386,0.12749123573303223,9.722254753112793,1.15966796875,4.33349609375,6.591796875
3.6324999,0.5883750915527344,0.1454477459192276,9.82759952545166,3.265380859375,-1.861572265625,1.556396484375
3.6374999000000003,0.6027402877807617,0.08379705995321274,9.68155288696289,-0.18310546875,-3.631591796875,-7.476806640625
3.6424999000000002,0.585382342338562,0.14784196019172668,9.880870819091797,-4.638671875,4.5166015625,-1.5869140625
3.6474999,0.6141127347946167,0.19931729137897491,9.694122314453125,3.72314453125,3.509521484375,9.185791015625
3.6524999,0.5404910445213318,0.24660277366638184,9.696516990661621,3.814697265625,-4.974365234375,-4.852294921875
3.6574999000000004,0.596754789352417,0.2513911724090576,9.764751434326172,-5.37109375,-0.213623046875,-5.767822265625
3.6624999000000003,0.5015852451324463,0.060453593730926514,9.801861763000488,-1.373291015625,3.662109375,5.279541015625
3.6674999,0.5925649404525757,0.018555063754320145,9.928754806518555,4.57763671875,-0.823974609375,2.410888671875
3.6724999,0.4800374507904053,-0.038307227194309235,9.732429504394531,1.89208984375,-5.4931640625,-8.026123046875
3.6774999000000004,0.5297171473503113,0.16639702022075653,9.787496566772461,3.96728515625,-4.852294921875,-4.241943359375
3.6824999000000003,0.5931634902954102,0.0802057534456253,9.816825866699219,-5.18798828125,-0.152587890625,-4.852294921875
3.6874999,0.5931634902954102,0.0802057534456253,9.816825866699219,-5.18798828125,-0.152587890625,-4.852294921875
3.6924999,0.5560533404350281,0.13048399984836578,9.812037467956543,-0.885009765625,3.84521484375,6.011962890625
3.6974999000000004,0.639850378036499,0.050876785069704056,9.746794700622559,4.730224609375,-2.01416015625,1.251220703125
3.7024999000000003,0.6506243348121643,0.08738835901021957,9.77791976928711,-1.312255859375,-4.45556640625,-11.04736328125
3.7074999,0.7146692276000977,0.18136078119277954,9.909601211547852,-4.8828125,6.195068359375,3.143310546875
3.7124999,0.702099621295929,0.12330138683319092,9.738415718078613,7.110595703125,1.922607421875,10.498046875
3.7174999,0.6326677799224854,0.272938996553421,9.819219589233398,-0.335693359375,-5.523681640625,-8.880615234375
3.7224999000000003,0.6099228858947754,0.22685061395168304,9.852140426635742,-6.500244140625,1.922607421875,-2.960205078125
3.7274999,0.47225627303123474,0.2124854028224945,9.79527759552002,3.814697265625,3.41796875,7.4462890625
3.7324999,0.535702645778656,0.09457096457481384,9.773730278015137,2.8076171875,-3.60107421875,-3.5400390625
3.7374999,0.569819986820221,0.05027823522686958,9.920374870300293,0.762939453125,5.035400390625,9.613037109375
3.7424999000000003,0.5434837937355042,0.1388636976480484,9.583391189575195,6.591796875,-3.96728515625,-0.67138671875
3.7474999,0.5931634902954102,0.16160862147808075,9.883264541625977,-7.50732421875,-2.74658203125,-8.880615234375
3.7524999,0.619499683380127,0.12449848651885986,9.644442558288574,-0.823974609375,3.936767578125,7.9345703125
3.7574999,0.5590460896492004,0.09157821536064148,9.71926212310791,5.401611328125,-1.8310546875,0.030517578125
3.7624999000000003,0.6494272351264954,0.05147533491253853,9.711481094360352,5.523681640625,-0.579833984375,2.349853515625
3.7674999000000002,0.5488707423210144,0.1364694982767105,9.883264541625977,-3.936767578125,-3.143310546875,-9.3994140625
3.7724999,0.6111199855804443,0.11432313174009323,9.862914085388184,-3.387451171875,5.43212890625,6.195068359375
3.7774999,0.5321113467216492,0.13766659796237946,9.580398559570312,8.4228515625,-1.28173828125,2.838134765625
3.7824999000000004,0.5339069962501526,0.17477671802043915,9.860519409179688,-4.94384765625,-2.25830078125,-8.087158203125
3.7874999000000003,0.5542576909065247,0.21847090125083923,9.931747436523438,-4.608154296875,-1.739501953125,-6.988525390625
3.7924999,0.6506243348121643,0.14006079733371735,9.86231517791748,-0.274658203125,4.119873046875,8.270263671875
3.7974999,0.5374982953071594,0.12928688526153564,9.725247383117676,6.40869140625,-3.875732421875,-2.99072265625
3.8024999000000004,0.5285200476646423,0.05925649031996727,9.93474006652832,-6.65283203125,0,-4.69970703125
3.8074999000000003,0.5231330990791321,-0.035913024097681046,9.700108528137207,2.0751953125,2.5634765625,7.38525390625
3.8124999,0.48961424827575684,-0.0005985504249110818,9.7605619430542,1.77001953125,-2.777099609375,-5.279541015625
3.8174999,0.5171475410461426,-0.009576806798577309,9.82640266418457,-3.204345703125,1.89208984375,0.457763671875
3.8224999000000004,0.5416881442070007,0.07721300423145294,9.6618013381958,2.899169921875,-0.06103515625,1.983642578125
3.8274999000000003,0.5309142470359802,0.19692309200763702,9.873687744140625,-2.5634765625,2.685546875,2.655029296875
3.8324999,0.6338648796081543,0.15023615956306458,9.686341285705566,5.096435546875,-0.54931640625,2.288818359375
3.8374999,0.5309142470359802,0.17537526786327362,9.930550575256348,-2.74658203125,-2.9296875,-8.148193359375
3.8424999,0.641047477722168,0.15921440720558167,9.967061996459961,-3.0517578125,4.69970703125,6.591796875
3.8474999000000003,0.6129156351089478,0.10893617570400238,9.697713851928711,6.866455078125,-3.265380859375,-0.9765625
3.8524999,0.6308721303939819,0.21787235140800476,10.067618370056152,-5.2490234375,-0.54931640625,-4.547119140625
3.8574999,0.669179379940033,0.09696517139673233,9.699509620666504,1.495361328125,1.708984375,6.317138671875
3.8624999,0.5907692909240723,0.19931729137897491,9.755773544311523,1.007080078125,-3.326416015625,-6.53076171875
3.8674999000000003,0.558447539806366,0.08499415963888168,9.807847023010254,-2.471923828125,2.777099609375,3.0517578125
3.8724999,0.5207388401031494,0.16340427100658417,9.563039779663086,3.082275390625,-2.0751953125,0.3662109375
3.8774999,0.5303156971931458,0.12449848651885986,9.782109260559082,-2.227783203125,-0.54931640625,-4.547119140625
3.8824999,0.5315127968788147,0.11432313174009323,9.753378868103027,-0.396728515625,2.471923828125,5.096435546875
3.8874999000000003,0.5925649404525757,0.14185644686222076,10.005369186401367,-2.960205078125,0.732421875,-3.173828125
3.8924999000000002,0.657806932926178,0.0736217051744461,9.823410034179688,2.410888671875,2.899169921875,6.9580078125
3.8974999,0.5746083855628967,0.16759411990642548,9.831191062927246,1.373291015625,-4.241943359375,-6.927490234375
3.9024999,0.5398924946784973,0.14185644686222076,9.970054626464844,-4.913330078125,4.180908203125,2.86865234375
3.9074999000000004,0.5267243981361389,0.05925649031996727,9.57860279083252,5.67626953125,-1.617431640625,1.28173828125
3.9124999000000003,0.44352585077285767,0.10953472554683685,9.910798072814941,-3.509521484375,-1.15966796875,-5.828857421875
3.9174999,0.5315127968788147,0.008978256024420261,9.637859344482422,1.28173828125,2.62451171875,7.32421875
3.9224999,0.5333084464073181,0.09576806426048279,9.75637149810791,0.54931640625,-5.096435546875,-7.904052734375
3.9274999000000004,0.910993754863739,0.24001872539520264,9.86231517791748,-2.532958984375,3.875732421875,6.04248046875
3.9324999000000003,1.5753847360610962,0.47644615173339844,9.63067626953125,4.33349609375,-3.570556640625,13.97705078125
3.9374999,2.765901565551758,1.0307037830352783,9.744999885559082,-3.60107421875,-4.08935546875,34.11865234375
3.9424999,4.365826606750488,1.810615062713623,9.513958930969238,5.7373046875,4.913330078125,77.63671875
3.9474999000000004,7.683591842651367,4.352658748626709,9.388861656188965,6.378173828125,12.451171875,125.732421875
3.9524999000000003,8.87291145324707,6.036979675292969,9.694721221923828,15.68603515625,38.421630859375,141.265869140625
3.9574999,9.332598686218262,7.339425086975098,10.284892082214355,-8.85009765625,66.864013671875,138.7939453125
3.9624999,8.972270965576172,8.73344898223877,11.350910186767578,-38.238525390625,89.90478515625,131.16455078125
3.9674999000000004,7.978078842163086,9.68694019317627,12.445658683776855,-65.460205078125,96.74072265625,88.653564453125
3.9724999000000003,6.3518171310424805,9.713275909423828,13.548787117004395,-95.3369140625,119.140625,52.3681640625
3.9774999,4.811148166656494,9.818621635437012,13.67807388305664,-76.47705078125,110.260009765625,16.937255859375
3.9824999,3.377619981765747,8.648454666137695,13.44643497467041,-90.118408203125,126.77001953125,-42.083740234375
3.9874999,2.428318977355957,7.434594631195068,12.734758377075195,-58.77685546875,162.506103515625,-89.05029296875
3.9924999000000003,1.8339585065841675,5.770026206970215,11.484387397766113,-41.900634765625,221.435546875,-148.345947265625
3.9974999,1.370081901550293,3.465008497238159,10.745776176452637,-50.78125,266.17431640625,-201.995849609375
4.0024999,-0.16639702022075653,-1.920149803161621,9.893440246582031,-48.065185546875,387.725830078125,-305.60302734375
4.0074999,-1.3605051040649414,-4.183269023895264,10.202292442321777,-13.458251953125,411.43798828125,-324.249267578125
4.0124999,-2.913144826889038,-5.882553577423096,10.595540046691895,-26.611328125,423.27880859375,-343.505859375
4.0174999,-4.217386245727539,-6.30094051361084,10.669161796569824,-24.71923828125,416.473388671875,-337.310791015625
4.022499900000001,-5.473145008087158,-6.45357084274292,9.79527759552002,-19.622802734375,400.32958984375,-343.20068359375
4.0274999000000005,-6.353612899780273,-6.089652061462402,8.55029296875,-57.281494140625,380.615234375,-347.22900390625
4.0324999,-7.0988078117370605,-5.210381507873535,7.061099529266357,-47.18017578125,366.5771484375,-347.5341796875
4.0374999,-7.736862659454346,-4.833893299102783,5.998073577880859,-87.646484375,352.386474609375,-354.248046875
4.0424999,-8.055890083312988,-3.97916316986084,5.681440830230713,-85.75439453125,334.716796875,-342.529296875
4.0474999,-8.304288864135742,-4.059967517852783,5.504269599914551,-104.522705078125,324.70703125,-343.963623046875
4.0524999,-7.88350772857666,-3.4781765937805176,5.495291233062744,-107.574462890625,285.308837890625,-330.01708984375
4.0574999,-7.270592212677002,-3.5476083755493164,5.194220542907715,-77.2705078125,240.05126953125,-325.653076171875
4.062499900000001,-4.446630954742432,-3.536235809326172,4.2963948249816895,-44.891357421875,72.662353515625,-258.72802734375
4.0674999000000005,-4.413711071014404,-4.3406877517700195,5.000888824462891,-50.9033203125,38.970947265625,-221.405029296875
4.0724999,-4.565144062042236,-5.295375823974609,5.593453884124756,-41.56494140625,11.41357421875,-200.469970703125
4.0774999,-4.186860084533691,-6.053739070892334,5.678447723388672,-51.57470703125,-22.94921875,-157.71484375
4.0824999,-3.912724018096924,-6.543353080749512,5.598840713500977,-22.03369140625,-51.513671875,-124.420166015625
4.0874999,-3.2800562381744385,-6.9731125831604,5.2247467041015625,-32.073974609375,-64.056396484375,-98.052978515625
4.0924999,-2.9466638565063477,-7.1041951179504395,5.011662483215332,6.195068359375,-85.784912109375,-72.479248046875
4.0974999,-2.4803929328918457,-7.44297456741333,4.994903087615967,4.058837890625,-87.21923828125,-58.04443359375
4.1024999,-2.145803213119507,-7.580042362213135,5.098452568054199,37.65869140625,-104.461669921875,-27.4658203125
4.1074999000000005,-1.3664906024932861,-7.884106159210205,5.497087001800537,64.483642578125,-121.429443359375,32.65380859375
4.1124999,-1.1797429323196411,-7.906851291656494,5.733514308929443,75.50048828125,-125.274658203125,47.760009765625
4.1174999,-1.0797849893569946,-7.5201873779296875,5.78798246383667,88.043212890625,-135.986328125,77.056884765625
4.1224999,-1.30543851852417,-7.1676411628723145,5.971138954162598,110.7177734375,-149.505615234375,88.92822265625
4.1274999,-1.488594889640808,-6.476315498352051,5.86040735244751,108.673095703125,-161.041259765625,111.419677734375
4.1324999,-1.9620482921600342,-5.957372188568115,5.9088897705078125,133.026123046875,-184.6923828125,126.190185546875
4.1374999,-2.3104045391082764,-5.238513469696045,5.728127479553223,126.068115234375,-201.7822265625,143.06640625
4.1424999,-2.8203697204589844,-4.735132217407227,5.738901615142822,147.308349609375,-225.5859375,155.670166015625
4.147499900000001,-3.1717185974121094,-4.163516521453857,5.614402770996094,147.705078125,-244.7509765625,157.684326171875
4.1524999000000005,-3.551798105239868,-3.710414171218872,5.527613162994385,165.924072265625,-264.892578125,164.031982421875
4.1574999,-3.644573450088501,-3.2956185340881348,5.40790319442749,177.490234375,-278.50341796875,153.6865234375
4.1624999,-3.6505589485168457,-2.671929121017456,5.246892929077148,192.047119140625,-298.828125,153.9306640625
4.1674999,-3.136404275894165,-1.7082629203796387,5.10264253616333,213.409423828125,-333.343505859375,146.3623046875
4.1724999,-2.73537540435791,-1.5322890281677246,5.2229509353637695,234.954833984375,-344.024658203125,128.41796875
4.1774999,-2.3523032665252686,-0.9744400978088379,5.304353713989258,238.037109375,-360.77880859375,131.195068359375
4.1824999,-1.8668787479400635,-0.8361749649047852,5.505466938018799,249.053955078125,-375.335693359375,120.9716796875
4.187499900000001,-1.3706804513931274,-0.17896658182144165,5.632957935333252,251.739501953125,-391.815185546875,121.063232421875
4.1924999000000005,-0.6302735805511475,0.45908817648887634,6.394314289093018,264.617919921875,-408.294677734375,111.81640625
4.1974999,0.3555389642715454,2.3133974075317383,7.375338554382324,106.5673828125,-296.722412109375,113.6474609375
4.2024999,2.0452468395233154,3.0813376903533936,8.130708694458008,-198.73046875,-105.65185546875,63.53759765625
4.2074999,4.019266128540039,4.466383457183838,9.221267700195312,39.85595703125,-252.655029296875,76.873779296875
4.2124999,5.018845081329346,4.834491729736328,9.090185165405273,109.649658203125,-216.705322265625,130.767822265625
4.2174999,5.984307289123535,4.479551315307617,8.555081367492676,14.373779296875,-67.779541015625,72.20458984375
4.2224999,5.585073947906494,4.401141166687012,8.051101684570312,78.55224609375,-42.266845703125,11.688232421875
4.2274999,3.90554141998291,2.1703438758850098,10.346542358398438,4.82177734375,26.85546875,-31.43310546875
4.2324999000000005,3.73555326461792,1.3934253454208374,10.664372444152832,5.7373046875,32.5927734375,-20.538330078125
4.2374999,3.09689998626709,0.5476736426353455,10.690110206604004,-3.753662109375,36.0107421875,-16.11328125
4.2424999,1.4742296934127808,-1.0420763492584229,9.94970417022705,0.579833984375,45.867919921875,1.8310546875
4.2474999,0.8774749040603638,-1.3766659498214722,9.771934509277344,6.439208984375,38.39111328125,13.336181640625
4.2524999,-0.9205705523490906,0.0454898327589035,9.838972091674805,0.732421875,2.227783203125,12.725830078125
4.2574999,-0.9205705523490906,0.0454898327589035,9.838972091674805,0.732421875,2.227783203125,12.725830078125
4.2624999,-1.1504138708114624,0.3776853084564209,9.946112632751465,-2.166748046875,-4.241943359375,3.265380859375
4.2674999,-0.8559271097183228,0.6326677799224854,9.666589736938477,-2.44140625,-7.354736328125,10.6201171875
4.272499900000001,-0.6865373253822327,0.6015431880950928,9.915586471557617,-3.204345703125,-14.22119140625,1.129150390625
4.2774999000000005,-0.14844051003456116,0.5039794445037842,9.695320129394531,-0.091552734375,-8.36181640625,9.429931640625
4.2824999,0.20889410376548767,0.29209262132644653,9.992799758911133,-1.708984375,-10.55908203125,-2.0751953125
4.2874999,0.7559691667556763,0.1173158809542656,9.695320129394531,-0.396728515625,-5.79833984375,4.180908203125
4.2924999,0.9696516990661621,0.023343466222286224,9.9772367477417,-2.01416015625,-6.439208984375,-2.471923828125
4.2974999,1.2838906049728394,-0.03770867735147476,9.625887870788574,2.0751953125,1.03759765625,5.859375
4.3024999,1.2431892156600952,-0.004189853090792894,9.922170639038086,-1.3427734375,-2.593994140625,-2.86865234375
4.3074999,1.092953085899353,0.06404489278793335,9.94970417022705,-1.434326171875,2.44140625,-3.997802734375
4.312499900000001,1.0181342363357544,0.08140286058187485,9.525930404663086,2.593994140625,8.026123046875,3.265380859375
4.3174999000000005,0.7912836670875549,0.08319851011037827,10.023923873901367,-1.8310546875,2.532958984375,-4.08935546875
4.3224999,0.6560112833976746,0.1041477769613266,9.534908294677734,3.265380859375,6.072998046875,3.11279296875
4.3274999,0.48722004890441895,0.12210428714752197,10.047266960144043,-2.838134765625,-1.312255859375,-3.60107421875
4.3324999,0.3866635859012604,0.13168109953403473,9.530718803405762,3.204345703125,2.50244140625,2.99072265625
4.3374999,0.32022446393966675,0.1562216579914093,10.005967140197754,-3.7841796875,-4.0283203125,-4.608154296875
4.3424999,0.34656068682670593,0.08319851011037827,9.557653427124023,2.655029296875,0.244140625,0.91552734375
4.3474999,0.3944447338581085,0.1041477769613266,10.013150215148926,-4.486083984375,-4.730224609375,-4.302978515625
4.352499900000001,0.48602294921875,0.035913024097681046,9.685144424438477,3.41796875,-0.030517578125,2.44140625
4.3574999000000005,0.6123170852661133,0.04489128291606903,10.074800491333008,-4.150390625,-3.662109375,-1.495361328125
4.3624999,0.7200561761856079,0.03411737456917763,9.704896926879883,4.425048828125,1.3427734375,2.86865234375
4.3674999,0.8589198589324951,0.018555063754320145,9.65222454071045,4.913330078125,4.0283203125,1.678466796875
4.3724999,1.0414776802062988,0.05506663769483566,9.982025146484375,-3.662109375,1.28173828125,0.823974609375
4.3774999,0.800261914730072,0.07182604819536209,9.610325813293457,4.33349609375,4.2724609375,0.213623046875
4.3824999,0.9163807034492493,0.12749123573303223,9.87967300415039,-3.265380859375,1.64794921875,2.25830078125
4.3874999,0.6135141849517822,0.15263035893440247,9.597756385803223,3.631591796875,1.77001953125,-0.42724609375
4.3924999,0.6937199234962463,0.1711854189634323,9.812037467956543,-2.777099609375,0,3.021240234375
4.397499900000001,0.3884592354297638,0.17717093229293823,9.661202430725098,2.62451171875,-0.274658203125,-1.3427734375
4.4024999000000005,0.5590460896492004,0.15682020783424377,9.68813705444336,-1.953125,0,3.753662109375
4.4074999,0.2998737692832947,0.15562310814857483,9.695320129394531,0.9765625,-2.01416015625,-2.655029296875
4.4124999,0.5464765429496765,0.10115502029657364,9.537900924682617,-0.30517578125,0.762939453125,3.326416015625
4.4174999,0.4315548539161682,0.06404489278793335,9.84376049041748,-0.3662109375,-2.01416015625,-3.753662109375
4.4224999,0.6769605278968811,0.02992752194404602,9.495404243469238,0.885009765625,2.0751953125,3.0517578125
4.4274999,0.656609833240509,0.008379706181585789,9.944316864013672,-1.708984375,-2.166748046875,-3.90625
4.4324999,0.74040687084198,-0.008379706181585789,9.387065887451172,2.288818359375,2.716064453125,2.410888671875
4.437499900000001,0.718859076499939,0.04908113554120064,9.850942611694336,-2.899169921875,-1.800537109375,-3.692626953125
4.4424999000000005,0.6542156338691711,0.040701430290937424,9.419986724853516,2.86865234375,2.3193359375,1.0986328125
4.4474999,0.6518214344978333,0.08858546614646912,9.84256362915039,-3.5400390625,-1.922607421875,-2.685546875
4.4524999,0.5602431893348694,0.053270988166332245,9.593565940856934,3.692626953125,1.220703125,-0.06103515625
4.4574999,0.6847416758537292,0.06763619929552078,9.880271911621094,-3.72314453125,-1.40380859375,-1.129150390625
4.4624999,0.558447539806366,0.058059390634298325,9.62947940826416,3.35693359375,0.42724609375,-1.708984375
4.4674999,0.7882909178733826,0.04967968538403511,9.79647445678711,-3.143310546875,-0.579833984375,-0.030517578125
4.4724999,0.5500678420066833,0.12389993667602539,9.57321548461914,2.166748046875,-0.152587890625,-2.8076171875
4.477499900000001,0.7823054194450378,0.10354922711849213,9.588179588317871,-1.64794921875,1.007080078125,1.77001953125
4.4824999000000005,0.7284358739852905,0.10893617570400238,9.314043045043945,2.197265625,2.899169921875,2.960205078125
4.4874999,0.7134721279144287,0.07481880486011505,9.786299705505371,-2.74658203125,-1.89208984375,-2.74658203125
4.4924999,0.6685808300971985,0.06883329898118973,9.379284858703613,3.47900390625,2.777099609375,2.13623046875
4.4974999,0.6997054219245911,0.04189852997660637,9.825803756713867,-3.448486328125,-1.8310546875,-0.91552734375
4.5024999,0.6117185354232788,0.05626374110579491,9.59596061706543,3.60107421875,2.044677734375,0.54931640625
4.5074999,0.7751228213310242,0.0802057534456253,9.90361499786377,-3.387451171875,-0.701904296875,1.007080078125
4.5124999,0.578798234462738,0.06524199992418289,9.587580680847168,2.777099609375,0.701904296875,-1.3427734375
4.5174999,0.7966706156730652,0.07302315533161163,9.677363395690918,-1.922607421875,0.823974609375,2.593994140625
4.522499900000001,0.5440823435783386,0.12210428714752197,9.665990829467773,0.79345703125,-0.91552734375,-2.593994140625
4.5274999000000005,0.7320271730422974,0.10354922711849213,9.388263702392578,0.274658203125,1.556396484375,3.021240234375
4.5324999,0.5949591398239136,0.10175357013940811,9.793481826782227,-1.03759765625,-1.922607421875,-3.082275390625
4.5374999,0.6596025824546814,0.061052143573760986,9.797672271728516,-3.0517578125,-1.617431640625,-2.01416015625
4.5424999,0.6129156351089478,-0.06643909960985184,9.443329811096191,3.23486328125,1.89208984375,1.190185546875
4.5474999,0.6769605278968811,0.0293289702385664,9.859322547912598,-3.326416015625,-1.64794921875,-0.701904296875
4.5524999,0.5225345492362976,0.047884032130241394,9.587580680847168,3.204345703125,0.54931640625,-1.434326171875
4.5574999,0.7110779285430908,0.10055647045373917,9.75278091430664,-2.38037109375,-0.42724609375,1.190185546875
4.562499900000001,0.6607996821403503,0.009576806798577309,9.385271072387695,2.01416015625,1.800537109375,1.953125
4.5674999000000005,0.690727174282074,0.053270988166332245,9.873088836669922,-3.0517578125,-1.983642578125,-2.74658203125
4.5724999,0.6440402865409851,-0.02513911761343479,9.511565208435059,3.41796875,1.678466796875,0.3662109375
4.5774999,0.7835025191307068,0.02513911761343479,9.890447616577148,-3.265380859375,-1.40380859375,-0.67138671875
4.5824999,0.8259995579719543,0.04249707981944084,9.737217903137207,-1.861572265625,0.640869140625,1.739501953125
4.5874999,0.6236895322799683,0.030526071786880493,9.758167266845703,0.91552734375,-0.640869140625,-2.74658203125
4.5924999,0.7535749673843384,0.0999579206109047,9.4636812210083,0.732421875,1.5869140625,2.838134765625
4.5974999,0.6338648796081543,0.0999579206109047,9.899425506591797,-1.739501953125,-1.495361328125,-2.5634765625
4.602499900000001,0.6739677786827087,0.1280897855758667,9.45410442352295,2.716064453125,2.197265625,1.922607421875
4.6074999000000005,0.629675030708313,0.16220717132091522,9.899425506591797,-3.173828125,-1.556396484375,-1.15966796875
4.6124999,0.5380968451499939,0.16220717132091522,9.59835433959961,3.2958984375,1.617431640625,0
4.6174999,0.6751648783683777,0.16220717132091522,9.812037467956543,-2.44140625,-0.152587890625,1.28173828125
4.6224999,0.47225627303123474,0.13287819921970367,9.712079048156738,1.77001953125,-0.274658203125,-2.25830078125
4.6274999,0.7056909799575806,0.1256955862045288,9.506776809692383,-0.457763671875,1.129150390625,2.685546875
4.6324999,0.5829881429672241,0.06404489278793335,9.81263542175293,-0.91552734375,-1.708984375,-2.44140625
4.6374999,0.679354727268219,0.033518824726343155,9.463082313537598,2.13623046875,1.922607421875,2.197265625
4.6424999,0.7912836670875549,0.07841010391712189,9.710283279418945,-0.67138671875,0.732421875,2.25830078125
4.647499900000001,0.6099228858947754,0.04189852997660637,9.916783332824707,-0.8544921875,-1.190185546875,-2.9296875
4.6524999000000005,0.6548141837120056,0.07302315533161163,9.416994094848633,1.89208984375,2.166748046875,1.89208984375
4.6574999,0.6715735793113708,0.008379706181585789,9.882665634155273,-2.86865234375,-1.434326171875,-1.89208984375
4.6624999,0.5758054852485657,-0.0071826050989329815,9.540295600891113,2.899169921875,1.0986328125,-0.30517578125
4.6674999,0.7463923692703247,-0.0065840547904372215,9.840168952941895,-2.38037109375,-0.823974609375,0.54931640625
4.6724999,0.5536591410636902,0.0065840547904372215,9.777320861816406,1.495361328125,-0.06103515625,-2.197265625
4.6774999,0.7541735172271729,0.07481880486011505,9.544485092163086,-0.244140625,1.251220703125,1.89208984375
4.6824999,0.6212953329086304,0.0999579206109047,9.855731010437012,-1.28173828125,-1.64794921875,-2.8076171875
4.687499900000001,0.7164648771286011,0.15263035893440247,9.865906715393066,-1.89208984375,-0.152587890625,1.251220703125
4.6924999000000005,0.5752069354057312,0.11671733111143112,9.90122127532959,0.9765625,-0.030517578125,-2.105712890625
4.6974999,0.7032967209815979,0.08619125932455063,9.585186958312988,0.6103515625,1.5869140625,2.38037109375
4.7024999,0.6536170840263367,0.08918401598930359,10.001777648925781,-1.983642578125,-1.5869140625,-2.349853515625
4.7074999,0.639850378036499,0.043095629662275314,9.549872398376465,2.716064453125,1.922607421875,1.28173828125
4.7124999,0.7541735172271729,0.016759412363171577,9.9185791015625,-2.5634765625,-0.946044921875,-0.030517578125
4.7174999,0.5770025849342346,0.07841010391712189,9.761159896850586,2.25830078125,0.213623046875,-1.434326171875
4.7224999,0.6272808313369751,0.17058686912059784,9.405022621154785,1.708984375,1.800537109375,1.678466796875
4.727499900000001,0.5524620413780212,0.09696517139673233,9.79647445678711,0.9765625,-0.396728515625,-2.349853515625
4.7324999000000005,0.6985083222389221,0.07062894850969315,9.61571216583252,0.67138671875,1.0986328125,2.0751953125
4.7374999,0.6596025824546814,0.14784196019172668,9.964667320251465,-1.77001953125,-1.40380859375,-2.3193359375
4.7424999,0.6392518281936646,0.06643909960985184,9.567230224609375,2.62451171875,1.8310546875,0.640869140625
4.7474999,0.7942764163017273,0.1280897855758667,9.911396026611328,-2.44140625,-0.579833984375,0.18310546875
4.7524999,0.6123170852661133,0.11911153793334961,9.783307075500488,1.678466796875,0.152587890625,-1.861572265625
4.7574999,0.7751228213310242,0.13287819921970367,9.599552154541016,-0.18310546875,0.946044921875,1.922607421875
4.7624999,0.6117185354232788,0.10175357013940811,9.848548889160156,-1.068115234375,-1.861572265625,-2.593994140625
4.7674999,0.6344634294509888,0.13287819921970367,9.406818389892578,2.197265625,1.434326171875,1.28173828125
4.772499900000001,0.67815762758255,0.0347159244120121,9.79527759552002,-2.532958984375,-0.885009765625,-0.732421875
4.7774999000000005,0.7116764783859253,0.08738835901021957,9.607931137084961,-1.007080078125,0.3662109375,1.861572265625
4.7824999,0.5764040350914001,0.09157821536064148,9.791088104248047,-0.274658203125,-1.0986328125,-2.38037109375
4.7874999,0.6763619780540466,0.1430535465478897,9.419387817382812,1.861572265625,1.495361328125,1.556396484375
4.7924999,0.6637924313545227,0.1346738487482071,9.832387924194336,-2.38037109375,-1.40380859375,-1.190185546875
4.7974999,0.619499683380127,0.07062894850969315,9.57201862335205,2.3193359375,0.8544921875,-0.48828125
4.8024999,0.6236895322799683,0.07541735470294952,9.740211486816406,0,-0.91552734375,-2.410888671875
4.8074999,0.7080851793289185,0.06584054976701736,9.44991397857666,1.556396484375,1.3427734375,1.861572265625
4.812499900000001,0.6584054827690125,0.11432313174009323,9.840168952941895,-2.01416015625,-1.64794921875,-1.373291015625
4.8174999000000005,0.5704185366630554,0.040701430290937424,9.497797966003418,2.410888671875,0.67138671875,-0.42724609375
4.8224999,0.6949170231819153,0.1280897855758667,9.724648475646973,-1.373291015625,-0.244140625,1.251220703125
4.8274999,0.5835866928100586,0.10474632680416107,9.716867446899414,0.274658203125,-0.8544921875,-2.25830078125
4.8324999,0.6625953316688538,0.11611878126859665,9.836577415466309,-1.983642578125,-1.007080078125,-1.434326171875
4.8374999,0.5746083855628967,-0.008379706181585789,9.4822359085083,2.38037109375,1.03759765625,-0.30517578125
4.8424999,0.7032967209815979,0.10953472554683685,9.716269493103027,-1.434326171875,0.030517578125,0.946044921875
4.8474999,0.16101007163524628,0.08559270948171616,9.245209693908691,-4.730224609375,-3.143310546875,1.64794921875
4.852499900000001,-0.7864952683448792,0.4010287821292877,8.201936721801758,-40.252685546875,-20.751953125,47.91259765625
4.8574999000000005,-3.4829649925231934,0.18974047899246216,7.635707855224609,-100.830078125,-69.305419921875,143.157958984375
4.8624999,-6.40927791595459,0.6715735793113708,7.920019149780273,-108.2763671875,-122.55859375,367.156982421875
4.8674999,-5.983708381652832,0.6757634282112122,8.308478355407715,-32.684326171875,-257.14111328125,496.856689453125
4.8724999,-5.983708381652832,0.6757634282112122,8.308478355407715,-32.684326171875,-257.14111328125,496.856689453125
4.8774999,-4.444236755371094,-1.3413515090942383,8.398859977722168,9.246826171875,-199.0966796875,60.516357421875
4.8824999,6.798934459686279,-4.463390350341797,6.613383769989014,-5.859375,336.60888671875,-362.701416015625
4.8874999,6.798934459686279,-4.463390350341797,6.613383769989014,-5.859375,336.60888671875,-362.701416015625
4.8924999,10.590152740478516,-0.6554127335548401,6.889914035797119,57.861328125,78.338623046875,-157.2265625
4.897499900000001,8.372523307800293,3.292027235031128,8.310274124145508,19.22607421875,-0.030517578125,47.210693359375
4.9024999000000005,4.449624061584473,5.618592739105225,9.090784072875977,-5.950927734375,-38.9404296875,99.30419921875
4.9074999,0.5704185366630554,5.895721912384033,9.739013671875,-5.828857421875,-61.82861328125,76.23291015625
4.9124999,-2.0464439392089844,4.424484729766846,10.129268646240234,-3.082275390625,-49.285888671875,47.7294921875
4.9174999,-3.1298201084136963,2.1733365058898926,10.270526885986328,0.91552734375,-36.43798828125,25.390625
4.9224999,-2.9706058502197266,0.15322890877723694,10.220847129821777,2.685546875,-26.123046875,9.674072265625
4.9274999,-1.9027918577194214,-1.1857284307479858,10.071209907531738,2.9296875,-18.798828125,-1.861572265625
4.9324999,-0.6177040338516235,-1.5520412921905518,9.9000244140625,5.767822265625,-10.25390625,-2.777099609375
4.937499900000001,0.70090252161026,-1.4173674583435059,9.845556259155273,9.552001953125,-4.852294921875,-3.570556640625
4.9424999000000005,1.723825216293335,-0.7152677774429321,9.819818496704102,13.97705078125,-3.082275390625,-3.204345703125
4.9474999,2.3499090671539307,-0.1256955862045288,9.848548889160156,16.326904296875,-5.767822265625,-1.007080078125
4.9524999,2.4343044757843018,0.41718965768814087,9.751583099365234,17.578125,-4.69970703125,2.532958984375
4.9574999,2.032677173614502,0.11432313174009323,9.510966300964355,15.2587890625,2.8076171875,-0.91552734375
4.9624999,1.5017629861831665,-0.26755204796791077,9.243413925170898,6.40869140625,14.58740234375,-3.5400390625
4.9674999,1.0181342363357544,-0.5410895943641663,9.122507095336914,0.6103515625,28.99169921875,-3.7841796875
4.9724999,0.5823895931243896,-0.6266822814941406,9.131484985351562,1.556396484375,30.3955078125,-1.220703125
4.977499900000001,0.3124433159828186,-0.5315127968788147,9.382277488708496,5.18798828125,25.421142578125,0.823974609375
4.9824999000000005,0.02454056777060032,-0.33997663855552673,9.815030097961426,4.638671875,14.16015625,2.899169921875
4.9874999,-0.1711854189634323,-0.10175357013940811,10.080187797546387,3.387451171875,3.448486328125,5.340576171875
4.9924999,-0.42616790533065796,0.11432313174009323,10.196905136108398,1.77001953125,-4.791259765625,6.378173828125
4.9974999,-0.5267243981361389,0.31842881441116333,10.141240119934082,-1.708984375,-9.033203125,4.08935546875
5.0024999,-0.5027823448181152,0.3908534348011017,9.999382972717285,-3.41796875,-8.11767578125,0.244140625
5.0074999,0.5003881454467773,0.09696517139673233,9.716269493103027,-0.244140625,-6.9580078125,-1.739501953125
5.0124999,0.5003881454467773,0.09696517139673233,9.716269493103027,-0.244140625,-6.9580078125,-1.739501953125
5.0174999,0.8978256583213806,-0.05147533491253853,9.674968719482422,-1.190185546875,-1.678466796875,-0.274658203125
5.022499900000001,1.1659762859344482,-0.08140286058187485,9.59835433959961,0.518798828125,-0.640869140625,-0.518798828125
5.0274999000000005,1.335964560508728,-0.09876082092523575,9.625288963317871,0.8544921875,1.5869140625,-1.373291015625
5.0324999,1.3425486087799072,-0.11013327538967133,9.73542308807373,-0.18310546875,6.439208984375,0.244140625
5.0374999,1.2563573122024536,-0.07242459803819656,9.695918083190918,1.251220703125,4.241943359375,0.030517578125
5.0424999,0.7966706156730652,0.02753331884741783,9.769539833068848,-0.091552734375,4.08935546875,0.30517578125
5.0474999,0.5847837924957275,0.0975637212395668,9.806650161743164,0.67138671875,-0.030517578125,0.8544921875
5.0524999,0.4411316514015198,0.14484919607639313,9.847352027893066,-0.18310546875,-3.326416015625,-1.8310546875
5.0574999,0.3357867896556854,0.14604631066322327,9.843161582946777,-1.0986328125,-0.091552734375,-0.6103515625
5.062499900000001,0.7589619159698486,0.02513911761343479,9.816226959228516,-0.030517578125,0.396728515625,-1.617431640625
5.0674999000000005,0.7757213711738586,-0.046088382601737976,9.870695114135742,-0.946044921875,2.471923828125,1.007080078125
5.0724999,0.7936778664588928,0.04728548228740692,9.856329917907715,1.3427734375,-2.105712890625,-1.007080078125
5.0774999,0.7380126714706421,0.05506663769483566,9.910199165344238,-0.732421875,0.213623046875,-1.953125
5.0824999,0.7416039705276489,0.03711012750864029,9.876082420349121,0.396728515625,0.91552734375,3.5400390625
5.0874999,0.727837324142456,-0.020350715145468712,9.832387924194336,0.152587890625,-4.82177734375,-2.44140625
5.0924999,0.7553706169128418,0.01496376097202301,9.832387924194336,-1.434326171875,1.46484375,-1.708984375
5.0974999,0.7721300721168518,-0.07242459803819656,9.668384552001953,1.77001953125,1.03759765625,2.74658203125
5.102499900000001,0.8170213103294373,0.004189853090792894,9.683947563171387,0.3662109375,-0.946044921875,-2.349853515625
5.1074999000000005,0.6416460275650024,0.10354922711849213,9.765350341796875,0.579833984375,3.082275390625,3.692626953125
5.1124999,0.5416881442070007,0.15562310814857483,9.783905029296875,0.1220703125,-3.082275390625,-2.3193359375
5.1174999,0.45429977774620056,0.061052143573760986,9.783905029296875,-1.64794921875,1.556396484375,-1.007080078125
5.1224999,0.42018240690231323,0.017956512048840523,9.781511306762695,1.5869140625,-1.64794921875,2.960205078125
5.1274999,0.44771572947502136,-0.005386953707784414,9.913790702819824,-0.823974609375,-2.74658203125,-2.044677734375
5.1324999,0.5674257874488831,-0.010175357572734356,9.844358444213867,-0.732421875,-0.213623046875,1.922607421875
5.1374999,0.6841431260108948,0.025737667456269264,9.849146842956543,0.885009765625,-3.96728515625,-1.708984375
5.1424999,0.8523358106613159,0.038307227194309235,9.82759952545166,-0.885009765625,1.495361328125,-0.823974609375
5.147499900000001,0.921169102191925,0.01496376097202301,9.692327499389648,1.922607421875,0.1220703125,2.471923828125
5.1524999000000005,0.9852139949798584,0.03292027488350868,9.771934509277344,-0.9765625,0.152587890625,-3.692626953125
5.1574999,0.8762778043746948,0.055665191262960434,9.694721221923828,1.739501953125,-0.06103515625,-1.190185546875
5.1624999,0.7829039692878723,0.08559270948171616,9.833584785461426,-0.732421875,3.41796875,-0.42724609375
5.1674999,0.6602011322975159,0.048482585698366165,9.727043151855469,1.434326171875,-0.396728515625,1.800537109375
5.1724999,0.5716156363487244,0.08559270948171616,9.852140426635742,-1.5869140625,-0.823974609375,-2.532958984375
5.1774999,0.5045779943466187,0.004189853090792894,9.803657531738281,0.396728515625,0.18310546875,2.25830078125
5.1824999,0.5021837949752808,0.043095629662275314,9.800664901733398,1.03759765625,-3.47900390625,-1.434326171875
5.187499900000001,0.5207388401031494,-0.053270988166332245,9.831789016723633,-1.007080078125,0.579833984375,0.518798828125
5.1924999000000005,0.6236895322799683,0.03770867735147476,9.758766174316406,1.373291015625,-2.197265625,-0.274658203125
5.1974999,0.6769605278968811,0.04249707981944084,9.838972091674805,-1.52587890625,1.251220703125,-1.983642578125
5.2024999,0.8032546639442444,0.01735796220600605,9.749788284301758,0.67138671875,1.15966796875,1.068115234375
5.2074999,0.7972691655158997,0.09696517139673233,9.815628051757812,0.67138671875,0.244140625,-2.227783203125
5.2124999,0.8259995579719543,0.03411737456917763,9.789292335510254,-0.823974609375,2.9296875,2.3193359375
5.2174999,0.6913257241249084,-0.002394201699644327,9.944915771484375,-1.800537109375,0.18310546875,-1.251220703125
5.2224999,0.619499683380127,-0.060453593730926514,9.776124000549316,1.89208984375,-1.739501953125,2.44140625
5.227499900000001,0.6218938827514648,-0.043095629662275314,9.943120002746582,-0.274658203125,-1.251220703125,-1.861572265625
5.2324999000000005,0.6883329749107361,-0.08619125932455063,9.771934509277344,-0.152587890625,1.0986328125,-0.213623046875
5.2374999,0.7320271730422974,0.08439560979604721,9.747393608093262,0.274658203125,0.3662109375,-2.044677734375
5.2424999,0.8242039084434509,0.09876082092523575,9.706692695617676,-1.251220703125,4.21142578125,-0.274658203125
