# Time (seconds),Accel_X,Accel_Y,Accel_Z,Gyro_X,Gyro_Y,Gyro_Z
0.0024999,0.9941922426223755,-0.36152446269989014,9.747992515563965,-2.62451171875,0.518798828125,1.922607421875
0.0074999,0.9941922426223755,-0.36152446269989014,9.747992515563965,-2.62451171875,0.518798828125,1.922607421875
0.012499900000000001,0.9726444482803345,-0.46806642413139343,9.724648475646973,-3.173828125,-0.701904296875,-2.227783203125
0.0174999,0.912190854549408,-0.44592007994651794,9.808445930480957,5.828857421875,-0.091552734375,-0.518798828125
0.0224999,0.9720458984375,-0.37229835987091064,9.761758804321289,-2.349853515625,0.48828125,2.25830078125
0.0274999,0.9528923034667969,-0.4812345504760742,9.724050521850586,-3.35693359375,-0.54931640625,-2.471923828125
0.0324999,0.882861852645874,-0.456095427274704,9.783905029296875,5.4931640625,-0.152587890625,-0.8544921875
0.0374999,0.9493009448051453,-0.38726213574409485,9.73781681060791,-1.617431640625,0.457763671875,2.349853515625
0.0424999,0.961870551109314,-0.4016273319721222,9.744999885559082,-1.0986328125,0.54931640625,2.471923828125
0.0474999,0.970848798751831,-0.49619829654693604,9.73661994934082,-4.364013671875,-0.48828125,-1.5869140625
0.0524999,0.9080010056495667,-0.45250412821769714,9.780313491821289,5.55419921875,-0.274658203125,-1.251220703125
0.0574999,0.9816226959228516,-0.39384618401527405,9.821614265441895,-0.762939453125,0.701904296875,2.166748046875
0.0624999,0.9900023937225342,-0.4578910768032074,9.791088104248047,-4.669189453125,-0.274658203125,-1.495361328125
0.0674999,0.9068039059638977,-0.4357447028160095,9.800065994262695,5.18798828125,-0.335693359375,-1.3427734375
0.0724999,0.9702502489089966,-0.3711012601852417,9.836577415466309,-0.1220703125,0.6103515625,2.288818359375
0.0774999,0.9792284965515137,-0.43754035234451294,9.75637149810791,-5.0048828125,-0.244140625,-1.40380859375
0.0824999,0.8888474106788635,-0.44412440061569214,9.758766174316406,4.608154296875,-0.30517578125,-1.77001953125
0.0874999,0.9666589498519897,-0.36810851097106934,9.816825866699219,0.42724609375,0.701904296875,2.3193359375
0.0924999,0.9959878921508789,-0.45250412821769714,9.755773544311523,-4.94384765625,-0.518798828125,-1.15966796875
0.0974999,0.9738415479660034,-0.38546648621559143,9.815628051757812,0.823974609375,0.6103515625,2.197265625
0.1024999,0.9941922426223755,-0.4638765752315521,9.741408348083496,-5.126953125,-0.3662109375,-0.8544921875
0.1074999,0.8756792545318604,-0.4728548228740692,9.750386238098145,4.547119140625,-0.67138671875,-2.0751953125
0.1124999,0.961870551109314,-0.38127660751342773,9.791686058044434,1.251220703125,0.67138671875,2.197265625
0.1174999,0.9846154451370239,-0.45848962664604187,9.702502250671387,-5.462646484375,0.030517578125,-0.732421875
0.1224999,0.8834604024887085,-0.45908817648887634,9.731831550598145,4.150390625,-0.6103515625,-2.166748046875
0.1274999,0.9762357473373413,-0.38307225704193115,9.765350341796875,2.01416015625,0.42724609375,2.288818359375
0.1324999,0.9911994934082031,-0.45190557837486267,9.707889556884766,-5.828857421875,-0.152587890625,-0.335693359375
0.1374999,0.9038111567497253,-0.47165772318840027,9.758167266845703,3.753662109375,-0.762939453125,-2.349853515625
0.1424999,0.9780313968658447,-0.3884592354297638,9.780912399291992,2.38037109375,0.48828125,1.89208984375
0.1474999,1.0019733905792236,-0.44532153010368347,9.739013671875,-5.9814453125,0.030517578125,-0.213623046875
0.1524999,0.9187749028205872,-0.4686649739742279,9.769539833068848,3.23486328125,-0.3662109375,-2.44140625
0.1574999,0.9774328470230103,-0.4076128304004669,9.786299705505371,-5.43212890625,-0.152587890625,0.213623046875
0.1624999,0.8912416100502014,-0.4465186297893524,9.773730278015137,2.197265625,-0.8544921875,-2.777099609375
0.1674999,0.9127894043922424,-0.35254621505737305,9.807249069213867,3.631591796875,0.457763671875,1.617431640625
0.1724999,0.982221245765686,-0.3818751573562622,9.776124000549316,-5.279541015625,0,0.579833984375
0.17749990000000002,0.8972271084785461,-0.44412440061569214,9.758766174316406,1.800537109375,-0.48828125,-2.74658203125
0.1824999,0.9265560507774353,-0.3513490855693817,9.803058624267578,3.90625,0.6103515625,1.312255859375
0.1874999,0.9864110946655273,-0.4010287821292877,9.732429504394531,-5.4931640625,0.091552734375,0.48828125
0.1924999,0.9253589510917664,-0.4704606235027313,9.720458984375,1.373291015625,-0.579833984375,-2.655029296875
0.1974999,0.9409212470054626,-0.37888240814208984,9.725247383117676,4.364013671875,0.1220703125,1.373291015625
0.2024999,0.9672574996948242,-0.45908817648887634,9.68694019317627,0.54931640625,-0.3662109375,-3.082275390625
0.20749990000000001,0.9510966539382935,-0.3603273630142212,9.712079048156738,4.638671875,0.335693359375,1.251220703125
0.2124999,1.027711033821106,-0.3818751573562622,9.708487510681152,-4.94384765625,0.152587890625,1.312255859375
0.2174999,0.9786299467086792,-0.45669397711753845,9.710882186889648,0.06103515625,-0.67138671875,-2.86865234375
0.2224999,0.9379284977912903,-0.36810851097106934,9.747393608093262,4.8828125,0.579833984375,0.91552734375
0.2274999,1.0241197347640991,-0.39624038338661194,9.782708168029785,-4.913330078125,0.18310546875,1.251220703125
0.2324999,0.9858125448226929,-0.46986207365989685,9.767744064331055,-0.152587890625,-0.79345703125,-2.685546875
0.2374999,0.9193734526634216,-0.3908534348011017,9.801262855529785,5.06591796875,0.42724609375,0.701904296875
0.2424999,0.9672574996948242,-0.4572925269603729,9.736021041870117,-0.640869140625,-0.732421875,-2.74658203125
0.2474999,0.8852560520172119,-0.36810851097106934,9.750985145568848,5.401611328125,0.1220703125,0.579833984375
0.2524999,0.9929951429367065,-0.3645172119140625,9.759963035583496,-4.39453125,0.42724609375,1.617431640625
0.2574999,0.8786720037460327,-0.39145198464393616,9.734824180603027,5.523681640625,-0.030517578125,0.30517578125
0.2624999,0.9911994934082031,-0.3776853084564209,9.740211486816406,-3.936767578125,0.457763671875,1.77001953125
0.2674999,0.9493009448051453,-0.4471171796321869,9.677961349487305,-2.01416015625,-0.48828125,-2.593994140625
0.2724999,0.8804676532745361,-0.4231751561164856,9.752182006835938,5.67626953125,0.030517578125,0.06103515625
0.2774999,0.9762357473373413,-0.3663128614425659,9.724050521850586,-3.448486328125,0.42724609375,1.861572265625
0.2824999,0.9421183466911316,-0.4297592043876648,9.6803560256958,-2.3193359375,-0.701904296875,-2.532958984375
0.28749990000000003,0.8888474106788635,-0.42616790533065796,9.749788284301758,5.859375,0.1220703125,-0.244140625
0.2924999,0.9786299467086792,-0.35015198588371277,9.739013671875,-3.082275390625,0.457763671875,1.953125
0.2974999,0.9630676507949829,-0.444722980260849,9.704896926879883,-2.8076171875,-0.91552734375,-2.38037109375
0.3024999,0.9097966551780701,-0.4495113790035248,9.810839653015137,5.767822265625,0.18310546875,-0.457763671875
0.3074999,0.983418345451355,-0.3687070608139038,9.792284965515137,-2.899169921875,0.518798828125,2.166748046875
0.3124999,0.9588778018951416,-0.4884171485900879,9.774927139282227,-3.11279296875,-0.79345703125,-2.166748046875
0.3174999,0.960673451423645,-0.3908534348011017,9.794678688049316,-2.288818359375,0.762939453125,2.0751953125
0.3224999,0.9493009448051453,-0.4944026470184326,9.709685325622559,-3.35693359375,-0.54931640625,-1.922607421875
0.3274999,0.8972271084785461,-0.4531026780605316,9.775525093078613,5.79833984375,-0.274658203125,-0.762939453125
0.3324999,0.9636662006378174,-0.3776853084564209,9.709086418151855,-1.800537109375,0.579833984375,2.349853515625
0.3374999,0.9648633003234863,-0.4884171485900879,9.68694019317627,-4.2724609375,-0.1220703125,-2.13623046875
0.3424999,0.9032126069068909,-0.4471171796321869,9.757569313049316,5.645751953125,-0.42724609375,-1.068115234375
0.34749990000000003,0.9678560495376587,-0.3842693865299225,9.75936508178711,-1.220703125,0.3662109375,2.50244140625
0.35249990000000003,0.9678560495376587,-0.3842693865299225,9.75936508178711,-1.220703125,0.3662109375,2.50244140625
0.3574999,0.9816226959228516,-0.47824180126190186,9.752182006835938,-4.2724609375,-0.30517578125,-1.861572265625
0.3624999,0.9187749028205872,-0.4423287510871887,9.797073364257812,5.462646484375,-0.457763671875,-1.46484375
0.3674999,0.9888052940368652,-0.3794809579849243,9.824606895446777,-0.762939453125,0.67138671875,2.471923828125
0.3724999,1.0001777410507202,-0.4704606235027313,9.807249069213867,-4.57763671875,-0.30517578125,-1.373291015625
0.3774999,0.9726444482803345,-0.3860650360584259,9.858125686645508,-0.091552734375,0.579833984375,2.197265625
0.3824999,0.9786299467086792,-0.47225627303123474,9.783905029296875,-4.791259765625,-0.54931640625,-1.434326171875
0.3874999,0.8864531517028809,-0.4776432514190674,9.768941879272461,4.69970703125,-0.030517578125,-1.434326171875
0.3924999,0.9582792520523071,-0.4118026793003082,9.82759952545166,0.42724609375,0.701904296875,2.25830078125
0.3974999,0.9798270463943481,-0.48063600063323975,9.752182006835938,-5.096435546875,-0.335693359375,-1.251220703125
0.4024999,0.9672574996948242,-0.3770867586135864,9.832387924194336,0.762939453125,0.640869140625,2.166748046875
0.4074999,0.9672574996948242,-0.3770867586135864,9.832387924194336,0.762939453125,0.640869140625,2.166748046875
0.41249990000000003,0.9858125448226929,-0.4471171796321869,9.729436874389648,-5.55419921875,-0.18310546875,-1.068115234375
0.41749990000000003,0.884058952331543,-0.45669397711753845,9.758766174316406,4.21142578125,-0.67138671875,-1.983642578125
0.4224999,0.9678560495376587,-0.36990416049957275,9.78989028930664,1.312255859375,0.518798828125,2.227783203125
0.4274999,0.9911994934082031,-0.45250412821769714,9.710283279418945,-5.645751953125,-0.091552734375,-0.8544921875
0.4324999,0.8918401598930359,-0.4686649739742279,9.752182006835938,4.0283203125,-0.579833984375,-2.166748046875
0.4374999,0.9894038438796997,-0.4423287510871887,9.726444244384766,-5.7373046875,-0.1220703125,-0.30517578125
0.4424999,0.8966285586357117,-0.4554968774318695,9.764153480529785,3.5400390625,-0.54931640625,-2.471923828125
0.4474999,0.973242998123169,-0.37169981002807617,9.791686058044434,1.983642578125,0.579833984375,1.983642578125
0.4524999,0.9923965930938721,-0.45010992884635925,9.725247383117676,-5.828857421875,-0.152587890625,-0.3662109375
0.4574999,0.9127894043922424,-0.48063600063323975,9.765948295593262,3.204345703125,-0.3662109375,-2.50244140625
0.4624999,0.9654618501663208,-0.3992331326007843,9.791088104248047,2.99072265625,0.42724609375,2.01416015625
0.4674999,0.9959878921508789,-0.44592007994651794,9.780912399291992,-5.584716796875,-0.152587890625,-0.091552734375
0.47249990000000003,0.9151836037635803,-0.47824180126190186,9.809642791748047,2.5634765625,-0.640869140625,-2.716064453125
0.47749990000000003,0.9564836025238037,-0.3800795078277588,9.858125686645508,3.021240234375,0.54931640625,1.89208984375
0.4824999,0.9199720025062561,-0.46627077460289,9.802460670471191,2.105712890625,-0.640869140625,-2.532958984375
0.4874999,0.9199720025062561,-0.46627077460289,9.802460670471191,2.105712890625,-0.640869140625,-2.532958984375
0.4924999,0.945111095905304,-0.37648820877075195,9.836577415466309,3.47900390625,0.30517578125,1.739501953125
0.4974999,1.002571940422058,-0.40222588181495667,9.721057891845703,-5.584716796875,0.152587890625,0.762939453125
0.5024999,0.9355342984199524,-0.4728548228740692,9.727641105651855,1.129150390625,-0.701904296875,-3.0517578125
0.5074999,0.9463081955909729,-0.3669114112854004,9.75637149810791,4.45556640625,0.396728515625,1.220703125
0.5124999,1.0157400369644165,-0.40701428055763245,9.732429504394531,-5.4931640625,0.18310546875,1.0986328125
0.5174999,0.9642647504806519,-0.46507367491722107,9.72165584564209,0.54931640625,-0.579833984375,-2.9296875
0.5224999,0.9457096457481384,-0.35494041442871094,9.745597839355469,4.974365234375,0.213623046875,1.007080078125
0.5274999,1.0181342363357544,-0.3884592354297638,9.733627319335938,-4.852294921875,0.091552734375,1.068115234375
0.5324999,0.973242998123169,-0.46148237586021423,9.722254753112793,0.244140625,-0.6103515625,-2.74658203125
0.5374999,0.9259575009346008,-0.3597288131713867,9.747992515563965,4.669189453125,0.457763671875,0.946044921875
0.5424999,1.0073603391647339,-0.3932476341724396,9.755773544311523,-4.547119140625,0.30517578125,1.373291015625
0.5474999,1.003769040107727,-0.395043283700943,9.792284965515137,-4.45556640625,0.457763671875,1.556396484375
0.5524999,1.003769040107727,-0.395043283700943,9.792284965515137,-4.45556640625,0.457763671875,1.556396484375
0.5574999,0.961870551109314,-0.46507367491722107,9.728838920593262,-0.732421875,-0.732421875,-2.685546875
0.5624999,0.8786720037460327,-0.39205053448677063,9.773131370544434,5.2490234375,0.3662109375,0.579833984375
0.5674999000000001,0.9840168952941895,-0.38905778527259827,9.773131370544434,-4.2724609375,0.518798828125,1.617431640625
0.5724999000000001,0.9409212470054626,-0.4578910768032074,9.701305389404297,-1.46484375,-0.42724609375,-2.593994140625
0.5774999000000001,0.8667010068893433,-0.39564183354377747,9.762955665588379,5.828857421875,-0.1220703125,0.335693359375
0.5824999,0.9798270463943481,-0.36750996112823486,9.761159896850586,-3.997802734375,0.335693359375,1.617431640625
0.5874999,0.9421183466911316,-0.43933600187301636,9.706692695617676,-1.953125,-0.396728515625,-2.655029296875
0.5924999,0.8804676532745361,-0.4010287821292877,9.770736694335938,5.767822265625,0,0.06103515625
0.5974999,0.9816226959228516,-0.3519476354122162,9.730035781860352,-3.448486328125,0.152587890625,1.983642578125
0.6024999,0.9720458984375,-0.3555389642715454,9.706692695617676,-2.99072265625,0.457763671875,1.8310546875
0.6074999,0.9469067454338074,-0.45250412821769714,9.654618263244629,-2.685546875,-0.823974609375,-2.288818359375
0.6124999,0.8966285586357117,-0.4537012279033661,9.759963035583496,5.92041015625,-0.06103515625,-0.274658203125
0.6174999,0.9744400978088379,-0.36990416049957275,9.721057891845703,-2.777099609375,0.457763671875,2.13623046875
0.6224999,0.9576807022094727,-0.4710591733455658,9.706093788146973,-3.11279296875,-0.6103515625,-2.3193359375
0.6274999,0.9091981053352356,-0.45190557837486267,9.806650161743164,5.7373046875,-0.335693359375,-0.457763671875
0.6324999,0.9660604000091553,-0.37469255924224854,9.75637149810791,-2.288818359375,0.48828125,2.3193359375
0.6374999,0.9564836025238037,-0.48961424827575684,9.723451614379883,-3.387451171875,-0.48828125,-2.13623046875
0.6424999,0.8852560520172119,-0.46088382601737976,9.785700798034668,5.79833984375,-0.213623046875,-0.762939453125
0.6474999,0.9546879529953003,-0.38546648621559143,9.734225273132324,-1.77001953125,0.48828125,2.13623046875
0.6524999,0.9522937536239624,-0.4884171485900879,9.712079048156738,-4.180908203125,-0.335693359375,-1.983642578125
0.6574999,0.8942343592643738,-0.4578910768032074,9.737217903137207,5.31005859375,-0.42724609375,-1.15966796875
0.6624999,0.9786299467086792,-0.4082113802433014,9.788095474243164,-0.91552734375,0.946044921875,2.44140625
0.6674999,0.99479079246521,-0.4800374507904053,9.79647445678711,-4.425048828125,0.213623046875,-1.5869140625
0.6724999,0.9205705523490906,-0.4513070285320282,9.820416450500488,5.157470703125,-0.518798828125,-1.495361328125
0.6774999,0.9774328470230103,-0.375291109085083,9.841365814208984,-0.9765625,-0.213623046875,2.44140625
0.6824999,0.9870096445083618,-0.4644751250743866,9.7791166305542,-3.997802734375,-0.79345703125,-1.312255859375
0.6874999,0.910993754863739,-0.4465186297893524,9.749788284301758,4.913330078125,0.06103515625,-1.922607421875
0.6924999000000001,0.9965864419937134,-0.37828385829925537,9.84376049041748,0.42724609375,1.007080078125,1.89208984375
0.6974999000000001,1.0145429372787476,-0.44173020124435425,9.77791976928711,-5.035400390625,-0.42724609375,-1.220703125
0.7024999000000001,0.9050082564353943,-0.4321534037590027,9.780313491821289,4.45556640625,-0.30517578125,-0.823974609375
0.7074999,0.9690531492233276,-0.424970805644989,9.747992515563965,-6.2255859375,0.030517578125,-1.800537109375
0.7124999,0.8487445116043091,-0.46327802538871765,9.754576683044434,4.486083984375,-1.0986328125,-1.64794921875
0.7174999,0.9367313981056213,-0.3926490843296051,9.78989028930664,1.495361328125,0.091552734375,3.0517578125
0.7224999,0.9403226971626282,-0.49559974670410156,9.658209800720215,-5.035400390625,-0.30517578125,-0.79345703125
0.7274999,0.8583213090896606,-0.5135562419891357,9.671378135681152,4.364013671875,-0.54931640625,-2.74658203125
0.7324999,0.9588778018951416,-0.40282443165779114,9.727043151855469,2.13623046875,0.54931640625,2.5634765625
0.7374999,0.9983820915222168,-0.46746787428855896,9.683947563171387,-5.279541015625,-0.152587890625,-0.18310546875
0.7424999,0.9229647517204285,-0.4513070285320282,9.731831550598145,3.5400390625,-0.244140625,-2.105712890625
0.7474999,0.9911994934082031,-0.3357867896556854,9.761758804321289,2.105712890625,0.579833984375,2.349853515625
0.7524999,1.0121487379074097,-0.424970805644989,9.716269493103027,-6.2255859375,-0.213623046875,-0.274658203125
0.7574999,0.9427168965339661,-0.4345476031303406,9.695320129394531,3.35693359375,-0.9765625,-0.946044921875
0.7624999,0.9953893423080444,-0.35733461380004883,9.683348655700684,2.74658203125,0.213623046875,4.82177734375
0.7674999,0.9816226959228516,-0.7745242714881897,9.658209800720215,6.9580078125,1.556396484375,6.195068359375
0.7724999,0.9744400978088379,-0.5410895943641663,10.030508041381836,-0.640869140625,0.48828125,12.054443359375
0.7774999,0.9331400990486145,-0.7344213724136353,9.874286651611328,-3.265380859375,-0.518798828125,6.8359375
0.7824999,0.7374141216278076,-0.8684966564178467,9.932345390319824,12.939453125,-2.99072265625,16.937255859375
0.7874999,0.7721300721168518,-1.0336965322494507,9.941922187805176,-0.54931640625,-5.035400390625,18.585205078125
0.7924999,0.5303156971931458,-1.7094600200653076,9.404424667358398,24.871826171875,-4.150390625,31.890869140625
0.7974999,0.5141547918319702,-1.8471266031265259,10.116100311279297,7.9345703125,-8.453369140625,35.21728515625
0.8024999,0.2795230448246002,-2.0883424282073975,9.421782493591309,31.1279296875,1.068115234375,41.68701171875
0.8074999,0.22026655077934265,-1.8555063009262085,10.254964828491211,8.392333984375,-12.115478515625,36.0107421875
0.8124999,3.2136173248291016,1.5885528326034546,9.510367393493652,2.50244140625,19.989013671875,-11.138916015625
0.8174999000000001,3.1681272983551025,0.30705636739730835,9.682151794433594,-30.70068359375,27.557373046875,-13.61083984375
0.8224999000000001,2.739565372467041,-1.0199298858642578,9.938929557800293,-26.275634765625,31.219482421875,8.97216796875
0.8274999000000001,2.034472942352295,-1.92134690284729,10.041281700134277,8.453369140625,16.4794921875,-3.7841796875
0.8324999000000001,1.2156559228897095,-2.5695769786834717,9.870695114135742,-14.22119140625,14.58740234375,-9.33837890625
0.8374999,-0.31783026456832886,-2.7006595134735107,9.45410442352295,12.451171875,-2.227783203125,-11.627197265625
0.8424999,-0.6404489278793335,-2.230797529220581,9.362525939941406,-1.28173828125,0.18310546875,-3.753662109375
0.8474999,-0.6189011335372925,-1.5053542852401733,9.625887870788574,29.144287109375,-10.040283203125,1.373291015625
0.8524999,-0.2621650993824005,-0.6667851805686951,9.654618263244629,-11.260986328125,-6.439208984375,-11.260986328125
0.8574999,0.2795230448246002,0.03890577703714371,10.05923843383789,1.28173828125,-3.60107421875,4.57763671875
0.8624999,0.7936778664588928,0.5159504413604736,10.097545623779297,14.068603515625,-12.115478515625,-3.2958984375
0.8674999,1.259350061416626,0.7493851184844971,9.926360130310059,-28.839111328125,4.119873046875,-2.349853515625
0.8724999,1.4778209924697876,0.4734533727169037,10.069414138793945,14.6484375,-3.143310546875,8.453369140625
0.8774999,1.5454572439193726,0.21607670187950134,9.725247383117676,-4.33349609375,-2.38037109375,-6.53076171875
0.8824999,1.260547161102295,-0.6877344250679016,9.746196746826172,24.078369140625,-7.232666015625,0.274658203125
0.8874999,1.1342530250549316,-0.8044517636299133,9.497200012207031,-18.646240234375,5.31005859375,-7.293701171875
0.8924999,0.8768763542175293,-0.7936778664588928,9.676166534423828,7.904052734375,-6.011962890625,-8.758544921875
0.8974999,0.8744821548461914,-0.6003460884094238,9.727641105651855,-17.974853515625,9.033203125,1.312255859375
0.9024999,0.812831461429596,-0.45848962664604187,9.942521095275879,23.74267578125,-7.32421875,2.01416015625
0.9074999,0.8816647529602051,-0.20231004059314728,9.657012939453125,-20.3857421875,2.9296875,-6.4697265625
0.9124999,0.9289502501487732,-0.20769700407981873,9.978434562683105,6.011962890625,1.708984375,8.11767578125
0.9174999,0.9265560507774353,-0.20111294090747833,9.79288387298584,6.591796875,-7.415771484375,-6.622314453125
0.9224999,0.9911994934082031,-0.2585737705230713,9.746196746826172,-20.08056640625,8.544921875,2.8076171875
0.9274999,0.9301473498344421,-0.4578910768032074,9.843161582946777,23.712158203125,-8.270263671875,1.373291015625
0.9324999,0.9917980432510376,-0.4225766062736511,9.501988410949707,-18.98193359375,3.082275390625,-6.561279296875
0.9374999,1.0007762908935547,-0.5578489899635315,9.800065994262695,10.009765625,1.678466796875,7.14111328125
0.9424999000000001,0.99479079246521,-0.4878185987472534,9.605537414550781,3.265380859375,-5.706787109375,-8.48388671875
0.9474999000000001,1.0761936902999878,-0.45848962664604187,9.748590469360352,-13.824462890625,9.002685546875,4.150390625
0.9524999000000001,0.9421183466911316,-0.31184476613998413,9.631275177001953,-8.026123046875,-2.62451171875,-8.23974609375
0.9574999000000001,0.9870096445083618,-0.34835633635520935,9.868300437927246,-3.7841796875,6.866455078125,7.2021484375
0.9624999,0.9068039059638977,-0.43035775423049927,9.780313491821289,13.519287109375,-8.148193359375,-5.37109375
0.9674999,0.9882067441940308,-0.39624038338661194,9.691728591918945,-19.927978515625,8.23974609375,1.373291015625
0.9724999,0.9115923047065735,-0.5117605924606323,9.858125686645508,22.15576171875,-6.16455078125,1.64794921875
0.9774999,0.9115923047065735,-0.5117605924606323,9.858125686645508,22.15576171875,-6.16455078125,1.64794921875
0.9824999,0.9433154463768005,-0.4165911078453064,9.53849983215332,-19.22607421875,2.716064453125,-5.43212890625
0.9874999,0.9475052952766418,-0.4854243993759155,9.88386344909668,12.969970703125,0.823974609375,6.744384765625
0.9924999,0.9295487999916077,-0.4141969084739685,9.606135368347168,-4.0283203125,-4.608154296875,-8.30078125
0.9974999,1.0259153842926025,-0.39564183354377747,9.870695114135742,-5.615234375,6.988525390625,6.77490234375
1.0024999,0.9744400978088379,-0.39863458275794983,9.699509620666504,4.94384765625,-7.32421875,-7.659912109375
1.0074999000000002,1.048660397529602,-0.32680854201316833,9.79647445678711,-11.8408203125,7.781982421875,5.340576171875
1.0124999000000001,0.943913996219635,-0.44352585077285767,9.778518676757812,16.754150390625,-7.659912109375,-3.936767578125
1.0174999000000002,1.0109516382217407,-0.37648820877075195,9.667786598205566,-19.71435546875,6.34765625,0.8544921875
1.0224999000000001,0.9361328482627869,-0.48303020000457764,9.899425506591797,20.6298828125,-4.8828125,1.15966796875
1.0274999,0.9696516990661621,-0.42856210470199585,9.576807022094727,-19.4091796875,2.288818359375,-3.814697265625
1.0324999000000001,0.9714473485946655,-0.38127660751342773,9.563638687133789,-12.237548828125,-2.288818359375,-7.080078125
1.0374999,0.9941922426223755,-0.38307225704193115,9.940725326538086,7.171630859375,4.180908203125,7.293701171875
1.0424999000000001,0.9391255974769592,-0.47405192255973816,9.804255485534668,15.625,-6.4697265625,-3.875732421875
1.0474999,1.0223240852355957,-0.38965633511543274,9.697713851928711,-17.9443359375,5.645751953125,1.556396484375
1.0524999000000002,0.9229647517204285,-0.5009866952896118,9.914389610290527,19.073486328125,-4.21142578125,-0.6103515625
1.0574999,0.9510966539382935,-0.4255693554878235,9.641449928283691,-19.256591796875,3.11279296875,-1.495361328125
1.0624999000000002,0.9080010056495667,-0.45489832758903503,9.939528465270996,18.524169921875,-1.77001953125,2.38037109375
1.0674999,0.9217676520347595,-0.4040215313434601,9.557653427124023,-17.059326171875,0.42724609375,-4.33349609375
1.0724999000000002,0.9684545993804932,-0.41958385705947876,9.53969669342041,-12.908935546875,-2.0751953125,-6.103515625
1.0774999,0.9654618501663208,-0.4207809567451477,9.895236015319824,10.345458984375,2.74658203125,6.317138671875
1.0824999000000002,0.9989806413650513,-0.4183867573738098,9.577404975891113,-7.6904296875,-3.72314453125,-7.171630859375
1.0874999,0.9917980432510376,-0.3908534348011017,9.911994934082031,4.7607421875,4.33349609375,7.110595703125
1.0924999000000002,1.002571940422058,-0.40880993008613586,9.68274974822998,-2.197265625,-5.096435546875,-7.659912109375
1.0974999,1.0181342363357544,-0.363918662071228,9.931747436523438,-0.457763671875,5.18798828125,7.01904296875
1.1024999000000002,0.9702502489089966,-0.4381389021873474,9.746794700622559,3.143310546875,-5.43212890625,-7.354736328125
1.1074999,1.0205284357070923,-0.38307225704193115,9.874884605407715,-5.035400390625,5.462646484375,6.439208984375
1.1124999000000002,0.9181763529777527,-0.49140989780426025,9.713275909423828,6.805419921875,-5.67626953125,-6.500244140625
1.1174999,1.004966139793396,-0.3705027103424072,9.773131370544434,-8.758544921875,5.4931640625,5.615234375
1.1224999000000002,0.9091981053352356,-0.507570743560791,9.704896926879883,10.162353515625,-5.340576171875,-5.767822265625
1.1274999,1.0169371366500854,-0.3429693877696991,9.725247383117676,-11.5966796875,4.82177734375,4.8828125
1.1324999000000002,0.9253589510917664,-0.46567222476005554,9.795876502990723,13.824462890625,-4.21142578125,-3.936767578125
1.1374999000000001,1.028908133506775,-0.3256114423274994,9.706692695617676,-14.495849609375,4.119873046875,2.960205078125
1.1424999000000002,0.9259575009346008,-0.4902127981185913,9.86650562286377,14.892578125,-3.72314453125,-3.021240234375
1.1474999000000001,0.9977835416793823,-0.3776853084564209,9.731831550598145,-15.19775390625,3.35693359375,2.227783203125
1.1524999000000002,0.9241618514060974,-0.5285200476646423,9.889848709106445,15.411376953125,-3.23486328125,-2.593994140625
1.1574999000000001,0.9965864419937134,-0.42616790533065796,9.750985145568848,-15.350341796875,3.0517578125,1.800537109375
1.1624999,0.9373299479484558,-0.5153518915176392,9.882067680358887,15.5029296875,-2.99072265625,-2.13623046875
1.1674999000000001,1.013944387435913,-0.41359832882881165,9.715071678161621,-15.625,2.86865234375,1.52587890625
1.1724999,0.9516952037811279,-0.4602852761745453,9.847352027893066,15.533447265625,-2.593994140625,-1.77001953125
1.1774999000000002,1.0319008827209473,-0.3645172119140625,9.689932823181152,-15.350341796875,2.62451171875,1.3427734375
1.1824999,0.9642647504806519,-0.4189853072166443,9.82999324798584,15.380859375,-2.593994140625,-1.953125
1.1874999000000002,0.9283517003059387,-0.4578910768032074,9.816825866699219,14.46533203125,-2.655029296875,-2.3193359375
1.1924999,1.0097545385360718,-0.3345896899700165,9.683947563171387,-14.068603515625,2.777099609375,2.25830078125
1.1974999000000002,0.9020155072212219,-0.4620809257030487,9.786299705505371,13.671875,-2.5634765625,-2.86865234375
1.2024999,0.9074024558067322,-0.44532153010368347,9.750985145568848,12.5732421875,-2.99072265625,-3.41796875
1.2074999000000002,1.0360907316207886,-0.27712884545326233,9.709086418151855,-11.8408203125,2.9296875,3.35693359375
1.2124999,0.9277531504631042,-0.4776432514190674,9.75397777557373,11.04736328125,-3.173828125,-4.302978515625
1.2174999000000002,1.0109516382217407,-0.30705636739730835,9.740809440612793,-9.8876953125,3.173828125,4.241943359375
1.2224999,0.9169792532920837,-0.5129576921463013,9.767146110534668,8.7890625,-3.2958984375,-4.852294921875
1.2274999000000002,0.9959878921508789,-0.3274070918560028,9.784503936767578,-7.8125,3.47900390625,4.913330078125
1.2324999,0.9510966539382935,-0.48303020000457764,9.746196746826172,3.143310546875,-3.448486328125,-6.28662109375
1.2374999000000002,0.9648633003234863,-0.3585317134857178,9.899425506591797,-1.495361328125,3.387451171875,6.103515625
1.2424999,0.9487023949623108,-0.4728548228740692,9.698312759399414,-0.54931640625,-3.143310546875,-6.439208984375
1.2474999000000002,0.9385270476341248,-0.39803603291511536,9.90361499786377,2.38037109375,3.0517578125,5.889892578125
1.2524999,0.9498994946479797,-0.45190557837486267,9.650428771972656,-4.241943359375,-2.899169921875,-6.317138671875
1.2574999000000002,0.943913996219635,-0.36750996112823486,9.898228645324707,6.103515625,2.62451171875,5.462646484375
1.2624999000000001,0.9774328470230103,-0.39205053448677063,9.617507934570312,-7.965087890625,-2.38037109375,-5.462646484375
1.2674999000000002,0.9385270476341248,-0.32381579279899597,9.855731010437012,9.735107421875,1.708984375,4.486083984375
1.2724999000000001,0.9768342971801758,-0.37648820877075195,9.563638687133789,-11.077880859375,-1.617431640625,-4.39453125
1.2774999000000002,0.9235633015632629,-0.3489548861980438,9.828198432922363,12.298583984375,0.8544921875,3.082275390625
1.2824999000000001,0.9971849918365479,-0.44771572947502136,9.622895240783691,-13.031005859375,-0.579833984375,-2.44140625
1.2874999,0.9792284965515137,-0.5273229479789734,9.855731010437012,13.092041015625,-1.434326171875,-1.220703125
1.2924999000000001,1.0833762884140015,-0.4255693554878235,9.770736694335938,-12.0849609375,1.678466796875,1.953125
1.2974999,0.9678560495376587,-0.5183446407318115,9.789292335510254,10.467529296875,-1.953125,-3.448486328125
1.3024999000000002,1.048660397529602,-0.28550854325294495,9.690531730651855,-8.514404296875,2.44140625,3.96728515625
1.3074999,0.950498104095459,-0.4752490520477295,9.661202430725098,5.889892578125,-2.5634765625,-5.06591796875
1.3124999000000002,0.9720458984375,-0.2902969419956207,9.715071678161621,-3.021240234375,2.50244140625,5.31005859375
1.3174999,0.9445125460624695,-0.47165772318840027,9.605537414550781,-0.1220703125,-2.5634765625,-5.9814453125
1.3224999000000002,0.9391255974769592,-0.37648820877075195,9.85034465789795,2.99072265625,2.3193359375,5.218505859375
1.3274999,0.9564836025238037,-0.47165772318840027,9.63187313079834,-5.7373046875,-2.044677734375,-5.67626953125
1.3324999000000002,0.933738648891449,-0.3884592354297638,9.921571731567383,8.697509765625,1.678466796875,4.45556640625
1.3374999,1.0013748407363892,-0.4100070297718048,9.660005569458008,-10.650634765625,-1.40380859375,-3.72314453125
1.3424999000000002,1.0546458959579468,-0.40043023228645325,9.703699111938477,-12.298583984375,0.48828125,-1.373291015625
1.3474999,0.9624691009521484,-0.40282443165779114,9.82759952545166,12.3291015625,-0.30517578125,-0.8544921875
1.3524999000000002,1.0540473461151123,-0.36750996112823486,9.778518676757812,-11.04736328125,1.15966796875,1.861572265625
1.3574999,0.9373299479484558,-0.4926069974899292,9.79647445678711,8.7890625,-1.861572265625,-3.47900390625
1.3624999000000002,0.9307458996772766,-0.3818751573562622,9.832387924194336,1.007080078125,2.166748046875,5.157470703125
1.3674999,0.9145850539207458,-0.5081692934036255,9.604340553283691,-4.425048828125,-2.166748046875,-5.523681640625
1.3724999000000002,0.8912416100502014,-0.42616790533065796,9.854534149169922,7.904052734375,1.64794921875,4.241943359375
1.3774999,0.9726444482803345,-0.44831427931785583,9.632472038269043,-9.765625,-1.0986328125,-3.5400390625
1.3824999000000002,0.9115923047065735,-0.3734954595565796,9.819818496704102,11.65771484375,0.42724609375,1.739501953125
1.3874999000000001,1.0342950820922852,-0.3621230125427246,9.725247383117676,-11.810302734375,0.152587890625,-0.640869140625
1.3924999000000002,0.9594763517379761,-0.40880993008613586,9.806650161743164,10.80322265625,-1.129150390625,-1.708984375
1.3974999000000001,1.0456676483154297,-0.2944868206977844,9.77672290802002,-9.09423828125,1.5869140625,2.899169921875
1.4024999000000002,0.9810241460800171,-0.48602294921875,9.765350341796875,5.340576171875,-1.708984375,-4.5166015625
1.4074999000000001,1.006163239479065,-0.3250128924846649,9.816825866699219,-1.708984375,1.983642578125,4.638671875
1.4124999,0.9630676507949829,-0.4920084476470947,9.676764488220215,-2.197265625,-1.922607421875,-5.462646484375
1.4174999000000001,0.9229647517204285,-0.3818751573562622,9.868300437927246,6.317138671875,1.708984375,4.547119140625
1.4224999,0.9959878921508789,-0.43933600187301636,9.672574996948242,-8.880615234375,-1.007080078125,-3.875732421875
1.4274999000000002,0.9074024558067322,-0.37169981002807617,9.838972091674805,10.92529296875,0.579833984375,1.64794921875
1.4324999,1.0319008827209473,-0.37828385829925537,9.740211486816406,-11.5966796875,0.30517578125,-0.30517578125
1.4374999000000002,0.9074024558067322,-0.44532153010368347,9.797672271728516,10.1318359375,-0.8544921875,-1.64794921875
1.4424999,0.9894038438796997,-0.32860419154167175,9.79527759552002,-7.843017578125,1.46484375,3.082275390625
1.4474999000000002,0.8954314589500427,-0.5231330990791321,9.730035781860352,3.96728515625,-1.922607421875,-4.669189453125
1.4524999,0.912190854549408,-0.4926069974899292,9.64683723449707,-4.57763671875,-1.739501953125,-4.7607421875
1.4574999000000002,0.9133879542350769,-0.38546648621559143,9.872490882873535,8.4228515625,1.0986328125,3.5400390625
1.4624999,1.015141487121582,-0.4159925580024719,9.661202430725098,-10.43701171875,-0.640869140625,-2.471923828125
1.4674999000000002,0.9588778018951416,-0.36332011222839355,9.80904483795166,10.833740234375,-0.06103515625,0.213623046875
1.4724999,1.1001356840133667,-0.3124433159828186,9.739013671875,-10.07080078125,0.8544921875,1.52587890625
1.4774999000000002,1.013944387435913,-0.42856210470199585,9.73781681060791,6.805419921875,-1.46484375,-3.448486328125
1.4824999,1.0420763492584229,-0.28550854325294495,9.80904483795166,-3.082275390625,1.617431640625,4.2724609375
1.4874999000000002,0.9750386476516724,-0.4920084476470947,9.673172950744629,-1.800537109375,-1.861572265625,-5.035400390625
1.4924999,0.9307458996772766,-0.35913026332855225,9.867103576660156,6.103515625,1.46484375,3.997802734375
1.4974999000000002,0.9894038438796997,-0.456095427274704,9.692327499389648,-9.21630859375,-0.732421875,-3.2958984375
1.5024999,0.8924387097358704,-0.4016273319721222,9.860519409179688,10.955810546875,0.030517578125,0.885009765625
1.5074999000000002,1.0307037830352783,-0.375291109085083,9.783905029296875,-10.101318359375,0.579833984375,0.823974609375
1.5124999000000001,0.9181763529777527,-0.5279214978218079,9.668983459472656,-1.495361328125,-1.708984375,-4.82177734375
1.5174999000000002,0.9050082564353943,-0.3555389642715454,9.854534149169922,5.92041015625,1.40380859375,3.84521484375
1.5224999000000001,0.9846154451370239,-0.4507084786891937,9.673771858215332,-8.97216796875,-0.640869140625,-2.8076171875
1.5274999000000002,0.9044097065925598,-0.3597288131713867,9.828198432922363,10.650634765625,0.06103515625,0.762939453125
1.5324999000000001,1.0504560470581055,-0.31783026456832886,9.752182006835938,-9.552001953125,0.42724609375,1.007080078125
1.5374999000000003,0.9612720012664795,-0.40880993008613586,9.746794700622559,6.744384765625,-1.251220703125,-3.41796875
1.5424999000000001,0.9977835416793823,-0.2711433470249176,9.823410034179688,-2.25830078125,1.46484375,4.08935546875
1.5474999,0.950498104095459,-0.4794389009475708,9.678560256958008,-2.777099609375,-1.373291015625,-4.791259765625
1.5524999000000002,0.9205705523490906,-0.34177228808403015,9.86231517791748,6.9580078125,1.0986328125,3.0517578125
1.5574999,0.9840168952941895,-0.4495113790035248,9.642048835754395,-9.857177734375,-0.48828125,-1.89208984375
1.5624999000000002,0.9163807034492493,-0.4345476031303406,9.77133560180664,10.345458984375,-0.152587890625,-0.518798828125
1.5674999,0.9600749015808105,-0.5285200476646423,9.671378135681152,4.0283203125,-1.434326171875,-4.08935546875
1.5724999000000002,0.9965864419937134,-0.3321954905986786,9.82879638671875,1.28173828125,1.220703125,4.0283203125
1.5774999,1.0157400369644165,-0.5446808934211731,9.692925453186035,-6.16455078125,-1.15966796875,-3.96728515625
1.5824999000000002,0.9157821536064148,-0.38726213574409485,9.84495735168457,9.521484375,0.579833984375,1.983642578125
1.5874999,1.0480618476867676,-0.414795458316803,9.768941879272461,-10.162353515625,0.1220703125,-0.18310546875
1.5924999000000002,0.9139865040779114,-0.4489128291606903,9.77791976928711,8.056640625,-0.885009765625,-2.38037109375
1.5974999,0.9989806413650513,-0.29149407148361206,9.835979461669922,-3.936767578125,1.3427734375,3.570556640625
1.6024999000000002,0.9235633015632629,-0.3280056416988373,9.874286651611328,6.2255859375,0.946044921875,3.23486328125
1.6074999,0.9235633015632629,-0.3280056416988373,9.874286651611328,6.2255859375,0.946044921875,3.23486328125
1.6124999000000002,0.9846154451370239,-0.45010992884635925,9.64683723449707,-9.246826171875,-0.67138671875,-2.13623046875
1.6174999,0.921169102191925,-0.41539400815963745,9.791088104248047,9.796142578125,-0.30517578125,-0.42724609375
1.6224999000000002,1.037886381149292,-0.5105634927749634,9.727641105651855,-7.110595703125,-0.91552734375,-3.173828125
1.6274999,1.037886381149292,-0.5105634927749634,9.727641105651855,-7.110595703125,-0.91552734375,-3.173828125
1.6324999000000002,0.912190854549408,-0.3944447338581085,9.854534149169922,9.521484375,0.30517578125,0.823974609375
1.6374999000000001,1.036689281463623,-0.38965633511543274,9.776124000549316,-9.124755859375,0.54931640625,0.823974609375
1.6424999000000002,0.9014169573783875,-0.4620809257030487,9.746794700622559,5.9814453125,-0.9765625,-3.204345703125
1.6474999000000001,0.9510966539382935,-0.29388827085494995,9.815030097961426,-0.6103515625,1.312255859375,3.753662109375
1.6524999000000002,0.9642647504806519,-0.5135562419891357,9.68574333190918,-4.791259765625,-1.03759765625,-3.875732421875
1.6574999000000001,0.8972271084785461,-0.33518823981285095,9.817423820495605,8.48388671875,0.54931640625,2.044677734375
1.6624999000000003,1.039083480834961,-0.4106055796146393,9.72165584564209,-9.70458984375,0.152587890625,-0.18310546875
1.6674999000000001,0.9271546006202698,-0.4465186297893524,9.740809440612793,7.6904296875,-0.79345703125,-2.50244140625
1.6724999,1.0019733905792236,-0.31184476613998413,9.800664901733398,-2.74658203125,0.9765625,3.47900390625
1.6774999000000002,1.0007762908935547,-0.33339259028434753,9.825204849243164,-3.997802734375,0.885009765625,3.11279296875
1.6824999,0.9475052952766418,-0.49619829654693604,9.684545516967773,-1.007080078125,-1.190185546875,-4.08935546875
1.6874999000000002,0.9487023949623108,-0.3274070918560028,9.812037467956543,6.28662109375,0.762939453125,2.8076171875
1.6924999,1.002571940422058,-0.44173020124435425,9.701305389404297,-8.941650390625,-0.3662109375,-1.129150390625
1.6974999000000002,1.0247182846069336,-0.3357867896556854,9.814431190490723,-4.33349609375,0.762939453125,2.899169921875
1.7024999,0.9666589498519897,-0.4710591733455658,9.712677955627441,-1.251220703125,-1.007080078125,-4.180908203125
1.7074999000000002,0.9672574996948242,-0.3082534670829773,9.84495735168457,6.40869140625,0.79345703125,2.716064453125
1.7124999,1.0229226350784302,-0.42197805643081665,9.73781681060791,-8.97216796875,-0.091552734375,-0.885009765625
1.7174999000000002,0.9355342984199524,-0.4531026780605316,9.767146110534668,7.781982421875,-0.48828125,-2.044677734375
1.7224999,1.0109516382217407,-0.3687070608139038,9.802460670471191,-3.814697265625,1.03759765625,3.265380859375
1.7274999000000002,0.9702502489089966,-0.5315127968788147,9.68574333190918,-2.38037109375,-0.9765625,-3.96728515625
1.7324999,0.9271546006202698,-0.3645172119140625,9.79527759552002,7.049560546875,0.6103515625,2.0751953125
1.7374999000000002,1.0241197347640991,-0.4381389021873474,9.716269493103027,-8.85009765625,-0.152587890625,-0.335693359375
1.7424999,0.9379284977912903,-0.4578910768032074,9.733627319335938,7.14111328125,-0.640869140625,-2.471923828125
1.7474999000000002,1.0097545385360718,-0.3280056416988373,9.782109260559082,-1.89208984375,0.9765625,3.11279296875
1.7524999,1.0235211849212646,-0.5267243981361389,9.6803560256958,-3.60107421875,-0.946044921875,-3.662109375
1.7574999000000002,0.8661024570465088,-0.4926069974899292,9.743204116821289,5.645751953125,-0.732421875,-3.082275390625
1.7624999000000001,0.9391255974769592,-0.3232172429561615,9.822811126708984,-0.030517578125,1.007080078125,3.35693359375
1.7674999000000002,0.9923965930938721,-0.4387374520301819,9.706692695617676,-5.615234375,-0.732421875,-2.960205078125
1.7724999000000001,0.9397241473197937,-0.29388827085494995,9.80904483795166,8.575439453125,0.18310546875,0.67138671875
1.7774999000000002,1.0935516357421875,-0.2950853705406189,9.771934509277344,-7.62939453125,0.54931640625,1.03759765625
1.7824999000000001,0.9666589498519897,-0.4339490532875061,9.725247383117676,3.2958984375,-0.823974609375,-3.60107421875
1.7874999000000003,0.9804255962371826,-0.33518823981285095,9.854534149169922,2.50244140625,0.8544921875,3.35693359375
1.7924999000000001,0.9840168952941895,-0.5309142470359802,9.644442558288574,-7.232666015625,-0.6103515625,-2.349853515625
1.7974999,0.8834604024887085,-0.4812345504760742,9.781511306762695,8.209228515625,-0.091552734375,-0.762939453125
1.8024999000000002,0.9660604000091553,-0.4124012291431427,9.716269493103027,-5.79833984375,0.579833984375,2.197265625
1.8074999,0.8846575021743774,-0.5410895943641663,9.697115898132324,0.152587890625,-0.79345703125,-3.753662109375
1.8124999000000002,0.9965864419937134,-0.3597288131713867,9.819818496704102,-2.86865234375,0.8544921875,2.960205078125
1.8174999,1.0283095836639404,-0.5111620426177979,9.712079048156738,-3.173828125,-0.8544921875,-3.47900390625
1.8224999000000002,0.9217676520347595,-0.34596213698387146,9.775525093078613,7.26318359375,0.091552734375,1.52587890625
1.8274999,1.01753568649292,-0.40880993008613586,9.659406661987305,-8.697509765625,-0.457763671875,0.457763671875
1.8324999000000002,0.8900445103645325,-0.48243165016174316,9.730634689331055,4.791259765625,-0.396728515625,-2.838134765625
1.8374999,0.933738648891449,-0.3992331326007843,9.923966407775879,2.197265625,3.448486328125,3.448486328125
1.8424999000000002,0.9510966539382935,-0.4866214990615845,9.785101890563965,-8.544921875,-1.251220703125,-2.655029296875
1.8474999,0.8571242094039917,-0.4854243993759155,9.861717224121094,8.331298828125,-1.983642578125,0.30517578125
1.8524999000000002,0.9295487999916077,-0.39863458275794983,9.728838920593262,-3.72314453125,-0.579833984375,3.143310546875
1.8574999,0.8720879554748535,-0.5416881442070007,9.613917350769043,0.885009765625,-0.213623046875,-3.5400390625
1.8624999000000002,-0.10833762586116791,-2.567182779312134,6.582857608795166,-60.48583984375,-10.833740234375,134.735107421875
1.8674999,-0.5321113467216492,-4.010886192321777,5.166088581085205,38.970947265625,-9.674072265625,192.0166015625
1.8724999000000002,-2.9484593868255615,-6.223727226257324,5.873575210571289,93.505859375,-22.491455078125,252.25830078125
1.8774999,-5.032013416290283,-8.7298583984375,5.9340291023254395,235.626220703125,-23.040771484375,388.031005859375
1.8824999000000002,-7.305307865142822,-10.343549728393555,4.57112979888916,226.470947265625,-16.9677734375,362.701416015625
1.8874999000000001,-8.066065788269043,-10.532691955566406,2.935889720916748,174.468994140625,-108.70361328125,242.49267578125
1.8924999000000002,-6.418854713439941,-8.730456352233887,0.2735375463962555,26.0009765625,-118.95751953125,150.20751953125
1.8974999000000001,-2.938283920288086,-5.2684407234191895,-0.6200982332229614,-33.050537109375,-65.155029296875,128.082275390625
1.9024999000000002,4.081515312194824,4.1210198402404785,2.0231003761291504,24.383544921875,13.458251953125,162.689208984375
1.9074999000000001,6.033388137817383,8.055890083312988,3.709217071533203,17.02880859375,-14.007568359375,123.35205078125
1.9124999000000003,6.63433313369751,10.96304988861084,5.494692802429199,1.495361328125,-35.94970703125,88.8671875
1.9174999000000001,5.989694118499756,12.302006721496582,6.524798393249512,-12.420654296875,-42.266845703125,43.76220703125
1.9224999,5.006275653839111,12.635997772216797,7.547122478485107,-19.59228515625,-35.15625,-21.484375
1.9274999000000002,4.2957963943481445,12.056601524353027,8.254010200500488,-26.336669921875,-8.9111328125,-88.2568359375
1.9324999,3.8492777347564697,10.866683006286621,8.47786808013916,-25.543212890625,17.852783203125,-152.89306640625
1.9374999000000002,4.14795446395874,9.479243278503418,8.699930191040039,-24.2919921875,44.036865234375,-197.75390625
1.9424999,4.32991361618042,7.937376976013184,8.13908863067627,-32.5927734375,58.441162109375,-217.987060546875
1.9474999000000002,4.525041103363037,6.287772178649902,7.706336498260498,-45.928955078125,62.042236328125,-217.987060546875
1.9524999,4.636970043182373,4.8602294921875,7.425017833709717,-48.52294921875,62.43896484375,-207.51953125
1.9574999000000002,4.544793605804443,3.49314022064209,7.494450092315674,-45.806884765625,65.093994140625,-185.60791015625
1.9624999,4.018068790435791,0.9858125448226929,9.251194953918457,-7.75146484375,50.018310546875,-129.69970703125
1.9674999000000002,3.442263603210449,-0.02753331884741783,9.931747436523438,-3.448486328125,22.125244140625,-101.5625
1.9724999,2.889801502227783,-0.800261914730072,10.476428031921387,-3.814697265625,3.7841796875,-73.089599609375
1.9774999000000002,2.364872694015503,-1.3066356182098389,10.524910926818848,-2.38037109375,-3.96728515625,-42.90771484375
1.9824999,2.0219032764434814,-1.632246971130371,10.26394271850586,-5.9814453125,-11.16943359375,-12.908935546875
1.9874999000000002,1.8896236419677734,-1.6843209266662598,10.0580415725708,-5.767822265625,-15.93017578125,9.765625
1.9924999,1.8692729473114014,-1.6615760326385498,9.92097282409668,-2.5634765625,-21.575927734375,21.17919921875
1.9974999000000002,1.8579005002975464,-1.4844050407409668,9.84615421295166,0.8544921875,-20.99609375,19.71435546875
2.0024999,1.259350061416626,0.23044191300868988,9.5809965133667,0.396728515625,13.824462890625,1.617431640625
2.0074999,1.0893617868423462,0.23343466222286224,9.759963035583496,0.152587890625,8.941650390625,3.082275390625
2.0124999000000003,0.8960300087928772,0.14844051003456116,9.888052940368652,0.457763671875,5.43212890625,5.4931640625
2.0174999000000002,0.7649474143981934,0.11192893236875534,9.940725326538086,0.48828125,0.335693359375,6.866455078125
2.0224999,0.6769605278968811,-0.04668693244457245,9.968857765197754,1.251220703125,-3.41796875,8.48388671875
2.0274999,0.6733692288398743,-0.058059390634298325,9.931747436523438,0.79345703125,-3.936767578125,9.1552734375
2.0324999000000004,0.7003039717674255,-0.08619125932455063,9.895236015319824,-0.396728515625,-5.157470703125,7.781982421875
2.0374999000000003,0.778714120388031,-0.11671733111143112,9.813833236694336,0.640869140625,-2.410888671875,5.889892578125
2.0424999,0.8589198589324951,-0.09277531504631042,9.805453300476074,0.06103515625,-1.28173828125,3.5400390625
2.0474999,0.9756371974945068,-0.16579847037792206,9.728838920593262,0.640869140625,1.3427734375,1.8310546875
2.0524999,1.0851719379425049,-0.24121582508087158,9.761159896850586,-0.54931640625,2.349853515625,1.922607421875
2.0574999000000003,1.2964602708816528,-0.11851298063993454,9.633070945739746,0.457763671875,3.11279296875,4.45556640625
2.0624999,1.1480196714401245,0.040701430290937424,9.41639518737793,0.885009765625,2.227783203125,7.6904296875
2.0674999,0.9971849918365479,0.14784196019172668,9.553462982177734,0.91552734375,-0.274658203125,7.232666015625
2.0724999,0.8756792545318604,0.13347674906253815,9.618106842041016,1.190185546875,-2.349853515625,7.293701171875
2.0774999000000003,0.8206126093864441,0.07481880486011505,9.786299705505371,1.03759765625,-2.99072265625,8.36181640625
2.0824999,0.9391255974769592,-0.2172738015651703,9.837775230407715,-0.1220703125,3.448486328125,1.190185546875
2.0874999,0.921169102191925,-0.3010708689689636,9.71926212310791,-0.8544921875,3.35693359375,-3.60107421875
2.0924999,0.8427590131759644,-0.22505496442317963,9.737217903137207,0.54931640625,0.18310546875,2.86865234375
2.0974999000000003,0.8074445128440857,-0.13826514780521393,9.818621635437012,0.518798828125,-3.0517578125,2.593994140625
2.1024999,0.8331822156906128,-0.14604631066322327,9.895833969116211,0.030517578125,-3.143310546875,0.06103515625
2.1074999,0.8529343605041504,-0.1041477769613266,9.884461402893066,1.3427734375,-1.800537109375,-1.007080078125
2.1124999,0.9522937536239624,-0.10654197633266449,9.800065994262695,-0.244140625,-2.197265625,-0.885009765625
2.1174999000000003,1.0402805805206299,0.005985504016280174,9.79288387298584,-0.91552734375,3.326416015625,-1.8310546875
2.1224999,1.1139023303985596,-0.0065840547904372215,9.409811019897461,-1.495361328125,5.462646484375,-2.8076171875
2.1274999,1.1581950187683105,0.040701430290937424,9.418789863586426,-0.91552734375,1.556396484375,0.518798828125
2.1324999,1.1121066808700562,-0.03172317147254944,9.284713745117188,1.0986328125,-0.396728515625,4.180908203125
2.1374999000000003,1.05105459690094,-0.1412578970193863,9.384073257446289,0.640869140625,-3.35693359375,2.349853515625
2.1424999000000002,0.9953893423080444,-0.1149216815829277,9.66539192199707,0.701904296875,-0.9765625,-0.579833984375
2.1474999,0.9457096457481384,-0.18974047899246216,9.701904296875,-0.1220703125,-1.5869140625,-2.01416015625
2.1524999,0.9564836025238037,-0.10833762586116791,9.710882186889648,-0.9765625,3.47900390625,-4.33349609375
2.1574999000000004,0.9720458984375,0.005386953707784414,9.674370765686035,-1.434326171875,2.3193359375,1.5869140625
2.1624999000000003,0.9265560507774353,-0.1322796493768692,9.774328231811523,1.434326171875,-2.166748046875,5.645751953125
2.1674999,0.9379284977912903,-0.15442600846290588,9.794678688049316,1.220703125,-4.547119140625,3.021240234375
2.1724999,0.9379284977912903,-0.15442600846290588,9.794678688049316,1.220703125,-4.547119140625,3.021240234375
2.1774999000000004,0.9612720012664795,-0.18614917993545532,9.882067680358887,1.15966796875,-1.190185546875,-0.67138671875
2.1824999000000003,1.0384849309921265,-0.05746084079146385,9.856928825378418,-1.678466796875,0.213623046875,-3.936767578125
2.1874999,1.0606313943862915,-0.12928688526153564,9.708487510681152,-1.15966796875,7.87353515625,-6.591796875
2.1924999,1.127070426940918,-0.08499415963888168,9.75397777557373,-2.044677734375,3.082275390625,-0.518798828125
2.1974999,1.0570400953292847,-0.0586579404771328,9.684545516967773,1.953125,-1.190185546875,6.7138671875
2.2024999000000003,1.0073603391647339,-0.10534487664699554,9.755773544311523,2.105712890625,-5.767822265625,4.638671875
2.2074999,0.9870096445083618,-0.322618693113327,9.81143856048584,0.91552734375,-3.082275390625,-0.701904296875
2.2124999,1.026513934135437,-0.35673606395721436,9.66539192199707,-2.197265625,7.32421875,-5.92041015625
2.2174999,1.0157400369644165,-0.05506663769483566,9.536704063415527,-0.6103515625,2.655029296875,2.3193359375
2.2224999000000003,1.006163239479065,0.04369417950510979,9.64564037322998,2.99072265625,-4.150390625,6.2255859375
2.2274999,0.961870551109314,0.08559270948171616,9.642048835754395,2.532958984375,-4.638671875,1.922607421875
2.2324999,0.9056068062782288,0.19812019169330597,9.594164848327637,-1.77001953125,-3.143310546875,-3.814697265625
2.2374999,0.9714473485946655,0.04728548228740692,9.488221168518066,-2.685546875,5.767822265625,-6.65283203125
2.2424999000000003,1.0450690984725952,-0.1909375786781311,9.822212219238281,4.119873046875,-6.40869140625,1.28173828125
2.2474999,0.9792284965515137,-0.1322796493768692,9.803058624267578,-1.89208984375,-1.434326171875,-4.2724609375
2.2524999,1.015141487121582,-0.2082955539226532,9.637260437011719,-4.180908203125,8.30078125,-5.950927734375
2.2574999,1.0522516965866089,-0.13168109953403473,9.622296333312988,-1.556396484375,4.913330078125,2.99072265625
2.2624999000000003,1.083974838256836,-0.22744916379451752,9.807847023010254,3.173828125,-6.927490234375,-0.244140625
2.2674999000000002,1.0097545385360718,-0.12030863761901855,9.834183692932129,-2.62451171875,-1.3427734375,-5.92041015625
2.2724999,0.9953893423080444,-0.20290859043598175,9.81024169921875,-4.364013671875,8.60595703125,-2.410888671875
2.2774999,0.9888052940368652,-0.06524199992418289,9.881468772888184,0.335693359375,2.38037109375,5.828857421875
2.2824999000000004,0.9576807022094727,-0.019153613597154617,9.798270225524902,5.340576171875,-6.591796875,2.5634765625
2.2874999000000003,0.9540894031524658,-0.002394201699644327,9.794678688049316,0.701904296875,-5.55419921875,-4.547119140625
2.2924999,0.9696516990661621,-0.05027823522686958,9.62947940826416,-4.547119140625,6.16455078125,-5.2490234375
2.2974999,0.9977835416793823,-0.0628477931022644,9.683348655700684,-2.655029296875,7.843017578125,4.82177734375
2.3024999000000004,1.0223240852355957,-0.11372458189725876,9.873687744140625,4.058837890625,-3.72314453125,5.18798828125
2.3074999000000003,1.072602391242981,-0.021547814831137657,9.952696800231934,2.62451171875,-7.537841796875,-3.692626953125
2.3124999,0.9804255962371826,-0.12389993667602539,9.847949981689453,-4.180908203125,2.13623046875,-7.659912109375
2.3174999,1.028908133506775,-0.17058686912059784,9.691129684448242,5.0048828125,-9.21630859375,-3.082275390625
2.3224999,0.9636662006378174,-0.10714052617549896,9.73781681060791,1.953125,1.708984375,9.46044921875
2.3274999000000003,1.0324994325637817,-0.0017956512747332454,9.70429801940918,4.33349609375,-9.09423828125,-4.119873046875
2.3324999,1.0109516382217407,-0.008978256024420261,9.769539833068848,-3.72314453125,-0.8544921875,-10.833740234375
2.3374999,1.039083480834961,0.03950432687997818,9.784503936767578,-3.692626953125,11.16943359375,5.06591796875
2.3424999,0.9690531492233276,0.04429273307323456,9.745597839355469,2.777099609375,1.220703125,10.406494140625
2.3474999000000003,0.9726444482803345,0.07721300423145294,9.600749015808105,3.692626953125,-11.29150390625,-6.77490234375
2.3524999,0.9624691009521484,0.061052143573760986,9.643844604492188,-4.0283203125,-0.640869140625,-11.04736328125
2.3574999,0.9582792520523071,-0.07242459803819656,9.787496566772461,-2.685546875,11.962890625,9.185791015625
2.3624999,0.9804255962371826,-0.33339259028434753,9.63067626953125,1.068115234375,-10.894775390625,-11.138916015625
2.3674999000000003,0.9971849918365479,-0.3130418658256531,9.708487510681152,-4.2724609375,6.28662109375,-6.16455078125
2.3724999,1.0067617893218994,-0.0933738648891449,9.654019355773926,-0.54931640625,9.918212890625,13.427734375
2.3774999,1.0295066833496094,-0.12270283699035645,9.765350341796875,4.82177734375,-8.60595703125,0.54931640625
2.3824999,1.0019733905792236,-0.005386953707784414,9.813833236694336,-2.197265625,-7.232666015625,-14.312744140625
2.3874999000000003,1.0648212432861328,-0.076015904545784,9.965266227722168,-3.23486328125,12.87841796875,4.150390625
2.3924999000000002,1.0001777410507202,-0.04429273307323456,9.778518676757812,2.960205078125,2.105712890625,12.298583984375
2.3974999,0.9965864419937134,-0.06584054976701736,9.627084732055664,1.800537109375,-13.85498046875,-9.46044921875
2.4024999,1.0067617893218994,-0.11372458189725876,9.692925453186035,4.364013671875,-8.636474609375,0.732421875
2.4074999000000004,1.0121487379074097,-0.11133038252592087,9.77791976928711,-2.99072265625,-8.97216796875,-15.045166015625
2.4124999000000003,0.9852139949798584,-0.20111294090747833,9.722254753112793,-1.8310546875,-12.908935546875,-13.641357421875
2.4174999,1.0348936319351196,-0.10295066982507706,9.825803756713867,-3.84521484375,8.148193359375,-2.38037109375
2.4224999,0.9762357473373413,-0.08978256583213806,9.706692695617676,3.90625,7.9345703125,14.70947265625
2.4274999000000004,0.9804255962371826,-0.0999579206109047,9.62947940826416,1.0986328125,-13.61083984375,-8.6669921875
2.4324999000000003,0.9989806413650513,-0.08499415963888168,9.732429504394531,-5.096435546875,0.42724609375,-9.368896484375
2.4374999,0.9876081943511963,-0.018555063754320145,9.783307075500488,2.838134765625,12.725830078125,14.739990234375
2.4424999,0.9487023949623108,-0.08319851011037827,9.651026725769043,3.0517578125,-10.009765625,-2.410888671875
2.4474999,0.9882067441940308,-0.08200141042470932,9.856329917907715,-5.889892578125,-5.340576171875,-13.092041015625
2.4524999000000003,0.9858125448226929,-0.09935937076807022,9.8970308303833,1.739501953125,14.58740234375,12.39013671875
2.4574999,0.982221245765686,-0.09816227108240128,9.697115898132324,4.119873046875,-6.256103515625,2.01416015625
2.4624999,0.9953893423080444,-0.14604631066322327,9.884461402893066,-6.195068359375,-9.246826171875,-14.739990234375
2.4674999,0.9864110946655273,-0.166995570063591,9.791686058044434,-6.16455078125,-11.444091796875,-15.106201171875
2.4724999000000003,1.0450690984725952,-0.11791443079710007,9.851541519165039,0.9765625,13.946533203125,9.27734375
2.4774999,1.0055646896362305,-0.08738835901021957,9.592369079589844,5.157470703125,-2.105712890625,5.4931640625
2.4824999,0.9911994934082031,-0.0867898091673851,9.588777542114258,4.974365234375,-2.777099609375,4.45556640625
2.4874999,1.0157400369644165,-0.13587094843387604,9.79647445678711,-7.232666015625,-11.41357421875,-13.824462890625
2.4924999000000003,1.039083480834961,-0.0867898091673851,9.77791976928711,2.9296875,14.6484375,10.7421875
2.4974999,0.9900023937225342,-0.09576806426048279,9.59057331085205,4.0283203125,-4.791259765625,1.5869140625
2.5024999,1.0235211849212646,-0.11911153793334961,9.853935241699219,-7.62939453125,-9.368896484375,-12.26806640625
2.5074999,1.0492589473724365,-0.09696517139673233,9.768941879272461,4.974365234375,15.167236328125,12.39013671875
2.5124999000000003,0.9882067441940308,-0.16400282084941864,9.75517463684082,-5.4931640625,-14.16015625,-11.505126953125
2.5174999000000002,1.0402805805206299,-0.12988543510437012,9.895236015319824,-2.25830078125,7.171630859375,4.39453125
2.5224999,0.9917980432510376,-0.11552023142576218,9.655217170715332,8.11767578125,4.0283203125,7.50732421875
2.5274999,0.9888052940368652,-0.16879121959209442,9.821015357971191,-8.6669921875,-12.725830078125,-12.939453125
2.5324999000000004,1.0271124839782715,-0.09516951441764832,9.779715538024902,3.387451171875,12.63427734375,10.25390625
2.5374999000000003,0.9343371987342834,-0.1322796493768692,9.552266120910645,3.662109375,-4.974365234375,-1.8310546875
2.5424999,1.0199298858642578,-0.15442600846290588,9.870096206665039,-8.1787109375,-5.859375,-7.75146484375
2.5474999,1.0073603391647339,-0.13347674906253815,9.768941879272461,-3.662109375,-11.77978515625,-10.1318359375
2.5524999000000004,1.0869675874710083,-0.06344634294509888,9.945513725280762,-3.082275390625,4.69970703125,2.716064453125
2.5574999000000003,1.0247182846069336,-0.03770867735147476,9.602544784545898,8.056640625,5.096435546875,6.256103515625
2.5624999,1.0594342947006226,-0.08559270948171616,9.876680374145508,-8.9111328125,-11.3525390625,-11.65771484375
2.5674999,1.0875661373138428,-0.05386953800916672,9.71926212310791,4.913330078125,11.993408203125,11.138916015625
2.5724999,1.004966139793396,-0.09516951441764832,9.586981773376465,1.373291015625,-6.439208984375,-5.279541015625
2.5774999000000003,1.0851719379425049,-0.14245499670505524,9.94970417022705,-6.622314453125,-2.01416015625,-2.74658203125
2.5824999,1.004966139793396,-0.10055647045373917,9.601945877075195,8.9111328125,8.636474609375,9.552001953125
2.5874999,0.9852139949798584,-0.1586158573627472,9.872490882873535,-7.32421875,-12.481689453125,-11.04736328125
2.5924999,1.0181342363357544,-0.09696517139673233,9.857526779174805,2.3193359375,9.6435546875,9.429931640625
2.5974999000000003,0.9385270476341248,-0.11552023142576218,9.575610160827637,3.2958984375,-3.753662109375,-2.0751953125
2.6024999,1.0336965322494507,-0.13108254969120026,9.980229377746582,-7.476806640625,-4.119873046875,-3.72314453125
2.6074999,0.9528923034667969,-0.1215057373046875,9.624092102050781,3.11279296875,-3.5400390625,-2.777099609375
2.6124999,1.0480618476867676,-0.14425064623355865,9.99220085144043,-6.7138671875,-2.960205078125,-2.9296875
2.6174999000000003,1.0031704902648926,-0.05446808785200119,9.525930404663086,8.148193359375,7.99560546875,8.4228515625
2.6224999,1.0271124839782715,-0.152031809091568,9.873687744140625,-7.171630859375,-11.077880859375,-10.162353515625
2.6274999,1.083974838256836,-0.041299980133771896,9.733627319335938,3.753662109375,9.82666015625,10.223388671875
2.6324999,1.0019733905792236,-0.12210428714752197,9.686341285705566,0.79345703125,-6.500244140625,-5.218505859375
2.6374999000000003,1.0971429347991943,-0.12210428714752197,9.966463088989258,-4.486083984375,0.54931640625,1.64794921875
2.6424999000000002,0.961870551109314,-0.13108254969120026,9.540295600891113,7.537841796875,3.570556640625,6.561279296875
2.6474999,1.004966139793396,-0.2148796021938324,9.935338973999023,-7.38525390625,-8.23974609375,-6.866455078125
2.6524999,0.9487023949623108,-0.10953472554683685,9.557653427124023,6.256103515625,10.498046875,10.31494140625
2.6574999000000004,1.0235211849212646,-0.09636662155389786,9.82879638671875,0.3662109375,7.598876953125,5.4931640625
2.6624999000000003,0.9528923034667969,-0.12389993667602539,9.609128952026367,3.0517578125,-2.38037109375,-2.44140625
2.6674999,1.0965443849563599,-0.13946224749088287,10.049062728881836,-5.859375,-2.044677734375,-2.3193359375
2.6724999,1.0031704902648926,-0.07182604819536209,9.547477722167969,7.659912109375,6.317138671875,6.16455078125
2.6774999000000004,1.0313023328781128,-0.16400282084941864,9.988011360168457,-7.293701171875,-9.674072265625,-8.60595703125
2.6824999000000003,0.993593692779541,-0.047884032130241394,9.634267807006836,5.706787109375,10.55908203125,9.368896484375
2.6874999,0.9522937536239624,-0.15143325924873352,9.800065994262695,-3.509521484375,-9.09423828125,-8.880615234375
2.6924999,1.0426748991012573,-0.06763619929552078,9.804854393005371,0.030517578125,6.439208984375,5.859375
2.6974999,0.9846154451370239,-0.11671733111143112,9.615114212036133,2.838134765625,-2.349853515625,-3.173828125
2.7024999000000003,1.1061211824417114,-0.10953472554683685,9.989806175231934,-5.096435546875,-1.617431640625,-0.823974609375
2.7074999,1.0007762908935547,-0.08080431073904037,9.49001693725586,7.01904296875,5.645751953125,4.150390625
2.7124999,1.0319008827209473,-0.15143325924873352,10.005967140197754,-7.476806640625,-8.1787109375,-6.9580078125
2.7174999,0.961870551109314,-0.1562216579914093,9.898826599121094,-5.401611328125,-9.613037109375,-9.307861328125
2.7224999000000003,1.003769040107727,-0.03651157766580582,9.72165584564209,3.41796875,8.6669921875,8.331298828125
2.7274999,0.9588778018951416,-0.16220717132091522,9.798869132995605,-0.885009765625,-6.40869140625,-7.01904296875
2.7324999,1.0408791303634644,-0.090979665517807,9.889848709106445,-1.40380859375,3.173828125,4.608154296875
2.7374999,0.9768342971801758,-0.17657238245010376,9.643245697021484,3.875732421875,-0.091552734375,-2.105712890625
2.7424999000000003,1.0851719379425049,-0.1562216579914093,10.029909133911133,-5.462646484375,-3.265380859375,-1.15966796875
2.7474999,0.9642647504806519,-0.1149216815829277,9.48462963104248,6.683349609375,5.462646484375,3.753662109375
2.7524999,1.0606313943862915,-0.15981295704841614,10.041281700134277,-7.080078125,-7.9345703125,-5.401611328125
2.7574999,0.9846154451370239,-0.06344634294509888,9.518148422241211,7.14111328125,7.38525390625,8.6669921875
2.7624999000000003,1.0271124839782715,-0.15083470940589905,9.93593692779541,-5.706787109375,-9.185791015625,-6.2255859375
2.7674999000000002,1.0319008827209473,-0.040701430290937424,9.603142738342285,4.82177734375,8.6669921875,9.674072265625
2.7724999,1.0348936319351196,-0.14784196019172668,9.814431190490723,-3.509521484375,-8.514404296875,-7.38525390625
2.7774999,1.006163239479065,-0.17717093229293823,9.77672290802002,-0.244140625,-4.730224609375,-6.866455078125
2.7824999000000004,1.0660183429718018,-0.05267243832349777,9.82879638671875,-1.800537109375,3.23486328125,4.180908203125
2.7874999000000003,0.982221245765686,-0.1628057211637497,9.692925453186035,3.0517578125,-0.91552734375,-3.143310546875
2.7924999,0.982221245765686,-0.1628057211637497,9.692925453186035,3.0517578125,-0.91552734375,-3.143310546875
2.7974999,1.0785878896713257,-0.07960720360279083,9.97603988647461,-4.180908203125,-0.91552734375,1.3427734375
2.8024999000000004,1.070208191871643,-0.09696517139673233,10.026318550109863,-6.103515625,-4.791259765625,-1.953125
2.8074999000000003,0.9181763529777527,-0.07541735470294952,9.41400146484375,6.65283203125,6.011962890625,3.35693359375
2.8124999,1.0678139925003052,-0.1472434103488922,10.093954086303711,-6.89697265625,-6.927490234375,-4.791259765625
2.8174999,0.9349357485771179,-0.050876785069704056,9.48462963104248,6.591796875,7.781982421875,5.584716796875
2.8224999,1.0067617893218994,-0.19033902883529663,10.073004722595215,-6.439208984375,-8.148193359375,-6.4697265625
2.8274999000000003,0.9522937536239624,-0.06643909960985184,9.509769439697266,6.16455078125,8.514404296875,6.9580078125
2.8324999,0.9780313968658447,-0.04369417950510979,9.560646057128906,4.7607421875,8.331298828125,7.354736328125
2.8374999,0.9798270463943481,-0.23163901269435883,9.82879638671875,-4.08935546875,-7.50732421875,-7.904052734375
2.8424999,0.9971849918365479,0.002394201699644327,9.613917350769043,3.173828125,7.171630859375,7.415771484375
2.8474999000000003,1.0283095836639404,-0.21308395266532898,9.836577415466309,-2.593994140625,-6.439208984375,-7.293701171875
2.8524999,1.0055646896362305,0.005386953707784414,9.639654159545898,1.8310546875,5.7373046875,6.744384765625
2.8574999,1.0546458959579468,-0.2256535142660141,9.879075050354004,-1.03759765625,-4.94384765625,-6.77490234375
2.8624999,1.0438719987869263,0.0071826050989329815,9.709086418151855,0.396728515625,3.7841796875,6.103515625
2.8674999000000003,1.0480618476867676,-0.25737667083740234,9.903017044067383,0.1220703125,-3.143310546875,-5.92041015625
2.8724999,1.071405291557312,-0.0065840547904372215,9.774927139282227,-0.396728515625,2.44140625,5.126953125
2.8774999,1.0067617893218994,-0.25258827209472656,9.833584785461426,1.007080078125,-1.617431640625,-4.974365234375
2.8824999,1.0785878896713257,0.02513911761343479,9.77672290802002,-2.349853515625,-0.06103515625,3.387451171875
2.8874999000000003,0.9798270463943481,-0.12449848651885986,9.589975357055664,1.861572265625,1.068115234375,-3.326416015625
2.8924999000000002,1.081580638885498,0.009576806798577309,9.785700798034668,-2.227783203125,-0.8544921875,3.021240234375
2.8974999,0.9828197956085205,-0.12928688526153564,9.437943458557129,2.410888671875,1.46484375,-2.685546875
2.9024999,1.080383539199829,-0.033518824726343155,9.766547203063965,-2.50244140625,-1.5869140625,2.349853515625
2.9074999000000004,0.9768342971801758,-0.12629413604736328,9.320627212524414,2.62451171875,2.197265625,-2.227783203125
2.9124999000000003,1.072602391242981,-0.050876785069704056,9.734824180603027,-2.8076171875,-1.922607421875,2.197265625
2.9174999,0.9510966539382935,-0.12210428714752197,9.223662376403809,2.655029296875,2.349853515625,-2.410888671875
2.9224999,1.0594342947006226,-0.06643909960985184,9.671378135681152,-2.593994140625,-2.197265625,1.953125
2.9274999000000004,0.9157821536064148,-0.1562216579914093,9.10993766784668,2.38037109375,2.50244140625,-2.166748046875
2.9324999000000003,1.049857497215271,-0.08978256583213806,9.578003883361816,-2.166748046875,-2.227783203125,2.13623046875
2.9374999,0.9062053561210632,-0.18375498056411743,9.030330657958984,2.3193359375,1.983642578125,-2.44140625
2.9424999,1.061229944229126,-0.08379705995321274,9.455301284790039,-2.044677734375,-1.800537109375,2.38037109375
2.9474999,1.0905588865280151,-0.05985504388809204,9.334393501281738,-1.495361328125,-1.46484375,3.082275390625
2.9524999000000003,0.9917980432510376,-0.13946224749088287,9.043498039245605,1.03759765625,1.373291015625,-3.0517578125
2.9574999,1.1079168319702148,-0.03292027488350868,9.309853553771973,-0.762939453125,-1.0986328125,3.326416015625
2.9624999,1.0217255353927612,-0.15801730751991272,9.148842811584473,0.244140625,0.91552734375,-3.84521484375
2.9674999,1.0887632369995117,-0.018555063754320145,9.386467933654785,-0.030517578125,-0.457763671875,3.875732421875
2.9724999000000003,1.0408791303634644,-0.1951274424791336,9.281123161315918,-0.79345703125,0.244140625,-4.425048828125
2.9774999,1.0456676483154297,-0.04668693244457245,9.369708061218262,1.312255859375,0.48828125,4.486083984375
2.9824999,1.048660397529602,-0.21428105235099792,9.334393501281738,-1.800537109375,-0.518798828125,-5.0048828125
2.9874999,0.9816226959228516,-0.0802057534456253,9.223662376403809,2.38037109375,1.3427734375,5.126953125
2.9924999000000003,1.0013748407363892,-0.31184476613998413,9.333196640014648,-3.11279296875,-1.52587890625,-5.401611328125
2.9974999,0.9349357485771179,-0.16639702022075653,9.203909873962402,3.5400390625,2.13623046875,5.401611328125
3.0024999,0.9319429993629456,-0.4231751561164856,9.319430351257324,-4.33349609375,-2.655029296875,-5.92041015625
3.0074999,0.9522937536239624,0.1412578970193863,8.757989883422852,6.317138671875,5.035400390625,3.875732421875
3.0124999000000003,1.0570400953292847,-0.14245499670505524,9.204508781433105,-6.2255859375,-4.7607421875,-3.509521484375
3.0174999000000002,0.9097966551780701,0.06165069341659546,8.674192428588867,6.195068359375,4.608154296875,2.410888671875
3.0224999,1.0283095836639404,-0.07122749835252762,9.251194953918457,-5.79833984375,-4.5166015625,-1.46484375
3.0274999,0.8924387097358704,0.17058686912059784,8.802282333374023,1.251220703125,3.41796875,2.105712890625
3.0324999000000004,1.0079588890075684,0.5351040959358215,8.989628791809082,-7.8125,-4.638671875,1.64794921875
3.0374999000000003,1.2850877046585083,2.4833858013153076,9.296086311340332,-50.994873046875,10.986328125,-13.3056640625
3.0424999,0.08559270948171616,12.261903762817383,15.003863334655762,-252.38037109375,101.37939453125,-284.97314453125
3.0474999,-1.8626888990402222,13.242928504943848,17.193361282348633,-389.404296875,39.642333984375,-226.959228515625
3.0524999000000004,-2.955641984939575,11.566987037658691,17.71589469909668,-503.7841796875,10.040283203125,-142.181396484375
3.0574999000000003,-2.646790027618408,7.995436668395996,16.230892181396484,-515.44189453125,-8.30078125,-83.0078125
3.0624999,-0.6111199855804443,3.092710018157959,12.169727325439453,-461.24267578125,6.927490234375,-44.12841796875
3.0674999,2.3331496715545654,-1.6639702320098877,6.602011203765869,-345.03173828125,52.398681640625,-22.52197265625
3.0724999000000004,4.67827033996582,-5.995080947875977,0.9929951429367065,-215.33203125,77.606201171875,-14.129638671875
3.0774999000000003,5.988496780395508,-9.496601104736328,-3.1507694721221924,-149.322509765625,67.07763671875,-39.0625
3.0824999,5.889736175537109,-11.920730590820312,-4.735132217407227,-87.58544921875,66.986083984375,-72.81494140625
3.0874999,4.81473970413208,-13.784017562866211,-3.9881415367126465,-29.23583984375,65.582275390625,-93.3837890625
3.0924999,3.3249475955963135,-14.805144309997559,-1.8100165128707886,16.998291015625,62.530517578125,-94.512939453125
3.0974999000000003,0.7649474143981934,-13.631985664367676,2.655169725418091,107.879638671875,53.52783203125,-79.559326171875
3.1024999,-0.0077811554074287415,-11.750741958618164,3.977367639541626,127.3193359375,39.337158203125,-73.516845703125
3.1074999,-0.47165772318840027,-9.591172218322754,4.837484359741211,132.6904296875,16.7236328125,-55.11474609375
3.1124999,-0.8355764150619507,-7.835024833679199,5.562927722930908,140.19775390625,-10.467529296875,-27.130126953125
3.1174999000000003,-1.0085574388504028,-6.458359241485596,6.112995624542236,156.3720703125,-32.958984375,-2.044677734375
3.1224999,-0.9493009448051453,-5.033809185028076,6.660669326782227,185.821533203125,-48.828125,17.974853515625
3.1274999,-0.641047477722168,-4.6291890144348145,6.697779178619385,196.807861328125,-56.793212890625,30.609130859375
3.1324999,-0.30885201692581177,-4.361637115478516,6.776787757873535,217.376708984375,-74.52392578125,46.051025390625
3.1374999000000003,0.035913024097681046,-3.952228546142578,6.865373611450195,253.204345703125,-92.95654296875,46.173095703125
3.1424999000000002,0.30705636739730835,-3.3901896476745605,7.04793119430542,285.82763671875,-97.625732421875,35.0341796875
3.1474999,0.517746090888977,-2.583942174911499,7.299921035766602,298.76708984375,-92.59033203125,32.318115234375
3.1524999,1.5520412921905518,-0.6787561774253845,7.987056732177734,324.859619140625,-82.977294921875,65.032958984375
3.1574999000000004,1.8950105905532837,0.3447650372982025,7.953537940979004,332.09228515625,-52.490234375,56.732177734375
3.1624999000000003,2.188898801803589,1.5795745849609375,7.384915351867676,67.56591796875,70.892333984375,65.0634765625
3.1674999,2.0027496814727783,2.759916067123413,7.130531311035156,-26.0009765625,44.891357421875,45.745849609375
3.1724999,1.7375918626785278,4.2311530113220215,6.736684799194336,6.4697265625,-5.828857421875,27.923583984375
3.1774999000000004,1.4838064908981323,5.230731964111328,7.285555839538574,21.05712890625,-16.693115234375,15.869140625
3.1824999000000003,1.1019313335418701,5.986701488494873,7.869142532348633,12.75634765625,-23.13232421875,7.537841796875
3.1874999,0.8750807046890259,6.080673694610596,8.69095230102539,-10.589599609375,-25.909423828125,18.829345703125
3.1924999,0.8044517636299133,5.589263916015625,9.021950721740723,-10.009765625,-2.716064453125,38.57421875
3.1974999000000004,0.950498104095459,4.543596267700195,9.39245319366455,0.54931640625,6.622314453125,38.421630859375
3.2024999000000003,0.9756371974945068,3.4105403423309326,9.506776809692383,-8.453369140625,-7.87353515625,19.22607421875
3.2074999,0.7110779285430908,-2.076969861984253,9.331400871276855,1.03759765625,1.64794921875,-8.514404296875
3.2124999,0.8882488012313843,-1.2228385210037231,9.525331497192383,-6.622314453125,12.847900390625,-4.2724609375
3.2174999,0.9696516990661621,-0.21966800093650818,9.52114200592041,5.157470703125,7.14111328125,4.486083984375
3.2224999000000003,1.0319008827209473,0.5051765441894531,9.640253067016602,5.218505859375,-6.378173828125,-5.18798828125
3.2274999,1.0666168928146362,0.9050082564353943,9.749189376831055,-7.171630859375,1.3427734375,-6.683349609375
3.2324999,1.0660183429718018,0.9068039059638977,9.860519409179688,-3.60107421875,10.040283203125,11.749267578125
3.2374999,0.9642647504806519,0.25079262256622314,9.855133056640625,-0.396728515625,-10.833740234375,-6.28662109375
3.2424999000000003,1.0127472877502441,-0.12210428714752197,9.91738224029541,-4.8828125,9.58251953125,1.40380859375
3.2474999,0.9361328482627869,-0.3345896899700165,9.747393608093262,3.173828125,4.058837890625,11.474609375
3.2524999,0.8523358106613159,-0.46627077460289,9.604938507080078,4.150390625,-13.153076171875,-4.364013671875
3.2574999,0.9139865040779114,-0.4118026793003082,9.73542308807373,-4.852294921875,2.410888671875,-8.941650390625
3.2624999000000003,0.9115923047065735,-0.34177228808403015,9.775525093078613,-1.3427734375,11.627197265625,9.246826171875
3.2674999000000002,0.9343371987342834,-0.19153612852096558,9.728838920593262,6.011962890625,-9.368896484375,3.2958984375
3.2724999,1.0019733905792236,-0.13048399984836578,9.802460670471191,-2.9296875,-6.34765625,-11.962890625
3.2774999,1.1019313335418701,-0.06823474913835526,9.88506031036377,-4.57763671875,14.7705078125,4.180908203125
3.2824999000000004,1.0911574363708496,-0.16340427100658417,9.943717956542969,-4.425048828125,10.19287109375,-0.518798828125
3.2874999000000003,0.8870517015457153,-0.18076223134994507,9.665990829467773,2.0751953125,-14.495849609375,-7.6904296875
3.2924999,0.9487023949623108,-0.13587094843387604,9.789292335510254,-5.615234375,4.45556640625,-7.6904296875
3.2974999,0.960673451423645,-0.08798690885305405,9.694721221923828,2.38037109375,11.688232421875,12.237548828125
3.3024999000000004,0.921169102191925,-0.14245499670505524,9.657610893249512,3.326416015625,-12.481689453125,-3.570556640625
3.3074999000000003,1.0342950820922852,-0.10235211998224258,9.777320861816406,-5.859375,-0.732421875,-9.3994140625
3.3124999,1.027711033821106,-0.13766659796237946,9.82759952545166,2.288818359375,13.458251953125,12.542724609375
3.3174999,0.961870551109314,-0.15741875767707825,9.682151794433594,4.547119140625,-10.528564453125,-0.701904296875
3.3224999000000004,1.0115501880645752,-0.14604631066322327,9.806051254272461,-6.591796875,-3.5400390625,-10.833740234375
3.3274999000000003,1.0342950820922852,-0.1430535465478897,9.849745750427246,2.0751953125,15.869140625,11.932373046875
3.3324999,0.9612720012664795,-0.16579847037792206,9.68155288696289,4.638671875,-8.056640625,0.030517578125
3.3374999,1.006163239479065,-0.16639702022075653,9.835380554199219,-7.110595703125,-5.462646484375,-11.444091796875
3.3424999,1.0384849309921265,-0.15981295704841614,9.86770248413086,2.777099609375,14.862060546875,12.451171875
3.3474999000000003,1.0157400369644165,-0.12090718746185303,9.780313491821289,3.814697265625,14.58740234375,13.61083984375
3.3524999,0.9487023949623108,-0.1628057211637497,9.662399291992188,3.96728515625,-9.21630859375,-1.46484375
3.3574999,1.0313023328781128,-0.13347674906253815,9.856928825378418,-7.965087890625,-3.936767578125,-8.575439453125
3.3624999,1.0642226934432983,-0.13946224749088287,9.821614265441895,5.523681640625,13.397216796875,13.916015625
3.3674999000000003,0.9528923034667969,-0.17238251864910126,9.688735961914062,1.800537109375,-11.077880859375,-4.5166015625
3.3724999,1.0779893398284912,-0.1885433793067932,9.943120002746582,-7.4462890625,-0.579833984375,-4.94384765625
3.3774999,0.9846154451370239,-0.15083470940589905,9.727641105651855,7.4462890625,11.04736328125,13.7939453125
3.3824999,0.9044097065925598,-0.19393034279346466,9.588777542114258,-1.800537109375,-12.87841796875,-8.941650390625
3.3874999000000003,1.0181342363357544,-0.17717093229293823,9.922768592834473,-5.31005859375,4.730224609375,-0.152587890625
3.3924999000000002,0.9074024558067322,-0.11192893236875534,9.539097785949707,8.514404296875,6.9580078125,10.406494140625
3.3974999,0.9127894043922424,-0.14006079733371735,9.785700798034668,-6.072998046875,-13.00048828125,-12.51220703125
3.4024999,0.9678560495376587,-0.15023615956306458,9.886856079101562,-8.85009765625,-10.3759765625,-11.627197265625
3.4074999000000004,1.0193313360214233,-0.13168109953403473,9.818621635437012,4.45556640625,13.458251953125,11.566162109375
3.4124999000000003,0.9253589510917664,-0.15023615956306458,9.621698379516602,2.777099609375,-7.232666015625,-4.058837890625
3.4174999,1.047463297843933,-0.17417816817760468,9.968857765197754,-8.23974609375,-3.11279296875,-5.462646484375
3.4224999,0.9786299467086792,-0.12509703636169434,9.636063575744629,8.544921875,11.04736328125,11.566162109375
3.4274999000000004,0.9475052952766418,-0.152031809091568,9.782109260559082,-4.5166015625,-12.451171875,-11.260986328125
3.4324999000000003,1.035492181777954,-0.1388636976480484,9.912593841552734,-2.38037109375,6.65283203125,4.2724609375
3.4374999,0.9367313981056213,-0.13407529890537262,9.636661529541016,8.026123046875,2.716064453125,4.2724609375
3.4424999,1.0618284940719604,-0.17537526786327362,9.824007987976074,5.828857421875,12.908935546875,11.5966796875
3.4474999000000004,0.9020155072212219,-0.12090718746185303,9.61212158203125,3.143310546875,-4.302978515625,-4.21142578125
3.4524999000000003,0.9020155072212219,-0.12090718746185303,9.61212158203125,3.143310546875,-4.302978515625,-4.21142578125
3.4574999,1.0348936319351196,-0.14903905987739563,9.97364616394043,-7.965087890625,-3.143310546875,-2.5634765625
3.4624999,0.9600749015808105,-0.10833762586116791,9.547477722167969,9.765625,9.21630859375,9.1552734375
3.4674999,0.9744400978088379,-0.18914192914962769,9.911994934082031,-8.056640625,-10.80322265625,-10.80322265625
3.4724999000000003,1.0648212432861328,-0.1280897855758667,9.854534149169922,3.0517578125,9.33837890625,9.674072265625
3.4774999,0.9391255974769592,-0.16879121959209442,9.598953247070312,3.021240234375,-3.35693359375,-4.486083984375
3.4824999,1.049857497215271,-0.16879121959209442,9.962871551513672,-7.537841796875,-2.593994140625,-1.52587890625
3.4874999,0.9445125460624695,-0.1173158809542656,9.41400146484375,9.857177734375,7.87353515625,7.01904296875
3.4924999000000003,1.0031704902648926,-0.076015904545784,9.618106842041016,4.82177734375,9.490966796875,10.589599609375
3.4974999,0.9570821523666382,-0.11252748221158981,9.442731857299805,0.213623046875,-5.889892578125,-7.2021484375
3.5024999,1.0414776802062988,-0.12449848651885986,9.742605209350586,-5.0048828125,0.701904296875,2.3193359375
3.5074999,0.9373299479484558,-0.12210428714752197,9.284713745117188,8.544921875,4.241943359375,3.204345703125
3.5124999000000003,0.9612720012664795,-0.1777694821357727,9.804854393005371,-9.765625,-8.148193359375,-7.354736328125
3.5174999000000002,0.9295487999916077,-0.09397241473197937,9.576208114624023,8.148193359375,10.31494140625,10.162353515625
3.5224999,0.9840168952941895,-0.10953472554683685,9.895833969116211,0.244140625,6.011962890625,7.904052734375
3.5274999,0.9840168952941895,-0.10953472554683685,9.895833969116211,0.244140625,6.011962890625,7.904052734375
3.5324999000000004,0.9044097065925598,-0.21128830313682556,9.65222454071045,4.08935546875,-2.044677734375,-3.692626953125
3.5374999000000003,1.060032844543457,-0.20231004059314728,10.02811336517334,-7.26318359375,-2.8076171875,-1.03759765625
3.5424999,0.9528923034667969,-0.16519992053508759,9.470863342285156,9.1552734375,6.53076171875,5.0048828125
3.5474999,1.0013748407363892,-0.18076223134994507,9.862914085388184,-8.941650390625,-9.27734375,-8.453369140625
3.5524999000000004,1.0959458351135254,-0.1711854189634323,9.964667320251465,-6.256103515625,-1.434326171875,0.79345703125
3.5574999000000003,0.9684545993804932,-0.15741875767707825,9.482834815979004,8.209228515625,5.43212890625,3.0517578125
3.5624999,1.0426748991012573,-0.2082955539226532,10.029311180114746,-8.941650390625,-7.9345703125,-5.828857421875
3.5674999,0.9852139949798584,-0.08439560979604721,9.630077362060547,8.1787109375,9.552001953125,8.6669921875
3.5724999000000004,1.003769040107727,-0.14185644686222076,9.95209789276123,-6.53076171875,-9.521484375,-9.002685546875
3.5774999000000003,1.0031704902648926,-0.02693476900458336,9.670180320739746,4.08935546875,8.60595703125,9.552001953125
3.5824999,1.0007762908935547,-0.09636662155389786,9.732429504394531,-1.220703125,-6.561279296875,-7.75146484375
3.5874999,1.0516531467437744,-0.05267243832349777,9.779715538024902,-1.77001953125,3.448486328125,6.622314453125
3.5924999,0.9457096457481384,-0.1346738487482071,9.462483406066895,4.33349609375,-1.03759765625,-2.838134765625
3.5974999000000003,0.9217676520347595,-0.16101007163524628,9.424176216125488,7.62939453125,4.2724609375,2.593994140625
3.6024999,1.0468647480010986,-0.2298433631658554,10.070611000061035,-8.056640625,-7.080078125,-4.119873046875
3.6074999,0.9457096457481384,-0.10295066982507706,9.602544784545898,8.209228515625,8.209228515625,6.805419921875
3.6124999,1.0001777410507202,-0.18734627962112427,10.02691650390625,-7.26318359375,-8.85009765625,-7.415771484375
3.6174999000000003,0.9726444482803345,-0.05626374110579491,9.709086418151855,5.9814453125,8.97216796875,8.819580078125
3.6224999,0.9762357473373413,-0.16400282084941864,9.868300437927246,-4.547119140625,-7.87353515625,-8.60595703125
3.6274999,0.9798270463943481,-0.06883329898118973,9.64923095703125,2.62451171875,7.01904296875,8.23974609375
3.6324999,0.9684545993804932,-0.18375498056411743,9.671378135681152,-0.6103515625,-5.126953125,-7.293701171875
3.6374999000000003,1.0133458375930786,-0.07541735470294952,9.617507934570312,-1.15966796875,3.35693359375,6.134033203125
3.6424999000000002,0.970848798751831,-0.08200141042470932,9.440936088562012,3.0517578125,-1.40380859375,-4.486083984375
3.6474999,1.080383539199829,-0.090979665517807,9.776124000549316,-4.39453125,-0.6103515625,3.082275390625
3.6524999,0.9750386476516724,-0.13168109953403473,9.405621528625488,5.584716796875,2.410888671875,-1.40380859375
3.6574999000000004,0.9283517003059387,-0.23343466222286224,9.468469619750977,7.26318359375,5.401611328125,1.739501953125
3.6624999000000003,1.0630255937576294,-0.28730419278144836,10.140641212463379,-7.476806640625,-6.40869140625,-3.23486328125
3.6674999,0.9068039059638977,-0.13946224749088287,9.482834815979004,7.537841796875,7.14111328125,4.45556640625
3.6724999,1.006163239479065,-0.2256535142660141,10.032901763916016,-7.38525390625,-7.62939453125,-5.37109375
3.6774999000000004,0.899621307849884,-0.043095629662275314,9.485827445983887,7.14111328125,7.87353515625,6.439208984375
3.6824999000000003,0.9498994946479797,-0.15921440720558167,9.888651847839355,-6.77490234375,-7.50732421875,-6.927490234375
3.6874999,0.9205705523490906,-0.031124621629714966,9.452906608581543,6.04248046875,7.781982421875,7.293701171875
3.6924999,0.9768342971801758,-0.15801730751991272,9.795876502990723,-5.43212890625,-7.01904296875,-7.598876953125
3.6974999000000004,0.9816226959228516,-0.050876785069704056,9.531915664672852,4.669189453125,6.988525390625,7.537841796875
3.7024999000000003,1.0097545385360718,-0.2059013396501541,9.758167266845703,-4.21142578125,-5.9814453125,-7.781982421875
3.7074999,0.9678560495376587,-0.10175357013940811,9.570222854614258,3.35693359375,5.645751953125,7.781982421875
3.7124999,0.9828197956085205,-0.23582886159420013,9.666589736938477,-2.74658203125,-4.8828125,-7.476806640625
3.7174999,0.9762357473373413,-0.04728548228740692,9.430161476135254,0.9765625,2.9296875,6.683349609375
3.7224999000000003,1.0097545385360718,-0.12090718746185303,9.633668899536133,-0.518798828125,-2.349853515625,-6.77490234375
3.7274999,1.039083480834961,-0.04249707981944084,9.592967987060547,-0.1220703125,2.044677734375,6.072998046875
3.7324999,1.0426748991012573,-0.07481880486011505,9.679159164428711,0.18310546875,-1.5869140625,-6.103515625
3.7374999,1.0755951404571533,-0.05147533491253853,9.602544784545898,-0.54931640625,1.007080078125,5.615234375
3.7424999000000003,1.0564415454864502,-0.08559270948171616,9.480440139770508,0.42724609375,-0.640869140625,-5.67626953125
3.7474999,1.0480618476867676,-0.09516951441764832,9.436147689819336,-1.007080078125,0.396728515625,5.218505859375
3.7524999,1.0109516382217407,-0.10953472554683685,9.299677848815918,1.129150390625,-0.030517578125,-5.279541015625
3.7574999,0.9953893423080444,-0.11971008777618408,9.41759204864502,-1.007080078125,0.152587890625,5.035400390625
3.7624999000000003,0.9654618501663208,-0.09636662155389786,9.349357604980469,1.007080078125,0.244140625,-5.279541015625
3.7674999000000002,0.9630676507949829,-0.11432313174009323,9.552865028381348,-1.007080078125,0.030517578125,4.913330078125
3.7724999,0.9570821523666382,-0.076015904545784,9.601945877075195,0.885009765625,0.30517578125,-5.096435546875
3.7774999,0.9624691009521484,-0.13706804811954498,9.746794700622559,-0.42724609375,-0.06103515625,5.096435546875
3.7824999000000004,0.9888052940368652,-0.11133038252592087,9.612719535827637,0.54931640625,0.06103515625,-5.645751953125
3.7874999000000003,0.9774328470230103,-0.13587094843387604,9.596558570861816,-0.030517578125,0.42724609375,5.18798828125
3.7924999,1.0193313360214233,-0.1215057373046875,9.424176216125488,-0.518798828125,-0.457763671875,-5.92041015625
3.7974999,0.9810241460800171,-0.13587094843387604,9.297882080078125,0.762939453125,0.640869140625,5.584716796875
3.8024999000000004,1.016338586807251,-0.14065934717655182,9.241020202636719,-1.15966796875,-1.0986328125,-5.9814453125
3.8074999000000003,0.93254154920578,-0.17238251864910126,9.10874080657959,1.8310546875,1.220703125,5.706787109375
3.8124999,0.9570821523666382,-0.1951274424791336,9.287108421325684,-1.983642578125,-1.40380859375,-6.53076171875
3.8174999,0.8876502513885498,-0.22744916379451752,9.239224433898926,2.532958984375,1.8310546875,5.859375
3.8224999000000004,0.9038111567497253,-0.28131869435310364,9.416994094848633,-3.265380859375,-2.01416015625,-6.561279296875
3.8274999000000003,0.9181763529777527,-0.31603461503982544,9.5007905960083,-4.302978515625,-2.838134765625,-6.591796875
3.8324999,0.9774328470230103,-0.1777694821357727,9.342175483703613,4.82177734375,3.0517578125,6.072998046875
3.8374999,1.015141487121582,-0.2322375625371933,9.532513618469238,-5.096435546875,-3.35693359375,-6.134033203125
3.8424999,1.0851719379425049,-0.13108254969120026,9.434351921081543,-6.622314453125,-4.119873046875,-4.180908203125
3.8474999000000003,0.9397241473197937,-0.023343466222286224,8.880094528198242,6.2255859375,4.180908203125,3.35693359375
3.8524999,1.0899603366851807,-0.15562310814857483,9.40023422241211,-6.195068359375,-3.875732421875,-2.8076171875
3.8574999,0.9295487999916077,-0.07122749835252762,8.871115684509277,5.828857421875,3.936767578125,1.495361328125
3.8624999,1.0564415454864502,-0.16519992053508759,9.43135929107666,-5.279541015625,-3.7841796875,-0.885009765625
3.8674999000000003,0.9295487999916077,-0.1801636815071106,8.935759544372559,4.5166015625,3.326416015625,-0.30517578125
3.8724999,0.9181763529777527,-0.2585737705230713,8.841787338256836,2.50244140625,2.5634765625,-2.38037109375
3.8774999,1.0755951404571533,-0.10175357013940811,9.118317604064941,-1.068115234375,-2.044677734375,3.173828125
3.8824999,0.945111095905304,-0.19213469326496124,8.749011993408203,-0.42724609375,1.434326171875,-4.21142578125
3.8874999000000003,1.0402805805206299,-0.02992752194404602,9.001001358032227,1.617431640625,-0.54931640625,4.5166015625
3.8924999000000002,1.0432734489440918,-0.01496376097202301,8.939949035644531,-3.11279296875,0.030517578125,-5.37109375
3.8974999,0.9977835416793823,-0.008978256024420261,9.157222747802734,4.39453125,0.67138671875,5.2490234375
3.9024999,1.0133458375930786,0.010175357572734356,9.297882080078125,-5.523681640625,-1.15966796875,-5.645751953125
3.9074999000000004,0.950498104095459,-0.055665191262960434,9.27453899383545,6.561279296875,1.708984375,5.06591796875
3.9124999000000003,0.9636662006378174,-0.15083470940589905,9.493009567260742,-6.805419921875,-2.13623046875,-4.7607421875
3.9174999,0.8918401598930359,-0.09038111567497253,9.032724380493164,6.561279296875,2.410888671875,3.509521484375
3.9224999,0.9313444495201111,-0.20111294090747833,8.501212120056152,3.47900390625,2.38037109375,-1.251220703125
3.9274999000000004,1.0678139925003052,-0.0802057534456253,8.82323169708252,-1.77001953125,-2.01416015625,2.50244140625
3.9324999000000003,0.9642647504806519,-0.24660277366638184,8.556877136230469,-0.3662109375,1.220703125,-3.96728515625
3.9374999,1.027711033821106,-0.076015904545784,8.929773330688477,2.471923828125,-0.1220703125,4.241943359375
3.9424999,1.0384849309921265,-0.13347674906253815,8.936956405639648,-3.875732421875,-0.457763671875,-5.31005859375
3.9474999000000004,0.9774328470230103,-0.09816227108240128,9.10993766784668,5.462646484375,0.946044921875,5.279541015625
3.9524999000000003,0.9941922426223755,-0.17896658182144165,9.394847869873047,-6.04248046875,-1.52587890625,-5.0048828125
3.9574999,0.9187749028205872,-0.11192893236875534,9.11233139038086,6.77490234375,2.197265625,3.84521484375
3.9624999,0.9846154451370239,-0.2513911724090576,9.445125579833984,-6.622314453125,-2.410888671875,-3.23486328125
3.9674999000000004,0.8649053573608398,-0.13826514780521393,8.842385292053223,5.889892578125,2.685546875,1.15966796875
3.9724999000000003,1.0217255353927612,-0.13826514780521393,9.12849235534668,-4.119873046875,-1.922607421875,0.1220703125
3.9774999,0.8990227580070496,-0.2214636504650116,8.574234962463379,2.532958984375,1.800537109375,-2.25830078125
3.9824999,1.0708067417144775,-0.04967968538403511,8.82203483581543,3.2958984375,0.701904296875,4.852294921875
3.9874999,1.0432734489440918,-0.10175357013940811,8.971074104309082,-4.69970703125,-1.5869140625,-5.462646484375
3.9924999000000003,0.922366201877594,-0.09038111567497253,8.873510360717773,5.37109375,2.13623046875,4.150390625
3.9974999,0.9493009448051453,-0.2537853717803955,9.088988304138184,-5.67626953125,-2.44140625,-3.692626953125
4.0024999,0.8421604633331299,-0.18375498056411743,8.65863037109375,4.8828125,2.74658203125,1.739501953125
4.0074999,1.0313023328781128,-0.18555063009262085,9.010578155517578,-4.119873046875,-1.89208984375,-0.42724609375
4.0124999,0.9157821536064148,-0.23762452602386475,8.555679321289062,2.166748046875,1.678466796875,-1.8310546875
4.0174999,1.0630255937576294,-0.09935937076807022,8.901042938232422,-0.335693359375,-1.251220703125,3.0517578125
4.022499900000001,1.0720038414001465,-0.15981295704841614,8.802282333374023,-2.044677734375,0.091552734375,-4.57763671875
4.0274999000000005,1.0570400953292847,-0.03651157766580582,8.814253807067871,3.631591796875,1.129150390625,4.669189453125
4.0324999,1.1127052307128906,-0.09038111567497253,9.08719253540039,-4.7607421875,-1.495361328125,-5.035400390625
4.0374999,0.9277531504631042,-0.06464344263076782,8.773551940917969,5.645751953125,2.25830078125,3.60107421875
4.0424999,0.9870096445083618,-0.152031809091568,9.261969566345215,-5.2490234375,-2.50244140625,-2.532958984375
4.0474999,0.8601169586181641,-0.17477671802043915,8.792705535888672,3.90625,2.227783203125,0.274658203125
4.0524999,1.0031704902648926,-0.13527239859104156,9.08838939666748,-1.953125,-1.983642578125,1.3427734375
4.0574999,0.9522937536239624,-0.2106897532939911,8.644265174865723,-0.06103515625,0.640869140625,-3.35693359375
4.062499900000001,1.0187327861785889,-0.15981295704841614,8.704120635986328,2.227783203125,0.030517578125,4.33349609375
4.0674999000000005,0.9415197968482971,-0.2753331959247589,8.571840286254883,-4.08935546875,-0.91552734375,-5.18798828125
4.0724999,0.9127894043922424,-0.1999158412218094,8.514978408813477,5.31005859375,1.708984375,3.96728515625
4.0774999,0.983418345451355,-0.26096799969673157,8.711901664733887,-5.645751953125,-2.227783203125,-3.35693359375
4.0824999,0.9044097065925598,-0.17178396880626678,8.364143371582031,4.8828125,2.288818359375,0.946044921875
4.0874999,1.1001356840133667,-0.09217676520347595,8.647257804870605,-2.960205078125,-1.556396484375,0.396728515625
4.0924999,0.9738415479660034,-0.1801636815071106,8.275558471679688,0.42724609375,0.885009765625,-2.716064453125
4.0974999,0.9792284965515137,-0.2579752206802368,8.531139373779297,-3.662109375,-1.28173828125,-3.814697265625
4.1024999,0.9882067441940308,-0.14425064623355865,8.480262756347656,5.462646484375,1.251220703125,6.53076171875
4.1074999000000005,1.07379949092865,-0.21966800093650818,8.828619003295898,-4.0283203125,-3.814697265625,1.03759765625
4.1124999,1.0432734489440918,-0.1777694821357727,8.411429405212402,4.974365234375,1.129150390625,6.40869140625
4.1174999,1.2336124181747437,-0.13587094843387604,8.908226013183594,-1.617431640625,-2.99072265625,6.500244140625
4.1224999,1.146224021911621,-0.16519992053508759,8.786121368408203,1.40380859375,-0.152587890625,2.50244140625
4.1274999,1.159990668296814,-0.06344634294509888,8.983643531799316,1.678466796875,0.518798828125,9.735107421875
4.1324999,1.0869675874710083,-0.12689268589019775,9.211092948913574,-1.77001953125,-1.708984375,0.48828125
4.1374999,0.9684545993804932,-0.06643909960985184,8.880094528198242,4.57763671875,2.44140625,9.70458984375
4.1424999,0.9917980432510376,-0.14784196019172668,9.267355918884277,-3.173828125,-2.74658203125,4.57763671875
4.147499900000001,0.9660604000091553,-0.20949265360832214,8.853757858276367,3.7841796875,1.708984375,6.622314453125
4.1524999000000005,1.0097545385360718,0.01735796220600605,9.486425399780273,2.410888671875,1.739501953125,4.730224609375
4.1574999,0.9103952050209045,0.24361002445220947,9.61212158203125,-1.373291015625,-0.244140625,8.1787109375
4.1624999,0.6530185341835022,0.2513911724090576,9.181164741516113,2.9296875,5.37109375,3.936767578125
4.1674999,0.6602011322975159,0.15023615956306458,9.403226852416992,-3.96728515625,0.3662109375,-4.7607421875
4.1724999,0.5632359385490417,-0.04967968538403511,8.848370552062988,2.410888671875,5.43212890625,-4.852294921875
4.1774999,0.7356184720993042,-0.055665191262960434,9.11233139038086,-2.166748046875,1.434326171875,-5.92041015625
4.1824999,1.128267526626587,-0.34356793761253357,9.170391082763672,-5.2490234375,3.997802734375,-11.5966796875
4.187499900000001,1.128267526626587,-0.34356793761253357,9.170391082763672,-5.2490234375,3.997802734375,-11.5966796875
4.1924999000000005,1.193509578704834,-0.14784196019172668,8.843582153320312,4.547119140625,6.89697265625,-8.148193359375
4.1974999,2.38462495803833,1.3317747116088867,9.248202323913574,3.60107421875,14.6484375,-37.078857421875
4.2024999,4.103063106536865,3.6709096431732178,9.813833236694336,55.877685546875,65.97900390625,-222.137451171875
4.2074999,5.937021732330322,6.538564682006836,10.778097152709961,133.72802734375,163.665771484375,-495.513916015625
4.2124999,7.353790283203125,8.542511940002441,11.504138946533203,171.722412109375,231.475830078125,-602.691650390625
4.2174999,7.4106526374816895,8.941145896911621,11.512518882751465,176.57470703125,206.451416015625,-560.48583984375
4.2224999,6.484096527099609,7.380725383758545,10.165182113647461,94.635009765625,121.063232421875,-480.04150390625
4.2274999,5.061941146850586,5.510255336761475,8.299500465393066,-0.579833984375,31.707763671875,-378.204345703125
4.2324999000000005,3.930082082748413,3.3716344833374023,6.15489387512207,-107.5439453125,-15.838623046875,-282.562255859375
4.2374999,2.7467479705810547,1.71245276927948,4.446630954742432,-162.4755859375,-34.698486328125,-205.810546875
4.2424999,-1.1653777360916138,-1.4431051015853882,3.19865345954895,-200.74462890625,-115.1123046875,-13.916015625
4.2474999,-3.3464953899383545,-3.666719913482666,5.7544636726379395,-127.899169921875,-161.31591796875,27.801513671875
4.2524999,-5.088875770568848,-5.889736175537109,9.345168113708496,-23.8037109375,-197.69287109375,60.60791015625
4.2574999,-5.832873821258545,-8.119935035705566,12.618639945983887,-1.617431640625,-164.215087890625,92.071533203125
4.2624999,-5.193023681640625,-9.3643217086792,14.20419979095459,23.193359375,-98.114013671875,103.6376953125
4.2674999,-3.4171242713928223,-8.818443298339844,13.148955345153809,45.34912109375,-23.284912109375,107.696533203125
4.272499900000001,-1.5275006294250488,-7.381922245025635,10.665570259094238,48.9501953125,-29.9072265625,90.63720703125
4.2774999000000005,-0.2041056901216507,-5.546766757965088,7.6979570388793945,63.262939453125,-34.72900390625,78.4912109375
4.2824999,0.7224503755569458,-4.1425676345825195,5.655703067779541,48.828125,-48.858642578125,68.084716796875
4.2874999,1.423951506614685,-3.360262155532837,5.478531837463379,63.812255859375,-39.215087890625,49.957275390625
4.2924999,1.8579005002975464,-2.957437753677368,5.941211700439453,38.970947265625,9.246826171875,47.119140625
4.2974999,2.339733600616455,-1.9345149993896484,8.37192440032959,30.82275390625,4.638671875,-2.044677734375
4.3024999,2.253542423248291,-0.9373299479484558,9.3427734375,14.58740234375,0.823974609375,-3.5400390625
4.3074999,1.6980875730514526,-0.005985504016280174,9.273940086364746,7.6904296875,21.942138671875,1.46484375
4.312499900000001,1.3006501197814941,1.0133458375930786,9.163806915283203,-2.105712890625,23.529052734375,9.796142578125
4.3174999000000005,0.9373299479484558,1.614290475845337,9.676166534423828,-7.049560546875,9.124755859375,0.67138671875
4.3224999,0.5638344883918762,2.0225019454956055,9.367314338684082,-1.434326171875,6.591796875,4.791259765625
4.3274999,0.48243165016174316,1.8908207416534424,10.038289070129395,-5.43212890625,-4.425048828125,4.45556640625
4.3324999,0.2346317619085312,1.455674648284912,9.95090103149414,-0.335693359375,-6.04248046875,3.204345703125
4.3374999,0.28550854325294495,0.823006808757782,10.038887977600098,-2.716064453125,-9.1552734375,10.68115234375
4.3424999,0.4255693554878235,0.05626374110579491,10.128071784973145,-5.2490234375,-11.322021484375,1.312255859375
4.3474999,0.5488707423210144,-0.44532153010368347,9.552266120910645,3.662109375,-5.035400390625,5.218505859375
4.352499900000001,0.9654618501663208,-0.8236053586006165,9.67077922821045,-3.021240234375,-6.04248046875,-0.518798828125
4.3574999000000005,1.468244194984436,-0.6171054840087891,9.013570785522461,-0.244140625,1.556396484375,-3.570556640625
4.3624999,1.3527239561080933,-0.26994624733924866,8.655637741088867,3.96728515625,6.744384765625,4.45556640625
4.3674999,1.3886369466781616,-0.1173158809542656,9.147047996520996,-3.509521484375,-0.640869140625,1.434326171875
4.3724999,1.1288660764694214,-0.06883329898118973,8.82442855834961,2.716064453125,3.47900390625,1.556396484375
4.3774999,1.1073182821273804,0.12090718746185303,9.074024200439453,0.54931640625,0.91552734375,5.035400390625
4.3824999,0.9672574996948242,-0.0586579404771328,9.209895133972168,-2.01416015625,-2.197265625,-2.50244140625
4.3874999,0.8068459630012512,0.06464344263076782,8.85794734954834,3.35693359375,2.227783203125,4.2724609375
4.3924999,0.9038111567497253,-0.07541735470294952,9.213486671447754,-3.90625,-3.692626953125,-0.091552734375
4.397499900000001,0.8206126093864441,-0.14784196019172668,8.777742385864258,2.38037109375,-0.030517578125,0
4.4024999000000005,0.9690531492233276,-0.10115502029657364,8.872312545776367,0,-1.373291015625,3.875732421875
4.4074999,1.0324994325637817,-0.20769700407981873,8.965087890625,-2.044677734375,-2.471923828125,-3.11279296875
4.4124999,1.1857284307479858,-0.15682020783424377,9.03870964050293,-3.387451171875,-2.38037109375,-0.518798828125
4.4174999,1.0923545360565186,-0.2214636504650116,8.655637741088867,2.105712890625,2.13623046875,-0.152587890625
4.4224999,1.1869255304336548,-0.0933738648891449,8.784924507141113,0.42724609375,0.48828125,4.150390625
4.4274999,1.1552022695541382,-0.2106897532939911,8.944138526916504,-1.708984375,-1.89208984375,-2.86865234375
4.4324999,0.9882067441940308,-0.10534487664699554,8.662819862365723,3.387451171875,3.082275390625,3.7841796875
4.437499900000001,1.115697979927063,-0.12868833541870117,9.12849235534668,-3.23486328125,-2.410888671875,0.06103515625
4.4424999000000005,0.9528923034667969,-0.2106897532939911,8.80587387084961,1.434326171875,0.79345703125,-0.457763671875
4.4474999,1.0462661981582642,-0.04668693244457245,8.902838706970215,1.46484375,0.030517578125,4.45556640625
4.4524999,1.0983400344848633,-0.21667525172233582,9.029731750488281,-2.197265625,-2.8076171875,-2.166748046875
4.4574999,0.9080010056495667,-0.05027823522686958,8.605359077453613,3.2958984375,1.77001953125,4.0283203125
4.4624999,1.0983400344848633,-0.1388636976480484,9.0051908493042,-3.448486328125,-3.509521484375,1.068115234375
4.4674999,0.9151836037635803,-0.12629413604736328,8.778939247131348,0.457763671875,-0.823974609375,-1.708984375
4.4724999,1.0911574363708496,-0.11611878126859665,8.974664688110352,2.777099609375,2.01416015625,3.936767578125
4.477499900000001,1.1019313335418701,-0.33339259028434753,9.30805778503418,-3.11279296875,-2.410888671875,-2.5634765625
4.4824999000000005,0.9810241460800171,-0.09516951441764832,8.811859130859375,2.838134765625,2.777099609375,0.823974609375
4.4874999,1.1150994300842285,-0.07841010391712189,9.02254867553711,-1.28173828125,-1.129150390625,2.13623046875
4.4924999,1.0259153842926025,-0.19871874153614044,9.03751277923584,-1.495361328125,-1.068115234375,-3.143310546875
4.4974999,1.0217255353927612,-0.0520738884806633,8.814851760864258,3.60107421875,2.01416015625,3.5400390625
4.5024999,1.104325532913208,-0.2968810200691223,9.190143585205078,-3.326416015625,-2.838134765625,-1.5869140625
4.5074999,1.006163239479065,-0.10354922711849213,8.790311813354492,1.953125,1.5869140625,-0.54931640625
4.5124999,0.9810241460800171,-0.04967968538403511,8.707113265991211,3.997802734375,2.777099609375,2.716064453125
4.5174999,1.1438298225402832,-0.21428105235099792,9.148244857788086,-2.288818359375,-1.64794921875,-0.213623046875
4.522499900000001,0.9600749015808105,-0.17298106849193573,8.899248123168945,0.823974609375,0.6103515625,-2.166748046875
4.5274999000000005,1.0307037830352783,-0.12330138683319092,8.839991569519043,1.190185546875,1.007080078125,3.143310546875
4.5324999,1.0833762884140015,-0.19393034279346466,9.172186851501465,-3.204345703125,-2.593994140625,-3.23486328125
4.5374999,0.9199720025062561,-0.08738835901021957,8.635287284851074,3.5400390625,2.13623046875,1.0986328125
4.5424999,1.1049240827560425,-0.07960720360279083,8.980650901794434,-1.617431640625,-1.0986328125,1.15966796875
4.5474999,0.9690531492233276,-0.15921440720558167,8.904036521911621,-1.28173828125,-0.701904296875,-3.173828125
4.5524999,1.015141487121582,-0.09397241473197937,8.771756172180176,2.3193359375,2.288818359375,3.326416015625
4.5574999,1.0869675874710083,-0.18495208024978638,9.196128845214844,-3.173828125,-2.349853515625,-1.953125
4.562499900000001,1.0211269855499268,-0.181959331035614,8.807669639587402,2.471923828125,1.5869140625,-0.6103515625
4.5674999000000005,1.1516109704971313,-0.1562216579914093,9.035717010498047,-2.410888671875,-2.13623046875,-3.509521484375
4.5724999,0.9894038438796997,-0.1041477769613266,8.654440879821777,2.38037109375,2.685546875,2.0751953125
4.5774999,1.169567584991455,-0.08918401598930359,9.09377670288086,-2.01416015625,-1.922607421875,-0.1220703125
4.5824999,0.93254154920578,-0.29388827085494995,8.910619735717773,0.244140625,-0.030517578125,-2.197265625
4.5874999,1.0181342363357544,-0.12509703636169434,8.785523414611816,2.38037109375,1.64794921875,3.021240234375
4.5924999,1.0444705486297607,-0.28730419278144836,9.149441719055176,-3.2958984375,-2.593994140625,-3.0517578125
4.5974999,0.960673451423645,-0.18555063009262085,8.686761856079102,1.8310546875,2.25830078125,0.30517578125
4.602499900000001,1.115697979927063,-0.03770867735147476,8.974664688110352,0.396728515625,-0.396728515625,2.197265625
4.6074999000000005,1.0672154426574707,-0.19273324310779572,9.106346130371094,-1.739501953125,-1.556396484375,-3.173828125
4.6124999,0.9965864419937134,-0.013766659423708916,8.767566680908203,3.2958984375,2.74658203125,2.5634765625
4.6174999,1.1348515748977661,-0.1825578808784485,9.255983352661133,-2.716064453125,-2.25830078125,-1.03759765625
4.6224999,0.9906009435653687,-0.22266076505184174,8.932168006896973,-0.06103515625,0.732421875,-1.739501953125
4.6274999,0.9864110946655273,-0.028730420395731926,8.71609115600586,3.84521484375,2.471923828125,2.655029296875
4.6324999,1.1085153818130493,-0.26815059781074524,9.170391082763672,-3.173828125,-2.3193359375,-0.79345703125
4.6374999,0.9876081943511963,-0.17537526786327362,8.886079788208008,0.732421875,1.15966796875,-2.0751953125
4.6424999,1.0809820890426636,-0.11971008777618408,8.834005355834961,1.251220703125,1.0986328125,2.8076171875
4.647499900000001,1.1276689767837524,-0.1909375786781311,9.1260986328125,-3.204345703125,-2.38037109375,-2.74658203125
4.6524999000000005,0.9900023937225342,-0.07122749835252762,8.59997272491455,3.2958984375,2.532958984375,0.885009765625
4.6574999,1.1318588256835938,-0.10235211998224258,8.846575736999512,-0.885009765625,-0.8544921875,1.373291015625
4.6624999,1.1318588256835938,-0.10235211998224258,8.846575736999512,-0.885009765625,-0.8544921875,1.373291015625
4.6674999,1.003769040107727,-0.10654197633266449,8.671798706054688,2.3193359375,2.62451171875,2.62451171875
4.6724999,1.1354501247406006,-0.10175357013940811,9.167398452758789,-2.3193359375,-2.227783203125,-0.701904296875
4.6774999,1.0085574388504028,-0.23104046285152435,8.942343711853027,1.068115234375,1.03759765625,-1.861572265625
4.6824999,1.0857704877853394,-0.07541735470294952,8.784924507141113,1.678466796875,1.28173828125,2.960205078125
4.687499900000001,1.1252747774124146,-0.1628057211637497,9.09377670288086,-3.082275390625,-2.593994140625,-2.86865234375
4.6924999000000005,1.0091559886932373,-0.07841010391712189,8.60116958618164,1.678466796875,2.410888671875,0.518798828125
4.6974999,1.12467622756958,0.035913024097681046,8.902240753173828,0,-0.640869140625,1.983642578125
4.7024999,1.081580638885498,-0.1496376097202301,9.019556045532227,-1.89208984375,-1.708984375,-3.2958984375
4.7074999,0.9696516990661621,-0.028730420395731926,8.655038833618164,3.082275390625,2.74658203125,1.861572265625
4.7124999,1.1336544752120972,-0.19931729137897491,9.179967880249023,-2.593994140625,-2.13623046875,-0.457763671875
4.7174999,0.9217676520347595,-0.3387795388698578,8.898050308227539,-0.579833984375,0.3662109375,-2.044677734375
4.7224999,1.0115501880645752,-0.3100491166114807,9.042301177978516,-3.0517578125,-2.655029296875,-2.227783203125
4.727499900000001,0.9816226959228516,-0.03232172131538391,8.668806076049805,1.953125,2.227783203125,-0.79345703125
4.7324999000000005,1.0636241436004639,0.0065840547904372215,8.784924507141113,0,-0.244140625,2.0751953125
4.7374999,1.1468225717544556,-0.11372458189725876,8.984840393066406,-3.082275390625,-2.01416015625,-2.86865234375
4.7424999,1.0133458375930786,-0.021547814831137657,8.531139373779297,3.84521484375,2.685546875,1.617431640625
4.7474999,1.1851298809051514,-0.1759738177061081,8.992023468017578,-1.495361328125,-1.617431640625,0.30517578125
4.7524999,1.004966139793396,-0.3214215636253357,8.892663955688477,-1.708984375,-0.640869140625,-3.082275390625
4.7574999,1.0211269855499268,-0.08918401598930359,8.706514358520508,3.204345703125,2.01416015625,3.021240234375
4.7624999,1.0947487354278564,-0.29568392038345337,9.148842811584473,-2.471923828125,-2.685546875,-1.28173828125
4.7674999,1.0097545385360718,-0.06883329898118973,8.842385292053223,0.6103515625,1.556396484375,-1.800537109375
4.772499900000001,1.0797849893569946,-0.02214636653661728,8.804078102111816,1.373291015625,0.91552734375,2.655029296875
4.7774999000000005,1.1348515748977661,-0.07481880486011505,9.047688484191895,-3.173828125,-2.44140625,-2.62451171875
4.7824999,1.0097545385360718,0.03411737456917763,8.636484146118164,3.72314453125,2.25830078125,0.54931640625
4.7874999,1.0857704877853394,-0.13287819921970367,8.989628791809082,-2.655029296875,-1.251220703125,-3.631591796875
4.7924999,0.9690531492233276,-0.021547814831137657,8.645462036132812,3.143310546875,2.716064453125,2.0751953125
4.7974999,1.14742112159729,-0.17896658182144165,9.061454772949219,-2.0751953125,-2.0751953125,0.244140625
4.8024999,1.1569979190826416,-0.0347159244120121,8.957306861877441,-3.11279296875,-2.44140625,-3.021240234375
4.8074999,0.9995791912078857,-0.046088382601737976,8.507197380065918,1.52587890625,2.44140625,0.6103515625
4.812499900000001,1.1300631761550903,-0.030526071786880493,8.844181060791016,0.030517578125,-0.6103515625,1.495361328125
4.8174999000000005,1.036689281463623,-0.1999158412218094,8.888473510742188,-1.007080078125,-1.64794921875,-3.204345703125
4.8224999,1.1492167711257935,-0.10654197633266449,9.013570785522461,-2.38037109375,-1.953125,-0.213623046875
4.8274999,1.1492167711257935,-0.10654197633266449,9.013570785522461,-2.38037109375,-1.953125,-0.213623046875
4.8324999,0.9493009448051453,-0.2777273952960968,8.839991569519043,-0.18310546875,-0.18310546875,-2.13623046875
4.8374999,1.0480618476867676,-0.08140286058187485,8.627506256103516,2.532958984375,2.105712890625,2.655029296875
4.8424999,1.0678139925003052,-0.23044191300868988,8.976460456848145,-3.2958984375,-2.777099609375,-2.288818359375
4.8474999,1.025316834449768,-0.1867477297782898,8.610147476196289,0.6103515625,1.28173828125,-0.9765625
4.852499900000001,1.095347285270691,-0.04489128291606903,8.641871452331543,2.166748046875,0.54931640625,2.899169921875
4.8574999000000005,1.1468225717544556,-0.16400282084941864,8.794501304626465,-2.349853515625,-2.655029296875,-2.5634765625
4.8624999,1.0157400369644165,0.013766659423708916,8.406641006469727,2.50244140625,2.655029296875,0.18310546875
4.8674999,1.115697979927063,-0.05506663769483566,8.711302757263184,-0.762939453125,-0.823974609375,1.373291015625
4.8724999,1.0965443849563599,-0.18495208024978638,8.892663955688477,-2.5634765625,-1.52587890625,-2.99072265625
4.8774999,0.973242998123169,-0.09816227108240128,8.53413200378418,3.997802734375,2.655029296875,1.89208984375
4.8824999,1.159990668296814,-0.22864626348018646,9.062651634216309,-1.800537109375,-1.77001953125,0.244140625
4.8874999,0.9780313968658447,-0.21667525172233582,8.91540813446045,-1.434326171875,-0.091552734375,-3.0517578125
4.8924999,1.0073603391647339,-0.0999579206109047,8.671798706054688,2.288818359375,1.953125,2.532958984375
4.897499900000001,1.0732009410858154,-0.2106897532939911,8.989628791809082,-2.777099609375,-2.3193359375,-1.007080078125
4.9024999000000005,0.9792284965515137,-0.14784196019172668,8.689156532287598,1.434326171875,0.457763671875,-1.434326171875
4.9074999,1.0468647480010986,-0.10594342648983002,8.550890922546387,1.861572265625,1.03759765625,2.5634765625
4.9124999,1.0672154426574707,-0.16519992053508759,8.767566680908203,-3.72314453125,-1.953125,-2.655029296875
4.9174999,1.0103530883789062,-0.061052143573760986,8.44434928894043,2.3193359375,1.800537109375,0.030517578125
4.9224999,1.0642226934432983,-0.04967968538403511,8.565256118774414,1.03759765625,0.335693359375,2.5634765625
4.9274999,1.1234791278839111,-0.12330138683319092,8.762179374694824,-3.082275390625,-1.800537109375,-3.265380859375
4.9324999,0.9636662006378174,-0.10953472554683685,8.355764389038086,2.25830078125,2.410888671875,0.823974609375
4.937499900000001,1.1342530250549316,-0.0694318488240242,8.728062629699707,-0.42724609375,-1.129150390625,1.0986328125
4.9424999000000005,1.0241197347640991,-0.2603694200515747,8.7885160446167,-1.007080078125,-1.708984375,-2.777099609375
4.9474999,0.970848798751831,-0.07062894850969315,8.474875450134277,2.50244140625,2.9296875,2.197265625
4.9524999,1.1366472244262695,-0.14006079733371735,8.949525833129883,-2.3193359375,-2.01416015625,-0.335693359375
4.9574999,0.9463081955909729,-0.2849099934101105,8.777742385864258,-0.9765625,-0.030517578125,-2.685546875
4.9624999,1.0313023328781128,-0.10833762586116791,8.56884765625,3.11279296875,1.678466796875,2.532958984375
4.9674999,1.0570400953292847,-0.2819172441959381,8.854954719543457,-2.38037109375,-2.593994140625,-1.068115234375
4.9724999,1.0115501880645752,-0.12090718746185303,8.646659851074219,0.79345703125,1.617431640625,-1.52587890625
4.977499900000001,1.0636241436004639,-0.0520738884806633,8.578424453735352,1.15966796875,0.244140625,2.25830078125
4.9824999000000005,1.091755986213684,-0.1149216815829277,8.834005355834961,-3.448486328125,-2.105712890625,-2.50244140625
4.9874999,1.0247182846069336,-0.06464344263076782,8.506598472595215,2.3193359375,2.197265625,0.030517578125
4.9924999,1.0660183429718018,-0.08259996026754379,8.634688377380371,0.762939453125,-0.091552734375,2.410888671875
4.9974999,1.1288660764694214,-0.14664486050605774,8.804078102111816,-3.0517578125,-1.708984375,-3.23486328125
5.0024999,0.9702502489089966,-0.12030863761901855,8.3707275390625,2.166748046875,2.38037109375,0.732421875
5.0074999,1.1432312726974487,-0.0694318488240242,8.722675323486328,-0.213623046875,-1.03759765625,1.373291015625
5.0124999,1.0570400953292847,-0.26575639843940735,8.76337718963623,-1.129150390625,-1.5869140625,-2.74658203125
5.0174999,0.983418345451355,-0.09457096457481384,8.407837867736816,3.11279296875,2.86865234375,1.800537109375
5.022499900000001,1.1552022695541382,-0.16579847037792206,8.846575736999512,-2.105712890625,-1.861572265625,-0.18310546875
5.0274999000000005,0.9762357473373413,-0.33518823981285095,8.752602577209473,-0.9765625,-0.274658203125,-2.74658203125
5.0324999,1.0115501880645752,-0.12988543510437012,8.470685958862305,3.41796875,2.25830078125,2.716064453125
5.0374999,1.0654197931289673,-0.2795230448246002,8.845377922058105,-2.593994140625,-2.349853515625,-0.579833984375
5.0424999,1.0450690984725952,-0.09816227108240128,8.73105525970459,-3.35693359375,-2.532958984375,-2.105712890625
5.0474999,1.0295066833496094,-0.016759412363171577,8.45931339263916,1.861572265625,1.40380859375,-0.6103515625
5.0524999,1.0660183429718018,-0.03770867735147476,8.474276542663574,1.5869140625,0.701904296875,2.62451171875
5.0574999,1.1444283723831177,-0.04728548228740692,8.707113265991211,-3.692626953125,-2.105712890625,-3.0517578125
5.062499900000001,1.035492181777954,-0.04249707981944084,8.35336971282959,1.64794921875,1.89208984375,-0.06103515625
5.0674999000000005,1.136048674583435,-0.22086510062217712,8.780136108398438,-2.3193359375,-2.0751953125,-2.593994140625
5.0724999,0.9876081943511963,-0.15562310814857483,8.358158111572266,2.777099609375,2.685546875,1.0986328125
5.0774999,1.1342530250549316,-0.20949265360832214,8.743025779724121,-1.068115234375,-1.40380859375,0.67138671875
5.0824999,1.0217255353927612,-0.4129997789859772,8.667010307312012,-2.166748046875,-0.946044921875,-3.0517578125
5.0874999,0.9546879529953003,-0.1538274586200714,8.270770072937012,3.72314453125,2.410888671875,2.105712890625
5.0924999,1.1174936294555664,-0.25737667083740234,8.650250434875488,-1.0986328125,-2.25830078125,0.640869140625
5.0974999,0.9672574996948242,-0.19871874153614044,8.473678588867188,-1.3427734375,0.457763671875,-2.716064453125
5.102499900000001,1.0067617893218994,-0.046088382601737976,8.221688270568848,2.62451171875,1.64794921875,1.800537109375
5.1074999000000005,1.0684125423431396,-0.08499415963888168,8.608352661132812,-2.105712890625,-1.77001953125,-0.91552734375
5.1124999,0.9642647504806519,-0.19213469326496124,8.451532363891602,0.274658203125,0.67138671875,-1.495361328125
5.1174999,1.0444705486297607,-0.05267243832349777,8.394071578979492,2.8076171875,1.739501953125,2.86865234375
5.1224999,1.0660183429718018,-0.16759411990642548,8.710105895996094,-3.143310546875,-2.288818359375,-2.25830078125
5.1274999,1.1127052307128906,-0.1843535304069519,8.655637741088867,0.18310546875,-1.0986328125,1.8310546875
5.1324999,1.0630255937576294,-0.22744916379451752,8.701725959777832,-2.777099609375,-0.885009765625,-3.204345703125
5.1374999,0.9540894031524658,-0.13826514780521393,8.308478355407715,2.44140625,2.25830078125,1.007080078125
5.1424999,1.1330559253692627,-0.07781155407428741,8.680776596069336,-0.9765625,-1.28173828125,0.91552734375
5.147499900000001,1.0067617893218994,-0.24660277366638184,8.565855026245117,-1.40380859375,-0.54931640625,-2.38037109375
5.1524999000000005,0.9672574996948242,-0.05925649031996727,8.159439086914062,3.448486328125,2.44140625,1.861572265625
5.1574999,1.0336965322494507,-0.2537853717803955,8.250418663024902,-2.777099609375,-3.0517578125,-0.54931640625
5.1624999,1.0085574388504028,-0.10714052617549896,8.100781440734863,-0.42724609375,2.0751953125,-1.89208984375
5.1674999,1.0414776802062988,-0.016759412363171577,8.007407188415527,2.99072265625,0.823974609375,1.922607421875
5.1724999,1.1025298833847046,-0.07062894850969315,8.234258651733398,-3.5400390625,-2.38037109375,-1.708984375
5.1774999,1.0660183429718018,-0.07900865375995636,8.033743858337402,1.15966796875,2.25830078125,-0.946044921875
5.1824999,1.0851719379425049,-0.11971008777618408,8.083423614501953,2.838134765625,0.335693359375,2.50244140625
5.187499900000001,1.1402385234832764,-0.1693897694349289,8.316858291625977,-4.0283203125,-2.166748046875,-2.288818359375
5.1924999000000005,1.0307037830352783,-0.08858546614646912,8.010998725891113,1.89208984375,2.13623046875,-0.48828125
5.1974999,1.083974838256836,-0.09876082092523575,8.259995460510254,1.739501953125,-0.091552734375,2.3193359375
5.2024999,0.9427168965339661,-0.13946224749088287,7.858368396759033,3.387451171875,2.655029296875,0.67138671875
5.2074999,1.1073182821273804,-0.166995570063591,8.22228717803955,-0.54931640625,-1.800537109375,1.068115234375
5.2124999,1.0342950820922852,-0.3274070918560028,8.175600051879883,-3.509521484375,-0.67138671875,-2.685546875
5.2174999,0.9636662006378174,-0.05446808785200119,7.73087739944458,4.302978515625,2.50244140625,1.556396484375
5.2224999,1.0845733880996704,-0.10354922711849213,8.015189170837402,-1.220703125,-2.777099609375,0.640869140625
5.227499900000001,1.004966139793396,-0.08798690885305405,7.7877397537231445,-3.143310546875,0.54931640625,-2.74658203125
5.2324999000000005,0.9475052952766418,0.08080431073904037,7.489661693572998,4.45556640625,1.434326171875,1.434326171875
5.2374999,1.0516531467437744,0.060453593730926514,7.763797760009766,-2.471923828125,-2.44140625,-0.06103515625
5.2424999,1.0229226350784302,0.02454056777060032,7.705738067626953,-1.861572265625,1.251220703125,-2.288818359375
