# Time (seconds),Accel_X,Accel_Y,Accel_Z,Gyro_X,Gyro_Y,Gyro_Z
0.0024999,0.6530185341835022,-0.9241618514060974,9.70549488067627,7.232666015625,-0.48828125,-2.50244140625
0.0074999,0.6530185341835022,-0.9241618514060974,9.70549488067627,7.232666015625,-0.48828125,-2.50244140625
0.012499900000000001,0.7350199222564697,-0.8768763542175293,9.925761222839355,-1.0986328125,-0.823974609375,3.72314453125
0.0174999,0.6751648783683777,-0.912190854549408,9.706093788146973,-6.89697265625,-0.244140625,-2.99072265625
0.0224999,0.7104793787002563,-0.9307458996772766,9.718064308166504,9.063720703125,-0.06103515625,-0.152587890625
0.0274999,0.7356184720993042,-0.7966706156730652,9.80904483795166,-5.645751953125,-0.274658203125,2.960205078125
0.0324999,0.6889315247535706,-0.882861852645874,9.593565940856934,-2.01416015625,0.3662109375,-4.241943359375
0.0374999,0.7170634269714355,-0.8134300112724304,9.773730278015137,8.026123046875,-0.18310546875,1.800537109375
0.0424999,0.6835445761680603,-0.8349778652191162,9.61571216583252,2.655029296875,0.030517578125,-3.96728515625
0.0474999,0.750582218170166,-0.8643068075180054,9.874884605407715,5.0048828125,-0.335693359375,3.265380859375
0.0524999,0.7015010714530945,-0.8481459617614746,9.711481094360352,-8.7890625,0.274658203125,-1.15966796875
0.0574999,0.6542156338691711,-0.9900023937225342,9.673172950744629,7.232666015625,0.732421875,-2.62451171875
0.0624999,0.7200561761856079,-0.9361328482627869,9.908403396606445,0.42724609375,-0.213623046875,3.692626953125
0.0674999,0.6542156338691711,-0.9487023949623108,9.68813705444336,-7.32421875,0.30517578125,-2.99072265625
0.0724999,0.4770447015762329,-1.0199298858642578,9.888052940368652,10.7421875,-2.0751953125,-0.640869140625
0.0774999,0.35673606395721436,-0.9792284965515137,9.990405082702637,3.631591796875,-14.739990234375,2.685546875
0.0824999,-0.08858546614646912,-1.12467622756958,9.965864181518555,2.86865234375,-20.751953125,-5.37109375
0.0874999,-0.38726213574409485,-1.1581950187683105,10.322002410888672,16.937255859375,-34.85107421875,-2.288818359375
0.0924999,-0.7218518257141113,-1.1204863786697388,10.587160110473633,6.622314453125,-54.3212890625,-3.387451171875
0.0974999,-1.0767922401428223,-1.2461819648742676,10.741585731506348,20.904541015625,-70.404052734375,-8.392333984375
0.1024999,-1.3401544094085693,-1.525106430053711,11.512518882751465,31.982421875,-121.03271484375,-15.56396484375
0.1074999,-1.2773065567016602,-1.9231425523757935,11.7046537399292,56.427001953125,-132.476806640625,-22.064208984375
0.1124999,-1.2773065567016602,-1.9231425523757935,11.7046537399292,56.427001953125,-132.476806640625,-22.064208984375
0.1174999,-0.7858967185020447,-2.231395959854126,12.009315490722656,64.5751953125,-142.63916015625,-21.6064453125
0.1224999,-0.2968810200691223,-2.7928361892700195,11.702259063720703,78.521728515625,-140.472412109375,-29.23583984375
0.1274999,0.3603273630142212,-3.138798475265503,11.604097366333008,109.527587890625,-130.43212890625,-23.529052734375
0.1324999,1.303044319152832,-3.20404052734375,10.831368446350098,111.63330078125,-108.45947265625,-9.124755859375
0.1374999,2.077568531036377,-3.0873231887817383,9.256582260131836,83.3740234375,4.638671875,9.307861328125
0.1424999,2.9448680877685547,-2.214038133621216,7.219715118408203,74.5849609375,74.127197265625,37.750244140625
0.1474999,3.66851544380188,-1.0283095836639404,5.07451057434082,62.80517578125,82.45849609375,52.734375
0.1524999,4.0300397872924805,0.3166331648826599,3.7469255924224854,44.921875,65.91796875,64.422607421875
0.1574999,4.259284973144531,2.1727380752563477,3.9031472206115723,-4.39453125,62.6220703125,87.5244140625
0.1624999,0.24241292476654053,-5.994482517242432,9.091382026672363,15.5029296875,-11.04736328125,-35.125732421875
0.1674999,0.43335050344467163,-5.834071159362793,7.01979923248291,-12.542724609375,6.2255859375,-29.266357421875
0.1724999,0.7577648162841797,-4.887164115905762,6.457161903381348,-12.3291015625,22.613525390625,-13.61083984375
0.17749990000000002,1.4317326545715332,-2.5300726890563965,9.271546363830566,11.383056640625,10.7421875,-0.030517578125
0.1824999,1.3401544094085693,-1.4227544069290161,10.524312019348145,23.62060546875,6.927490234375,-2.13623046875
0.1874999,1.0552444458007812,-0.46627077460289,11.014524459838867,4.974365234375,0.946044921875,-2.74658203125
0.1924999,0.6859387755393982,0.09038111567497253,10.528501510620117,-4.08935546875,-0.335693359375,-12.847900390625
0.1974999,0.5680243372917175,0.535702645778656,10.019135475158691,1.922607421875,1.068115234375,-6.4697265625
0.2024999,0.6458359360694885,0.729034423828125,9.891045570373535,-9.521484375,1.220703125,3.0517578125
0.20749990000000001,0.7308300733566284,0.43754035234451294,9.64683723449707,-5.2490234375,1.861572265625,-0.152587890625
0.2124999,0.8738836050033569,0.19033902883529663,9.84495735168457,3.72314453125,-3.23486328125,5.279541015625
0.2174999,0.8882488012313843,-0.3866635859012604,9.831191062927246,-10.589599609375,-4.974365234375,1.8310546875
0.2224999,0.7894880175590515,-0.8774749040603638,9.585784912109375,-0.030517578125,-5.31005859375,-4.08935546875
0.2274999,0.8565256595611572,-1.206079125404358,9.73542308807373,3.326416015625,-6.4697265625,2.899169921875
0.2324999,0.8792705535888672,-1.3377602100372314,9.656414031982422,-7.415771484375,-4.669189453125,-0.885009765625
0.2374999,1.2533645629882812,-1.071405291557312,9.821614265441895,-0.42724609375,-2.197265625,3.90625
0.2424999,1.3192051649093628,-0.9265560507774353,9.63187313079834,-6.622314453125,1.495361328125,-2.50244140625
0.2474999,1.392826795578003,-0.839766263961792,9.633070945739746,7.049560546875,2.593994140625,-0.8544921875
0.2524999,1.3832499980926514,-0.7416039705276489,9.801861763000488,-3.875732421875,1.617431640625,2.532958984375
0.2574999,1.2641384601593018,-0.8577227592468262,9.649829864501953,-2.471923828125,3.0517578125,-4.730224609375
0.2624999,1.1659762859344482,-0.8379706144332886,9.75278091430664,9.063720703125,1.251220703125,0.640869140625
0.2674999,1.095347285270691,-0.8026561141014099,9.836577415466309,-5.7373046875,-0.152587890625,1.52587890625
0.2724999,0.9552865028381348,-0.8086416125297546,9.560047149658203,1.77001953125,1.251220703125,-4.058837890625
0.2774999,0.9690531492233276,-0.7110779285430908,9.79647445678711,5.889892578125,-0.91552734375,3.021240234375
0.2824999,0.9594763517379761,-0.6093243360519409,9.75637149810791,-8.453369140625,-0.732421875,-0.030517578125
0.28749990000000003,0.9457096457481384,-0.6697779297828674,9.639056205749512,3.753662109375,0.457763671875,-3.326416015625
0.2924999,1.0630255937576294,-0.6075286865234375,9.855731010437012,1.251220703125,-2.044677734375,3.570556640625
0.2974999,1.1127052307128906,-0.8870517015457153,9.686341285705566,8.4228515625,0.48828125,-0.030517578125
0.3024999,1.1174936294555664,-0.8134300112724304,9.792284965515137,-5.340576171875,-0.823974609375,2.62451171875
0.3074999,1.0348936319351196,-0.8738836050033569,9.604340553283691,-1.312255859375,1.739501953125,-4.058837890625
0.3124999,1.0672154426574707,-0.8170213103294373,9.744400978088379,7.26318359375,-0.42724609375,1.708984375
0.3174999,1.0546458959579468,-0.7852981686592102,9.857526779174805,-7.720947265625,-0.640869140625,1.03759765625
0.3224999,0.9965864419937134,-0.8062474131584167,9.594164848327637,2.13623046875,1.190185546875,-3.753662109375
0.3274999,1.05105459690094,-0.7793126702308655,9.849146842956543,4.7607421875,-1.220703125,3.143310546875
0.3324999,1.0181342363357544,-0.7374141216278076,9.711481094360352,-8.36181640625,-0.54931640625,-0.701904296875
0.3374999,1.006163239479065,-0.838569164276123,9.624691009521484,5.79833984375,0.701904296875,-2.86865234375
0.3424999,1.072602391242981,-0.7972691655158997,9.667187690734863,-7.32421875,0.6103515625,-2.410888671875
0.34749990000000003,1.0989385843276978,-0.8325836658477783,9.686341285705566,7.50732421875,0.640869140625,-1.068115234375
0.35249990000000003,1.1605892181396484,-0.727837324142456,9.852140426635742,-2.86865234375,-1.220703125,3.23486328125
0.3574999,1.1049240827560425,-0.823006808757782,9.683947563171387,-4.45556640625,1.068115234375,-3.60107421875
0.3624999,1.127070426940918,-0.8092401623725891,9.693524360656738,8.36181640625,0.091552734375,0.6103515625
0.3674999,1.1216834783554077,-0.751779317855835,9.82999324798584,-6.04248046875,-0.732421875,2.25830078125
0.3724999,1.027711033821106,-0.8649053573608398,9.575610160827637,-0.8544921875,1.28173828125,-4.058837890625
0.3774999,1.0558429956436157,-0.7948749661445618,9.761159896850586,6.988525390625,-0.67138671875,2.105712890625
0.3824999,1.0313023328781128,-0.7930793166160583,9.84495735168457,-8.1787109375,-0.640869140625,0.762939453125
0.3874999,0.9828197956085205,-0.8242039084434509,9.61212158203125,2.838134765625,1.251220703125,-3.631591796875
0.3924999,1.0666168928146362,-0.8092401623725891,9.860519409179688,3.90625,-1.434326171875,3.082275390625
0.3974999,1.0199298858642578,-0.8134300112724304,9.726444244384766,-8.544921875,-0.244140625,-1.068115234375
0.4024999,1.0851719379425049,-0.8355764150619507,9.64803409576416,8.056640625,0.518798828125,-1.068115234375
0.4074999,1.1294646263122559,-0.7164648771286011,9.802460670471191,-2.838134765625,-1.373291015625,3.173828125
0.41249990000000003,1.0923545360565186,-0.7559691667556763,9.636063575744629,-3.875732421875,1.46484375,-3.72314453125
0.41749990000000003,1.1097124814987183,-0.7200561761856079,9.683348655700684,8.1787109375,0.213623046875,0.579833984375
0.4224999,1.1186907291412354,-0.6649895310401917,9.827000617980957,-6.317138671875,-1.0986328125,2.044677734375
0.4274999,1.0301052331924438,-0.7655459642410278,9.582792282104492,-0.396728515625,1.3427734375,-4.08935546875
0.4324999,1.0630255937576294,-0.7410054206848145,9.777320861816406,6.7138671875,-0.701904296875,2.227783203125
0.4374999,1.048660397529602,-0.7499836683273315,9.845556259155273,-8.4228515625,-0.79345703125,0.48828125
0.4424999,1.0013748407363892,-0.8164227604866028,9.619902610778809,3.11279296875,0.823974609375,-3.631591796875
0.4474999,1.0989385843276978,-0.823006808757782,9.86231517791748,3.90625,-1.617431640625,3.265380859375
0.4524999,1.049857497215271,-0.9247604012489319,9.631275177001953,6.2255859375,0.9765625,-2.838134765625
0.4574999,1.1097124814987183,-0.8702923059463501,9.859322547912598,0.579833984375,-1.0986328125,3.41796875
0.4624999,1.0528502464294434,-0.8888474106788635,9.640851974487305,-6.8359375,0.701904296875,-2.44140625
0.4674999,1.0684125423431396,-0.8708908557891846,9.654019355773926,7.965087890625,0.701904296875,-1.007080078125
0.47249990000000003,1.1061211824417114,-0.7583633661270142,9.807847023010254,-2.86865234375,-1.251220703125,2.86865234375
0.47749990000000003,1.0672154426574707,-0.7942764163017273,9.644442558288574,-3.997802734375,1.3427734375,-3.631591796875
0.4824999,1.0905588865280151,-0.751779317855835,9.693524360656738,8.48388671875,-0.06103515625,0.518798828125
0.4874999,1.1085153818130493,-0.6865373253822327,9.845556259155273,-6.011962890625,-1.03759765625,1.953125
0.4924999,1.0384849309921265,-0.7643488645553589,9.604340553283691,-0.67138671875,1.251220703125,-3.936767578125
0.4974999,1.0833762884140015,-0.7182605266571045,9.792284965515137,6.866455078125,-0.732421875,2.227783203125
0.5024999,1.07379949092865,-0.702099621295929,9.86770248413086,-8.209228515625,-0.67138671875,0.823974609375
0.5074999,1.1061211824417114,-0.851138710975647,9.829395294189453,0.701904296875,-1.46484375,3.5400390625
0.5124999,1.0384849309921265,-0.8756792545318604,9.644442558288574,-7.049560546875,0.335693359375,-2.44140625
0.5174999,1.048660397529602,-0.9038111567497253,9.631275177001953,7.843017578125,0.42724609375,-1.220703125
0.5224999,1.0905588865280151,-0.8271966576576233,9.807249069213867,-2.777099609375,-1.556396484375,3.35693359375
0.5274999,1.0438719987869263,-0.8690952062606812,9.619902610778809,-4.69970703125,0.8544921875,-3.509521484375
0.5324999,1.0767922401428223,-0.838569164276123,9.673172950744629,8.270263671875,0.030517578125,0.30517578125
0.5374999,1.0983400344848633,-0.768538773059845,9.816226959228516,-5.67626953125,-1.220703125,2.3193359375
0.5424999,1.048660397529602,-0.8463503122329712,9.624092102050781,-1.190185546875,1.129150390625,-3.90625
0.5474999,1.103128433227539,-0.7858967185020447,9.773131370544434,7.293701171875,-0.518798828125,1.8310546875
0.5524999,1.0582371950149536,-0.7781155705451965,9.586981773376465,2.197265625,1.495361328125,-3.90625
0.5574999,1.0977414846420288,-0.7601590156555176,9.841964721679688,4.8828125,-0.8544921875,3.082275390625
0.5624999,1.0480618476867676,-0.730231523513794,9.723451614379883,-8.575439453125,0.06103515625,-0.48828125
0.5674999000000001,0.9953893423080444,-0.811634361743927,9.59476375579834,5.218505859375,1.28173828125,-3.021240234375
0.5724999000000001,1.0642226934432983,-0.7835025191307068,9.84256362915039,1.77001953125,-1.52587890625,3.35693359375
0.5774999000000001,1.0067617893218994,-0.7966706156730652,9.668384552001953,-7.568359375,-0.06103515625,-2.25830078125
0.5824999,0.99479079246521,-0.8888474106788635,9.833584785461426,9.765625,-0.640869140625,0.457763671875
0.5874999,0.8062474131584167,-0.8349778652191162,9.9772367477417,10.589599609375,-7.62939453125,21.148681640625
0.5924999,0.657806932926178,-0.9068039059638977,9.84256362915039,-7.598876953125,-13.092041015625,3.35693359375
0.5974999,0.3345896899700165,-0.7398083209991455,9.750985145568848,14.678955078125,-18.24951171875,-8.941650390625
0.6024999,0.3603273630142212,-0.7661445140838623,10.075399398803711,10.1318359375,-20.233154296875,15.472412109375
0.6074999,0.26815059781074524,-0.6380547285079956,9.77013874053955,-0.274658203125,-26.4892578125,7.87353515625
0.6124999,0.6757634282112122,-1.7070658206939697,10.644021987915039,44.98291015625,-48.614501953125,0.6103515625
0.6174999,0.7332242727279663,-2.188898801803589,10.317811965942383,33.172607421875,-52.947998046875,-4.21142578125
0.6224999,0.8271966576576233,-2.078765630722046,10.435128211975098,55.35888671875,-53.253173828125,-15.411376953125
0.6274999,1.1785458326339722,-2.1583728790283203,10.483611106872559,58.04443359375,-59.4482421875,-14.22119140625
0.6324999,1.391629695892334,-2.1475989818573,10.339360237121582,60.546875,-58.685302734375,-23.92578125
0.6374999,1.745373010635376,-2.115875720977783,10.36449909210205,79.925537109375,-53.436279296875,-25.482177734375
0.6424999,2.053027868270874,-1.8896236419677734,10.399214744567871,78.033447265625,-51.8798828125,-22.308349609375
0.6474999,2.1721394062042236,-1.7298107147216797,10.102334022521973,82.8857421875,-43.609619140625,-26.092529296875
0.6524999,2.275090217590332,-1.3850456476211548,9.943120002746582,96.19140625,-36.865234375,-20.599365234375
0.6574999,2.3289597034454346,-1.0097545385360718,9.739013671875,86.60888671875,-32.989501953125,-16.78466796875
0.6624999,2.22660756111145,-0.3064578175544739,9.261969566345215,93.81103515625,-19.775390625,-13.12255859375
0.6674999,2.1715409755706787,0.08798690885305405,9.081207275390625,78.18603515625,-17.02880859375,-12.5732421875
0.6724999,2.0590133666992188,0.2885012924671173,8.761581420898438,80.87158203125,-9.674072265625,-16.632080078125
0.6774999,2.1978771686553955,0.9917980432510376,8.267777442932129,64.300537109375,6.988525390625,-5.67626953125
0.6824999,2.2858641147613525,1.446696400642395,7.316082000732422,17.181396484375,54.0771484375,5.889892578125
0.6874999,2.449866771697998,2.2146365642547607,6.188412666320801,5.584716796875,69.122314453125,20.08056640625
0.6924999000000001,2.713229179382324,3.3458969593048096,5.446808815002441,-21.697998046875,62.347412109375,35.64453125
0.6974999000000001,2.74076247215271,4.1611223220825195,5.182249546051025,-61.1572265625,67.291259765625,32.89794921875
0.7024999000000001,2.6240451335906982,4.964377403259277,5.508459568023682,-88.134765625,74.737548828125,34.5458984375
0.7074999,2.448669672012329,5.635950565338135,6.278195381164551,-124.114990234375,71.77734375,36.92626953125
0.7124999,1.9961656332015991,5.533598899841309,6.7031660079956055,-148.681640625,67.07763671875,27.9541015625
0.7174999,1.6328455209732056,5.5772929191589355,7.041945934295654,-165.985107421875,64.849853515625,29.9072265625
0.7224999,1.2054805755615234,2.473210334777832,8.857349395751953,-204.04052734375,72.357177734375,34.881591796875
0.7274999,1.2054805755615234,2.473210334777832,8.857349395751953,-204.04052734375,72.357177734375,34.881591796875
0.7324999,1.0977414846420288,-0.7667431235313416,10.735001564025879,-54.3212890625,53.7109375,10.92529296875
0.7374999,1.028908133506775,-4.038419723510742,11.824363708496094,45.989990234375,-16.265869140625,-27.130126953125
0.7424999,0.5740098357200623,-6.655880928039551,11.725004196166992,27.28271484375,-38.909912109375,-38.116455078125
0.7474999,-0.04728548228740692,-7.665036678314209,9.19552993774414,25.146484375,-36.834716796875,-58.9599609375
0.7524999,-0.4531026780605316,-7.077858924865723,6.30213737487793,31.8603515625,-21.728515625,-71.868896484375
0.7574999,-0.22744916379451752,-5.655703067779541,4.402936935424805,-27.03857421875,-2.593994140625,-53.497314453125
0.7624999,0.32022446393966675,-4.248510837554932,4.045003890991211,-81.48193359375,31.1279296875,-26.123046875
0.7674999,1.1504138708114624,-2.934094190597534,6.248267650604248,-29.937744140625,45.623779296875,-7.476806640625
0.7724999,1.800439715385437,-2.1140801906585693,9.11233139038086,26.55029296875,34.97314453125,2.50244140625
0.7774999,-0.26096799969673157,-0.19033902883529663,9.682151794433594,-3.7841796875,-4.08935546875,-1.8310546875
0.7824999,-0.26096799969673157,-0.19033902883529663,9.682151794433594,-3.7841796875,-4.08935546875,-1.8310546875
0.7874999,-0.015562310814857483,0.152031809091568,9.607931137084961,-8.331298828125,-6.65283203125,3.448486328125
0.7924999,0.322618693113327,0.26096799969673157,9.47265911102295,-0.701904296875,-3.7841796875,1.953125
0.7974999,0.6338648796081543,0.2172738015651703,9.840168952941895,-3.265380859375,-12.298583984375,10.55908203125
0.8024999,0.7625532150268555,-0.2214636504650116,9.656414031982422,-11.65771484375,-11.1083984375,3.143310546875
0.8074999,0.8457517623901367,-0.6805518269538879,9.522936820983887,0.823974609375,-7.293701171875,-3.41796875
0.8124999,1.0977414846420288,-1.0444705486297607,9.78989028930664,-2.13623046875,-9.765625,1.312255859375
0.8174999000000001,1.2910733222961426,-1.292868971824646,9.685144424438477,-6.622314453125,-4.730224609375,-2.716064453125
0.8224999000000001,1.5310919284820557,-1.3533225059509277,9.724050521850586,10.92529296875,0.3662109375,0.091552734375
0.8274999000000001,1.679532527923584,-1.1228805780410767,9.566631317138672,-3.23486328125,5.31005859375,-3.631591796875
0.8324999000000001,1.6196774244308472,-0.9965864419937134,9.57860279083252,9.1552734375,5.401611328125,-1.40380859375
0.8374999,1.445499300956726,-0.7601590156555176,9.782109260559082,-4.364013671875,4.21142578125,1.312255859375
0.8424999,1.1887211799621582,-0.7745242714881897,9.603142738342285,-0.152587890625,5.2490234375,-4.5166015625
0.8474999,1.0271124839782715,-0.6362590789794922,9.761758804321289,7.537841796875,1.861572265625,1.861572265625
0.8524999,0.8738836050033569,-0.6165069341659546,9.862914085388184,-7.87353515625,-0.18310546875,1.007080078125
0.8574999,0.7266402244567871,-0.7044938206672668,9.612719535827637,1.739501953125,-0.91552734375,-3.662109375
0.8624999,0.7469909191131592,-0.7284358739852905,9.867103576660156,4.180908203125,-3.997802734375,3.448486328125
0.8674999,0.7727286219596863,-0.7805097699165344,9.747393608093262,-9.09423828125,-3.23486328125,0.06103515625
0.8724999,0.8391677141189575,-0.871489405632019,9.613917350769043,4.913330078125,-0.8544921875,-2.685546875
0.8774999,1.0749965906143188,-0.8529343605041504,9.810839653015137,0.91552734375,-1.983642578125,3.72314453125
0.8824999,1.2300211191177368,-0.9115923047065735,9.619902610778809,6.9580078125,1.3427734375,-1.89208984375
0.8874999,1.1312602758407593,-0.9032126069068909,9.667786598205566,8.758544921875,1.0986328125,-0.518798828125
0.8924999,1.0821791887283325,-0.8110358119010925,9.840168952941895,-4.425048828125,-0.823974609375,2.50244140625
0.8974999,0.9923965930938721,-0.8690952062606812,9.657610893249512,-2.593994140625,0.79345703125,-4.119873046875
0.9024999,1.0115501880645752,-0.8206126093864441,9.75637149810791,7.568359375,-0.457763671875,1.28173828125
0.9074999,1.0402805805206299,-0.7529764175415039,9.858723640441895,-7.415771484375,-1.953125,2.13623046875
0.9124999,1.0085574388504028,-0.8271966576576233,9.616311073303223,0.3662109375,0.885009765625,-3.72314453125
0.9174999,1.081580638885498,-0.7936778664588928,9.815628051757812,6.103515625,-0.91552734375,2.349853515625
0.9224999,1.1025298833847046,-0.801459014415741,9.837775230407715,-8.48388671875,-0.732421875,0.274658203125
0.9274999,1.072602391242981,-0.882861852645874,9.661202430725098,3.692626953125,1.28173828125,-3.570556640625
0.9324999,1.171961784362793,-0.8780734539031982,9.868300437927246,3.936767578125,-0.30517578125,3.2958984375
0.9374999,1.0977414846420288,-0.829590916633606,9.803058624267578,0.3662109375,-0.762939453125,3.47900390625
0.9424999000000001,0.9923965930938721,-0.8421604633331299,9.639654159545898,-6.89697265625,0.54931640625,-2.62451171875
0.9474999000000001,0.9917980432510376,-0.8409633636474609,9.655217170715332,7.26318359375,0.152587890625,-1.3427734375
0.9524999000000001,1.0295066833496094,-0.768538773059845,9.806650161743164,-2.685546875,-1.5869140625,3.387451171875
0.9574999000000001,1.0079588890075684,-0.8307880163192749,9.658807754516602,-5.096435546875,-0.030517578125,-3.326416015625
0.9624999,1.060032844543457,-0.821809709072113,9.677961349487305,8.270263671875,-0.30517578125,0.152587890625
0.9674999,1.1186907291412354,-0.7751228213310242,9.831191062927246,-5.4931640625,-1.556396484375,2.532958984375
0.9724999,1.0893617868423462,-0.871489405632019,9.619303703308105,-1.89208984375,1.068115234375,-3.90625
0.9774999,1.148618221282959,-0.8319851160049438,9.748590469360352,7.75146484375,-0.152587890625,1.495361328125
0.9824999,1.1665748357772827,-0.8092401623725891,9.870695114135742,-7.476806640625,-0.701904296875,1.434326171875
0.9874999,1.0935516357421875,-0.8678981065750122,9.619303703308105,1.28173828125,1.46484375,-3.997802734375
0.9924999,1.0983400344848633,-0.7775170207023621,9.807847023010254,0.335693359375,-1.220703125,3.60107421875
0.9974999,1.0324994325637817,-0.8038532137870789,9.655217170715332,-6.378173828125,0.701904296875,-2.349853515625
1.0024999,1.0528502464294434,-0.8355764150619507,9.667187690734863,7.9345703125,0.823974609375,-1.46484375
1.0074999000000002,1.1007342338562012,-0.7793126702308655,9.841365814208984,-2.9296875,-1.312255859375,3.204345703125
1.0124999000000001,1.0606313943862915,-0.8475474119186401,9.650428771972656,-5.37109375,0.213623046875,-3.265380859375
1.0174999000000002,1.0965443849563599,-0.8451532125473022,9.679757118225098,8.514404296875,0.18310546875,0.030517578125
1.0224999000000001,1.1162965297698975,-0.7703344225883484,9.821614265441895,-4.669189453125,-1.068115234375,2.532958984375
1.0274999,1.0558429956436157,-0.8008604645729065,9.717466354370117,7.01904296875,-2.166748046875,3.23486328125
1.0324999000000001,1.0091559886932373,-0.7757213711738586,9.828198432922363,-9.124755859375,-1.861572265625,1.922607421875
1.0374999,0.9720458984375,-0.8421604633331299,9.618705749511719,0.274658203125,-0.762939453125,-2.166748046875
1.0424999000000001,1.0187327861785889,-0.8182184100151062,9.795876502990723,5.096435546875,-2.197265625,4.608154296875
1.0474999,1.0313023328781128,-0.7954735159873962,9.821015357971191,-8.453369140625,-2.44140625,2.899169921875
1.0524999000000002,1.016338586807251,-0.8643068075180054,9.627084732055664,3.0517578125,0.6103515625,-0.640869140625
1.0574999,1.0965443849563599,-0.8577227592468262,9.814431190490723,3.814697265625,-3.021240234375,5.43212890625
1.0624999000000002,1.062427043914795,-0.8080430626869202,9.730634689331055,-8.60595703125,-1.800537109375,2.38037109375
1.0674999,1.0989385843276978,-0.8816647529602051,9.600749015808105,3.692626953125,1.15966796875,0.518798828125
1.0724999000000002,1.1665748357772827,-0.8110358119010925,9.804255485534668,0.762939453125,-2.74658203125,5.92041015625
1.0774999,1.1342530250549316,-0.8379706144332886,9.720458984375,-7.75146484375,0.030517578125,1.068115234375
1.0824999000000002,1.1162965297698975,-0.9217676520347595,9.68274974822998,8.4228515625,-0.885009765625,0.823974609375
1.0874999,1.1773487329483032,-1.083974838256836,9.61331844329834,-8.514404296875,-0.946044921875,-16.05224609375
1.0924999000000002,1.3239935636520386,-1.146224021911621,9.581595420837402,10.223388671875,4.638671875,-9.46044921875
1.0974999,1.4574702978134155,-1.0330979824066162,9.722254753112793,2.227783203125,6.34765625,3.692626953125
1.1024999000000002,1.4293384552001953,-0.9780313968658447,9.561244010925293,0.1220703125,9.8876953125,0.42724609375
1.1074999,1.3293805122375488,-0.7930793166160583,9.701904296875,9.82666015625,6.011962890625,1.708984375
1.1124999000000002,1.1174936294555664,-0.579995334148407,9.877877235412598,-6.378173828125,2.38037109375,-0.335693359375
1.1174999,0.823006808757782,-0.6189011335372925,9.645041465759277,-2.166748046875,1.861572265625,-6.256103515625
1.1224999000000002,0.7080851793289185,-0.5835866928100586,9.840168952941895,5.584716796875,-3.326416015625,1.220703125
1.1274999,0.667982280254364,-0.6518214344978333,9.914389610290527,-8.819580078125,-3.814697265625,1.89208984375
1.1324999000000002,0.6727706789970398,-0.8092401623725891,9.664793968200684,1.861572265625,-2.777099609375,-2.410888671875
1.1374999000000001,0.8529343605041504,-0.8756792545318604,9.910199165344238,4.425048828125,-4.5166015625,3.082275390625
1.1424999000000002,0.9971849918365479,-0.9091981053352356,9.765350341796875,-8.60595703125,-2.9296875,-1.068115234375
1.1474999000000001,1.3605051040649414,-0.921169102191925,9.57321548461914,7.568359375,3.72314453125,-2.777099609375
1.1524999000000002,1.2964602708816528,-0.862511157989502,9.829395294189453,0.579833984375,0.9765625,2.410888671875
1.1574999000000001,1.0965443849563599,-0.8445546627044678,9.671378135681152,-6.8359375,1.495361328125,-2.99072265625
1.1624999,0.9965864419937134,-0.8200140595436096,9.695320129394531,8.148193359375,1.03759765625,-0.885009765625
1.1674999000000001,0.8325836658477783,-0.7841010689735413,9.988609313964844,-1.77001953125,-2.9296875,3.326416015625
1.1724999,0.6218938827514648,-0.8768763542175293,9.813833236694336,4.94384765625,-12.847900390625,-3.5400390625
1.1774999000000002,0.4255693554878235,-0.9540894031524658,9.989208221435547,10.772705078125,-10.1318359375,0.30517578125
1.1824999,0.30286651849746704,-1.026513934135437,10.243592262268066,5.7373046875,-25.20751953125,3.204345703125
1.1874999000000002,0.15023615956306458,-1.193509578704834,10.23880386352539,13.916015625,-30.853271484375,-2.99072265625
1.1924999,0.08379705995321274,-1.2880805730819702,10.736797332763672,26.947021484375,-40.802001953125,1.312255859375
1.1974999000000002,0.0347159244120121,-1.5173252820968628,11.167155265808105,27.923583984375,-59.173583984375,-2.777099609375
1.2024999,-0.08140286058187485,-1.941697597503662,11.532869338989258,52.30712890625,-71.71630859375,-8.697509765625
1.2074999000000002,-0.11611878126859665,-2.2242133617401123,12.120646476745605,75.653076171875,-87.7685546875,-2.74658203125
1.2124999,-0.03531447425484657,-2.7102363109588623,12.442666053771973,86.700439453125,-99.395751953125,-5.4931640625
1.2174999000000002,0.06703764945268631,-3.199850559234619,12.610260009765625,117.950439453125,-106.8115234375,-16.510009765625
1.2224999,0.424970805644989,-3.3734302520751953,12.664728164672852,138.031005859375,-113.28125,-18.768310546875
1.2274999000000002,0.8720879554748535,-3.646967649459839,12.27267837524414,149.932861328125,-113.006591796875,-27.435302734375
1.2324999,1.2862848043441772,-3.773860454559326,11.68310546875,176.33056640625,-105.46875,-35.186767578125
1.2374999000000002,2.0236990451812744,-3.22139835357666,10.682329177856445,175.201416015625,-87.2802734375,-32.318115234375
1.2424999,2.535459518432617,-2.8167781829833984,8.951920509338379,132.50732421875,0.9765625,-22.15576171875
1.2474999000000002,2.959831953048706,-1.7208324670791626,6.773196697235107,118.072509765625,72.967529296875,-1.373291015625
1.2524999,3.3698389530181885,-0.30047231912612915,4.546588897705078,104.3701171875,87.310791015625,12.87841796875
1.2574999000000002,3.427299737930298,0.9654618501663208,2.957437753677368,81.390380859375,66.925048828125,18.00537109375
1.2624999000000001,3.490147590637207,5.21097993850708,5.308543682098389,-58.929443359375,57.9833984375,48.52294921875
1.2674999000000002,3.203441858291626,6.502651691436768,6.738480567932129,-73.974609375,56.304931640625,46.722412109375
1.2724999000000001,2.75812029838562,6.974907875061035,7.691971302032471,-105.8349609375,46.295166015625,42.54150390625
1.2774999000000002,2.1092917919158936,7.01979923248291,7.869740962982178,-124.481201171875,47.760009765625,32.8369140625
1.2824999000000001,1.7393875122070312,6.997653007507324,7.830835342407227,-144.8974609375,51.69677734375,37.567138671875
1.2874999,1.4760253429412842,6.3949127197265625,7.517194747924805,-181.21337890625,53.16162109375,42.144775390625
1.2924999000000001,1.280897855758667,5.417479991912842,7.000047206878662,-195.892333984375,58.868408203125,41.3818359375
1.2974999,1.3754688501358032,4.545392036437988,6.715137004852295,-214.35546875,65.521240234375,50.72021484375
1.3024999000000002,1.414973258972168,3.1495723724365234,7.025784969329834,-241.546630859375,75.347900390625,52.154541015625
1.3074999,1.8351556062698364,0.5632359385490417,8.761581420898438,-188.1103515625,85.845947265625,41.961669921875
1.3124999000000002,1.7477672100067139,-2.4163479804992676,10.771512985229492,4.669189453125,38.970947265625,9.1552734375
1.3174999,0.21607670187950134,-7.603984832763672,8.30129623413086,41.3818359375,-37.17041015625,-68.42041015625
1.3224999000000002,-0.2124854028224945,-6.676829814910889,5.43603515625,23.834228515625,-23.681640625,-82.09228515625
1.3274999,0.002992752008140087,-5.078700542449951,3.7696704864501953,-32.16552734375,0.732421875,-62.835693359375
1.3324999000000002,0.6212953329086304,-3.5428199768066406,4.0569748878479,-84.3505859375,34.0576171875,-24.90234375
1.3374999,1.3293805122375488,-2.516904592514038,6.321889400482178,-38.177490234375,49.041748046875,-15.07568359375
1.3424999000000002,1.701080322265625,-1.777096152305603,9.142857551574707,32.3486328125,38.360595703125,-4.2724609375
1.3474999,1.6077064275741577,-1.2826935052871704,11.634623527526855,16.693115234375,15.31982421875,14.404296875
1.3524999000000002,0.9528923034667969,-1.358709454536438,12.559383392333984,15.2587890625,4.730224609375,2.410888671875
1.3574999,0.9528923034667969,-1.358709454536438,12.559383392333984,15.2587890625,4.730224609375,2.410888671875
1.3624999000000002,-0.32202014327049255,-0.7212532758712769,10.57040023803711,-1.5869140625,-6.011962890625,-9.46044921875
1.3674999,0.005985504016280174,0.23762452602386475,9.197325706481934,-0.396728515625,-5.67626953125,4.241943359375
1.3724999000000002,0.005985504016280174,0.23762452602386475,9.197325706481934,-0.396728515625,-5.67626953125,4.241943359375
1.3774999,0.4854243993759155,0.45190557837486267,9.48343276977539,-12.75634765625,-10.986328125,7.38525390625
1.3824999000000002,0.8212111592292786,0.31543606519699097,9.569025993347168,-4.33349609375,-8.575439453125,1.0986328125
1.3874999000000001,1.0552444458007812,0.06763619929552078,9.810839653015137,-3.2958984375,-10.955810546875,5.0048828125
1.3924999000000002,1.1875240802764893,-0.5566518902778625,9.797073364257812,-13.519287109375,-10.498046875,0.42724609375
1.3974999000000001,1.2461819648742676,-1.0893617868423462,9.610923767089844,0.457763671875,-5.79833984375,-5.096435546875
1.4024999000000002,1.489791989326477,-1.4742296934127808,9.853337287902832,3.90625,-3.997802734375,2.25830078125
1.4074999000000001,1.6089035272598267,-1.6388310194015503,9.741408348083496,-4.913330078125,0.54931640625,0.335693359375
1.4124999,1.6825252771377563,-1.5795745849609375,9.592369079589844,8.72802734375,5.615234375,-1.983642578125
1.4174999000000001,1.7525556087493896,-1.313219666481018,9.683947563171387,3.936767578125,5.06591796875,3.143310546875
1.4224999,1.5568296909332275,-0.9720458984375,9.57979965209961,-5.9814453125,5.889892578125,-3.021240234375
1.4274999000000002,0.933738648891449,-0.5560533404350281,9.731232643127441,-6.378173828125,1.708984375,-2.288818359375
1.4324999,0.933738648891449,-0.5560533404350281,9.731232643127441,-6.378173828125,1.708984375,-2.288818359375
1.4374999000000002,0.8409633636474609,-0.5805938839912415,9.712677955627441,6.7138671875,-0.335693359375,-0.732421875
1.4424999,0.9696516990661621,-0.7535749673843384,9.64803409576416,7.598876953125,-1.64794921875,0.1220703125
1.4474999000000002,0.9696516990661621,-0.7535749673843384,9.64803409576416,7.598876953125,-1.64794921875,0.1220703125
1.4524999,1.0947487354278564,-0.7589619159698486,9.798270225524902,-5.462646484375,-2.685546875,2.74658203125
1.4574999000000002,1.1420341730117798,-0.8678981065750122,9.579200744628906,-3.173828125,-0.030517578125,-3.5400390625
1.4624999,1.2216414213180542,-0.8224082589149475,9.663596153259277,7.171630859375,-0.48828125,1.220703125
1.4674999000000002,1.2779051065444946,-0.8164227604866028,9.81024169921875,-6.500244140625,-0.91552734375,1.89208984375
1.4724999,1.1941081285476685,-0.9074024558067322,9.634865760803223,0.48828125,2.5634765625,-3.692626953125
1.4774999000000002,1.2270283699035645,-0.8864531517028809,9.795876502990723,6.65283203125,0.732421875,2.105712890625
1.4824999,1.0965443849563599,-0.9002198576927185,9.855133056640625,5.18798828125,-1.251220703125,2.62451171875
1.4874999000000002,1.0360907316207886,-0.838569164276123,9.750985145568848,-7.904052734375,-0.579833984375,-0.091552734375
1.4924999,0.9684545993804932,-0.8720879554748535,9.586981773376465,4.150390625,0.579833984375,-3.021240234375
1.4974999000000002,1.0887632369995117,-0.801459014415741,9.773131370544434,2.410888671875,-2.166748046875,3.35693359375
1.5024999,1.0887632369995117,-0.7781155705451965,9.68694019317627,-7.87353515625,-0.885009765625,-1.251220703125
1.5074999000000002,1.1150994300842285,-0.8541314601898193,9.559449195861816,5.645751953125,0.54931640625,-2.349853515625
1.5124999000000001,1.2078747749328613,-0.8050503134727478,9.804255485534668,0.640869140625,-1.129150390625,3.5400390625
1.5174999000000002,1.1510124206542969,-0.8601169586181641,9.673172950744629,-6.378173828125,0.885009765625,-2.25830078125
1.5224999000000001,1.2228385210037231,-0.7954735159873962,9.825204849243164,-1.5869140625,-0.823974609375,3.35693359375
1.5274999000000002,1.1468225717544556,-0.8032546639442444,9.638457298278809,-5.67626953125,0.91552734375,-2.8076171875
1.5324999000000001,1.0696096420288086,-0.8062474131584167,9.658209800720215,-4.302978515625,0.9765625,-3.2958984375
1.5374999000000003,1.092953085899353,-0.7912836670875549,9.706093788146973,7.598876953125,-0.1220703125,0.457763671875
1.5424999000000001,1.1324573755264282,-0.7775170207023621,9.859322547912598,-5.096435546875,-1.495361328125,2.44140625
1.5474999,1.0857704877853394,-0.8906430602073669,9.626486778259277,-1.64794921875,1.28173828125,-3.692626953125
1.5524999000000002,1.1288660764694214,-0.8655039072036743,9.725846290588379,7.171630859375,-0.42724609375,1.0986328125
1.5574999,1.1492167711257935,-0.8577227592468262,9.845556259155273,-6.805419921875,-1.46484375,1.434326171875
1.5624999000000002,1.0995371341705322,-0.9373299479484558,9.63067626953125,1.03759765625,1.77001953125,-3.7841796875
1.5674999,1.1725603342056274,-0.8708908557891846,9.7791166305542,6.4697265625,-1.03759765625,2.349853515625
1.5724999000000002,1.1797429323196411,-0.8433575630187988,9.846753120422363,-7.904052734375,-0.732421875,0.8544921875
1.5774999,1.127070426940918,-0.884058952331543,9.580398559570312,2.3193359375,1.64794921875,-3.72314453125
1.5824999000000002,1.1749545335769653,-0.849941611289978,9.830592155456543,4.94384765625,-0.640869140625,2.62451171875
1.5874999,1.0660183429718018,-0.8637082576751709,9.605537414550781,4.2724609375,1.190185546875,-3.11279296875
1.5924999000000002,1.169567584991455,-0.8170213103294373,9.817423820495605,3.23486328125,-1.495361328125,2.960205078125
1.5974999,1.1091139316558838,-0.7727286219596863,9.675567626953125,-8.209228515625,-0.152587890625,-1.068115234375
1.6024999000000002,1.1450269222259521,-0.760757565498352,9.774328231811523,0.91552734375,-1.007080078125,3.326416015625
1.6074999,1.062427043914795,-0.811634361743927,9.712079048156738,-6.8359375,1.068115234375,-2.166748046875
1.6124999000000002,1.0618284940719604,-0.8535329103469849,9.675567626953125,6.8359375,1.190185546875,-1.617431640625
1.6174999,1.113303780555725,-0.8158242106437683,9.889848709106445,-0.91552734375,-1.556396484375,3.47900390625
1.6224999000000002,1.0636241436004639,-0.8337807655334473,9.673771858215332,-6.28662109375,0.213623046875,-2.593994140625
1.6274999,1.0893617868423462,-0.839766263961792,9.646238327026367,7.38525390625,0.1220703125,-0.8544921875
1.6324999000000002,1.1414356231689453,-0.7559691667556763,9.79408073425293,-3.265380859375,-1.922607421875,2.86865234375
1.6374999000000001,1.0857704877853394,-0.8212111592292786,9.625288963317871,-4.241943359375,1.40380859375,-3.41796875
1.6424999000000002,1.1701661348342896,-0.7481880187988281,9.823410034179688,-3.997802734375,-1.03759765625,2.62451171875
1.6474999000000001,1.1456254720687866,-0.8373720645904541,9.610325813293457,-3.509521484375,0.79345703125,-3.662109375
1.6524999000000002,1.1749545335769653,-0.8020575642585754,9.667187690734863,7.38525390625,-0.030517578125,0.762939453125
1.6574999000000001,1.1971008777618408,-0.778714120388031,9.825803756713867,-5.9814453125,-1.15966796875,1.8310546875
1.6624999000000003,1.1180921792984009,-0.8804676532745361,9.62947940826416,-0.91552734375,1.220703125,-3.662109375
1.6674999000000001,1.1569979190826416,-0.8373720645904541,9.77672290802002,7.14111328125,-0.1220703125,1.739501953125
1.6724999,1.170764684677124,-0.7942764163017273,9.880870819091797,-7.2021484375,-0.701904296875,1.190185546875
1.6774999000000002,1.1276689767837524,-0.8637082576751709,9.621698379516602,0.640869140625,1.495361328125,-3.753662109375
1.6824999,1.1851298809051514,-0.8140285611152649,9.797672271728516,5.9814453125,-0.30517578125,2.349853515625
1.6874999000000002,1.1528080701828003,-0.8104372620582581,9.78869342803955,-7.171630859375,-0.06103515625,0.335693359375
1.6924999,1.05105459690094,-0.8822633028030396,9.568427085876465,2.899169921875,1.617431640625,-3.570556640625
1.6974999000000002,1.0971429347991943,-0.8732850551605225,9.823410034179688,4.669189453125,-0.9765625,2.716064453125
1.7024999,1.0271124839782715,-0.8780734539031982,9.607333183288574,4.638671875,1.251220703125,-2.99072265625
1.7074999000000002,1.1438298225402832,-0.8188169598579407,9.79408073425293,2.532958984375,-1.40380859375,3.265380859375
1.7124999,1.0935516357421875,-0.7996633648872375,9.691129684448242,-7.99560546875,0.1220703125,-1.434326171875
1.7174999000000002,1.0911574363708496,-0.8541314601898193,9.549872398376465,5.92041015625,1.5869140625,-2.471923828125
1.7224999,1.1324573755264282,-0.800261914730072,9.785101890563965,0.823974609375,-1.5869140625,3.387451171875
1.7274999000000002,1.0606313943862915,-0.838569164276123,9.677363395690918,-6.9580078125,-0.030517578125,-2.25830078125
1.7324999,1.0887632369995117,-0.8672995567321777,9.643245697021484,7.2021484375,0.640869140625,-1.739501953125
1.7374999000000002,1.1617863178253174,-0.7936778664588928,9.849146842956543,-0.823974609375,-1.708984375,3.448486328125
1.7424999,1.1336544752120972,-0.8277952671051025,9.654019355773926,-5.828857421875,1.03759765625,-2.899169921875
1.7474999000000002,1.1617863178253174,-0.8313865661621094,9.655815124511719,7.598876953125,1.007080078125,-1.03759765625
1.7524999,1.1988965272903442,-0.7613561153411865,9.808445930480957,-2.86865234375,-1.220703125,3.173828125
1.7574999000000002,1.0456676483154297,-0.8966285586357117,9.715071678161621,-3.47900390625,0.823974609375,-3.326416015625
1.7624999000000001,0.15801730751991272,-1.5131354331970215,10.338761329650879,29.022216796875,-34.912109375,-4.08935546875
1.7674999000000002,0.09457096457481384,-1.623268723487854,10.649409294128418,19.439697265625,-47.271728515625,-6.89697265625
1.7724999000000001,0.028131870552897453,-1.8369512557983398,10.857705116271973,36.956787109375,-56.976318359375,-15.289306640625
1.7774999000000002,0.0035913025494664907,-1.744175910949707,11.279084205627441,65.7958984375,-64.63623046875,-0.762939453125
1.7824999000000001,0.17178396880626678,-1.965639591217041,11.528080940246582,57.7392578125,-72.6318359375,-0.48828125
1.7874999000000003,0.09576806426048279,-2.163161277770996,11.390414237976074,89.66064453125,-75.01220703125,-7.354736328125
1.7924999000000001,0.5237316489219666,-2.343324899673462,11.5250883102417,105.255126953125,-73.455810546875,1.434326171875
1.7974999,0.8056488633155823,-2.7275943756103516,11.023503303527832,92.376708984375,-76.019287109375,-7.598876953125
1.8024999000000002,1.20368492603302,-2.8377275466918945,10.402207374572754,109.710693359375,-73.1201171875,-23.86474609375
1.8074999,1.923741102218628,-2.4803929328918457,9.637859344482422,107.666015625,-65.887451171875,-23.712158203125
1.8124999000000002,4.071340084075928,3.7181951999664307,4.712985992431641,-15.56396484375,62.957763671875,37.017822265625
1.8174999,3.8750154972076416,5.072116374969482,5.455787181854248,-59.600830078125,71.136474609375,44.891357421875
1.8224999000000002,3.3482911586761475,5.594650745391846,6.352415561676025,-88.165283203125,72.75390625,37.90283203125
1.8274999,2.7772738933563232,5.931634902954102,6.9922661781311035,-97.808837890625,69.671630859375,34.149169921875
1.8324999000000002,2.2691047191619873,5.876567840576172,7.462726593017578,-132.87353515625,62.3779296875,33.75244140625
1.8374999,1.6699557304382324,5.230133533477783,7.460930824279785,-163.9404296875,62.530517578125,26.30615234375
1.8424999000000002,1.2779051065444946,4.603451251983643,7.600991725921631,-176.513671875,65.3076171875,29.11376953125
1.8474999,1.314416766166687,2.8634653091430664,8.956708908081055,-173.309326171875,70.220947265625,30.3955078125
1.8524999000000002,1.1378443241119385,-0.365115761756897,10.752958297729492,-49.98779296875,60.394287109375,7.720947265625
1.8574999,0.568622887134552,-5.868786811828613,11.981781959533691,22.125244140625,-40.313720703125,-30.3955078125
1.8624999000000002,-0.07122749835252762,-7.028179168701172,9.824007987976074,32.77587890625,-40.802001953125,-54.50439453125
1.8674999,-0.3998316824436188,-6.336853504180908,7.0341644287109375,28.80859375,-28.778076171875,-60.943603515625
1.8724999000000002,-0.17058686912059784,-5.137956619262695,5.124788761138916,-29.84619140625,-0.732421875,-49.49951171875
1.8774999,0.24121582508087158,-3.737348794937134,4.925471305847168,-59.9365234375,31.982421875,-24.71923828125
1.8824999000000002,1.035492181777954,-2.3307554721832275,6.97430944442749,-18.524169921875,40.069580078125,-1.190185546875
1.8874999000000001,1.3952209949493408,-1.6160861253738403,9.557653427124023,20.294189453125,25.726318359375,3.7841796875
1.8924999000000002,1.3431471586227417,-1.0767922401428223,11.447277069091797,16.632080078125,11.749267578125,4.119873046875
1.8974999000000001,0.9253589510917664,-0.8738836050033569,12.350489616394043,7.415771484375,-3.0517578125,5.31005859375
1.9024999000000002,0.3663128614425659,-0.7823054194450378,11.544241905212402,5.9814453125,-4.486083984375,-10.19287109375
1.9074999000000001,-0.03232172131538391,-0.5267243981361389,10.16877269744873,4.638671875,2.044677734375,-12.603759765625
1.9124999000000003,0.15741875767707825,-0.1364694982767105,9.631275177001953,-5.9814453125,-4.180908203125,3.753662109375
1.9174999000000001,1.0797849893569946,-0.10235211998224258,9.821015357971191,-7.14111328125,-9.552001953125,6.7138671875
1.9224999,1.2294225692749023,-0.838569164276123,9.555258750915527,4.69970703125,-5.18798828125,-2.960205078125
1.9274999000000002,1.3766659498214722,-1.0660183429718018,9.725247383117676,-3.448486328125,-5.096435546875,1.89208984375
1.9324999,1.4658499956130981,-1.2186486721038818,9.657610893249512,-3.72314453125,-1.617431640625,-2.899169921875
1.9374999000000002,1.535880446434021,-1.2461819648742676,9.727641105651855,10.223388671875,2.044677734375,0.8544921875
1.9424999,1.5855600833892822,-1.103128433227539,9.797672271728516,-1.922607421875,2.38037109375,3.387451171875
1.9474999000000002,1.459265947341919,-1.05105459690094,9.628880500793457,-3.509521484375,5.0048828125,-4.150390625
1.9524999,1.3539210557937622,-0.9169792532920837,9.665990829467773,8.026123046875,4.669189453125,-1.0986328125
1.9574999000000002,1.2312182188034058,-0.7595604658126831,9.851541519165039,-4.82177734375,2.471923828125,1.40380859375
1.9624999,0.9959878921508789,-0.8331822156906128,9.666589736938477,-1.03759765625,2.716064453125,-3.23486328125
1.9674999000000002,0.8331822156906128,-0.7314286231994629,9.874286651611328,-7.415771484375,-2.410888671875,1.28173828125
1.9724999,0.8074445128440857,-0.8050503134727478,9.663596153259277,0.518798828125,-0.946044921875,-4.33349609375
1.9774999000000002,0.9600749015808105,-0.7571662664413452,9.840168952941895,5.706787109375,-2.5634765625,2.01416015625
1.9824999,1.0779893398284912,-0.7487865686416626,9.841964721679688,-8.148193359375,-1.800537109375,0.9765625
1.9874999000000002,1.1264718770980835,-0.8098387122154236,9.593565940856934,2.38037109375,0.9765625,-3.11279296875
1.9924999,1.2557587623596191,-0.7924807667732239,9.823410034179688,4.364013671875,-0.518798828125,2.8076171875
1.9974999000000002,1.2557587623596191,-0.7924807667732239,9.823410034179688,4.364013671875,-0.518798828125,2.8076171875
2.0024999,1.2078747749328613,-0.8684966564178467,9.607931137084961,4.7607421875,1.861572265625,-3.143310546875
2.0074999,1.2078747749328613,-0.8684966564178467,9.607931137084961,4.7607421875,1.861572265625,-3.143310546875
2.0124999000000003,1.2886791229248047,-0.8367735147476196,9.778518676757812,2.9296875,-0.396728515625,3.2958984375
2.0174999000000002,1.1917139291763306,-0.8391677141189575,9.653421401977539,-7.415771484375,0.579833984375,-1.0986328125
2.0224999,1.139639973640442,-0.884058952331543,9.552266120910645,6.317138671875,1.495361328125,-2.471923828125
2.0274999,1.0342950820922852,-0.8523358106613159,9.684545516967773,-6.89697265625,0.18310546875,-2.01416015625
2.0324999000000004,1.015141487121582,-0.8637082576751709,9.671976089477539,6.9580078125,0.1220703125,-1.739501953125
2.0374999000000003,1.0887632369995117,-0.7906851172447205,9.864110946655273,-1.220703125,-2.13623046875,3.143310546875
2.0424999,1.0540473461151123,-0.8062474131584167,9.672574996948242,-5.950927734375,-0.335693359375,-2.655029296875
2.0474999,1.1007342338562012,-0.7984662652015686,9.678560256958008,7.75146484375,0,-0.823974609375
2.0524999,1.1773487329483032,-0.7134721279144287,9.823410034179688,-2.838134765625,-1.739501953125,2.960205078125
2.0574999000000003,1.1276689767837524,-0.7864952683448792,9.667786598205566,-4.364013671875,0.885009765625,-3.265380859375
2.0624999,1.1593921184539795,-0.7751228213310242,9.706093788146973,7.904052734375,0.732421875,0.030517578125
2.0674999,1.1965023279190063,-0.71766197681427,9.865906715393066,-4.669189453125,-0.885009765625,2.716064453125
2.0724999,1.1534066200256348,-0.812831461429596,9.663596153259277,-2.685546875,1.40380859375,-3.60107421875
2.0774999000000003,1.1623848676681519,-0.7751228213310242,9.695320129394531,7.50732421875,0.244140625,0.762939453125
2.0824999,1.1773487329483032,-0.8631097078323364,9.768342971801758,5.950927734375,-0.8544921875,2.105712890625
2.0874999,1.1773487329483032,-0.8631097078323364,9.768342971801758,5.950927734375,-0.8544921875,2.105712890625
2.0924999,1.170764684677124,-0.8607155084609985,9.773730278015137,-7.659912109375,-0.79345703125,0.518798828125
2.0974999000000003,1.0887632369995117,-0.9199720025062561,9.564237594604492,2.777099609375,1.373291015625,-3.35693359375
2.1024999,1.1456254720687866,-0.9085995554924011,9.819219589233398,4.33349609375,-0.67138671875,2.655029296875
2.1074999,1.1109095811843872,-0.871489405632019,9.739612579345703,-7.843017578125,-0.30517578125,-0.48828125
2.1124999,1.061229944229126,-0.910993754863739,9.601346969604492,4.69970703125,1.28173828125,-2.9296875
2.1174999000000003,1.1755530834197998,-0.8379706144332886,9.786897659301758,2.8076171875,-1.28173828125,3.265380859375
2.1224999,1.1204863786697388,-0.8032546639442444,9.674968719482422,-7.75146484375,-0.1220703125,-1.373291015625
2.1274999,1.1150994300842285,-0.8236053586006165,9.569025993347168,5.92041015625,1.15966796875,-2.593994140625
2.1324999,1.0833762884140015,-0.7858967185020447,9.654618263244629,6.89697265625,0.8544921875,-1.617431640625
2.1374999000000003,1.159990668296814,-0.7332242727279663,9.840767860412598,-0.732421875,-1.434326171875,3.265380859375
2.1424999000000002,1.1097124814987183,-0.7763199210166931,9.668983459472656,-6.2255859375,0.54931640625,-2.685546875
2.1474999,1.1420341730117798,-0.7966706156730652,9.653421401977539,7.598876953125,0.946044921875,-0.885009765625
2.1524999,1.1917139291763306,-0.74040687084198,9.766547203063965,-2.410888671875,-1.64794921875,3.143310546875
2.1574999000000004,1.1186907291412354,-0.8146271109580994,9.613917350769043,-5.035400390625,1.068115234375,-3.082275390625
2.1624999000000003,1.1510124206542969,-0.7954735159873962,9.819818496704102,-3.84521484375,-1.3427734375,2.685546875
2.1674999,1.1013327836990356,-0.8924387097358704,9.649829864501953,-3.082275390625,0.91552734375,-3.448486328125
2.1724999,1.136048674583435,-0.862511157989502,9.707889556884766,8.087158203125,0.3662109375,0.3662109375
2.1774999000000004,1.1839327812194824,-0.8307880163192749,9.849745750427246,-5.523681640625,-0.79345703125,2.0751953125
2.1824999000000003,1.1288660764694214,-0.910993754863739,9.637859344482422,-1.40380859375,1.495361328125,-3.72314453125
2.1874999,1.1522095203399658,-0.8565256595611572,9.717466354370117,7.659912109375,-0.1220703125,1.373291015625
2.1924999,1.1581950187683105,-0.821809709072113,9.857526779174805,-6.622314453125,-1.03759765625,1.5869140625
2.1974999,1.0911574363708496,-0.8690952062606812,9.642048835754395,0.18310546875,1.0986328125,-3.753662109375
2.2024999000000003,1.1540051698684692,-0.8092401623725891,9.799467086791992,6.591796875,-0.640869140625,1.861572265625
2.2074999,1.1725603342056274,-0.7625532150268555,9.868300437927246,-7.4462890625,-0.640869140625,0.91552734375
2.2124999,1.1288660764694214,-0.812831461429596,9.601945877075195,1.8310546875,1.495361328125,-3.509521484375
2.2174999,1.18094003200531,-0.7811083197593689,9.814431190490723,5.43212890625,-0.823974609375,2.655029296875
2.2224999000000003,1.1534066200256348,-0.7727286219596863,9.764153480529785,-8.270263671875,-0.54931640625,0.091552734375
2.2274999,1.0606313943862915,-0.8391677141189575,9.57321548461914,3.11279296875,1.03759765625,-3.326416015625
2.2324999,1.139639973640442,-0.8391677141189575,9.820416450500488,4.08935546875,-1.15966796875,3.021240234375
2.2374999,1.1127052307128906,-0.8373720645904541,9.733028411865234,-7.904052734375,0,-0.518798828125
2.2424999000000003,1.1971008777618408,-0.8565256595611572,9.764153480529785,2.685546875,-1.03759765625,3.11279296875
2.2474999,1.1312602758407593,-0.8379706144332886,9.652822494506836,-7.537841796875,-0.06103515625,-1.373291015625
2.2524999,1.12467622756958,-0.8822633028030396,9.546280860900879,5.889892578125,0.946044921875,-2.44140625
2.2574999,1.1605892181396484,-0.8224082589149475,9.77133560180664,0.885009765625,-1.0986328125,3.2958984375
2.2624999000000003,1.083974838256836,-0.8547300100326538,9.685144424438477,-6.77490234375,0.244140625,-2.044677734375
2.2674999000000002,0.8445546627044678,-0.961870551109314,9.52473258972168,7.01904296875,0.9765625,-1.708984375
2.2724999,0.7990648150444031,-0.8433575630187988,9.573814392089844,16.2353515625,-5.0048828125,18.402099609375
2.2774999,0.20530278980731964,-0.7667431235313416,8.857349395751953,27.435302734375,-6.011962890625,41.168212890625
2.2824999000000004,-0.5536591410636902,-0.6913257241249084,8.701127052307129,45.257568359375,-7.415771484375,68.206787109375
2.2874999000000003,-1.113303780555725,-0.3878606855869293,8.273762702941895,57.18994140625,-4.08935546875,117.218017578125
2.2924999,-2.2182278633117676,-0.7775170207023621,8.704120635986328,84.41162109375,-39.9169921875,128.692626953125
2.2974999,-2.9161376953125,-1.1210849285125732,8.813055992126465,99.639892578125,-61.737060546875,135.040283203125
2.3024999000000004,-3.339911460876465,-2.011728048324585,9.381080627441406,106.201171875,-97.83935546875,125.30517578125
2.3074999000000003,-2.2697031497955322,-3.642777919769287,8.295310020446777,113.922119140625,-126.739501953125,61.737060546875
2.3124999,-0.6260837316513062,-3.5631706714630127,7.09342098236084,78.18603515625,-68.572998046875,56.7626953125
2.3174999,1.73519766330719,-3.0166940689086914,5.2929816246032715,75.592041015625,-42.54150390625,46.7529296875
2.3224999,6.953958988189697,3.533841609954834,6.294356346130371,-19.378662109375,32.16552734375,63.5986328125
2.3274999000000003,6.542754650115967,4.189254283905029,7.07606315612793,-32.257080078125,47.2412109375,52.79541015625
2.3324999,6.092644691467285,4.611232280731201,7.569867134094238,-39.1845703125,54.595947265625,50.1708984375
2.3374999,5.459378242492676,4.399944305419922,7.894281387329102,-71.8994140625,55.35888671875,44.3115234375
2.3424999,4.686649799346924,3.8295257091522217,7.724891662597656,-84.8388671875,63.507080078125,26.79443359375
2.3474999000000003,3.605069160461426,2.7078421115875244,7.704541206359863,-131.65283203125,72.113037109375,7.781982421875
2.3524999,3.1729156970977783,1.9405004978179932,7.989450931549072,-130.584716796875,81.97021484375,-5.157470703125
2.3574999,2.9269115924835205,0.5153518915176392,9.73661994934082,-104.6142578125,95.977783203125,0.732421875
2.3624999,2.2385785579681396,-1.8632874488830566,11.68190860748291,-20.69091796875,99.54833984375,0.762939453125
2.3674999000000003,1.338358759880066,-4.25629186630249,13.134590148925781,47.882080078125,40.130615234375,-8.85009765625
2.3724999,0.2256535142660141,-6.184223175048828,13.372215270996094,32.1044921875,4.547119140625,-35.400390625
2.3774999,-0.9696516990661621,-7.00124454498291,11.58973217010498,26.092529296875,-3.173828125,-65.85693359375
2.3824999,-1.5119383335113525,-6.087856292724609,9.299677848815918,21.514892578125,-8.941650390625,-70.281982421875
2.3874999000000003,-1.4646528959274292,-4.376600742340088,7.879916191101074,-18.280029296875,-15.869140625,-60.9130859375
2.3924999000000002,-0.9846154451370239,-2.4414870738983154,7.5866265296936035,-16.876220703125,2.99072265625,-52.67333984375
2.3974999,-0.19033902883529663,-0.3256114423274994,8.583212852478027,8.270263671875,16.41845703125,-25.87890625
2.4024999,0.2908954918384552,1.0157400369644165,9.77791976928711,3.47900390625,6.591796875,-3.265380859375
2.4074999000000004,0.26336219906806946,-0.25498247146606445,9.782708168029785,-9.46044921875,-17.913818359375,6.65283203125
2.4124999000000003,0.5805938839912415,-0.9014169573783875,9.636063575744629,-11.41357421875,-14.434814453125,2.0751953125
2.4174999,1.0791864395141602,-1.2988544702529907,9.7605619430542,6.4697265625,-11.138916015625,2.960205078125
2.4224999,1.5119383335113525,-1.4903905391693115,9.894637107849121,-4.8828125,-8.636474609375,5.279541015625
2.4274999000000004,1.7699135541915894,-1.5245078802108765,9.625288963317871,-2.227783203125,-1.708984375,-2.197265625
2.4324999000000003,1.9889830350875854,-1.390432596206665,9.701305389404297,9.21630859375,1.800537109375,1.312255859375
2.4374999,2.049436569213867,-1.1252747774124146,9.798270225524902,-5.462646484375,4.241943359375,0.885009765625
2.4424999,1.8782511949539185,-0.9379284977912903,9.494805335998535,3.35693359375,8.7890625,-4.82177734375
2.4474999,1.7172411680221558,-0.7314286231994629,9.75397777557373,7.6904296875,8.1787109375,2.288818359375
2.4524999000000003,0.7092822790145874,-0.6075286865234375,9.899425506591797,-2.44140625,-4.2724609375,4.180908203125
2.4574999,0.7972691655158997,-0.6709750294685364,9.720458984375,-6.591796875,-1.861572265625,-2.5634765625
2.4624999,1.0103530883789062,-0.6769605278968811,9.761758804321289,7.14111328125,-1.983642578125,0.3662109375
2.4674999,1.1797429323196411,-0.6685808300971985,9.903017044067383,-6.317138671875,-2.50244140625,3.143310546875
2.4724999000000003,1.1982979774475098,-0.8026561141014099,9.648633003234863,-2.38037109375,1.007080078125,-3.35693359375
2.4774999,1.3210008144378662,-0.8325836658477783,9.791686058044434,7.659912109375,0.244140625,1.983642578125
2.4824999,1.2000936269760132,-0.9068039059638977,9.570222854614258,2.716064453125,2.593994140625,-4.08935546875
2.4874999,1.0743980407714844,-0.7906851172447205,9.715071678161621,-7.9345703125,0.48828125,-0.54931640625
2.4924999000000003,1.0019733905792236,-0.7954735159873962,9.576807022094727,5.06591796875,2.01416015625,-3.23486328125
2.4974999,1.0462661981582642,-0.6853402256965637,9.831789016723633,2.044677734375,-1.495361328125,3.387451171875
2.5024999,0.9576807022094727,-0.6374561786651611,9.64803409576416,-7.87353515625,-0.8544921875,-1.89208984375
2.5074999,0.9828197956085205,-0.6596025824546814,9.613917350769043,7.293701171875,-0.213623046875,-1.5869140625
2.5124999000000003,1.0630255937576294,-0.596754789352417,9.827000617980957,-1.922607421875,-2.777099609375,3.326416015625
2.5174999000000002,1.0330979824066162,-0.657806932926178,9.668384552001953,-5.828857421875,-0.396728515625,-3.265380859375
2.5224999,1.1216834783554077,-0.6380547285079956,9.691129684448242,8.575439453125,-0.335693359375,-0.30517578125
2.5274999,1.1875240802764893,-0.5847837924957275,9.891045570373535,-5.0048828125,-1.922607421875,2.655029296875
2.5324999000000004,1.1504138708114624,-0.6805518269538879,9.640851974487305,-2.471923828125,1.251220703125,-3.997802734375
2.5374999000000003,1.2294225692749023,-0.6584054827690125,9.777320861816406,7.568359375,0.335693359375,1.251220703125
2.5424999,1.217451572418213,-0.690727174282074,9.88506031036377,-7.6904296875,-0.6103515625,1.40380859375
2.5474999,1.1342530250549316,-0.790086567401886,9.822811126708984,5.828857421875,0.091552734375,2.50244140625
2.5524999000000004,1.0444705486297607,-0.8134300112724304,9.788095474243164,-8.4228515625,-0.457763671875,0
2.5574999000000003,0.9744400978088379,-0.862511157989502,9.579200744628906,4.45556640625,1.28173828125,-3.23486328125
2.5624999,1.0887632369995117,-0.8529343605041504,9.838972091674805,2.9296875,-1.251220703125,3.326416015625
2.5674999,1.0115501880645752,-0.8158242106437683,9.67077922821045,-8.026123046875,0.152587890625,-1.373291015625
2.5724999,1.0678139925003052,-0.839766263961792,9.59177017211914,6.9580078125,1.3427734375,-2.25830078125
2.5774999000000003,1.1354501247406006,-0.7846996188163757,9.839570045471191,-0.244140625,-1.28173828125,3.47900390625
2.5824999,1.0749965906143188,-0.7523778676986694,9.620500564575195,-6.591796875,0.732421875,-2.62451171875
2.5874999,1.1079168319702148,-0.7356184720993042,9.661202430725098,8.544921875,0.91552734375,-0.79345703125
2.5924999,1.146224021911621,-0.6362590789794922,9.823410034179688,-3.35693359375,-0.823974609375,3.082275390625
2.5974999000000003,1.0875661373138428,-0.6829460263252258,9.64683723449707,-3.84521484375,1.190185546875,-3.60107421875
2.6024999,1.1348515748977661,-0.656609833240509,9.721057891845703,8.30078125,0.30517578125,0.6103515625
2.6074999,1.1390414237976074,-0.679354727268219,9.82999324798584,6.805419921875,-0.54931640625,1.89208984375
2.6124999,1.1025298833847046,-0.689530074596405,9.911396026611328,-8.392333984375,-1.03759765625,1.007080078125
2.6174999000000003,1.1025298833847046,-0.689530074596405,9.911396026611328,-8.392333984375,-1.03759765625,1.007080078125
2.6224999,1.0336965322494507,-0.7493851184844971,9.603142738342285,1.46484375,1.190185546875,-3.84521484375
2.6274999,1.0923545360565186,-0.7769184708595276,9.858125686645508,4.8828125,-1.068115234375,2.86865234375
2.6324999,1.0247182846069336,-0.7757213711738586,9.743802070617676,-9.124755859375,-1.03759765625,-0.213623046875
2.6374999000000003,0.9923965930938721,-0.8349778652191162,9.563039779663086,4.852294921875,1.129150390625,-3.11279296875
2.6424999000000002,1.0301052331924438,-0.7697358727455139,9.634865760803223,-8.087158203125,-0.152587890625,-1.5869140625
2.6474999,1.0690110921859741,-0.8056488633155823,9.57201862335205,6.8359375,0.91552734375,-2.13623046875
2.6524999,1.1420341730117798,-0.7410054206848145,9.816825866699219,-0.732421875,-1.77001953125,3.23486328125
2.6574999000000004,1.137245774269104,-0.7146692276000977,9.663596153259277,8.36181640625,0.885009765625,-0.8544921875
2.6624999000000003,1.1785458326339722,-0.6266822814941406,9.827000617980957,-2.99072265625,-1.0986328125,2.716064453125
2.6674999,1.1139023303985596,-0.67815762758255,9.66539192199707,-4.39453125,1.190185546875,-3.631591796875
2.6724999,1.1432312726974487,-0.6787561774253845,9.714473724365234,8.209228515625,0.701904296875,0.54931640625
2.6774999000000004,1.157596468925476,-0.6416460275650024,9.877877235412598,-5.79833984375,-0.9765625,2.50244140625
2.6824999000000003,1.0696096420288086,-0.7356184720993042,9.624691009521484,-1.3427734375,1.800537109375,-3.814697265625
2.6874999,1.1300631761550903,-0.7110779285430908,9.794678688049316,7.720947265625,0.152587890625,1.46484375
2.6924999,1.095347285270691,-0.7224503755569458,9.899425506591797,-7.4462890625,-0.91552734375,1.312255859375
2.6974999,1.0217255353927612,-0.7775170207023621,9.607333183288574,1.312255859375,1.312255859375,-3.570556640625
2.7024999000000003,1.0708067417144775,-0.7858967185020447,9.84615421295166,5.37109375,-0.6103515625,2.716064453125
2.7074999,1.0043675899505615,-0.7589619159698486,9.774927139282227,-8.72802734375,-1.03759765625,-0.091552734375
2.7124999,0.9600749015808105,-0.8050503134727478,9.594164848327637,3.570556640625,1.129150390625,-3.23486328125
2.7174999,1.0342950820922852,-0.7499836683273315,9.712677955627441,-7.965087890625,-0.396728515625,-1.251220703125
2.7224999000000003,1.0678139925003052,-0.7906851172447205,9.563039779663086,6.34765625,1.007080078125,-2.50244140625
2.7274999,1.1450269222259521,-0.7350199222564697,9.800065994262695,1.15966796875,-1.678466796875,3.2958984375
2.7324999,1.083974838256836,-0.7152677774429321,9.658209800720215,-6.927490234375,0.579833984375,-2.471923828125
2.7374999,1.1162965297698975,-0.7116764783859253,9.665990829467773,7.38525390625,1.495361328125,-1.434326171875
2.7424999000000003,1.1749545335769653,-0.6386532783508301,9.883264541625977,-1.8310546875,-1.52587890625,3.570556640625
2.7474999,1.1025298833847046,-0.6787561774253845,9.675567626953125,-5.43212890625,0.732421875,-3.11279296875
2.7524999,1.1109095811843872,-0.6847416758537292,9.656414031982422,7.50732421875,0.091552734375,-0.48828125
2.7574999,1.1336544752120972,-0.6422445774078369,9.839570045471191,-4.57763671875,-1.678466796875,2.593994140625
2.7624999000000003,1.083974838256836,-0.7236474752426147,9.635464668273926,-3.47900390625,1.03759765625,-3.60107421875
2.7674999000000002,1.1354501247406006,-0.707486629486084,9.726444244384766,8.880615234375,-0.030517578125,0.91552734375
2.7724999,1.1725603342056274,-0.6949170231819153,9.894637107849121,-6.927490234375,-1.0986328125,2.044677734375
2.7774999,1.114500880241394,-0.7499836683273315,9.924564361572266,-7.843017578125,-0.79345703125,1.312255859375
2.7824999000000004,1.048660397529602,-0.7954735159873962,9.621698379516602,1.708984375,1.617431640625,-3.662109375
2.7874999000000003,1.0983400344848633,-0.7745242714881897,9.848548889160156,4.547119140625,-0.213623046875,2.593994140625
2.7924999,1.036689281463623,-0.7499836683273315,9.774927139282227,-8.85009765625,-0.518798828125,0
2.7974999,0.983418345451355,-0.7948749661445618,9.599552154541016,4.302978515625,1.64794921875,-3.387451171875
2.8024999000000004,1.0534487962722778,-0.7487865686416626,9.744999885559082,-8.11767578125,-0.8544921875,-1.251220703125
2.8074999000000003,1.0893617868423462,-0.7697358727455139,9.580398559570312,5.9814453125,1.068115234375,-2.899169921875
2.8124999,1.1677719354629517,-0.7080851793289185,9.825204849243164,1.220703125,-1.312255859375,3.509521484375
2.8174999,1.091755986213684,-0.6709750294685364,9.655815124511719,-7.4462890625,0.396728515625,-1.800537109375
2.8224999,1.1049240827560425,-0.6997054219245911,9.625288963317871,7.354736328125,1.556396484375,-1.708984375
2.8274999000000003,1.0773907899856567,-0.6733692288398743,9.625887870788574,-5.706787109375,0.885009765625,-2.777099609375
2.8324999,1.104325532913208,-0.6859387755393982,9.671976089477539,8.4228515625,0.518798828125,-0.6103515625
2.8374999,1.1288660764694214,-0.6428431272506714,9.831789016723633,-3.2958984375,-1.28173828125,2.99072265625
2.8424999,1.061229944229126,-0.7296329736709595,9.633070945739746,-4.638671875,0.518798828125,-3.448486328125
2.8474999000000003,1.1007342338562012,-0.7433996200561523,9.701305389404297,8.11767578125,-0.3662109375,0.152587890625
2.8524999,1.1330559253692627,-0.7356184720993042,9.861717224121094,-5.950927734375,-1.251220703125,2.3193359375
2.8574999,1.0911574363708496,-0.8277952671051025,9.628880500793457,-1.77001953125,1.434326171875,-3.814697265625
2.8624999,1.1522095203399658,-0.788889467716217,9.780912399291992,8.270263671875,-0.3662109375,1.15966796875
2.8674999000000003,1.161187767982483,-0.7817068696022034,9.935338973999023,-7.171630859375,-0.54931640625,1.617431640625
2.8724999,1.0779893398284912,-0.8104372620582581,9.66958236694336,0.274658203125,1.89208984375,-3.936767578125
2.8774999,1.1426327228546143,-0.7697358727455139,9.88625717163086,6.988525390625,-0.885009765625,2.105712890625
2.8824999,1.094150185585022,-0.7308300733566284,9.897629737854004,-8.209228515625,-0.640869140625,0.701904296875
2.8874999000000003,1.0989385843276978,-0.7314286231994629,9.8599214553833,4.57763671875,-1.3427734375,2.86865234375
2.8924999000000002,1.0432734489440918,-0.690727174282074,9.75278091430664,-8.7890625,-1.0986328125,-0.091552734375
2.8974999,1.0157400369644165,-0.7326257228851318,9.583989143371582,4.150390625,1.068115234375,-3.021240234375
2.9024999,1.1330559253692627,-0.729034423828125,9.817423820495605,2.9296875,-1.0986328125,3.173828125
2.9074999000000004,1.072602391242981,-0.6901286244392395,9.689932823181152,-7.99560546875,0.1220703125,-1.190185546875
2.9124999000000003,1.0881646871566772,-0.7416039705276489,9.547477722167969,6.195068359375,1.46484375,-2.532958984375
2.9174999,1.1390414237976074,-0.7056909799575806,9.804255485534668,1.556396484375,-1.52587890625,3.021240234375
2.9224999,1.0522516965866089,-0.7056909799575806,9.64923095703125,-7.049560546875,0.335693359375,-2.38037109375
2.9274999000000004,1.0636241436004639,-0.7571662664413452,9.63067626953125,7.62939453125,1.0986328125,-1.678466796875
2.9324999000000003,1.1174936294555664,-0.6955155730247498,9.84495735168457,-0.54931640625,-1.068115234375,3.2958984375
2.9374999,1.0576386451721191,-0.7260416746139526,9.62947940826416,-6.591796875,0.640869140625,-2.74658203125
2.9424999,1.080383539199829,-0.7326257228851318,9.675567626953125,7.568359375,0.823974609375,-0.518798828125
2.9474999,1.092953085899353,-0.7535749673843384,9.719860076904297,8.392333984375,0.1220703125,-0.030517578125
2.9524999000000003,1.1306617259979248,-0.7003039717674255,9.888052940368652,-4.852294921875,-1.373291015625,2.38037109375
2.9574999,1.095347285270691,-0.7709329724311829,9.64923095703125,-2.197265625,1.46484375,-3.692626953125
2.9624999,1.1354501247406006,-0.7320271730422974,9.736021041870117,8.331298828125,0.213623046875,0.946044921875
2.9674999,1.1504138708114624,-0.7164648771286011,9.909601211547852,-6.9580078125,-1.129150390625,1.89208984375
2.9724999000000003,1.0660183429718018,-0.7870938181877136,9.658209800720215,-0.6103515625,1.495361328125,-3.814697265625
2.9774999,1.1276689767837524,-0.760757565498352,9.86351203918457,7.2021484375,-0.30517578125,1.77001953125
2.9824999,1.0989385843276978,-0.7374141216278076,9.916783332824707,-7.293701171875,-0.640869140625,1.129150390625
2.9874999,1.0540473461151123,-0.7709329724311829,9.616311073303223,1.5869140625,1.8310546875,-3.90625
2.9924999000000003,1.1121066808700562,-0.7559691667556763,9.824007987976074,6.16455078125,-0.457763671875,2.25830078125
2.9974999,1.062427043914795,-0.7242460250854492,9.749788284301758,-8.209228515625,-0.518798828125,0.1220703125
3.0024999,0.9965864419937134,-0.7811083197593689,9.551667213439941,3.41796875,1.77001953125,-3.2958984375
3.0074999,1.0797849893569946,-0.7864952683448792,9.813234329223633,4.2724609375,-1.190185546875,2.960205078125
3.0124999000000003,1.0396820306777954,-0.7655459642410278,9.723451614379883,-8.544921875,-0.762939453125,-0.762939453125
3.0174999000000002,1.0444705486297607,-0.8074445128440857,9.568427085876465,4.852294921875,1.129150390625,-3.021240234375
3.0224999,1.1653777360916138,-0.7697358727455139,9.791088104248047,2.532958984375,-1.220703125,3.2958984375
3.0274999,1.1085153818130493,-0.727837324142456,9.683947563171387,-7.50732421875,0.701904296875,-1.190185546875
3.0324999000000004,1.1097124814987183,-0.7523778676986694,9.563638687133789,6.439208984375,1.434326171875,-2.44140625
3.0374999000000003,1.148618221282959,-0.6919242739677429,9.819219589233398,0.54931640625,-1.312255859375,3.082275390625
3.0424999,1.1366472244262695,-0.6530185341835022,9.853935241699219,-0.457763671875,-1.220703125,3.143310546875
3.0474999,1.080383539199829,-0.6649895310401917,9.63067626953125,-5.9814453125,0.79345703125,-2.777099609375
3.0524999000000004,1.1162965297698975,-0.6835445761680603,9.686341285705566,8.270263671875,0.335693359375,-0.885009765625
3.0574999000000003,0.7134721279144287,-1.7411831617355347,8.953716278076172,7.171630859375,-6.072998046875,-3.875732421875
3.0624999,0.5674257874488831,-2.358887195587158,8.790311813354492,72.32666015625,-12.054443359375,-56.854248046875
3.0674999,0.47165772318840027,-3.7026329040527344,7.667430877685547,133.392333984375,-21.820068359375,-61.676025390625
3.0724999000000004,0.5057750940322876,-3.422511339187622,7.067084789276123,151.85546875,-41.50390625,-88.836669921875
3.0774999000000003,1.1797429323196411,-1.9434932470321655,5.807734966278076,125.48828125,-49.8046875,-81.146240234375
3.0824999,1.3952209949493408,0.26396074891090393,4.526238441467285,86.700439453125,-73.6083984375,-90.14892578125
3.0874999,1.713649868965149,2.876034736633301,3.15974760055542,53.466796875,-79.803466796875,-95.15380859375
3.0924999,1.601720929145813,4.789001941680908,2.5252842903137207,72.662353515625,-66.741943359375,-104.522705078125
3.0974999000000003,1.3048399686813354,4.9835309982299805,1.7621324062347412,67.230224609375,-42.999267578125,-106.3232421875
3.1024999,1.2372037172317505,4.8931498527526855,3.161543369293213,175.96435546875,-21.331787109375,-169.00634765625
3.1074999,1.2210428714752197,4.501099109649658,3.4153287410736084,108.5205078125,-1.8310546875,-90.728759765625
3.1124999,1.5849615335464478,3.6972460746765137,5.187636375427246,54.473876953125,1.03759765625,-84.564208984375
3.1174999000000003,1.8273744583129883,4.610633850097656,5.7095723152160645,74.981689453125,-1.434326171875,-60.48583984375
3.1224999,0.8696937561035156,5.142146587371826,6.281188011169434,151.397705078125,-5.523681640625,-73.455810546875
3.1274999,0.21667525172233582,5.070919036865234,5.529408931732178,80.810546875,18.402099609375,-27.618408203125
3.1324999,-0.38905778527259827,5.659893035888672,6.311714172363281,29.96826171875,13.00048828125,-40.130615234375
3.1374999000000003,-0.23822307586669922,5.789778232574463,6.0010666847229,36.712646484375,1.5869140625,-13.7939453125
3.1424999000000002,-0.2513911724090576,6.084863662719727,6.053739070892334,-5.889892578125,6.04248046875,-11.749267578125
3.1474999,-0.12988543510437012,5.868188381195068,5.614402770996094,-24.59716796875,12.02392578125,-1.678466796875
3.1524999,0.18495208024978638,6.259041786193848,5.682039260864258,-70.709228515625,14.007568359375,19.744873046875
3.1574999000000004,0.27712884545326233,6.013636112213135,5.422268390655518,-96.98486328125,20.538330078125,23.62060546875
3.1624999000000003,0.5566518902778625,5.909488201141357,5.677250862121582,-118.59130859375,26.580810546875,46.56982421875
3.1674999,0.5524620413780212,5.343858242034912,5.71436071395874,-164.48974609375,32.2265625,55.328369140625
3.1724999,0.6602011322975159,4.8069586753845215,5.922656536102295,-173.736572265625,41.412353515625,65.61279296875
3.1774999000000004,0.7260416746139526,4.434659957885742,6.360795497894287,-219.757080078125,42.816162109375,82.3974609375
3.1824999000000003,0.993593692779541,3.5889084339141846,6.800131320953369,-256.805419921875,61.614990234375,102.11181640625
3.1874999,1.2072762250900269,2.5438392162323,7.562684535980225,-278.411865234375,62.80517578125,98.052978515625
3.1924999,1.8956091403961182,-0.19632454216480255,9.611522674560547,-176.94091796875,51.1474609375,78.216552734375
3.1974999000000004,2.076969861984253,-3.3680431842803955,11.659163475036621,14.801025390625,-14.22119140625,1.220703125
3.2024999000000003,2.144007682800293,-6.794744491577148,12.351686477661133,23.895263671875,-55.389404296875,-25.0244140625
3.2074999,1.6759412288665771,-8.427590370178223,11.0701904296875,-0.885009765625,-44.830322265625,-16.17431640625
3.2124999,0.7499836683273315,-8.226476669311523,7.457339763641357,44.921875,-34.66796875,-41.07666015625
3.2174999,0.1604115068912506,-6.078877925872803,3.399167776107788,84.381103515625,-27.03857421875,-50.323486328125
3.2224999000000003,-0.0017956512747332454,-4.276642799377441,1.3605051040649414,68.206787109375,-28.961181640625,-56.793212890625
3.2274999,0.5542576909065247,-2.670732021331787,1.6519991159439087,-1.40380859375,7.415771484375,-32.89794921875
3.2324999,1.4610615968704224,-1.4143747091293335,3.9486372470855713,-123.1689453125,57.12890625,10.955810546875
3.2374999,2.5695769786834717,-1.8429367542266846,13.694234848022461,-4.608154296875,15.899658203125,-0.54931640625
3.2424999000000003,1.7160440683364868,-2.3798365592956543,13.923480033874512,9.33837890625,3.7841796875,0.640869140625
3.2474999,0.5716156363487244,-2.74076247215271,12.142792701721191,12.359619140625,3.021240234375,-13.702392578125
3.2524999,-0.3645172119140625,-2.5564088821411133,9.843161582946777,20.01953125,8.697509765625,-21.30126953125
3.2574999,-0.5351040959358215,-1.8698714971542358,8.813055992126465,3.72314453125,5.67626953125,-0.54931640625
3.2624999000000003,-0.3585317134857178,-1.2306196689605713,8.631096839904785,0.579833984375,2.166748046875,-0.732421875
3.2674999000000002,0.15981295704841614,-0.35494041442871094,9.40023422241211,15.228271484375,-2.960205078125,5.401611328125
3.2724999,0.5386953949928284,0.2950853705406189,9.923367500305176,-16.693115234375,-9.58251953125,3.143310546875
3.2774999,0.6865373253822327,0.46567222476005554,9.892841339111328,1.678466796875,-13.0615234375,-2.44140625
3.2824999000000004,0.8816647529602051,-0.002992752008140087,9.668983459472656,-12.054443359375,-9.1552734375,-3.7841796875
3.2874999000000003,1.6597803831100464,-1.2431892156600952,9.640851974487305,9.70458984375,5.401611328125,2.13623046875
3.2924999,1.6597803831100464,-1.2431892156600952,9.640851974487305,9.70458984375,5.401611328125,2.13623046875
3.2974999,1.460463047027588,-0.9906009435653687,9.584588050842285,-9.27734375,5.340576171875,-1.77001953125
3.3024999000000004,1.294066071510315,-0.7984662652015686,9.682151794433594,11.016845703125,4.7607421875,-1.89208984375
3.3074999000000003,1.1306617259979248,-0.5716156363487244,9.860519409179688,-5.523681640625,2.62451171875,4.180908203125
3.3124999,0.9139865040779114,-0.5392939448356628,9.603142738342285,-1.129150390625,1.861572265625,-5.096435546875
3.3174999,0.8930372595787048,-0.5506663918495178,9.865906715393066,5.9814453125,-0.885009765625,3.875732421875
3.3224999000000004,0.8140285611152649,-0.5829881429672241,9.677363395690918,-11.260986328125,-1.953125,-1.8310546875
3.3274999000000003,0.9744400978088379,-0.8224082589149475,9.548076629638672,0.06103515625,-1.708984375,-5.126953125
3.3324999,0.9744400978088379,-0.8224082589149475,9.548076629638672,0.06103515625,-1.708984375,-5.126953125
3.3374999,1.1749545335769653,-0.823006808757782,9.824606895446777,6.04248046875,-1.312255859375,3.997802734375
3.3424999,1.2246341705322266,-0.7721300721168518,9.633070945739746,-10.3759765625,0.030517578125,-1.739501953125
3.3474999000000003,1.3102269172668457,-0.861314058303833,9.694721221923828,9.918212890625,1.220703125,-1.190185546875
3.3524999,1.3431471586227417,-0.7876923680305481,9.839570045471191,-6.103515625,0.885009765625,3.570556640625
3.3574999,1.2216414213180542,-0.8248024582862854,9.576208114624023,0.335693359375,1.739501953125,-5.37109375
3.3624999,1.0947487354278564,-0.7781155705451965,9.663596153259277,-9.27734375,0.67138671875,-2.166748046875
3.3674999000000003,1.0564415454864502,-0.8696937561035156,9.707290649414062,10.31494140625,0.18310546875,-1.708984375
3.3724999,1.0480618476867676,-0.7781155705451965,9.874884605407715,-6.16455078125,-1.03759765625,3.90625
3.3774999,0.9852139949798584,-0.7864952683448792,9.594164848327637,-0.54931640625,-0.30517578125,-4.974365234375
3.3824999,1.115697979927063,-0.8026561141014099,9.723451614379883,9.429931640625,-0.30517578125,-2.01416015625
3.3874999000000003,1.115697979927063,-0.8026561141014099,9.723451614379883,9.429931640625,-0.30517578125,-2.01416015625
3.3924999000000002,1.1671733856201172,-0.74040687084198,9.88745403289795,-4.974365234375,-0.274658203125,4.08935546875
3.3974999,1.1324573755264282,-0.8152256608009338,9.64803409576416,-1.312255859375,0.8544921875,-5.126953125
3.4024999,1.1982979774475098,-0.8188169598579407,9.835380554199219,8.087158203125,0.335693359375,2.9296875
3.4074999000000004,1.169567584991455,-0.7667431235313416,9.678560256958008,-10.19287109375,0.30517578125,-0.946044921875
3.4124999000000003,1.1659762859344482,-0.8259995579719543,9.643245697021484,8.72802734375,0.701904296875,-2.655029296875
3.4174999,1.1701661348342896,-0.7308300733566284,9.814431190490723,-3.570556640625,0.030517578125,4.425048828125
3.4224999,1.0935516357421875,-0.7942764163017273,9.62947940826416,-3.570556640625,0.701904296875,-4.7607421875
3.4274999000000004,1.1121066808700562,-0.7924807667732239,9.79527759552002,8.636474609375,-0.213623046875,2.50244140625
3.4324999000000003,1.0773907899856567,-0.7745242714881897,9.7605619430542,-10.650634765625,-0.3662109375,0.396728515625
3.4374999,1.0618284940719604,-0.8080430626869202,9.608530044555664,6.988525390625,0.274658203125,-3.326416015625
3.4424999,1.1953052282333374,-0.800261914730072,9.815628051757812,-9.58251953125,-0.1220703125,1.52587890625
3.4474999000000004,1.1312602758407593,-0.8259995579719543,9.569025993347168,4.94384765625,0.579833984375,-4.150390625
3.4524999000000003,1.1516109704971313,-0.7912836670875549,9.839570045471191,2.3193359375,-0.48828125,4.486083984375
3.4574999,1.0779893398284912,-0.7763199210166931,9.591172218322754,-7.50732421875,0.48828125,-3.5400390625
3.4624999,1.0911574363708496,-0.8690952062606812,9.651026725769043,10.25390625,0.18310546875,-0.152587890625
3.4674999,1.1061211824417114,-0.7823054194450378,9.807249069213867,-7.293701171875,-0.518798828125,2.685546875
3.4724999000000003,1.0402805805206299,-0.7894880175590515,9.549872398376465,1.861572265625,0.396728515625,-4.852294921875
3.4774999,1.127070426940918,-0.7703344225883484,9.870695114135742,4.7607421875,-0.579833984375,3.692626953125
3.4824999,1.0732009410858154,-0.6991068720817566,9.724648475646973,-9.124755859375,-0.06103515625,-2.01416015625
3.4874999,1.1073182821273804,-0.811634361743927,9.75517463684082,9.490966796875,0.1220703125,-1.46484375
3.4924999000000003,1.1037269830703735,-0.8110358119010925,9.714473724365234,-2.288818359375,0.274658203125,-4.669189453125
3.4974999,1.148618221282959,-0.8068459630012512,9.834183692932129,7.537841796875,-0.152587890625,2.685546875
3.5024999,1.1522095203399658,-0.761954665184021,9.752182006835938,-9.82666015625,-0.457763671875,-0.030517578125
3.5074999,1.1420341730117798,-0.8212111592292786,9.579200744628906,6.89697265625,0.48828125,-3.204345703125
3.5124999000000003,1.20368492603302,-0.7601590156555176,9.78869342803955,-0.579833984375,-0.1220703125,4.45556640625
3.5174999000000002,1.1743559837341309,-0.788889467716217,9.571419715881348,-6.04248046875,0.3662109375,-4.058837890625
3.5224999,1.2012907266616821,-0.8289923667907715,9.659406661987305,9.185791015625,-0.091552734375,0.762939453125
3.5274999,1.2186486721038818,-0.7457938194274902,9.787496566772461,-7.904052734375,-0.335693359375,1.77001953125
3.5324999000000004,1.1294646263122559,-0.7445967197418213,9.515754699707031,3.23486328125,0.274658203125,-4.5166015625
3.5374999000000003,1.192312479019165,-0.7050924301147461,9.800065994262695,3.814697265625,-0.48828125,4.150390625
3.5424999,1.1252747774124146,-0.6655880808830261,9.645041465759277,-8.72802734375,0.152587890625,-2.166748046875
3.5474999,1.1456254720687866,-0.7841010689735413,9.663596153259277,9.33837890625,0.396728515625,-1.220703125
3.5524999000000004,1.1294646263122559,-0.8212111592292786,9.658807754516602,-2.166748046875,0.640869140625,-4.791259765625
3.5574999000000003,1.1671733856201172,-0.7990648150444031,9.821614265441895,8.209228515625,-0.06103515625,2.25830078125
3.5624999,1.1689690351486206,-0.7595604658126831,9.77253246307373,-9.46044921875,-0.152587890625,0.030517578125
3.5674999,1.1414356231689453,-0.8026561141014099,9.59596061706543,6.500244140625,0.6103515625,-3.387451171875
3.5724999000000004,1.191115379333496,-0.7487865686416626,9.832387924194336,0.42724609375,0.152587890625,4.241943359375
3.5774999000000003,1.1252747774124146,-0.760757565498352,9.61571216583252,-6.9580078125,0.274658203125,-3.570556640625
3.5824999,1.1408370733261108,-0.8313865661621094,9.663596153259277,9.3994140625,0.213623046875,0.335693359375
3.5874999,1.138442873954773,-0.7457938194274902,9.824007987976074,-7.38525390625,-0.640869140625,2.38037109375
3.5924999,1.0708067417144775,-0.7631517648696899,9.530718803405762,1.0986328125,0.48828125,-4.69970703125
3.5974999000000003,1.115697979927063,-0.7631517648696899,9.869498252868652,5.889892578125,-0.457763671875,3.387451171875
3.6024999,1.071405291557312,-0.6811503767967224,9.73661994934082,-9.6435546875,-0.54931640625,-1.251220703125
3.6074999,1.0678139925003052,-0.8307880163192749,9.765350341796875,7.843017578125,0.06103515625,-2.471923828125
3.6124999,1.113303780555725,-0.8601169586181641,9.731831550598145,-4.669189453125,0.152587890625,-4.21142578125
3.6174999000000003,1.1510124206542969,-0.8672995567321777,9.761758804321289,8.941650390625,-0.152587890625,1.495361328125
3.6224999,1.182137131690979,-0.800261914730072,9.813234329223633,-8.270263671875,-0.213623046875,1.64794921875
3.6274999,1.0983400344848633,-0.7972691655158997,9.501389503479004,3.2958984375,0.396728515625,-4.364013671875
3.6324999,1.1677719354629517,-0.7595604658126831,9.758167266845703,3.997802734375,-0.701904296875,3.692626953125
3.6374999000000003,1.1061211824417114,-0.7134721279144287,9.618705749511719,-8.392333984375,-0.18310546875,-2.197265625
3.6424999000000002,1.1288660764694214,-0.8301894664764404,9.640851974487305,8.880615234375,0.030517578125,-1.77001953125
3.6474999,1.1629834175109863,-0.7613561153411865,9.881468772888184,-3.509521484375,-1.03759765625,3.72314453125
3.6524999,1.1294646263122559,-0.8619126081466675,9.699509620666504,-3.326416015625,0.518798828125,-4.39453125
3.6574999000000004,1.1414356231689453,-0.8242039084434509,9.82759952545166,8.880615234375,-0.06103515625,1.556396484375
3.6624999000000003,1.1414356231689453,-0.7912836670875549,9.852140426635742,-8.7890625,-0.213623046875,1.129150390625
3.6674999,1.0564415454864502,-0.8074445128440857,9.594164848327637,3.997802734375,0.54931640625,-3.997802734375
3.6724999,1.0959458351135254,-0.8361749649047852,9.611522674560547,8.880615234375,0.152587890625,-1.495361328125
3.6774999000000004,1.1504138708114624,-0.7637503147125244,9.821015357971191,-4.150390625,-0.18310546875,3.5400390625
3.6824999000000003,1.1402385234832764,-0.8427590131759644,9.646238327026367,-3.2958984375,0.30517578125,-4.302978515625
3.6874999,1.1767501831054688,-0.801459014415741,9.79527759552002,8.48388671875,-0.213623046875,1.800537109375
3.6924999,1.192312479019165,-0.7631517648696899,9.844358444213867,-8.36181640625,-0.091552734375,1.0986328125
3.6974999000000004,1.1109095811843872,-0.7793126702308655,9.61212158203125,3.7841796875,0.54931640625,-4.08935546875
3.7024999000000003,1.1683704853057861,-0.7535749673843384,9.832387924194336,3.0517578125,-0.6103515625,3.875732421875
3.7074999,1.1007342338562012,-0.7386112213134766,9.680954933166504,-8.331298828125,0.18310546875,-2.13623046875
3.7124999,1.116895079612732,-0.8403648138046265,9.66299819946289,8.6669921875,0.152587890625,-1.708984375
3.7174999,1.1552022695541382,-0.7775170207023621,9.88625717163086,-3.7841796875,-0.457763671875,3.662109375
3.7224999000000003,1.1324573755264282,-0.8595184087753296,9.692925453186035,-3.936767578125,0.701904296875,-4.21142578125
3.7274999,1.1629834175109863,-0.767341673374176,9.847352027893066,-8.392333984375,-0.54931640625,1.434326171875
3.7324999,1.071405291557312,-0.7751228213310242,9.551069259643555,2.5634765625,0.579833984375,-4.119873046875
3.7374999,1.128267526626587,-0.7553706169128418,9.81024169921875,3.84521484375,-0.335693359375,3.448486328125
3.7424999000000003,1.0654197931289673,-0.71766197681427,9.65222454071045,-8.7890625,0.274658203125,-1.708984375
3.7474999,1.0767922401428223,-0.8439561128616333,9.64923095703125,8.1787109375,0.701904296875,-1.953125
3.7524999,1.1348515748977661,-0.7805097699165344,9.856928825378418,-1.89208984375,-0.3662109375,3.90625
3.7574999,1.1115081310272217,-0.8313865661621094,9.68574333190918,-5.035400390625,0.457763671875,-3.90625
3.7624999000000003,1.1593921184539795,-0.8355764150619507,9.709685325622559,9.246826171875,-0.244140625,0.67138671875
3.7674999000000002,1.1965023279190063,-0.739209771156311,9.831789016723633,-7.26318359375,-0.762939453125,2.197265625
3.7724999,1.1468225717544556,-0.7733271718025208,9.52114200592041,1.251220703125,0.030517578125,-4.302978515625
3.7774999,1.1635819673538208,-0.7703344225883484,9.82999324798584,5.9814453125,-0.54931640625,3.082275390625
3.7824999000000004,1.1408370733261108,-0.7098808288574219,9.71926212310791,-9.246826171875,0.18310546875,-0.518798828125
3.7874999000000003,1.0881646871566772,-0.8038532137870789,9.62947940826416,-6.591796875,0.762939453125,-3.204345703125
3.7924999,1.115697979927063,-0.8463503122329712,9.636661529541016,9.368896484375,0.3662109375,-0.396728515625
3.7974999,1.1228805780410767,-0.7398083209991455,9.778518676757812,-5.92041015625,-0.762939453125,2.99072265625
3.8024999000000004,1.1019313335418701,-0.8289923667907715,9.560047149658203,-1.739501953125,0.457763671875,-4.302978515625
3.8074999000000003,1.12467622756958,-0.7870938181877136,9.791088104248047,7.537841796875,-0.42724609375,2.3193359375
3.8124999,1.1432312726974487,-0.7547720670700073,9.834183692932129,-8.48388671875,-0.152587890625,0.640869140625
3.8174999,1.082777738571167,-0.812831461429596,9.65222454071045,4.5166015625,0.213623046875,-3.84521484375
3.8224999000000004,1.1593921184539795,-0.7829039692878723,9.841365814208984,3.5400390625,-0.762939453125,3.326416015625
3.8274999000000003,1.1013327836990356,-0.7805097699165344,9.691129684448242,-8.7890625,0.06103515625,-2.13623046875
3.8324999,1.1150994300842285,-0.8583213090896606,9.638457298278809,7.781982421875,0.67138671875,-1.678466796875
3.8374999,1.1689690351486206,-0.7721300721168518,9.835979461669922,-2.166748046875,-0.335693359375,3.60107421875
3.8424999,1.1468225717544556,-0.8080430626869202,9.677961349487305,9.246826171875,0.213623046875,0.701904296875
3.8474999000000003,1.1713632345199585,-0.7230489253997803,9.803657531738281,-7.232666015625,-1.15966796875,1.953125
3.8524999,1.1216834783554077,-0.7679402232170105,9.518148422241211,0.54931640625,0.244140625,-4.21142578125
3.8574999,1.1366472244262695,-0.7589619159698486,9.830592155456543,5.67626953125,0.18310546875,2.99072265625
3.8624999,1.1330559253692627,-0.7092822790145874,9.750386238098145,-8.9111328125,0,-0.30517578125
3.8674999000000003,1.0582371950149536,-0.849941611289978,9.6618013381958,5.9814453125,0.54931640625,-3.021240234375
3.8724999,1.12467622756958,-0.7667431235313416,9.869498252868652,1.40380859375,-0.152587890625,3.72314453125
3.8774999,1.0636241436004639,-0.8224082589149475,9.65222454071045,-7.568359375,-0.152587890625,-2.838134765625
3.8824999,1.0887632369995117,-0.8583213090896606,9.661202430725098,8.9111328125,-0.18310546875,-1.03759765625
3.8874999000000003,1.1162965297698975,-0.7541735172271729,9.837176322937012,-4.45556640625,-0.8544921875,3.2958984375
3.8924999000000002,1.114500880241394,-0.851138710975647,9.625288963317871,-3.0517578125,0.335693359375,-3.936767578125
3.8974999,1.127070426940918,-0.7870938181877136,9.77791976928711,8.819580078125,-0.335693359375,1.28173828125
3.9024999,1.0923545360565186,-0.7709329724311829,9.576208114624023,1.77001953125,0.701904296875,-4.08935546875
3.9074999000000004,1.1139023303985596,-0.7721300721168518,9.86111831665039,5.43212890625,-0.213623046875,3.143310546875
3.9124999000000003,1.106719732284546,-0.7266402244567871,9.734225273132324,-9.033203125,-0.518798828125,-0.762939453125
3.9174999,1.0720038414001465,-0.8595184087753296,9.67077922821045,6.591796875,-0.1220703125,-2.86865234375
3.9224999,1.113303780555725,-0.8074445128440857,9.637260437011719,-7.415771484375,0.42724609375,-2.5634765625
3.9274999000000004,1.1420341730117798,-0.8146271109580994,9.647436141967773,8.880615234375,0,-0.640869140625
3.9324999000000003,1.1540051698684692,-0.7044938206672668,9.79647445678711,-4.08935546875,-0.030517578125,3.082275390625
3.9374999,1.148618221282959,-0.7996633648872375,9.585784912109375,-2.99072265625,0.213623046875,-4.21142578125
3.9424999,1.157596468925476,-0.7523778676986694,9.762955665588379,8.148193359375,-0.1220703125,1.251220703125
3.9474999000000004,1.1899182796478271,-0.7314286231994629,9.829395294189453,-7.62939453125,0.244140625,1.556396484375
3.9524999000000003,1.1899182796478271,-0.7314286231994629,9.829395294189453,-7.62939453125,0.244140625,1.556396484375
3.9574999,1.1073182821273804,-0.7445967197418213,9.741408348083496,-9.033203125,-0.335693359375,-0.701904296875
3.9624999,0.8523358106613159,-1.22642982006073,8.449736595153809,5.55419921875,-0.762939453125,-1.312255859375
3.9674999000000004,1.0211269855499268,-1.4227544069290161,8.754398345947266,36.529541015625,-19.805908203125,59.9365234375
3.9724999000000003,1.1330559253692627,-1.0235211849212646,7.527968883514404,124.603271484375,6.34765625,65.91796875
3.9774999,1.3341689109802246,0.0933738648891449,6.980893611907959,-35.675048828125,18.890380859375,72.052001953125
3.9824999,1.1013327836990356,0.8589198589324951,6.1267619132995605,-26.824951171875,-32.623291015625,0.42724609375
3.9874999,0.5841852426528931,1.834557056427002,5.3576250076293945,100.89111328125,-60.760498046875,-64.605712890625
3.9924999000000003,0.31543606519699097,1.4850035905838013,4.765658378601074,66.162109375,-34.027099609375,-28.25927734375
3.9974999,-0.2346317619085312,0.9600749015808105,5.008071422576904,90.63720703125,-10.1318359375,-26.824951171875
4.0024999,1.7345991134643555,1.8656816482543945,4.201225280761719,174.530029296875,-49.37744140625,-89.752197265625
4.0074999,1.7345991134643555,1.8656816482543945,4.201225280761719,174.530029296875,-49.37744140625,-89.752197265625
4.0124999,1.578976035118103,1.0121487379074097,3.6739025115966797,97.900390625,-56.82373046875,-54.62646484375
4.0174999,2.120065689086914,1.7208324670791626,3.375225782394409,160.125732421875,-43.02978515625,-69.15283203125
4.022499900000001,1.5257049798965454,1.9626468420028687,2.978386878967285,150.7568359375,-28.74755859375,-65.826416015625
4.0274999000000005,1.6101006269454956,2.8640637397766113,3.0544028282165527,101.318359375,-7.598876953125,-35.5224609375
4.0324999,0.9876081943511963,3.7032315731048584,3.6493618488311768,72.6318359375,-4.21142578125,-43.121337890625
4.0374999,1.1294646263122559,4.760869979858398,4.3843817710876465,62.408447265625,8.056640625,-12.75634765625
4.0424999,0.7763199210166931,5.143942356109619,5.051765441894531,9.918212890625,17.2119140625,-15.31982421875
4.0474999,1.1354501247406006,6.095038890838623,6.069301128387451,-0.762939453125,23.13232421875,15.838623046875
4.0524999,1.137245774269104,6.602609634399414,6.795342922210693,-64.788818359375,34.60693359375,37.29248046875
4.0574999,0.812831461429596,6.520009994506836,6.424840450286865,-107.177734375,36.4990234375,33.111572265625
4.062499900000001,0.8852560520172119,6.469132900238037,6.641515731811523,-129.119873046875,35.15625,55.877685546875
4.0674999000000005,0.6039373874664307,5.676053524017334,6.084265232086182,-162.53662109375,39.97802734375,44.98291015625
4.0724999,0.7128735780715942,5.120598793029785,6.390722751617432,-191.741943359375,38.177490234375,67.901611328125
4.0774999,0.646434485912323,4.260481834411621,5.898116111755371,-219.696044921875,46.44775390625,58.10546875
4.0824999,0.8631097078323364,3.869628429412842,6.393715858459473,-249.69482421875,44.12841796875,81.329345703125
4.0874999,0.9085995554924011,3.3016040325164795,6.089053630828857,-267.2119140625,58.685302734375,74.310302734375
4.0924999,1.2186486721038818,2.963423252105713,6.8809356689453125,-298.858642578125,57.9833984375,94.42138671875
4.0974999,2.0901381969451904,0.444722980260849,8.604761123657227,-245.147705078125,76.080322265625,69.854736328125
4.1024999,2.5252842903137207,-2.609081268310547,10.902595520019531,2.197265625,40.191650390625,16.41845703125
4.1074999000000005,2.5312697887420654,-8.544905662536621,11.477204322814941,-12.39013671875,-28.961181640625,-16.632080078125
4.1124999,1.40180504322052,-8.778939247131348,8.183381080627441,44.158935546875,-28.045654296875,-49.01123046875
4.1174999,0.3884592354297638,-7.088034152984619,4.384980201721191,62.469482421875,-21.8505859375,-62.31689453125
4.1224999,-0.1041477769613266,-5.331288814544678,2.2176294326782227,56.243896484375,-16.17431640625,-74.249267578125
4.1274999,0.021547814831137657,-3.555988073348999,2.363077163696289,-63.873291015625,5.2490234375,-33.538818359375
4.1324999,0.6117185354232788,-2.3924059867858887,4.183867454528809,-122.772216796875,53.131103515625,-12.6953125
4.1374999,1.3353660106658936,-2.034472942352295,8.04272174835205,-50.29296875,45.928955078125,1.312255859375
4.1424999,1.5442601442337036,-2.138620615005493,10.824186325073242,44.525146484375,22.186279296875,-12.542724609375
4.147499900000001,1.292868971824646,-2.4355015754699707,12.820950508117676,8.4228515625,3.60107421875,17.425537109375
4.1524999000000005,0.5811924338340759,-2.911349296569824,12.810175895690918,26.85546875,-5.2490234375,-2.960205078125
4.1574999,-0.011971008032560349,-2.6204538345336914,11.651382446289062,17.852783203125,-5.645751953125,-5.462646484375
4.1624999,-0.33279404044151306,-1.9560627937316895,9.637260437011719,11.566162109375,3.875732421875,-16.357421875
4.1674999,1.1348515748977661,0.9199720025062561,9.550470352172852,-8.9111328125,-4.45556640625,-3.84521484375
4.1724999,1.215057373046875,0.6602011322975159,10.094552993774414,-11.5966796875,-13.458251953125,10.8642578125
4.1774999,1.1079168319702148,-0.06584054976701736,9.536105155944824,-6.256103515625,-7.232666015625,-7.01904296875
4.1824999,1.1581950187683105,-0.7374141216278076,9.960477828979492,-0.732421875,-6.7138671875,7.4462890625
4.187499900000001,1.1881226301193237,-1.2982559204101562,9.54209041595459,-6.011962890625,-2.74658203125,-6.805419921875
4.1924999000000005,1.4185645580291748,-1.623268723487854,10.086173057556152,9.918212890625,-3.143310546875,7.2021484375
4.1974999,1.4335283041000366,-1.6424223184585571,9.476848602294922,-3.662109375,3.41796875,-6.927490234375
4.2024999,1.5963339805603027,-1.4496891498565674,9.896432876586914,10.284423828125,1.861572265625,6.317138671875
4.2074999,1.4101848602294922,-1.1641805171966553,9.37629222869873,-8.36181640625,5.4931640625,-7.75146484375
4.2124999,1.4652514457702637,-0.8092401623725891,9.823410034179688,12.481689453125,2.62451171875,4.547119140625
4.2174999,1.2228385210037231,-0.4770447015762329,9.876680374145508,14.6484375,0.91552734375,4.69970703125
4.2224999,1.0115501880645752,-0.586579442024231,9.660005569458008,-15.625,1.953125,-3.35693359375
4.2274999,1.0073603391647339,-0.585382342338562,9.844358444213867,15.533447265625,-1.922607421875,2.197265625
4.2324999000000005,0.8810662031173706,-0.7308300733566284,9.66539192199707,-17.27294921875,-1.46484375,-1.922607421875
4.2374999,0.912190854549408,-0.7954735159873962,9.803058624267578,17.08984375,-2.899169921875,0.06103515625
4.2424999,0.9044097065925598,-0.7996633648872375,9.68694019317627,-17.059326171875,-2.166748046875,0.79345703125
4.2474999,1.0283095836639404,-0.8415619134902954,9.6989107131958,16.2353515625,-1.28173828125,-2.105712890625
4.2524999,1.0749965906143188,-0.7870938181877136,9.713275909423828,-15.289306640625,-1.190185546875,3.082275390625
4.2574999,1.1941081285476685,-0.7793126702308655,9.627084732055664,13.18359375,0.6103515625,-4.302978515625
4.2624999,1.2563573122024536,-0.7577648162841797,9.841365814208984,-11.41357421875,-0.48828125,5.096435546875
4.2674999,1.258152961730957,-0.7613561153411865,9.592369079589844,9.429931640625,2.044677734375,-6.439208984375
4.272499900000001,1.2880805730819702,-0.7954735159873962,9.929951667785645,-6.072998046875,-0.6103515625,6.378173828125
4.2774999000000005,1.170764684677124,-0.8463503122329712,9.947908401489258,0.244140625,-0.9765625,6.805419921875
4.2824999,1.0007762908935547,-0.8050503134727478,9.427168846130371,-3.326416015625,1.220703125,-7.26318359375
4.2874999,1.0947487354278564,-0.8242039084434509,9.966463088989258,6.805419921875,-1.922607421875,6.500244140625
4.2924999,0.9738415479660034,-0.8032546639442444,9.539097785949707,-9.735107421875,0.640869140625,-5.859375
4.2974999,1.1797429323196411,-0.7511807680130005,9.885659217834473,11.627197265625,-1.861572265625,4.638671875
4.3024999,1.1109095811843872,-0.821809709072113,9.64564037322998,-14.58740234375,0.42724609375,-3.509521484375
4.3074999,1.256955862045288,-0.7356184720993042,9.798869132995605,15.533447265625,-0.67138671875,1.46484375
4.312499900000001,1.18094003200531,-0.7996633648872375,9.702502250671387,-15.9912109375,-0.06103515625,-0.396728515625
4.3174999000000005,1.2210428714752197,-0.761954665184021,9.728838920593262,15.716552734375,0.396728515625,-1.800537109375
4.3224999,1.1306617259979248,-0.7846996188163757,9.911396026611328,-8.453369140625,-0.946044921875,5.4931640625
4.3274999,1.1037269830703735,-0.8349778652191162,9.958083152770996,-0.9765625,-1.190185546875,6.683349609375
4.3324999,0.9768342971801758,-0.8080430626869202,9.436147689819336,-3.84521484375,1.03759765625,-6.988525390625
4.3374999,1.0851719379425049,-0.8248024582862854,9.871891975402832,7.26318359375,-1.312255859375,5.767822265625
4.3424999,1.047463297843933,-0.8684966564178467,9.511565208435059,-11.1083984375,0.518798828125,-4.852294921875
4.3474999,1.1641805171966553,-0.7978677153587341,9.809642791748047,13.214111328125,-0.8544921875,2.99072265625
4.352499900000001,1.159990668296814,-0.8553285598754883,9.655217170715332,-15.07568359375,-0.18310546875,-1.678466796875
4.3574999000000005,1.1982979774475098,-0.7876923680305481,9.773131370544434,15.2587890625,-0.06103515625,-0.823974609375
4.3624999,1.1420341730117798,-0.7775170207023621,9.78989028930664,-13.73291015625,-0.762939453125,2.288818359375
4.3674999,1.1593921184539795,-0.7745242714881897,9.672574996948242,11.199951171875,1.129150390625,-4.730224609375
4.3724999,1.1689690351486206,-0.7924807667732239,9.914987564086914,-7.843017578125,-0.79345703125,5.584716796875
4.3774999,1.125873327255249,-0.801459014415741,9.554061889648438,3.35693359375,1.46484375,-6.622314453125
4.3824999,1.1863269805908203,-0.8595184087753296,9.952696800231934,1.52587890625,-0.79345703125,6.378173828125
4.3874999,1.146224021911621,-0.7428010702133179,9.731831550598145,14.617919921875,-0.091552734375,0.6103515625
4.3924999,1.1079168319702148,-0.7739257216453552,9.727043151855469,-14.312744140625,-0.518798828125,1.220703125
4.397499900000001,1.1013327836990356,-0.7422025203704834,9.658807754516602,11.932373046875,0.67138671875,-3.631591796875
4.4024999000000005,1.1276689767837524,-0.778714120388031,9.851541519165039,-8.6669921875,-1.373291015625,5.096435546875
4.4074999,1.080383539199829,-0.7996633648872375,9.536704063415527,3.7841796875,0.885009765625,-6.28662109375
4.4124999,1.1528080701828003,-0.882861852645874,9.9401273727417,1.312255859375,-1.495361328125,6.04248046875
4.4174999,1.05105459690094,-0.8463503122329712,9.541492462158203,-6.256103515625,0.701904296875,-5.950927734375
4.4224999,1.1791443824768066,-0.8906430602073669,9.888052940368652,10.31494140625,-0.48828125,4.2724609375
4.4274999,1.1139023303985596,-0.8403648138046265,9.641449928283691,-13.18359375,0.274658203125,-2.44140625
4.4324999,1.1917139291763306,-0.7817068696022034,9.739612579345703,13.885498046875,0.457763671875,-0.3662109375
4.437499900000001,1.1294646263122559,-0.7637503147125244,9.889249801635742,-5.0048828125,-1.129150390625,5.645751953125
4.4424999000000005,1.0342950820922852,-0.7332242727279663,9.533112525939941,-0.335693359375,1.068115234375,-6.34765625
4.4474999,1.1318588256835938,-0.8451532125473022,9.864110946655273,5.79833984375,-1.068115234375,5.218505859375
4.4524999,1.072602391242981,-0.8439561128616333,9.576807022094727,-10.162353515625,0.640869140625,-4.364013671875
4.4574999,1.1761516332626343,-0.9085995554924011,9.739013671875,12.542724609375,-0.030517578125,1.77001953125
4.4624999,1.1791443824768066,-0.8690952062606812,9.71926212310791,-13.702392578125,-0.518798828125,0.54931640625
4.4674999,1.1755530834197998,-0.8517372608184814,9.665990829467773,11.41357421875,0.946044921875,-3.23486328125
4.4724999,1.1767501831054688,-0.7793126702308655,9.859322547912598,-7.965087890625,-1.15966796875,4.547119140625
4.477499900000001,1.0773907899856567,-0.7152677774429321,9.583391189575195,2.9296875,1.373291015625,-6.256103515625
4.4824999000000005,1.1408370733261108,-0.801459014415741,9.932345390319824,3.23486328125,-0.9765625,5.706787109375
4.4874999,1.0773907899856567,-0.7733271718025208,9.612719535827637,-8.1787109375,0.6103515625,-4.94384765625
4.4924999,1.1121066808700562,-0.7990648150444031,9.692925453186035,-13.24462890625,-0.579833984375,-0.335693359375
4.4974999,1.0947487354278564,-0.7942764163017273,9.634865760803223,11.688232421875,0.701904296875,-2.5634765625
4.5024999,1.1127052307128906,-0.730231523513794,9.79408073425293,-8.4228515625,-1.434326171875,4.241943359375
4.5074999,1.0396820306777954,-0.6943184733390808,9.535507202148438,2.899169921875,1.220703125,-6.16455078125
4.5124999,1.1432312726974487,-0.7960720658302307,9.872490882873535,3.143310546875,-1.129150390625,5.584716796875
4.5174999,1.105522632598877,-0.790086567401886,9.5624418258667,-8.11767578125,0.54931640625,-4.669189453125
4.522499900000001,1.1713632345199585,-0.9091981053352356,9.749189376831055,11.322021484375,0.06103515625,2.349853515625
4.5274999000000005,1.1677719354629517,-0.8577227592468262,9.68694019317627,-12.786865234375,-0.79345703125,-0.06103515625
4.5324999,1.1546037197113037,-0.8505401611328125,9.638457298278809,10.772705078125,1.129150390625,-3.0517578125
4.5374999,1.149815320968628,-0.7661445140838623,9.847352027893066,-6.561279296875,-1.251220703125,4.547119140625
4.5424999,1.0408791303634644,-0.7098808288574219,9.57321548461914,0.885009765625,1.3427734375,-6.04248046875
4.5474999,1.1300631761550903,-0.7858967185020447,9.868300437927246,4.669189453125,-0.8544921875,5.2490234375
4.5524999,1.1216834783554077,-0.9241618514060974,9.736021041870117,11.993408203125,0.42724609375,0.762939453125
4.5574999,1.1103110313415527,-0.8517372608184814,9.81024169921875,-11.474609375,-1.068115234375,1.373291015625
4.562499900000001,1.1103110313415527,-0.8505401611328125,9.634267807006836,8.331298828125,1.068115234375,-4.21142578125
4.5674999000000005,1.1288660764694214,-0.7870938181877136,9.928754806518555,-2.99072265625,-1.3427734375,5.340576171875
4.5724999,1.049857497215271,-0.727837324142456,9.610325813293457,-2.99072265625,1.007080078125,-6.011962890625
4.5774999,1.1540051698684692,-0.8032546639442444,9.857526779174805,8.575439453125,-0.54931640625,3.84521484375
4.5824999,1.0833762884140015,-0.7637503147125244,9.67077922821045,-11.53564453125,-0.335693359375,-1.953125
4.5874999,1.157596468925476,-0.8762778043746948,9.64564037322998,11.871337890625,0.8544921875,-1.40380859375
4.5924999,1.1887211799621582,-0.7894880175590515,9.785700798034668,-8.60595703125,-1.678466796875,3.47900390625
4.5974999,1.1318588256835938,-0.7697358727455139,9.521739959716797,3.692626953125,1.373291015625,-5.615234375
4.602499900000001,1.1318588256835938,-0.7697358727455139,9.521739959716797,3.692626953125,1.373291015625,-5.615234375
4.6074999000000005,1.1982979774475098,-0.7972691655158997,9.839570045471191,2.86865234375,-0.640869140625,5.218505859375
4.6124999,1.169567584991455,-0.8738836050033569,9.747992515563965,11.5966796875,0.06103515625,1.3427734375
4.6174999,1.146224021911621,-0.8361749649047852,9.813833236694336,-11.566162109375,-0.762939453125,1.251220703125
4.6224999,1.1180921792984009,-0.8343793153762817,9.628880500793457,8.209228515625,1.3427734375,-3.997802734375
4.6274999,1.1288660764694214,-0.7864952683448792,9.924564361572266,-2.105712890625,-1.190185546875,5.06591796875
4.6324999,1.0564415454864502,-0.751779317855835,9.627084732055664,-3.875732421875,0.9765625,-5.55419921875
4.6374999,1.136048674583435,-0.8068459630012512,9.850942611694336,8.880615234375,-0.244140625,3.448486328125
4.6424999,1.1953052282333374,-0.7984662652015686,9.865906715393066,-8.60595703125,-1.312255859375,2.899169921875
4.647499900000001,1.094150185585022,-0.7793126702308655,9.579200744628906,3.47900390625,1.46484375,-5.279541015625
4.6524999000000005,1.1653777360916138,-0.7864952683448792,9.872490882873535,3.265380859375,-0.9765625,5.096435546875
4.6574999,1.0797849893569946,-0.7248445749282837,9.655815124511719,-8.72802734375,0.274658203125,-3.692626953125
4.6624999,1.1192892789840698,-0.8858546018600464,9.691728591918945,11.16943359375,0.6103515625,0.579833984375
4.6674999,1.1468225717544556,-0.8188169598579407,9.840767860412598,-10.101318359375,-1.03759765625,2.01416015625
4.6724999,1.092953085899353,-0.8505401611328125,9.54209041595459,5.31005859375,1.373291015625,-4.7607421875
4.6774999,1.1569979190826416,-0.8254010081291199,9.892242431640625,0.79345703125,-1.434326171875,5.126953125
4.6824999,1.1085153818130493,-0.7709329724311829,9.607931137084961,-7.110595703125,0.42724609375,-4.39453125
4.687499900000001,1.1354501247406006,-0.8930372595787048,9.746196746826172,11.04736328125,0,1.312255859375
4.6924999000000005,1.146224021911621,-0.7936778664588928,9.819818496704102,-10.406494140625,-1.3427734375,1.190185546875
4.6974999,1.0965443849563599,-0.8289923667907715,9.575610160827637,6.4697265625,1.495361328125,-4.39453125
4.7024999,1.161187767982483,-0.7751228213310242,9.788095474243164,-10.498046875,-1.220703125,0.67138671875
4.7074999,1.161187767982483,-0.7751228213310242,9.788095474243164,-10.498046875,-1.220703125,0.67138671875
4.7124999,1.1079168319702148,-0.8134300112724304,9.5624418258667,7.049560546875,1.129150390625,-4.119873046875
4.7174999,1.1444283723831177,-0.7595604658126831,9.885659217834473,-0.946044921875,-1.0986328125,4.913330078125
4.7224999,1.1025298833847046,-0.7769184708595276,9.595361709594727,-5.92041015625,0.79345703125,-4.730224609375
4.727499900000001,1.1569979190826416,-0.8379706144332886,9.7605619430542,9.94873046875,0.091552734375,2.044677734375
4.7324999000000005,1.148618221282959,-0.7912836670875549,9.79288387298584,-10.31494140625,-0.823974609375,0.518798828125
4.7374999,1.0923545360565186,-0.8164227604866028,9.561842918395996,7.01904296875,1.46484375,-4.0283203125
4.7424999,1.128267526626587,-0.7918822169303894,9.892841339111328,-0.42724609375,-1.312255859375,4.82177734375
4.7474999,1.0911574363708496,-0.7942764163017273,9.59476375579834,-5.67626953125,0.79345703125,-4.5166015625
4.7524999,1.1468225717544556,-0.8852560520172119,9.741408348083496,10.3759765625,0.244140625,1.739501953125
4.7574999,1.094150185585022,-0.8457517623901367,9.548674583435059,6.4697265625,1.373291015625,-4.0283203125
4.7624999,1.1336544752120972,-0.790086567401886,9.874884605407715,0.213623046875,-1.434326171875,4.7607421875
4.7674999,1.091755986213684,-0.7763199210166931,9.621099472045898,-6.744384765625,0.274658203125,-4.486083984375
4.772499900000001,1.4401123523712158,-1.3066356182098389,9.53969669342041,9.58251953125,0.396728515625,1.068115234375
4.7774999000000005,1.5580267906188965,-1.5502456426620483,9.615114212036133,2.74658203125,9.185791015625,15.380859375
4.7824999,1.632246971130371,-1.2437877655029297,9.08719253540039,24.383544921875,13.3056640625,16.7236328125
4.7874999,1.8142063617706299,-0.9355342984199524,9.484031677246094,9.33837890625,1.251220703125,-28.1982421875
4.7924999,1.416170358657837,-0.0065840547904372215,8.964489936828613,-19.1650390625,-2.5634765625,-9.94873046875
4.7974999,1.3281834125518799,0.4034229815006256,9.221267700195312,-2.74658203125,-4.852294921875,9.063720703125
4.8024999,0.851138710975647,-0.07841010391712189,9.326014518737793,-2.38037109375,-1.922607421875,-2.044677734375
4.8074999,0.8200140595436096,-0.34416648745536804,9.877279281616211,-7.598876953125,-9.8876953125,7.32421875
4.812499900000001,0.7751228213310242,-1.026513934135437,9.731831550598145,-7.171630859375,-6.500244140625,-4.7607421875
4.8174999000000005,0.8978256583213806,-1.2994530200958252,9.770736694335938,9.674072265625,-5.523681640625,-0.701904296875
4.8224999,1.1324573755264282,-1.546055793762207,9.798270225524902,-8.60595703125,-4.547119140625,0.823974609375
4.8274999,1.2892776727676392,-1.535880446434021,9.521739959716797,8.941650390625,1.5869140625,-4.608154296875
4.8324999,1.5502456426620483,-1.334767460823059,9.839570045471191,3.47900390625,1.77001953125,4.57763671875
4.8374999,1.5496470928192139,-1.071405291557312,9.628880500793457,-6.072998046875,4.7607421875,-3.90625
4.8424999,1.5436615943908691,-0.8403648138046265,9.700108528137207,10.711669921875,5.126953125,0.579833984375
4.8474999,1.4311341047286987,-0.545877993106842,9.804255485534668,-9.735107421875,3.082275390625,2.471923828125
4.852499900000001,1.157596468925476,-0.4878185987472534,9.547477722167969,3.631591796875,3.936767578125,-4.302978515625
4.8574999000000005,1.0456676483154297,-0.5123591423034668,9.833584785461426,2.62451171875,-0.91552734375,4.180908203125
4.8624999,0.812831461429596,-0.6021417379379272,9.642048835754395,-8.60595703125,-1.434326171875,-4.150390625
4.8674999,0.7990648150444031,-0.8325836658477783,9.671976089477539,10.3759765625,-2.471923828125,-0.244140625
4.8724999,0.8816647529602051,-0.8529343605041504,9.850942611694336,-8.4228515625,-4.33349609375,2.960205078125
4.8774999,1.3844470977783203,-0.7829039692878723,9.847352027893066,-6.103515625,0.213623046875,3.265380859375
4.8824999,1.2449848651885986,-0.8738836050033569,9.570821762084961,0.79345703125,2.8076171875,-4.974365234375
4.8874999,1.247977614402771,-0.8900445103645325,9.852140426635742,7.38525390625,0.67138671875,3.570556640625
4.8924999,1.1049240827560425,-0.8391677141189575,9.696516990661621,-9.70458984375,0.6103515625,-1.64794921875
4.897499900000001,1.0492589473724365,-0.9062053561210632,9.728838920593262,9.21630859375,1.3427734375,-2.3193359375
4.9024999000000005,1.027711033821106,-0.7984662652015686,9.895833969116211,-4.0283203125,-1.556396484375,3.875732421875
4.9074999,0.9594763517379761,-0.7823054194450378,9.683947563171387,-2.9296875,0.457763671875,-4.82177734375
4.9124999,1.0157400369644165,-0.7547720670700073,9.807249069213867,7.904052734375,-1.007080078125,2.777099609375
4.9174999,1.0313023328781128,-0.7122750282287598,9.763554573059082,-11.077880859375,-1.434326171875,0.030517578125
4.9224999,1.2084733247756958,-0.7757213711738586,9.604340553283691,-5.523681640625,0.762939453125,-4.302978515625
4.9274999,1.278503656387329,-0.8547300100326538,9.691129684448242,10.07080078125,0.54931640625,1.03759765625
4.9324999,1.3251906633377075,-0.7835025191307068,9.791088104248047,-8.880615234375,-0.152587890625,1.617431640625
4.937499900000001,1.1994950771331787,-0.7817068696022034,9.50857162475586,4.486083984375,1.8310546875,-4.302978515625
4.9424999000000005,1.2551602125167847,-0.7589619159698486,9.77253246307373,3.204345703125,-0.42724609375,4.150390625
4.9474999,1.1192892789840698,-0.7134721279144287,9.601945877075195,-8.758544921875,0.762939453125,-2.960205078125
4.9524999,1.1037269830703735,-0.8421604633331299,9.607333183288574,9.857177734375,0.640869140625,-0.54931640625
4.9574999,1.1103110313415527,-0.778714120388031,9.828198432922363,-6.317138671875,-1.708984375,3.082275390625
4.9624999,1.137245774269104,-0.8403648138046265,9.496002197265625,-0.244140625,0.6103515625,-4.791259765625
4.9674999,1.2791022062301636,-0.4405331015586853,9.422979354858398,-1.52587890625,4.364013671875,-19.8974609375
4.9724999,1.4772224426269531,-0.9612720012664795,9.181763648986816,-27.740478515625,16.815185546875,-55.450439453125
4.977499900000001,1.8267759084701538,-0.5147533416748047,8.590993881225586,-1.15966796875,17.547607421875,-47.119140625
4.9824999000000005,1.6148890256881714,-0.6105214357376099,8.956110000610352,-3.90625,16.66259765625,-23.406982421875
4.9874999,1.6059107780456543,-0.4854243993759155,9.135675430297852,-14.923095703125,13.61083984375,-34.85107421875
4.9924999,1.105522632598877,-1.0648212432861328,9.32661247253418,-9.674072265625,13.702392578125,-47.821044921875
4.9974999,0.9534908533096313,-0.6997054219245911,9.57201862335205,-8.026123046875,10.711669921875,-33.203125
5.0024999,0.8259995579719543,-0.9379284977912903,9.367912292480469,-20.3857421875,9.307861328125,-39.276123046875
5.0074999,0.2992752194404602,-1.2587515115737915,9.412205696105957,0.9765625,9.46044921875,-22.4609375
5.0124999,0.1999158412218094,-1.3174095153808594,9.369110107421875,-8.48388671875,5.859375,-11.23046875
5.0174999,-0.43035775423049927,-1.941697597503662,9.43255615234375,0.732421875,2.99072265625,-4.82177734375
5.022499900000001,-0.6619967818260193,-2.0925323963165283,9.28650951385498,14.404296875,-6.988525390625,18.310546875
5.0274999000000005,-0.8523358106613159,-1.935113549232483,9.059061050415039,17.7001953125,-24.444580078125,17.059326171875
5.0324999,-0.4710591733455658,-1.5610195398330688,9.152434349060059,-10.7421875,-24.993896484375,6.77490234375
5.0374999,-0.090979665517807,-1.3760673999786377,8.886677742004395,15.655517578125,-24.658203125,7.965087890625
5.0424999,0.8236053586006165,-0.9756371974945068,9.379284858703613,-8.9111328125,-22.216796875,14.58740234375
5.0474999,1.3479355573654175,-0.7571662664413452,9.14345645904541,2.13623046875,-17.51708984375,8.514404296875
5.0524999,2.0242974758148193,-0.38486793637275696,9.496002197265625,16.05224609375,-11.3525390625,10.68115234375
5.0574999,2.3918075561523438,-0.3315969407558441,9.552266120910645,-12.6953125,-6.7138671875,10.7421875
5.062499900000001,2.4396915435791016,-0.4207809567451477,9.374496459960938,6.134033203125,-1.8310546875,1.5869140625
5.0674999000000005,2.4600422382354736,-0.497395396232605,9.61212158203125,-0.396728515625,2.349853515625,5.67626953125
5.0724999,2.2188265323638916,-0.7284358739852905,9.361329078674316,-7.4462890625,6.622314453125,-4.302978515625
5.0774999,1.9841946363449097,-0.8349778652191162,9.659406661987305,11.016845703125,6.591796875,1.068115234375
5.0824999,1.6621745824813843,-0.9864110946655273,9.756970405578613,-8.1787109375,6.134033203125,0.54931640625
5.0874999,0.7350199222564697,-0.6673837304115295,9.825803756713867,-10.43701171875,-2.227783203125,1.708984375
5.0924999,0.7254431247711182,-0.6254851818084717,9.585186958312988,4.638671875,-1.312255859375,-3.692626953125
5.0974999,0.8768763542175293,-0.6057330369949341,9.862914085388184,-1.312255859375,-4.058837890625,4.8828125
5.102499900000001,0.9493009448051453,-0.6769605278968811,9.639056205749512,-7.38525390625,-1.5869140625,-4.058837890625
5.1074999000000005,1.0821791887283325,-0.8068459630012512,9.73661994934082,9.613037109375,-1.678466796875,1.373291015625
5.1124999,1.2515689134597778,-0.8433575630187988,9.835979461669922,-9.6435546875,-1.617431640625,2.105712890625
5.1174999,1.2407950162887573,-0.900818407535553,9.561244010925293,5.55419921875,1.617431640625,-4.119873046875
5.1224999,1.3682862520217896,-0.9074024558067322,9.818022727966309,2.197265625,-0.091552734375,4.33349609375
5.1274999,1.2892776727676392,-0.8768763542175293,9.613917350769043,-6.7138671875,1.89208984375,-3.96728515625
5.1324999,1.1342530250549316,-0.7535749673843384,9.834781646728516,-7.476806640625,-1.64794921875,3.173828125
5.1374999,1.0360907316207886,-0.8475474119186401,9.588179588317871,1.007080078125,0.79345703125,-4.730224609375
5.1424999,1.1581950187683105,-0.9277531504631042,9.883264541625977,5.401611328125,-0.9765625,3.875732421875
5.147499900000001,1.0809820890426636,-0.8972271084785461,9.729436874389648,-9.765625,0.030517578125,-1.800537109375
5.1524999000000005,1.1127052307128906,-1.0085574388504028,9.77013874053955,9.70458984375,1.15966796875,-1.64794921875
5.1574999,1.1342530250549316,-0.8690952062606812,9.904213905334473,-4.7607421875,-0.732421875,3.96728515625
5.1624999,1.0666168928146362,-0.8708908557891846,9.710283279418945,-1.556396484375,1.46484375,-4.8828125
5.1674999,1.1079168319702148,-0.7481880187988281,9.612719535827637,7.720947265625,0.823974609375,-2.960205078125
5.1724999,1.170764684677124,-0.7697358727455139,9.807249069213867,-2.44140625,-2.13623046875,4.364013671875
5.1774999,1.1528080701828003,-0.7978677153587341,9.586383819580078,-5.0048828125,0.274658203125,-4.33349609375
5.1824999,1.1749545335769653,-0.884058952331543,9.68274974822998,9.063720703125,-0.701904296875,1.77001953125
5.187499900000001,1.2144588232040405,-0.8343793153762817,9.750985145568848,-9.307861328125,-1.373291015625,1.28173828125
5.1924999000000005,1.1288660764694214,-0.8852560520172119,9.524134635925293,5.2490234375,1.40380859375,-4.0283203125
5.1974999,1.1803414821624756,-0.8409633636474609,9.783307075500488,1.678466796875,-0.9765625,4.425048828125
5.2024999,1.105522632598877,-0.8355764150619507,9.634865760803223,-7.6904296875,0.762939453125,-3.326416015625
5.2074999,1.105522632598877,-0.8355764150619507,9.634865760803223,-7.6904296875,0.762939453125,-3.326416015625
5.2124999,1.0899603366851807,-0.9229647517204285,9.634267807006836,9.857177734375,0.640869140625,0.030517578125
5.2174999,1.1228805780410767,-0.8607155084609985,9.858723640441895,-7.50732421875,-0.8544921875,2.5634765625
5.2224999,1.0899603366851807,-0.8601169586181641,9.783905029296875,8.60595703125,-0.518798828125,2.471923828125
5.227499900000001,1.105522632598877,-0.8020575642585754,9.802460670471191,-10.101318359375,-1.129150390625,0.640869140625
5.2324999000000005,1.0761936902999878,-0.8140285611152649,9.551069259643555,5.950927734375,0.946044921875,-3.631591796875
5.2374999,1.1318588256835938,-0.7912836670875549,9.808445930480957,1.068115234375,-1.46484375,3.997802734375
5.2424999,1.0959458351135254,-0.7613561153411865,9.59715747833252,-6.8359375,0.54931640625,-3.448486328125
5.2474999,1.1150994300842285,-0.8858546018600464,9.598953247070312,9.94873046875,0.274658203125,0.244140625
5.2524999,1.1743559837341309,-0.7912836670875549,9.815628051757812,-7.50732421875,-0.946044921875,2.5634765625
5.2574999,1.080383539199829,-0.9193734526634216,9.77013874053955,8.392333984375,1.190185546875,-2.349853515625
5.2624999,1.1174936294555664,-0.8631097078323364,9.942521095275879,-2.38037109375,-1.068115234375,3.7841796875
5.2674999,1.094150185585022,-0.9014169573783875,9.727641105651855,-4.0283203125,1.28173828125,-4.2724609375
