# Time (seconds),Accel_X,Accel_Y,Accel_Z,Gyro_X,Gyro_Y,Gyro_Z
0.0024999,0.46148237586021423,-0.29209262132644653,9.491812705993652,-4.913330078125,0.091552734375,-0.91552734375
0.0074999,0.46148237586021423,-0.29209262132644653,9.491812705993652,-4.913330078125,0.091552734375,-0.91552734375
0.012499900000000001,0.5620388388633728,-0.29807811975479126,9.859322547912598,6.2255859375,0.213623046875,-1.46484375
0.0174999,0.28371289372444153,-0.21547815203666687,9.840767860412598,-2.01416015625,-0.091552734375,2.197265625
0.0224999,0.46806642413139343,-0.27413609623908997,9.569025993347168,-3.662109375,0.1220703125,-1.739501953125
0.0274999,0.5045779943466187,-0.3196259140968323,9.996390342712402,6.439208984375,0.335693359375,-1.434326171875
0.0324999,0.29388827085494995,-0.2968810200691223,9.835380554199219,-3.35693359375,0.152587890625,2.349853515625
0.0374999,0.5494692921638489,-0.3256114423274994,9.624691009521484,-0.42724609375,0.030517578125,-2.3193359375
0.0424999,0.43993455171585083,-0.30526071786880493,10.002376556396484,5.401611328125,0.274658203125,-0.18310546875
0.0474999,0.3256114423274994,-0.3058592677116394,9.637859344482422,-5.859375,-0.274658203125,1.373291015625
0.0524999,0.5021837949752808,-0.29149407148361206,9.64564037322998,1.40380859375,-0.06103515625,-2.44140625
0.0574999,0.35913026332855225,-0.2537853717803955,10.002376556396484,4.180908203125,0.274658203125,0.823974609375
0.0624999,0.2663549482822418,-0.22505496442317963,9.660005569458008,-6.34765625,-0.06103515625,0.823974609375
0.0674999,0.4908113479614258,-0.25917232036590576,9.747393608093262,2.44140625,-0.30517578125,-2.5634765625
0.0724999,0.36990416049957275,-0.2495955228805542,9.986215591430664,3.173828125,0.274658203125,1.800537109375
0.0774999,0.3555389642715454,-0.27892449498176575,9.569623947143555,-5.9814453125,0.1220703125,0.42724609375
0.0824999,0.5674257874488831,-0.3321954905986786,9.706093788146973,4.241943359375,-0.152587890625,-2.99072265625
0.0874999,0.39863458275794983,-0.3016694188117981,9.526528358459473,-5.828857421875,-0.42724609375,-0.1220703125
0.0924999,0.5764040350914001,-0.3381809890270233,9.841365814208984,5.79833984375,0.457763671875,-2.532958984375
0.0974999,0.35733461380004883,-0.27234044671058655,9.881468772888184,-0.335693359375,0.06103515625,2.0751953125
0.1024999,0.4800374507904053,-0.2944868206977844,9.510966300964355,-4.8828125,0.091552734375,-0.823974609375
0.1074999,0.5740098357200623,-0.33997663855552673,9.876680374145508,6.2255859375,0.396728515625,-1.617431640625
0.1124999,0.2944868206977844,-0.24121582508087158,9.86650562286377,-1.922607421875,0.213623046875,2.01416015625
0.1174999,0.48602294921875,-0.3064578175544739,9.592369079589844,-3.84521484375,-0.6103515625,-1.739501953125
0.1224999,0.49978959560394287,-0.3190273642539978,10.010157585144043,6.40869140625,0.6103515625,-1.068115234375
0.1274999,0.2950853705406189,-0.2663549482822418,9.839570045471191,-3.662109375,0.335693359375,2.227783203125
0.1324999,0.5416881442070007,-0.30286651849746704,9.634267807006836,-1.77001953125,-0.030517578125,-1.983642578125
0.1374999,0.4531026780605316,-0.28550854325294495,10.002376556396484,6.378173828125,0.1220703125,-0.457763671875
0.1424999,0.29807811975479126,-0.23702596127986908,9.785101890563965,-4.730224609375,-0.213623046875,1.983642578125
0.1474999,0.42197805643081665,-0.25977087020874023,9.956287384033203,5.340576171875,-0.244140625,-0.030517578125
0.1524999,0.3292027413845062,-0.26336219906806946,9.593565940856934,-5.859375,-0.396728515625,1.556396484375
0.1574999,0.5201402902603149,-0.272938996553421,9.57860279083252,1.89208984375,0.152587890625,-2.5634765625
0.1624999,0.39624038338661194,-0.2579752206802368,9.939528465270996,4.486083984375,0.3662109375,0.6103515625
0.1674999,0.3172317147254944,-0.24361002445220947,9.598953247070312,-6.103515625,0.244140625,1.068115234375
0.1724999,0.5434837937355042,-0.3106476664543152,9.712677955627441,3.143310546875,0.396728515625,-2.5634765625
0.17749990000000002,0.4034229815006256,-0.2669534981250763,9.949105262756348,2.716064453125,0.274658203125,1.129150390625
0.1824999,0.36750996112823486,-0.29388827085494995,9.552266120910645,-6.7138671875,-0.335693359375,0.213623046875
0.1874999,0.558447539806366,-0.3106476664543152,9.734824180603027,4.669189453125,0.335693359375,-2.593994140625
0.1924999,0.322618693113327,-0.23163901269435883,9.97065258026123,1.312255859375,0.213623046875,1.922607421875
0.1974999,0.37648820877075195,-0.25498247146606445,9.540295600891113,-5.55419921875,-0.213623046875,-0.48828125
0.2024999,0.4554968774318695,-0.2867056429386139,9.503783226013184,-4.69970703125,-0.67138671875,-0.91552734375
0.20749990000000001,0.5452794432640076,-0.3315969407558441,9.906607627868652,6.103515625,0.1220703125,-1.89208984375
0.2124999,0.28371289372444153,-0.24241292476654053,9.865307807922363,-2.288818359375,-0.18310546875,2.044677734375
0.2174999,0.5201402902603149,-0.32381579279899597,9.612719535827637,-3.5400390625,-0.152587890625,-1.312255859375
0.2224999,0.5315127968788147,-0.35075053572654724,10.011953353881836,6.378173828125,0.30517578125,-1.068115234375
0.2274999,0.345363587141037,-0.31184476613998413,9.828198432922363,-3.814697265625,0,1.708984375
0.2324999,0.5925649404525757,-0.3561375141143799,9.64803409576416,-1.708984375,-0.244140625,-2.0751953125
0.2374999,0.4836287498474121,-0.32381579279899597,10.022727012634277,6.317138671875,0.518798828125,-0.1220703125
0.2424999,0.33997663855552673,-0.2777273952960968,9.81263542175293,-5.126953125,0.152587890625,1.52587890625
0.2474999,0.5398924946784973,-0.2944868206977844,9.658807754516602,-0.152587890625,-0.091552734375,-2.38037109375
0.2524999,0.40940847992897034,-0.26096799969673157,9.97484302520752,5.2490234375,0.396728515625,0.701904296875
0.2574999,0.4686649739742279,-0.24779987335205078,9.586981773376465,1.617431640625,-0.335693359375,-2.8076171875
0.2624999,0.3298012912273407,-0.2256535142660141,9.935338973999023,4.302978515625,0.18310546875,0.91552734375
0.2674999,0.2621650993824005,-0.22445641458034515,9.589975357055664,-6.16455078125,-0.42724609375,0.823974609375
0.2724999,0.4950011968612671,-0.3064578175544739,9.716867446899414,3.60107421875,-0.274658203125,-2.62451171875
0.2774999,0.3513490855693817,-0.2585737705230713,9.965864181518555,2.593994140625,0.30517578125,1.220703125
0.2824999,0.3597288131713867,-0.2974795699119568,9.567828178405762,-6.103515625,0.1220703125,0.244140625
0.28749990000000003,0.569819986820221,-0.30945056676864624,9.794678688049316,5.096435546875,0.67138671875,-2.105712890625
0.2924999,0.3531447649002075,-0.24420857429504395,9.987412452697754,0.823974609375,0.396728515625,1.708984375
0.2974999,0.4357447028160095,-0.26396074891090393,9.556455612182617,-5.218505859375,-0.152587890625,-0.79345703125
0.3024999,0.5781996846199036,-0.31842881441116333,9.852140426635742,5.706787109375,0.457763671875,-1.739501953125
0.3074999,0.31783026456832886,-0.22864626348018646,9.867103576660156,-1.129150390625,0.091552734375,2.25830078125
0.3124999,0.4513070285320282,-0.2585737705230713,9.482834815979004,-4.302978515625,-0.6103515625,-1.46484375
0.3174999,0.4794389009475708,-0.333991140127182,10.02811336517334,6.439208984375,0.06103515625,-1.15966796875
0.3224999,0.3687070608139038,-0.23582886159420013,9.967061996459961,3.72314453125,0.335693359375,1.434326171875
0.3274999,0.5345055460929871,-0.31783026456832886,9.71926212310791,3.90625,0.091552734375,-2.74658203125
0.3324999,0.3513490855693817,-0.2621650993824005,9.984419822692871,1.77001953125,-0.274658203125,1.739501953125
0.3374999,0.38307225704193115,-0.28969839215278625,9.548674583435059,-6.134033203125,-1.007080078125,-0.091552734375
0.3424999,0.5811924338340759,-0.32202014327049255,9.827000617980957,5.37109375,-0.091552734375,-2.25830078125
0.34749990000000003,0.3669114112854004,-0.27054479718208313,9.923367500305176,-0.1220703125,0,1.800537109375
0.35249990000000003,0.47225627303123474,-0.30945056676864624,9.503185272216797,-5.462646484375,0,-0.701904296875
0.3574999,0.5907692909240723,-0.35673606395721436,9.841964721679688,6.2255859375,0.3662109375,-1.708984375
0.3624999,0.3148375153541565,-0.2603694200515747,9.831191062927246,-1.64794921875,0.213623046875,1.983642578125
0.3674999,0.4920084476470947,-0.30885201692581177,9.512762069702148,-3.72314453125,0.06103515625,-1.617431640625
0.3724999,0.5279214978218079,-0.32202014327049255,9.948506355285645,6.378173828125,0.30517578125,-1.0986328125
0.3774999,0.2932897210121155,-0.2603694200515747,9.799467086791992,-3.509521484375,-0.152587890625,2.3193359375
0.3824999,0.5440823435783386,-0.304063618183136,9.607333183288574,-2.13623046875,-0.6103515625,-2.25830078125
0.3874999,0.29568392038345337,-0.24480712413787842,9.783307075500488,-4.57763671875,0.213623046875,2.01416015625
0.3924999,0.29568392038345337,-0.24480712413787842,9.783307075500488,-4.57763671875,0.213623046875,2.01416015625
0.3974999,0.5249287486076355,-0.2974795699119568,9.624092102050781,-0.823974609375,-0.42724609375,-2.166748046875
0.4024999,0.2992752194404602,-0.2645592987537384,9.642048835754395,-5.706787109375,-0.274658203125,1.52587890625
0.4074999,0.2992752194404602,-0.2645592987537384,9.642048835754395,-5.706787109375,-0.274658203125,1.52587890625
0.41249990000000003,0.4920084476470947,-0.2579752206802368,9.674968719482422,1.708984375,-0.18310546875,-2.227783203125
0.41749990000000003,0.3519476354122162,-0.22864626348018646,10.016142845153809,4.150390625,-0.1220703125,0.518798828125
0.4224999,0.2819172441959381,-0.20949265360832214,9.664793968200684,-6.53076171875,-0.640869140625,0.701904296875
0.4274999,0.5117605924606323,-0.272938996553421,9.746196746826172,3.2958984375,0.244140625,-2.50244140625
0.4324999,0.3824737071990967,-0.24839842319488525,10.002376556396484,2.960205078125,0.030517578125,1.495361328125
0.4374999,0.37409400939941406,-0.2825157940387726,9.592967987060547,-6.34765625,-0.762939453125,0
0.4424999,0.578798234462738,-0.314238965511322,9.804255485534668,5.096435546875,0.91552734375,-2.50244140625
0.4474999,0.4118026793003082,-0.2693476974964142,9.576807022094727,-5.67626953125,-0.274658203125,-0.42724609375
0.4524999,0.5662286877632141,-0.3190273642539978,9.852738380432129,5.706787109375,0.1220703125,-2.288818359375
0.4574999,0.3274070918560028,-0.24181437492370605,9.861717224121094,-0.518798828125,0.213623046875,2.3193359375
0.4624999,0.4602852761745453,-0.2711433470249176,9.473258018493652,-4.57763671875,-0.091552734375,-0.79345703125
0.4674999,0.5434837937355042,-0.31364041566848755,9.87967300415039,6.2255859375,0.1220703125,-1.77001953125
0.47249990000000003,0.28969839215278625,-0.228047713637352,9.846753120422363,-2.50244140625,-0.06103515625,2.0751953125
0.47749990000000003,0.5351040959358215,-0.304063618183136,9.603142738342285,-2.8076171875,-0.213623046875,-1.434326171875
0.4824999,0.3447650372982025,-0.2735375463962555,9.767744064331055,-4.08935546875,-0.30517578125,1.678466796875
0.4874999,0.585382342338562,-0.3190273642539978,9.549273490905762,-1.77001953125,0.152587890625,-2.3193359375
0.4924999,0.48303020000457764,-0.2932897210121155,9.929352760314941,6.04248046875,0.54931640625,0.06103515625
0.4974999,0.35434186458587646,-0.2735375463962555,9.691728591918945,-5.523681640625,0.18310546875,1.922607421875
0.5024999,0.46746787428855896,-0.25019407272338867,9.700706481933594,2.410888671875,0.213623046875,-2.8076171875
0.5074999,0.3292027413845062,-0.2346317619085312,10.019135475158691,3.662109375,0.3662109375,0.8544921875
0.5124999,0.27234044671058655,-0.2346317619085312,9.61451530456543,-6.011962890625,-0.274658203125,0.79345703125
0.5174999,0.49799394607543945,-0.30286651849746704,9.700108528137207,3.60107421875,-0.732421875,-2.38037109375
0.5224999,0.32620999217033386,-0.25498247146606445,9.956886291503906,1.861572265625,-0.030517578125,1.220703125
0.5274999,0.3603273630142212,-0.2932897210121155,9.521739959716797,-5.706787109375,-0.213623046875,-0.091552734375
0.5324999,0.5632359385490417,-0.3274070918560028,9.813833236694336,4.791259765625,-0.48828125,-2.01416015625
0.5374999,0.35254621505737305,-0.2753331959247589,9.95748519897461,-0.06103515625,-0.1220703125,1.983642578125
0.5424999,0.46746787428855896,-0.3016694188117981,9.561244010925293,-4.94384765625,-0.244140625,-1.068115234375
0.5474999,0.5937620401382446,-0.345363587141037,9.928155899047852,5.950927734375,0.335693359375,-2.0751953125
0.5524999,0.30466216802597046,-0.27473464608192444,9.845556259155273,-3.2958984375,0,2.197265625
0.5574999,0.5482721924781799,-0.33518823981285095,9.625288963317871,-2.532958984375,-0.518798828125,-1.861572265625
0.5624999,0.5219359993934631,-0.2992752194404602,9.611522674560547,-0.54931640625,-0.244140625,-2.197265625
0.5674999000000001,0.4159925580024719,-0.2759317457675934,9.991601943969727,5.584716796875,0.091552734375,0.030517578125
0.5724999000000001,0.31603461503982544,-0.2735375463962555,9.633668899536133,-5.55419921875,-0.30517578125,1.251220703125
0.5774999000000001,0.49978959560394287,-0.26815059781074524,9.647436141967773,1.52587890625,0.48828125,-2.38037109375
0.5824999,0.3603273630142212,-0.24420857429504395,9.996989250183105,4.486083984375,0.518798828125,1.03759765625
0.5874999,0.27413609623908997,-0.2172738015651703,9.63187313079834,-6.591796875,0.18310546875,0.9765625
0.5924999,0.3603273630142212,-0.25079262256622314,9.931747436523438,2.86865234375,0.274658203125,1.64794921875
0.5974999,0.3495534360408783,-0.27413609623908997,9.5223388671875,-6.40869140625,-0.518798828125,0.42724609375
0.6024999,0.5644330382347107,-0.3100491166114807,9.706093788146973,4.82177734375,0.6103515625,-2.593994140625
0.6074999,0.34835633635520935,-0.24480712413787842,9.942521095275879,1.251220703125,0.640869140625,1.861572265625
0.6124999,0.41958385705947876,-0.2711433470249176,9.532513618469238,-5.06591796875,0.457763671875,-0.213623046875
0.6174999,0.5931634902954102,-0.32860419154167175,9.885659217834473,5.859375,0.18310546875,-2.13623046875
0.6224999,0.35075053572654724,-0.2561795711517334,9.94970417022705,-0.8544921875,-0.091552734375,1.922607421875
0.6274999,0.4842272996902466,-0.29568392038345337,9.591172218322754,-4.180908203125,-0.3662109375,-1.190185546875
0.6324999,0.5536591410636902,-0.3321954905986786,10.002974510192871,6.195068359375,-0.54931640625,-1.495361328125
0.6374999,0.29149407148361206,-0.26096799969673157,9.914987564086914,-2.960205078125,-0.396728515625,1.983642578125
0.6424999,0.5321113467216492,-0.3208230137825012,9.641449928283691,-3.082275390625,-0.30517578125,-1.739501953125
0.6474999,0.5135562419891357,-0.3405751883983612,10.00716495513916,6.591796875,0.457763671875,-0.885009765625
0.6524999,0.33758243918418884,-0.28131869435310364,9.804854393005371,-4.058837890625,-0.274658203125,1.861572265625
0.6574999,0.578798234462738,-0.3280056416988373,9.61331844329834,-1.373291015625,-0.3662109375,-2.38037109375
0.6624999,0.47584760189056396,-0.30047231912612915,9.993996620178223,5.859375,0.213623046875,-0.244140625
0.6674999,0.34416648745536804,-0.2777273952960968,9.750386238098145,-5.55419921875,-0.18310546875,1.8310546875
0.6724999,0.5380968451499939,-0.2890998423099518,9.658209800720215,0.518798828125,0.3662109375,-2.62451171875
0.6774999,0.3908534348011017,-0.2537853717803955,10.029909133911133,5.0048828125,0.3662109375,0.42724609375
0.6824999,0.27653029561042786,-0.23582886159420013,9.670180320739746,-5.950927734375,-0.1220703125,1.190185546875
0.6874999,0.4572925269603729,-0.24121582508087158,9.693524360656738,2.227783203125,-0.30517578125,-2.716064453125
0.6924999000000001,0.3345896899700165,-0.23044191300868988,10.005369186401367,3.47900390625,-0.152587890625,1.220703125
0.6974999000000001,0.2885012924671173,-0.2406172752380371,9.603142738342285,-6.34765625,-0.457763671875,0.67138671875
0.7024999000000001,0.5249287486076355,-0.30705636739730835,9.703699111938477,3.997802734375,-0.06103515625,-2.62451171875
0.7074999,0.3423708379268646,-0.26096799969673157,9.962273597717285,1.861572265625,0.18310546875,1.64794921875
0.7124999,0.3794809579849243,-0.29149407148361206,9.505578994750977,-6.04248046875,-0.640869140625,-0.1220703125
0.7174999,0.30286651849746704,-0.26755204796791077,9.916184425354004,-1.953125,0.06103515625,2.044677734375
0.7224999,0.5183446407318115,-0.3477577865123749,10.022727012634277,6.8359375,0.67138671875,-1.129150390625
0.7274999,0.30286651849746704,-0.29807811975479126,9.876680374145508,-2.99072265625,0,2.01416015625
0.7324999,0.5536591410636902,-0.3196259140968323,9.640851974487305,-2.13623046875,-0.6103515625,-2.166748046875
0.7374999,0.46986207365989685,-0.30047231912612915,10.044873237609863,6.16455078125,-0.06103515625,-0.48828125
0.7424999,0.3034650683403015,-0.2388216257095337,9.791088104248047,-5.035400390625,-0.335693359375,2.166748046875
0.7474999,0.5315127968788147,-0.28550854325294495,9.640851974487305,-0.213623046875,0.152587890625,-2.44140625
0.7524999,0.3693056106567383,-0.23343466222286224,9.937732696533203,4.180908203125,0.3662109375,0.640869140625
0.7574999,0.28969839215278625,-0.2172738015651703,9.59715747833252,-6.2255859375,-0.457763671875,1.190185546875
0.7624999,0.5129576921463013,-0.28072014451026917,9.695918083190918,3.387451171875,0.335693359375,-2.410888671875
0.7674999,0.3603273630142212,-0.24480712413787842,9.947309494018555,2.349853515625,0.213623046875,1.220703125
0.7724999,0.3597288131713867,-0.26994624733924866,9.545681953430176,-6.16455078125,-0.335693359375,0.18310546875
0.7774999,0.5656301379203796,-0.3034650683403015,9.791088104248047,4.791259765625,0.457763671875,-2.166748046875
0.7824999,0.3489548861980438,-0.24600422382354736,9.982025146484375,0.823974609375,0.06103515625,1.8310546875
0.7874999,0.4489128291606903,-0.2693476974964142,9.572616577148438,-5.096435546875,0.091552734375,-0.701904296875
0.7924999,0.596754789352417,-0.32202014327049255,9.868300437927246,5.92041015625,0.457763671875,-2.0751953125
0.7974999,0.34356793761253357,-0.22864626348018646,9.896432876586914,-1.312255859375,0,2.25830078125
0.8024999,0.3016694188117981,-0.2561795711517334,9.855133056640625,-2.8076171875,0.06103515625,2.105712890625
0.8074999,0.5494692921638489,-0.3148375153541565,9.610923767089844,-2.593994140625,0.18310546875,-1.52587890625
0.8124999,0.497395396232605,-0.33339259028434753,10.01075553894043,6.40869140625,0.1220703125,-0.8544921875
0.8174999000000001,0.3256114423274994,-0.2693476974964142,9.79527759552002,-4.94384765625,-0.091552734375,1.708984375
0.8224999000000001,0.5506663918495178,-0.31124621629714966,9.607931137084961,-0.823974609375,0.701904296875,-2.197265625
0.8274999000000001,0.444722980260849,-0.2908954918384552,10.00716495513916,5.9814453125,0.54931640625,0.06103515625
0.8324999000000001,0.32680854201316833,-0.2753331959247589,9.668384552001953,-5.462646484375,-0.396728515625,1.5869140625
0.8374999,0.50876784324646,-0.2759317457675934,9.637859344482422,1.373291015625,0.213623046875,-2.655029296875
0.8424999,0.365115761756897,-0.25737667083740234,9.996989250183105,4.638671875,0.396728515625,0.8544921875
0.8474999,0.26575639843940735,-0.23044191300868988,9.622895240783691,-6.28662109375,-0.152587890625,1.15966796875
0.8524999,0.47824180126190186,-0.28550854325294495,9.686341285705566,2.74658203125,-0.6103515625,-2.99072265625
0.8574999,0.3387795388698578,-0.28371289372444153,9.516951560974121,-6.28662109375,-0.67138671875,0.3662109375
0.8624999,0.5674257874488831,-0.322618693113327,9.675567626953125,4.39453125,0.152587890625,-2.593994140625
0.8674999,0.35913026332855225,-0.26336219906806946,9.93474006652832,1.190185546875,0.42724609375,1.678466796875
0.8724999,0.42437225580215454,-0.2849099934101105,9.506776809692383,-5.7373046875,0,-0.091552734375
0.8774999,0.5925649404525757,-0.35075053572654724,9.86231517791748,5.706787109375,0.640869140625,-2.166748046875
0.8824999,0.345363587141037,-0.27712884545326233,9.925163269042969,-1.007080078125,0.18310546875,1.922607421875
0.8874999,0.4692635238170624,-0.30286651849746704,9.582792282104492,-4.57763671875,0.030517578125,-1.03759765625
0.8924999,0.5392939448356628,-0.3495534360408783,10.005369186401367,6.256103515625,0.54931640625,-1.556396484375
0.8974999,0.2693476974964142,-0.25737667083740234,9.946112632751465,-2.471923828125,0.18310546875,2.13623046875
0.9024999,0.5069721937179565,-0.31842881441116333,9.675567626953125,-3.0517578125,-0.518798828125,-1.953125
0.9074999,0.48243165016174316,-0.3531447649002075,10.050260543823242,6.195068359375,-0.06103515625,-0.885009765625
0.9124999,0.30047231912612915,-0.28371289372444153,9.828198432922363,-4.33349609375,-0.518798828125,2.197265625
0.9174999,0.4489128291606903,-0.29867666959762573,9.992799758911133,6.16455078125,0.244140625,-0.244140625
0.9224999,0.33698388934135437,-0.2561795711517334,9.696516990661621,-5.218505859375,-0.579833984375,1.739501953125
0.9274999,0.5363011956214905,-0.2603694200515747,9.59835433959961,0.67138671875,-0.152587890625,-2.777099609375
0.9324999,0.4010287821292877,-0.24600422382354736,9.965864181518555,4.974365234375,0.213623046875,0.54931640625
0.9374999,0.292691171169281,-0.21847090125083923,9.602544784545898,-5.950927734375,-0.1220703125,1.28173828125
0.9424999000000001,0.4836287498474121,-0.2406172752380371,9.667187690734863,2.0751953125,0.18310546875,-2.685546875
0.9474999000000001,0.35434186458587646,-0.24361002445220947,9.958083152770996,3.41796875,0.701904296875,1.129150390625
0.9524999000000001,0.314238965511322,-0.2322375625371933,9.576807022094727,-5.92041015625,0.213623046875,0.6103515625
0.9574999000000001,0.5404910445213318,-0.2992752194404602,9.706692695617676,4.39453125,0.91552734375,-2.5634765625
0.9624999,0.34596213698387146,-0.24600422382354736,9.99339771270752,1.739501953125,0.30517578125,1.678466796875
0.9674999,0.3884592354297638,-0.2669534981250763,9.5624418258667,-5.9814453125,-0.640869140625,0
0.9724999,0.5716156363487244,-0.33997663855552673,9.873088836669922,5.55419921875,0,-2.13623046875
0.9774999,0.4626794755458832,-0.29807811975479126,9.53969669342041,-4.57763671875,0.42724609375,-1.0986328125
0.9824999,0.5614402890205383,-0.3561375141143799,9.932944297790527,6.134033203125,-0.213623046875,-1.52587890625
0.9874999,0.2885012924671173,-0.24361002445220947,9.88745403289795,-2.288818359375,-0.152587890625,2.13623046875
0.9924999,0.5111620426177979,-0.3010708689689636,9.616909980773926,-3.387451171875,-0.335693359375,-1.556396484375
0.9974999,0.5213374495506287,-0.3513490855693817,9.997588157653809,6.439208984375,0.244140625,-1.068115234375
1.0024999,0.33099839091300964,-0.2777273952960968,9.80904483795166,-3.692626953125,0.152587890625,1.922607421875
1.0074999000000002,0.585382342338562,-0.3172317147254944,9.602544784545898,-1.46484375,0.30517578125,-2.349853515625
1.0124999000000001,0.585382342338562,-0.3172317147254944,9.602544784545898,-1.46484375,0.30517578125,-2.349853515625
1.0174999000000002,0.48243165016174316,-0.31184476613998413,9.981427192687988,6.134033203125,0.54931640625,-0.54931640625
1.0224999000000001,0.33937808871269226,-0.23942017555236816,9.7605619430542,-5.06591796875,-0.396728515625,1.983642578125
1.0274999,0.5374982953071594,-0.27473464608192444,9.635464668273926,0.457763671875,-0.1220703125,-2.5634765625
1.0324999000000001,0.3932476341724396,-0.26336219906806946,9.991601943969727,5.218505859375,0.152587890625,0.06103515625
1.0374999,0.4752490520477295,-0.24779987335205078,9.660005569458008,2.166748046875,0.213623046875,-2.532958984375
1.0424999000000001,0.3214215636253357,-0.22385786473751068,9.61212158203125,-6.439208984375,-0.244140625,0.91552734375
1.0474999,0.3214215636253357,-0.22385786473751068,9.61212158203125,-6.439208984375,-0.244140625,0.91552734375
1.0524999000000002,0.5524620413780212,-0.30047231912612915,9.707889556884766,3.631591796875,0.091552734375,-2.50244140625
1.0574999,0.37828385829925537,-0.2585737705230713,9.954492568969727,1.800537109375,0.091552734375,1.52587890625
1.0624999000000002,0.3992331326007843,-0.272938996553421,9.507973670959473,-6.256103515625,0.06103515625,-0.030517578125
1.0674999,0.5871779918670654,-0.3477577865123749,9.798270225524902,4.8828125,0.152587890625,-2.532958984375
1.0724999000000002,0.35673606395721436,-0.2867056429386139,9.906009674072266,0.06103515625,0.091552734375,2.0751953125
1.0774999,0.4578910768032074,-0.304063618183136,9.515155792236328,-5.340576171875,-0.30517578125,-0.885009765625
1.0824999000000002,0.5596446394920349,-0.3603273630142212,9.884461402893066,6.317138671875,0.579833984375,-1.922607421875
1.0874999,0.2825157940387726,-0.24121582508087158,9.88506031036377,-1.678466796875,0.1220703125,2.38037109375
1.0924999000000002,0.4794389009475708,-0.28072014451026917,9.601945877075195,-3.814697265625,-0.244140625,-1.373291015625
1.0974999,0.29388827085494995,-0.2669534981250763,9.84495735168457,-3.47900390625,0.06103515625,1.953125
1.1024999000000002,0.5548562407493591,-0.32620999217033386,9.643844604492188,-1.89208984375,0.213623046875,-2.166748046875
1.1074999,0.4668693244457245,-0.33698388934135437,10.013150215148926,6.16455078125,0.6103515625,-0.640869140625
1.1124999000000002,0.3214215636253357,-0.2645592987537384,9.791686058044434,-4.913330078125,0.244140625,1.89208984375
1.1174999,0.5386953949928284,-0.28969839215278625,9.648633003234863,-0.06103515625,0.518798828125,-2.62451171875
1.1224999000000002,0.47584760189056396,-0.2454056739807129,9.66299819946289,1.8310546875,-0.091552734375,-2.62451171875
1.1274999,0.47584760189056396,-0.2454056739807129,9.66299819946289,1.8310546875,-0.091552734375,-2.62451171875
1.1324999000000002,0.3411737382411957,-0.25258827209472656,10.014945983886719,3.814697265625,-0.152587890625,0.701904296875
1.1374999000000001,0.2825157940387726,-0.21128830313682556,9.64564037322998,-6.622314453125,-0.762939453125,0.79345703125
1.1424999000000002,0.5207388401031494,-0.2885012924671173,9.744400978088379,3.997802734375,0.396728515625,-2.685546875
1.1474999000000001,0.36571431159973145,-0.2472013235092163,9.996390342712402,2.471923828125,0.640869140625,1.52587890625
1.1524999000000002,0.5931634902954102,-0.3208230137825012,9.805453300476074,5.157470703125,0.152587890625,-2.410888671875
1.1574999000000001,0.36990416049957275,-0.2645592987537384,9.924564361572266,0.1220703125,0.091552734375,1.922607421875
1.1624999,0.46627077460289,-0.292691171169281,9.501988410949707,-5.523681640625,-0.396728515625,-0.823974609375
1.1674999000000001,0.5835866928100586,-0.3818751573562622,9.845556259155273,6.439208984375,0.640869140625,-1.617431640625
1.1724999,0.30286651849746704,-0.26336219906806946,9.84495735168457,-1.3427734375,0.30517578125,2.105712890625
1.1774999000000002,0.48303020000457764,-0.3064578175544739,9.548674583435059,-4.241943359375,-1.220703125,-1.708984375
1.1824999,0.5135562419891357,-0.3603273630142212,9.985616683959961,6.195068359375,0.335693359375,-1.251220703125
1.1874999000000002,0.29807811975479126,-0.27892449498176575,9.858125686645508,-3.326416015625,0.244140625,2.38037109375
1.1924999,0.568622887134552,-0.3166331648826599,9.661202430725098,-2.349853515625,0.152587890625,-2.166748046875
1.1974999000000002,0.4878185987472534,-0.35015198588371277,10.067618370056152,6.28662109375,0.42724609375,-0.8544921875
1.2024999,0.3411737382411957,-0.27473464608192444,9.97364616394043,2.5634765625,0.1220703125,1.373291015625
1.2074999000000002,0.35913026332855225,-0.2783259451389313,9.575011253356934,-6.04248046875,-0.18310546875,0.3662109375
1.2124999,0.5823895931243896,-0.333991140127182,9.817423820495605,4.82177734375,-0.244140625,-2.44140625
1.2174999000000002,0.3728969097137451,-0.2717418968677521,9.988011360168457,0.518798828125,-0.06103515625,1.40380859375
1.2224999,0.46507367491722107,-0.2783259451389313,9.555258750915527,-5.279541015625,0.213623046875,-0.732421875
1.2274999000000002,0.5997475385665894,-0.36092591285705566,9.882067680358887,6.378173828125,0.54931640625,-1.739501953125
1.2324999,0.32620999217033386,-0.2585737705230713,9.886856079101562,-1.312255859375,0.091552734375,1.983642578125
1.2374999000000002,0.4734533727169037,-0.2861070930957794,9.536105155944824,-4.0283203125,-0.030517578125,-1.28173828125
1.2424999,0.5171475410461426,-0.3429693877696991,9.967659950256348,6.591796875,0.06103515625,-1.28173828125
1.2474999000000002,0.2777273952960968,-0.24779987335205078,9.829395294189453,-3.23486328125,-0.396728515625,1.861572265625
1.2524999,0.5351040959358215,-0.2890998423099518,9.606734275817871,-2.62451171875,-0.48828125,-1.739501953125
1.2574999000000002,0.47225627303123474,-0.3363853394985199,10.001178741455078,6.2255859375,-0.152587890625,-0.640869140625
1.2624999000000001,0.3082534670829773,-0.24899697303771973,9.775525093078613,-4.5166015625,-0.762939453125,1.800537109375
1.2674999000000002,0.545877993106842,-0.3106476664543152,9.625887870788574,-0.67138671875,-0.579833984375,-2.38037109375
1.2724999000000001,0.436343252658844,-0.3256114423274994,10.012551307678223,5.767822265625,0.213623046875,-0.091552734375
1.2774999000000002,0.34416648745536804,-0.27234044671058655,9.673172950744629,-5.706787109375,-0.42724609375,1.434326171875
1.2824999000000001,0.5309142470359802,-0.2693476974964142,9.674968719482422,1.28173828125,0,-2.593994140625
1.2874999,0.3866635859012604,-0.2519897222518921,10.011354446411133,4.425048828125,0.67138671875,0.640869140625
1.2924999000000001,0.2890998423099518,-0.18375498056411743,9.628880500793457,-6.04248046875,-0.06103515625,1.03759765625
1.2974999,0.3292027413845062,-0.23343466222286224,9.555258750915527,-5.889892578125,-0.213623046875,0.18310546875
1.3024999000000002,0.5476736426353455,-0.3148375153541565,9.776124000549316,4.547119140625,-0.152587890625,-2.532958984375
1.3074999,0.33339259028434753,-0.24600422382354736,9.97065258026123,0.8544921875,-0.152587890625,1.953125
1.3124999000000002,0.43035775423049927,-0.2645592987537384,9.550470352172852,-5.218505859375,-0.3662109375,-0.579833984375
1.3174999,0.5889736413955688,-0.3621230125427246,9.862914085388184,5.55419921875,-0.06103515625,-2.0751953125
1.3224999000000002,0.3363853394985199,-0.25079262256622314,9.899425506591797,-1.068115234375,0,2.288818359375
1.3274999,0.49619829654693604,-0.2861070930957794,9.536704063415527,-4.33349609375,-0.06103515625,-1.0986328125
1.3324999000000002,0.5482721924781799,-0.3663128614425659,9.971850395202637,6.16455078125,0.152587890625,-1.678466796875
1.3374999,0.3058592677116394,-0.2561795711517334,9.880271911621094,-2.960205078125,0.1220703125,2.197265625
1.3424999000000002,0.5530605912208557,-0.3250128924846649,9.639654159545898,-2.8076171875,0.030517578125,-1.5869140625
1.3474999,0.4950011968612671,-0.3770867586135864,10.034697532653809,6.04248046875,0,-0.9765625
1.3524999000000002,0.31543606519699097,-0.2585737705230713,9.636661529541016,-5.828857421875,0.030517578125,1.129150390625
1.3574999,0.4854243993759155,-0.28131869435310364,9.610923767089844,1.251220703125,0.213623046875,-2.5634765625
1.3624999000000002,0.35075053572654724,-0.24779987335205078,9.979631423950195,4.69970703125,-0.091552734375,0.91552734375
1.3674999,0.2555810213088989,-0.19572599232196808,9.620500564575195,-6.53076171875,-0.701904296875,0.8544921875
1.3724999000000002,0.48243165016174316,-0.3064578175544739,9.682151794433594,2.777099609375,-0.091552734375,-2.899169921875
1.3774999,0.3627215623855591,-0.243011474609375,9.952696800231934,3.143310546875,-0.091552734375,1.28173828125
1.3824999000000002,0.35254621505737305,-0.29628247022628784,9.534908294677734,-6.65283203125,-0.79345703125,0.42724609375
1.3874999000000001,0.5793967843055725,-0.34356793761253357,9.723451614379883,4.852294921875,0.1220703125,-2.8076171875
1.3924999000000002,0.36810851097106934,-0.24121582508087158,9.970054626464844,1.373291015625,0.06103515625,1.556396484375
1.3974999000000001,0.43095630407333374,-0.2902969419956207,9.528324127197266,-5.9814453125,-0.42724609375,-0.1220703125
1.4024999000000002,0.25079262256622314,-0.26336219906806946,9.903017044067383,-2.685546875,-0.152587890625,2.410888671875
1.4074999000000001,0.4902127981185913,-0.3423708379268646,9.666589736938477,-3.41796875,-0.8544921875,-1.89208984375
1.4124999,0.45848962664604187,-0.3250128924846649,10.038887977600098,6.77490234375,0.42724609375,-1.0986328125
1.4174999000000001,0.27712884545326233,-0.27653029561042786,9.809642791748047,-4.33349609375,-0.18310546875,2.471923828125
1.4224999,0.5386953949928284,-0.34356793761253357,9.585186958312988,-1.251220703125,-0.152587890625,-2.197265625
1.4274999000000002,0.4495113790035248,-0.26815059781074524,9.955090522766113,5.828857421875,0.30517578125,-0.6103515625
1.4324999,0.33997663855552673,-0.2998737692832947,9.644442558288574,-5.4931640625,-0.335693359375,1.953125
1.4374999000000002,0.5363011956214905,-0.30226796865463257,9.582193374633789,1.0986328125,0.152587890625,-2.288818359375
1.4424999,0.35913026332855225,-0.2190694510936737,10.005967140197754,3.082275390625,0.30517578125,1.40380859375
1.4474999000000002,0.31783026456832886,-0.27413609623908997,9.603142738342285,-6.28662109375,-0.213623046875,0.152587890625
1.4524999,0.5333084464073181,-0.2849099934101105,9.755773544311523,4.730224609375,0.42724609375,-2.716064453125
1.4574999000000002,0.33339259028434753,-0.25079262256622314,10.008959770202637,1.64794921875,0.213623046875,1.922607421875
1.4624999,0.38067805767059326,-0.2950853705406189,9.550470352172852,-6.011962890625,-0.274658203125,-0.18310546875
1.4674999000000002,0.5656301379203796,-0.30705636739730835,9.86111831665039,5.4931640625,0,-2.532958984375
1.4724999,0.3423708379268646,-0.28550854325294495,9.937732696533203,-0.6103515625,-0.091552734375,2.166748046875
1.4774999000000002,0.46148237586021423,-0.3082534670829773,9.564835548400879,-4.7607421875,-0.42724609375,-0.640869140625
1.4824999,0.5620388388633728,-0.3172317147254944,9.980229377746582,6.134033203125,-0.06103515625,-1.708984375
1.4874999000000002,0.29149407148361206,-0.2717418968677521,9.938331604003906,-2.227783203125,-0.213623046875,1.953125
1.4924999,0.5147533416748047,-0.3274070918560028,9.664793968200684,-3.265380859375,-0.1220703125,-1.40380859375
1.4974999000000002,0.33937808871269226,-0.31364041566848755,9.849146842956543,-4.08935546875,-0.30517578125,1.708984375
1.5024999,0.5931634902954102,-0.3298012912273407,9.649829864501953,-2.13623046875,-0.48828125,-2.197265625
1.5074999000000002,0.5021837949752808,-0.292691171169281,10.011953353881836,5.7373046875,0.3662109375,-0.1220703125
1.5124999000000001,0.3579331636428833,-0.2783259451389313,9.782708168029785,-5.31005859375,0.1220703125,1.77001953125
1.5174999000000002,0.5638344883918762,-0.29149407148361206,9.64923095703125,0.213623046875,-0.274658203125,-2.777099609375
1.5224999000000001,0.48722004890441895,-0.24121582508087158,9.690531730651855,2.13623046875,-0.274658203125,-2.593994140625
1.5274999000000002,0.34596213698387146,-0.22086510062217712,10.020931243896484,3.84521484375,-0.030517578125,0.732421875
1.5324999000000001,0.2890998423099518,-0.22924481332302094,9.645041465759277,-6.378173828125,-0.274658203125,0.91552734375
1.5374999000000003,0.5111620426177979,-0.29388827085494995,9.700108528137207,4.0283203125,-0.030517578125,-2.349853515625
1.5424999000000001,0.3627215623855591,-0.2585737705230713,9.949105262756348,2.01416015625,-0.091552734375,1.40380859375
1.5474999,0.3878606855869293,-0.26755204796791077,9.909601211547852,0.518798828125,0.6103515625,2.0751953125
1.5524999000000002,0.4752490520477295,-0.29807811975479126,9.502586364746094,-5.340576171875,0.579833984375,-0.823974609375
1.5574999,0.5949591398239136,-0.34656068682670593,9.849146842956543,5.767822265625,0.457763671875,-2.166748046875
1.5624999000000002,0.3082534670829773,-0.25498247146606445,9.868300437927246,-1.46484375,0.335693359375,2.471923828125
1.5674999,0.4710591733455658,-0.3064578175544739,9.528324127197266,-3.7841796875,-0.274658203125,-1.3427734375
1.5724999000000002,0.5069721937179565,-0.3280056416988373,9.9586820602417,6.34765625,0.274658203125,-1.678466796875
1.5774999,0.2777273952960968,-0.28550854325294495,9.824007987976074,-3.143310546875,-0.244140625,2.44140625
1.5824999000000002,0.5327098965644836,-0.3531447649002075,9.588179588317871,-2.410888671875,-0.06103515625,-1.708984375
1.5874999,0.47644615173339844,-0.33997663855552673,9.96945571899414,6.103515625,-0.335693359375,-1.007080078125
1.5924999000000002,0.32202014327049255,-0.2902969419956207,9.744999885559082,-4.852294921875,-0.701904296875,1.800537109375
1.5974999,0.5626373887062073,-0.3208230137825012,9.570222854614258,-0.640869140625,0.18310546875,-2.197265625
1.6024999000000002,0.3561375141143799,-0.27892449498176575,9.623494148254395,-5.615234375,-0.54931640625,1.251220703125
1.6074999,0.5273229479789734,-0.2645592987537384,9.61451530456543,1.15966796875,0.732421875,-2.593994140625
1.6124999000000002,0.38546648621559143,-0.22744916379451752,9.981427192687988,4.486083984375,0.518798828125,0.885009765625
1.6174999,0.284311443567276,-0.2190694510936737,9.627683639526367,-6.500244140625,-0.396728515625,1.03759765625
1.6224999000000002,0.4920084476470947,-0.2717418968677521,9.693524360656738,2.655029296875,-0.244140625,-2.899169921875
1.6274999,0.36152446269989014,-0.24779987335205078,9.932345390319824,3.265380859375,0.244140625,1.220703125
1.6324999000000002,0.3292027413845062,-0.2885012924671173,9.507973670959473,-6.134033203125,-0.213623046875,0.6103515625
1.6374999000000001,0.5339069962501526,-0.31124621629714966,9.651625633239746,4.486083984375,0.274658203125,-2.685546875
1.6424999000000002,0.32202014327049255,-0.243011474609375,9.894637107849121,0.732421875,-0.1220703125,1.52587890625
1.6474999000000001,0.37648820877075195,-0.28131869435310364,9.474454879760742,-5.889892578125,-1.03759765625,-0.152587890625
1.6524999000000002,0.5590460896492004,-0.3232172429561615,9.816825866699219,5.950927734375,0.1220703125,-1.89208984375
1.6574999000000001,0.46567222476005554,-0.29388827085494995,9.530718803405762,-4.974365234375,-0.701904296875,-1.0986328125
1.6624999000000003,0.558447539806366,-0.31783026456832886,9.955090522766113,6.34765625,0.579833984375,-1.220703125
1.6674999000000001,0.29388827085494995,-0.2519897222518921,9.906607627868652,-2.716064453125,0.030517578125,2.197265625
1.6724999,0.5285200476646423,-0.3321954905986786,9.654019355773926,-3.387451171875,-0.396728515625,-2.044677734375
1.6774999000000002,0.5285200476646423,-0.3495534360408783,10.017339706420898,6.65283203125,0.79345703125,-1.373291015625
1.6824999,0.33099839091300964,-0.30526071786880493,9.807249069213867,-3.60107421875,0.48828125,2.3193359375
1.6874999000000002,0.5770025849342346,-0.35434186458587646,9.589376449584961,-1.251220703125,-0.030517578125,-2.105712890625
1.6924999,0.4578910768032074,-0.28969839215278625,9.944915771484375,5.79833984375,0.30517578125,-0.67138671875
1.6974999000000002,0.3064578175544739,-0.2867056429386139,9.723451614379883,-5.523681640625,0,1.922607421875
1.7024999,0.497395396232605,-0.29568392038345337,9.622296333312988,0.579833984375,0.213623046875,-2.410888671875
1.7074999000000002,0.3627215623855591,-0.25079262256622314,9.992799758911133,4.852294921875,-0.244140625,0.1220703125
1.7124999,0.2645592987537384,-0.2603694200515747,9.661202430725098,-6.500244140625,-0.946044921875,1.03759765625
1.7174999000000002,0.3429693877696991,-0.23523031175136566,9.996989250183105,3.84521484375,0.18310546875,1.28173828125
1.7224999,0.3058592677116394,-0.25977087020874023,9.59835433959961,-6.378173828125,-0.48828125,0.54931640625
1.7274999000000002,0.5309142470359802,-0.31783026456832886,9.668384552001953,3.662109375,-0.06103515625,-2.532958984375
1.7324999,0.37229835987091064,-0.2585737705230713,9.922170639038086,2.0751953125,0,1.64794921875
1.7374999000000002,0.38546648621559143,-0.3010708689689636,9.476250648498535,-6.072998046875,-0.1220703125,-0.091552734375
1.7424999,0.5817909836769104,-0.3166331648826599,9.768941879272461,5.0048828125,0.06103515625,-2.288818359375
1.7474999000000002,0.36092591285705566,-0.262763649225235,9.934141159057617,0.42724609375,0.213623046875,2.0751953125
1.7524999,0.44771572947502136,-0.292691171169281,9.546878814697266,-5.340576171875,-0.091552734375,-0.48828125
1.7574999000000002,0.5704185366630554,-0.3381809890270233,9.906009674072266,6.195068359375,0.42724609375,-2.01416015625
1.7624999000000001,0.5488707423210144,-0.3363853394985199,9.606135368347168,-2.655029296875,-0.579833984375,-2.105712890625
1.7674999000000002,0.4950011968612671,-0.30466216802597046,9.99220085144043,6.134033203125,0.030517578125,-0.54931640625
1.7724999000000001,0.32860419154167175,-0.2621650993824005,9.775525093078613,-4.69970703125,-0.244140625,2.0751953125
1.7774999000000002,0.557250440120697,-0.3106476664543152,9.594164848327637,-0.457763671875,-0.213623046875,-2.50244140625
1.7824999000000001,0.4596867263317108,-0.27413609623908997,9.984419822692871,5.828857421875,0.18310546875,-0.213623046875
1.7874999000000003,0.3429693877696991,-0.2944868206977844,9.633070945739746,-5.523681640625,-0.091552734375,1.617431640625
1.7924999000000001,0.5285200476646423,-0.28969839215278625,9.61331844329834,1.0986328125,0.152587890625,-2.50244140625
1.7974999,0.3824737071990967,-0.24181437492370605,9.985017776489258,4.69970703125,0.579833984375,0.579833984375
1.8024999000000002,0.27892449498176575,-0.23942017555236816,9.616311073303223,-6.011962890625,0.1220703125,1.068115234375
1.8074999,0.4842272996902466,-0.27892449498176575,9.703699111938477,3.082275390625,0.42724609375,-2.593994140625
1.8124999000000002,0.3597288131713867,-0.24361002445220947,9.947309494018555,2.8076171875,0.30517578125,1.129150390625
1.8174999,0.33039984107017517,-0.2861070930957794,9.537900924682617,-6.378173828125,-0.42724609375,0.274658203125
1.8224999000000002,0.3818751573562622,-0.2645592987537384,9.461286544799805,-6.103515625,-0.79345703125,-0.42724609375
1.8274999,0.5560533404350281,-0.29568392038345337,9.738415718078613,5.615234375,-0.213623046875,-2.197265625
1.8324999000000002,0.353743314743042,-0.21667525172233582,9.834183692932129,-0.701904296875,0.30517578125,2.105712890625
1.8374999,0.4950011968612671,-0.2585737705230713,9.531915664672852,-4.8828125,0.3662109375,-0.8544921875
1.8424999000000002,0.28790274262428284,-0.23104046285152435,9.906607627868652,-3.204345703125,-0.396728515625,2.01416015625
1.8474999,0.4866214990615845,-0.3776853084564209,9.603741645812988,-2.8076171875,-0.091552734375,-1.922607421875
1.8524999000000002,0.49320554733276367,-0.39863458275794983,9.922768592834473,5.889892578125,0.18310546875,-0.9765625
1.8574999,0.30526071786880493,-0.4465186297893524,9.740211486816406,-3.204345703125,-0.6103515625,2.25830078125
1.8624999000000002,0.568622887134552,-0.47824180126190186,9.527127265930176,-1.28173828125,-0.946044921875,-2.471923828125
1.8674999,0.4985924959182739,-0.13826514780521393,9.63067626953125,1.89208984375,1.068115234375,-2.593994140625
1.8724999000000002,0.3292027413845062,-0.1041477769613266,9.971251487731934,4.33349609375,0.79345703125,0.518798828125
1.8774999,0.22505496442317963,-0.15502455830574036,9.603741645812988,-6.7138671875,0.030517578125,1.190185546875
1.8824999000000002,0.4321534037590027,-0.22505496442317963,9.71926212310791,3.90625,-0.091552734375,-2.44140625
1.8874999000000001,0.2711433470249176,-0.22744916379451752,9.944316864013672,2.044677734375,-0.6103515625,1.373291015625
1.8924999000000002,0.2825157940387726,-0.33518823981285095,9.5408935546875,-6.439208984375,-1.3427734375,0.18310546875
1.8974999000000001,0.5279214978218079,-0.363918662071228,9.780912399291992,5.157470703125,-1.40380859375,-2.197265625
1.9024999000000002,0.35494041442871094,-0.36332011222839355,9.95209789276123,0.213623046875,-0.91552734375,1.77001953125
1.9074999000000001,0.6889315247535706,-0.42437225580215454,9.82999324798584,6.16455078125,0.457763671875,-2.044677734375
1.9124999000000003,0.45848962664604187,-0.3585317134857178,9.84495735168457,-0.9765625,0.823974609375,2.13623046875
1.9174999000000001,0.5901707410812378,-0.35015198588371277,9.481039047241211,-4.08935546875,0.54931640625,-1.46484375
1.9224999,0.5045779943466187,-0.23403321206569672,9.638457298278809,-2.86865234375,0.701904296875,-1.953125
1.9274999000000002,0.41778820753097534,-0.20051439106464386,10.028712272644043,6.103515625,0.91552734375,-1.0986328125
1.9324999,0.18794482946395874,-0.20051439106464386,9.820416450500488,-4.5166015625,-0.1220703125,2.13623046875
1.9374999000000002,0.40521863102912903,-0.2651578485965729,9.59715747833252,-1.5869140625,-1.220703125,-1.77001953125
1.9424999,0.3100491166114807,-0.2519897222518921,9.965864181518555,5.889892578125,-0.54931640625,-0.396728515625
1.9474999000000002,0.21966800093650818,-0.31184476613998413,9.707290649414062,-5.645751953125,-1.007080078125,1.77001953125
1.9524999,0.4794389009475708,-0.32620999217033386,9.613917350769043,0.518798828125,-1.190185546875,-2.3193359375
1.9574999000000002,0.3728969097137451,-0.33279404044151306,9.68155288696289,-6.34765625,-0.701904296875,1.007080078125
1.9624999,0.6051344871520996,-0.3076549172401428,9.713874816894531,2.5634765625,0.3662109375,-2.8076171875
1.9674999000000002,0.5009866952896118,-0.30466216802597046,10.037092208862305,3.753662109375,0.8544921875,1.15966796875
1.9724999,0.4423287510871887,-0.28371289372444153,9.622895240783691,-6.28662109375,0.823974609375,0.579833984375
1.9774999000000002,0.6278793811798096,-0.3064578175544739,9.694721221923828,4.150390625,1.434326171875,-2.899169921875
1.9824999,0.40701428055763245,-0.23582886159420013,9.9586820602417,2.349853515625,1.129150390625,1.46484375
1.9874999000000002,0.35015198588371277,-0.23762452602386475,9.516951560974121,-5.9814453125,0.579833984375,0.18310546875
1.9924999,0.4950011968612671,-0.24480712413787842,9.793481826782227,4.852294921875,0.152587890625,-2.349853515625
1.9974999000000002,0.24121582508087158,-0.20949265360832214,9.958083152770996,0.152587890625,-0.396728515625,1.922607421875
2.0024999,0.48063600063323975,-0.3232172429561615,9.895833969116211,5.767822265625,-0.946044921875,-1.861572265625
2.0074999,0.25737667083740234,-0.2687491476535797,9.922170639038086,-1.52587890625,-1.190185546875,1.953125
2.0124999000000003,0.42856210470199585,-0.27653029561042786,9.986215591430664,5.615234375,0.6103515625,0
2.0174999000000002,0.272938996553421,-0.25498247146606445,9.679757118225098,-5.55419921875,-0.79345703125,1.861572265625
2.0224999,0.4489128291606903,-0.24420857429504395,9.620500564575195,0.518798828125,-0.732421875,-2.777099609375
2.0274999,0.30526071786880493,-0.2214636504650116,9.99459457397461,4.33349609375,-0.79345703125,0.640869140625
2.0324999000000004,0.2190694510936737,-0.20709845423698425,9.637859344482422,-6.2255859375,-1.0986328125,1.3427734375
2.0374999000000003,0.444722980260849,-0.22026655077934265,9.704896926879883,2.532958984375,-1.0986328125,-2.593994140625
2.0424999,0.36332011222839355,-0.25318682193756104,9.576208114624023,-5.9814453125,-0.1220703125,0.762939453125
2.0474999,0.6093243360519409,-0.3274070918560028,9.6803560256958,3.936767578125,0.42724609375,-2.44140625
2.0524999,0.424970805644989,-0.2825157940387726,9.941324234008789,1.8310546875,0.91552734375,1.46484375
2.0574999000000003,0.44173020124435425,-0.3130418658256531,9.534309387207031,-5.584716796875,0.335693359375,-0.213623046875
2.0624999,0.6009446382522583,-0.3447650372982025,9.825803756713867,5.340576171875,0.91552734375,-2.13623046875
2.0674999,0.3495534360408783,-0.29388827085494995,9.951498985290527,-0.18310546875,0.640869140625,1.861572265625
2.0724999,0.42616790533065796,-0.2950853705406189,9.547477722167969,-4.8828125,-0.06103515625,-0.946044921875
2.0774999000000003,0.5183446407318115,-0.3447650372982025,9.911396026611328,6.28662109375,-0.06103515625,-2.0751953125
2.0824999,0.5321113467216492,-0.3124433159828186,9.953893661499023,6.011962890625,0.42724609375,-0.762939453125
2.0874999,0.363918662071228,-0.26815059781074524,9.764751434326172,-4.45556640625,0.518798828125,1.89208984375
2.0924999,0.5883750915527344,-0.3064578175544739,9.633668899536133,-0.6103515625,1.007080078125,-2.105712890625
2.0974999000000003,0.46088382601737976,-0.29209262132644653,10.007762908935547,5.584716796875,0.396728515625,-0.213623046875
2.1024999,0.322618693113327,-0.26096799969673157,9.661202430725098,-6.04248046875,0,1.251220703125
2.1074999,0.48482584953308105,-0.24420857429504395,9.631275177001953,1.15966796875,1.0986328125,-2.38037109375
2.1124999,0.32022446393966675,-0.22505496442317963,9.988609313964844,4.791259765625,0.030517578125,0.946044921875
2.1174999000000003,0.2148796021938324,-0.2059013396501541,9.646238327026367,-6.34765625,-1.129150390625,0.823974609375
2.1224999,0.43514615297317505,-0.26096799969673157,9.731232643127441,2.38037109375,-0.640869140625,-2.8076171875
2.1274999,0.3280056416988373,-0.26396074891090393,9.9772367477417,3.082275390625,-0.518798828125,1.52587890625
2.1324999,0.3315969407558441,-0.2801215946674347,9.57201862335205,-5.9814453125,-0.823974609375,0.396728515625
2.1374999000000003,0.5746083855628967,-0.32202014327049255,9.707889556884766,4.2724609375,0.274658203125,-2.685546875
2.1424999000000002,0.4626794755458832,-0.2998737692832947,9.52473258972168,-5.035400390625,-0.579833984375,-0.91552734375
2.1474999,0.535702645778656,-0.35254621505737305,9.916783332824707,6.195068359375,0.396728515625,-1.617431640625
2.1524999,0.2364274114370346,-0.25079262256622314,9.900622367858887,-2.227783203125,0.152587890625,1.983642578125
2.1574999000000004,0.42616790533065796,-0.30047231912612915,9.618106842041016,-3.7841796875,-0.579833984375,-1.52587890625
2.1624999000000003,0.4531026780605316,-0.3405751883983612,10.015543937683105,6.2255859375,-0.732421875,-1.03759765625
2.1674999,0.2663549482822418,-0.28969839215278625,9.853935241699219,-3.7841796875,-0.91552734375,1.953125
2.1724999,0.2663549482822418,-0.28969839215278625,9.853935241699219,-3.7841796875,-0.91552734375,1.953125
2.1774999000000004,0.5398924946784973,-0.33279404044151306,9.634865760803223,-1.495361328125,0.244140625,-2.197265625
2.1824999000000003,0.47824180126190186,-0.3411737382411957,10.034697532653809,6.16455078125,-0.213623046875,-0.457763671875
2.1874999,0.5889736413955688,-0.3082534670829773,9.660005569458008,-0.30517578125,0.274658203125,-2.62451171875
2.1924999,0.4794389009475708,-0.3058592677116394,9.970054626464844,5.279541015625,0.30517578125,-0.030517578125
2.1974999,0.365115761756897,-0.272938996553421,9.599552154541016,-5.859375,-0.54931640625,1.434326171875
2.2024999000000003,0.536899745464325,-0.2849099934101105,9.579200744628906,1.5869140625,0.42724609375,-2.655029296875
2.2074999,0.37169981002807617,-0.2693476974964142,9.919178009033203,4.21142578125,0.701904296875,0.3662109375
2.2124999,0.2663549482822418,-0.24001872539520264,9.575610160827637,-6.103515625,-0.274658203125,0.9765625
2.2174999,0.47644615173339844,-0.3100491166114807,9.694721221923828,3.265380859375,0.06103515625,-2.3193359375
2.2224999000000003,0.3256114423274994,-0.27413609623908997,9.926959037780762,2.685546875,-0.152587890625,1.0986328125
2.2274999,0.3190273642539978,-0.28730419278144836,9.555258750915527,-6.28662109375,-0.67138671875,0.1220703125
2.2324999,0.5363011956214905,-0.32680854201316833,9.758766174316406,4.82177734375,-0.48828125,-2.50244140625
2.2374999,0.32441434264183044,-0.25079262256622314,9.989806175231934,0.9765625,-0.396728515625,1.861572265625
2.2424999000000003,0.4710591733455658,-0.2885012924671173,9.507973670959473,-4.730224609375,0.701904296875,-0.946044921875
2.2474999,0.5225345492362976,-0.35254621505737305,9.923966407775879,5.7373046875,0.244140625,-1.77001953125
2.2524999,0.24480712413787842,-0.2472013235092163,9.882665634155273,-2.685546875,-0.06103515625,2.13623046875
2.2574999,0.4578910768032074,-0.3280056416988373,9.644442558288574,-2.9296875,-0.518798828125,-1.617431640625
2.2624999000000003,0.43694180250167847,-0.3561375141143799,10.040084838867188,6.439208984375,-0.213623046875,-0.9765625
2.2674999000000002,0.2585737705230713,-0.2753331959247589,9.849745750427246,-4.119873046875,-0.732421875,1.8310546875
2.2724999,0.5213374495506287,-0.3274070918560028,9.650428771972656,-1.068115234375,-0.823974609375,-2.197265625
2.2774999,0.4572925269603729,-0.28072014451026917,10.008959770202637,6.2255859375,-0.42724609375,-0.396728515625
2.2824999000000004,0.35733461380004883,-0.23523031175136566,9.761758804321289,-5.523681640625,-0.640869140625,1.64794921875
2.2874999000000003,0.5883750915527344,-0.2579752206802368,9.622296333312988,0.244140625,0.396728515625,-2.38037109375
2.2924999,0.47644615173339844,-0.21667525172233582,9.984419822692871,5.2490234375,0.67138671875,0.457763671875
2.2974999,0.3794809579849243,-0.22625206410884857,9.98681354522705,3.7841796875,0.885009765625,0.885009765625
2.3024999000000004,0.292691171169281,-0.24241292476654053,9.589975357055664,-6.439208984375,-0.244140625,0.8544921875
2.3074999000000003,0.48961424827575684,-0.31364041566848755,9.685144424438477,3.570556640625,-0.091552734375,-2.685546875
2.3124999,0.30885201692581177,-0.23702596127986908,9.963470458984375,2.105712890625,0.030517578125,1.556396484375
2.3174999,0.3130418658256531,-0.292691171169281,9.5223388671875,-5.859375,-0.335693359375,0.335693359375
2.3224999,0.6045359373092651,-0.34356793761253357,9.90241813659668,5.79833984375,-0.457763671875,-2.227783203125
2.3274999000000003,0.3734954595565796,-0.2495955228805542,9.910199165344238,-1.77001953125,-0.06103515625,1.861572265625
2.3324999,0.4866214990615845,-0.3100491166114807,9.609128952026367,-0.885009765625,-0.579833984375,-2.50244140625
2.3374999,0.38127660751342773,-0.23702596127986908,9.993996620178223,5.828857421875,-0.274658203125,0.213623046875
2.3424999,0.2759317457675934,-0.2974795699119568,9.684545516967773,-6.04248046875,-0.91552734375,1.861572265625
2.3474999000000003,0.48722004890441895,-0.29628247022628784,9.660603523254395,1.007080078125,-0.30517578125,-2.685546875
2.3524999,0.3693056106567383,-0.2364274114370346,10.043676376342773,4.57763671875,-0.244140625,0.67138671875
2.3574999,0.29628247022628784,-0.28730419278144836,9.682151794433594,-6.40869140625,-0.67138671875,1.220703125
2.3624999,0.5183446407318115,-0.2753331959247589,9.728240013122559,3.021240234375,0.06103515625,-2.8076171875
2.3674999000000003,0.3944447338581085,-0.30286651849746704,9.59057331085205,-6.103515625,0.396728515625,0.518798828125
2.3724999,0.6105214357376099,-0.29209262132644653,9.739013671875,4.547119140625,0.6103515625,-2.349853515625
2.3774999,0.395043283700943,-0.2621650993824005,9.99220085144043,1.52587890625,0.732421875,1.556396484375
2.3824999,0.4082113802433014,-0.2795230448246002,9.549273490905762,-5.462646484375,0.244140625,-0.54931640625
2.3874999000000003,0.5692214369773865,-0.3100491166114807,9.855731010437012,5.706787109375,0.274658203125,-2.166748046875
2.3924999000000002,0.3208230137825012,-0.27054479718208313,9.910199165344238,-0.274658203125,-0.396728515625,2.0751953125
2.3974999,0.4213795065879822,-0.27473464608192444,9.518148422241211,-5.18798828125,-0.6103515625,-1.03759765625
2.4024999,0.5105634927749634,-0.3280056416988373,9.984419822692871,6.7138671875,0.54931640625,-1.312255859375
2.4074999000000004,0.3190273642539978,-0.2950853705406189,9.79408073425293,-3.204345703125,0.457763671875,2.44140625
2.4124999000000003,0.4991910457611084,-0.29867666959762573,9.941922187805176,6.2255859375,0.579833984375,-0.823974609375
2.4174999,0.34177228808403015,-0.24361002445220947,9.747393608093262,-4.8828125,0.48828125,1.8310546875
2.4224999,0.5692214369773865,-0.27413609623908997,9.606734275817871,-0.274658203125,0.213623046875,-2.25830078125
2.4274999000000004,0.4387374520301819,-0.26815059781074524,9.982025146484375,5.55419921875,-0.030517578125,0.213623046875
2.4324999000000003,0.3387795388698578,-0.2621650993824005,9.634865760803223,-5.79833984375,-0.274658203125,1.190185546875
2.4374999,0.5147533416748047,-0.2777273952960968,9.647436141967773,1.861572265625,0.091552734375,-2.74658203125
2.4424999,0.365115761756897,-0.2513911724090576,9.997588157653809,4.638671875,0.396728515625,1.0986328125
2.4474999,0.2825157940387726,-0.23582886159420013,9.643844604492188,-6.16455078125,-0.030517578125,0.885009765625
2.4524999000000003,0.5009866952896118,-0.3106476664543152,9.726444244384766,3.173828125,0.06103515625,-2.685546875
2.4574999,0.36332011222839355,-0.2693476974964142,9.945513725280762,2.685546875,0.30517578125,1.617431640625
2.4624999,0.35494041442871094,-0.30466216802597046,9.53969669342041,-5.92041015625,-0.1220703125,0.396728515625
2.4674999,0.5602431893348694,-0.3274070918560028,9.727641105651855,4.7607421875,0,-2.716064453125
2.4724999000000003,0.40521863102912903,-0.272938996553421,9.537302017211914,-5.401611328125,0.518798828125,-0.1220703125
2.4774999,0.5710170865058899,-0.3250128924846649,9.853935241699219,5.55419921875,-0.091552734375,-2.0751953125
2.4824999,0.29568392038345337,-0.2454056739807129,9.905410766601562,-2.777099609375,-0.18310546875,2.13623046875
2.4874999,0.5291185975074768,-0.3232172429561615,9.659406661987305,-3.021240234375,-0.3662109375,-2.0751953125
2.4924999000000003,0.5099649429321289,-0.32202014327049255,10.016142845153809,6.4697265625,0.8544921875,-0.9765625
2.4974999,0.3196259140968323,-0.2867056429386139,9.808445930480957,-4.119873046875,0.396728515625,2.197265625
2.5024999,0.5602431893348694,-0.3423708379268646,9.575610160827637,-1.5869140625,0.1220703125,-2.197265625
2.5074999,0.45429977774620056,-0.2890998423099518,9.9371337890625,6.04248046875,0.54931640625,-0.48828125
2.5124999000000003,0.31184476613998413,-0.2968810200691223,9.70429801940918,-5.37109375,0.18310546875,2.044677734375
2.5174999000000002,0.3770867586135864,-0.25917232036590576,10.000580787658691,5.218505859375,0.1220703125,0.1220703125
2.5224999,0.27413609623908997,-0.28730419278144836,9.688735961914062,-5.950927734375,-0.54931640625,1.312255859375
2.5274999,0.4704606235027313,-0.2759317457675934,9.707889556884766,1.922607421875,0.152587890625,-2.50244140625
2.5324999000000004,0.35434186458587646,-0.2346317619085312,10.033500671386719,3.7841796875,-0.18310546875,1.03759765625
2.5374999000000003,0.3058592677116394,-0.26336219906806946,9.61212158203125,-6.500244140625,-0.579833984375,0.640869140625
2.5424999,0.5327098965644836,-0.2867056429386139,9.673771858215332,3.96728515625,-0.091552734375,-2.685546875
2.5474999,0.3687070608139038,-0.22864626348018646,9.931747436523438,1.983642578125,-0.18310546875,1.800537109375
2.5524999000000004,0.3842693865299225,-0.2753331959247589,9.48343276977539,-6.4697265625,-0.396728515625,0.06103515625
2.5574999000000003,0.5835866928100586,-0.27653029561042786,9.780313491821289,5.340576171875,0.396728515625,-2.593994140625
2.5624999,0.4465186297893524,-0.30047231912612915,9.537900924682617,-5.218505859375,-0.030517578125,-0.640869140625
2.5674999,0.5626373887062073,-0.3148375153541565,9.875483512878418,6.16455078125,0.6103515625,-1.922607421875
2.5724999,0.5081692934036255,-0.29209262132644653,9.967659950256348,6.683349609375,0.518798828125,-1.373291015625
2.5774999000000003,0.2777273952960968,-0.28311434388160706,9.851541519165039,-3.143310546875,-0.152587890625,2.044677734375
2.5824999,0.535702645778656,-0.3130418658256531,9.609128952026367,-2.685546875,-0.762939453125,-1.861572265625
2.5874999,0.4967968463897705,-0.29867666959762573,10.01075553894043,6.4697265625,0.457763671875,-0.701904296875
2.5924999,0.3292027413845062,-0.2669534981250763,9.797073364257812,-4.241943359375,0.18310546875,2.01416015625
2.5974999000000003,0.5638344883918762,-0.28969839215278625,9.611522674560547,-1.007080078125,-0.3662109375,-2.3193359375
2.6024999,0.4692635238170624,-0.26096799969673157,10.00716495513916,5.462646484375,0.42724609375,-0.18310546875
2.6074999,0.3579331636428833,-0.2651578485965729,9.668384552001953,-5.645751953125,-0.091552734375,1.64794921875
2.6124999,0.5506663918495178,-0.27892449498176575,9.61571216583252,0.946044921875,-0.18310546875,-2.74658203125
2.6174999000000003,0.40701428055763245,-0.25258827209472656,9.97364616394043,4.94384765625,0.42724609375,0.30517578125
2.6224999,0.2968810200691223,-0.2555810213088989,9.633668899536133,-5.859375,0.457763671875,1.28173828125
2.6274999,0.35673606395721436,-0.25677812099456787,10.006566047668457,3.2958984375,0.274658203125,0.946044921875
2.6324999,0.3172317147254944,-0.26755204796791077,9.586383819580078,-6.2255859375,-0.091552734375,0.42724609375
2.6374999000000003,0.5386953949928284,-0.3076549172401428,9.73542308807373,4.150390625,0.091552734375,-2.349853515625
2.6424999000000002,0.3860650360584259,-0.2902969419956207,9.569623947143555,-5.767822265625,-0.518798828125,-0.30517578125
2.6474999,0.5716156363487244,-0.3280056416988373,9.86889934539795,5.37109375,0.457763671875,-2.0751953125
2.6524999,0.35673606395721436,-0.26755204796791077,9.928754806518555,-0.030517578125,0.1220703125,2.13623046875
2.6574999000000004,0.4734533727169037,-0.27892449498176575,9.512163162231445,-4.974365234375,-0.6103515625,-1.068115234375
2.6624999000000003,0.586579442024231,-0.32381579279899597,9.8599214553833,5.92041015625,0.244140625,-1.983642578125
2.6674999,0.3100491166114807,-0.23343466222286224,9.84256362915039,-2.0751953125,-0.091552734375,2.3193359375
2.6724999,0.5027823448181152,-0.31184476613998413,9.561842918395996,-4.0283203125,-0.54931640625,-1.52587890625
2.6774999000000004,0.5285200476646423,-0.35254621505737305,9.967659950256348,6.622314453125,0.54931640625,-1.495361328125
2.6824999000000003,0.47824180126190186,-0.32202014327049255,9.977835655212402,6.34765625,0.274658203125,-0.79345703125
2.6874999,0.304063618183136,-0.25917232036590576,9.7605619430542,-4.852294921875,0.30517578125,2.0751953125
2.6924999,0.5267243981361389,-0.2902969419956207,9.61212158203125,-0.579833984375,0,-2.349853515625
2.6974999,0.4100070297718048,-0.2717418968677521,9.999981880187988,5.4931640625,0.1220703125,0.030517578125
2.7024999000000003,0.30885201692581177,-0.26815059781074524,9.655815124511719,-5.462646484375,-0.30517578125,1.5869140625
2.7074999,0.4926069974899292,-0.2651578485965729,9.68274974822998,1.190185546875,-0.244140625,-2.532958984375
2.7124999,0.363918662071228,-0.25019407272338867,10.038289070129395,4.364013671875,0.1220703125,0.732421875
2.7174999,0.2759317457675934,-0.2322375625371933,9.671976089477539,-6.500244140625,-0.518798828125,0.79345703125
2.7224999000000003,0.3645172119140625,-0.25917232036590576,9.946112632751465,1.0986328125,0.244140625,1.800537109375
2.7274999,0.4213795065879822,-0.27712884545326233,9.528324127197266,-5.67626953125,0.06103515625,-0.30517578125
2.7324999,0.5793967843055725,-0.32680854201316833,9.853935241699219,5.584716796875,0.640869140625,-2.3193359375
2.7374999,0.333991140127182,-0.25438392162323,9.911994934082031,-0.67138671875,0.091552734375,2.044677734375
2.7424999000000003,0.333991140127182,-0.25438392162323,9.911994934082031,-0.67138671875,0.091552734375,2.044677734375
2.7474999,0.45190557837486267,-0.27892449498176575,9.563039779663086,-4.974365234375,-0.79345703125,-0.91552734375
2.7524999,0.536899745464325,-0.31842881441116333,9.985017776489258,6.256103515625,0.213623046875,-1.739501953125
2.7574999,0.26815059781074524,-0.2322375625371933,9.949105262756348,-2.593994140625,0.335693359375,2.044677734375
2.7624999000000003,0.5117605924606323,-0.2950853705406189,9.674968719482422,-3.2958984375,-0.518798828125,-1.52587890625
2.7674999000000002,0.5117605924606323,-0.3232172429561615,10.054450035095215,6.65283203125,0.030517578125,-0.91552734375
2.7724999,0.32680854201316833,-0.2783259451389313,9.847352027893066,-3.84521484375,-0.518798828125,1.739501953125
2.7774999,0.5734112858772278,-0.32381579279899597,9.61451530456543,-1.495361328125,-0.06103515625,-2.13623046875
2.7824999000000004,0.3280056416988373,-0.2759317457675934,9.730634689331055,-5.43212890625,-0.48828125,1.77001953125
2.7874999000000003,0.3280056416988373,-0.2759317457675934,9.730634689331055,-5.43212890625,-0.48828125,1.77001953125
2.7924999,0.5327098965644836,-0.30286651849746704,9.593565940856934,0.42724609375,-0.213623046875,-2.838134765625
2.7974999,0.4010287821292877,-0.27413609623908997,9.951498985290527,5.401611328125,0.3662109375,0.42724609375
2.8024999000000004,0.31124621629714966,-0.262763649225235,9.610325813293457,-6.011962890625,0.18310546875,1.5869140625
2.8074999000000003,0.4967968463897705,-0.26396074891090393,9.633070945739746,1.953125,0.48828125,-2.86865234375
2.8124999,0.3800795078277588,-0.24480712413787842,9.98681354522705,3.753662109375,0.274658203125,0.823974609375
2.8174999,0.3232172429561615,-0.24241292476654053,9.622296333312988,-6.256103515625,-0.1220703125,0.885009765625
2.8224999,0.5428852438926697,-0.31603461503982544,9.712677955627441,3.753662109375,0.335693359375,-2.38037109375
2.8274999000000003,0.36750996112823486,-0.2603694200515747,9.972448348999023,1.953125,0.152587890625,1.28173828125
2.8324999,0.3693056106567383,-0.29867666959762573,9.52473258972168,-6.16455078125,-0.335693359375,0.06103515625
2.8374999,0.569819986820221,-0.3148375153541565,9.791686058044434,5.37109375,-0.152587890625,-2.166748046875
2.8424999,0.5817909836769104,-0.3256114423274994,9.88386344909668,5.92041015625,0.42724609375,-1.678466796875
2.8474999000000003,0.31603461503982544,-0.2364274114370346,9.912593841552734,-1.373291015625,0.18310546875,2.227783203125
2.8524999,0.4770447015762329,-0.29388827085494995,9.556455612182617,-4.241943359375,0.091552734375,-1.617431640625
2.8574999,0.5327098965644836,-0.34656068682670593,9.98681354522705,6.28662109375,0.06103515625,-1.495361328125
2.8624999,0.2998737692832947,-0.2783259451389313,9.864709854125977,-3.23486328125,-0.06103515625,2.44140625
2.8674999000000003,0.5614402890205383,-0.3423708379268646,9.642048835754395,-2.716064453125,-0.457763671875,-2.01416015625
2.8724999,0.4944026470184326,-0.33937808871269226,10.033500671386719,6.072998046875,0.579833984375,-0.91552734375
2.8774999,0.3130418658256531,-0.27712884545326233,9.807249069213867,-4.486083984375,0.091552734375,2.288818359375
2.8824999,0.31783026456832886,-0.2669534981250763,9.603741645812988,-5.401611328125,-0.48828125,1.40380859375
2.8874999000000003,0.3770867586135864,-0.24361002445220947,9.958083152770996,4.791259765625,0.457763671875,0.79345703125
2.8924999000000002,0.2885012924671173,-0.2298433631658554,9.622895240783691,-6.103515625,0.1220703125,0.579833984375
2.8974999,0.5117605924606323,-0.2801215946674347,9.733028411865234,2.960205078125,0.6103515625,-2.685546875
2.9024999,0.3860650360584259,-0.262763649225235,9.970054626464844,3.11279296875,0.48828125,1.64794921875
2.9074999000000004,0.3734954595565796,-0.2717418968677521,9.565434455871582,-6.16455078125,-0.152587890625,0.152587890625
2.9124999000000003,0.5859808921813965,-0.31783026456832886,9.722254753112793,4.45556640625,0.396728515625,-2.685546875
2.9174999,0.36571431159973145,-0.2454056739807129,9.956886291503906,1.495361328125,0.274658203125,2.0751953125
2.9224999,0.4189853072166443,-0.26755204796791077,9.537900924682617,-5.79833984375,-0.1220703125,0.1220703125
2.9274999000000004,0.5817909836769104,-0.3190273642539978,9.837775230407715,5.340576171875,0.3662109375,-2.3193359375
2.9324999000000003,0.33997663855552673,-0.23942017555236816,9.876082420349121,-0.701904296875,0.30517578125,2.0751953125
2.9374999,0.4686649739742279,-0.26575639843940735,9.487024307250977,-4.364013671875,-0.274658203125,-0.732421875
2.9424999,0.5512649416923523,-0.314238965511322,9.90361499786377,6.378173828125,0.18310546875,-1.52587890625
2.9474999,0.5345055460929871,-0.30466216802597046,9.634267807006836,-3.204345703125,-0.30517578125,-1.617431640625
2.9524999000000003,0.5207388401031494,-0.33758243918418884,10.050260543823242,6.591796875,0.213623046875,-0.885009765625
2.9574999,0.34656068682670593,-0.2902969419956207,9.854534149169922,-4.21142578125,-0.1220703125,1.77001953125
2.9624999,0.47584760189056396,-0.32202014327049255,10.02691650390625,5.92041015625,0.274658203125,0.030517578125
2.9674999,0.3429693877696991,-0.28131869435310364,9.740211486816406,-5.4931640625,-0.335693359375,1.800537109375
2.9724999000000003,0.5434837937355042,-0.29628247022628784,9.619303703308105,0.640869140625,-0.54931640625,-2.960205078125
2.9774999,0.40701428055763245,-0.2621650993824005,9.97065258026123,5.126953125,0.213623046875,0.274658203125
2.9824999,0.2998737692832947,-0.243011474609375,9.609726905822754,-5.859375,0.152587890625,1.251220703125
2.9874999,0.4818331003189087,-0.25438392162323,9.645041465759277,2.3193359375,-0.18310546875,-2.5634765625
2.9924999000000003,0.3495534360408783,-0.24121582508087158,9.95209789276123,3.387451171875,0.06103515625,0.946044921875
2.9974999,0.30286651849746704,-0.23523031175136566,9.560646057128906,-6.561279296875,0.18310546875,0.579833984375
3.0024999,0.34416648745536804,-0.2406172752380371,9.937732696533203,1.556396484375,0.1220703125,1.46484375
3.0074999,0.3770867586135864,-0.2753331959247589,9.5007905960083,-6.195068359375,0.18310546875,-0.396728515625
3.0124999000000003,0.5770025849342346,-0.32860419154167175,9.819818496704102,5.401611328125,0.762939453125,-2.105712890625
3.0174999000000002,0.35673606395721436,-0.2711433470249176,9.9185791015625,-0.213623046875,0.335693359375,2.166748046875
3.0224999,0.47225627303123474,-0.29388827085494995,9.52114200592041,-5.4931640625,-0.67138671875,-1.312255859375
3.0274999,0.579995334148407,-0.345363587141037,9.90241813659668,5.889892578125,-0.030517578125,-1.861572265625
3.0324999000000004,0.292691171169281,-0.24779987335205078,9.890447616577148,-1.922607421875,-0.152587890625,2.50244140625
3.0374999000000003,0.497395396232605,-0.314238965511322,9.615114212036133,-3.72314453125,-0.244140625,-1.495361328125
3.0424999,0.5039794445037842,-0.35494041442871094,10.002974510192871,6.195068359375,0,-1.40380859375
3.0474999,0.29209262132644653,-0.29149407148361206,9.803058624267578,-3.631591796875,-0.30517578125,2.288818359375
3.0524999000000004,0.5494692921638489,-0.3315969407558441,9.584588050842285,-1.556396484375,-0.06103515625,-1.953125
3.0574999000000003,0.4578910768032074,-0.3124433159828186,9.94970417022705,5.859375,0.1220703125,-0.67138671875
3.0624999,0.5482721924781799,-0.2819172441959381,9.619902610778809,-0.244140625,-0.030517578125,-2.166748046875
3.0674999,0.4291606545448303,-0.2687491476535797,9.971850395202637,5.279541015625,0.54931640625,0.3662109375
3.0724999000000004,0.32202014327049255,-0.25318682193756104,9.622296333312988,-5.828857421875,-0.091552734375,1.129150390625
3.0774999000000003,0.49619829654693604,-0.2579752206802368,9.61331844329834,1.800537109375,0.244140625,-2.74658203125
3.0824999,0.3603273630142212,-0.25438392162323,9.964667320251465,4.08935546875,0.1220703125,1.15966796875
3.0874999,0.2968810200691223,-0.22864626348018646,9.608530044555664,-6.28662109375,-0.213623046875,0.6103515625
3.0924999,0.5273229479789734,-0.3016694188117981,9.694122314453125,3.753662109375,-0.152587890625,-2.685546875
3.0974999000000003,0.363918662071228,-0.24779987335205078,9.965864181518555,2.227783203125,0.30517578125,1.64794921875
3.1024999,0.3794809579849243,-0.2693476974964142,9.521739959716797,-5.7373046875,0.3662109375,0.030517578125
3.1074999,0.5776011347770691,-0.3214215636253357,9.795876502990723,4.8828125,0.3662109375,-2.3193359375
3.1124999,0.353743314743042,-0.2687491476535797,9.926360130310059,0.30517578125,0.274658203125,1.922607421875
3.1174999000000003,0.4531026780605316,-0.2783259451389313,9.510966300964355,-5.035400390625,0.457763671875,-0.79345703125
3.1224999,0.4734533727169037,-0.28072014451026917,9.579200744628906,-4.94384765625,-0.579833984375,-1.15966796875
3.1274999,0.5021837949752808,-0.33279404044151306,10.020931243896484,6.4697265625,0.274658203125,-0.946044921875
3.1324999,0.2795230448246002,-0.26096799969673157,9.837176322937012,-3.509521484375,-0.152587890625,2.105712890625
3.1374999000000003,0.5416881442070007,-0.31124621629714966,9.634267807006836,-2.197265625,-0.457763671875,-2.01416015625
3.1424999000000002,0.4638765752315521,-0.3429693877696991,9.98681354522705,6.500244140625,0.152587890625,-0.42724609375
3.1474999,0.3124433159828186,-0.2603694200515747,9.777320861816406,-4.608154296875,-0.030517578125,1.922607421875
3.1524999,0.5464765429496765,-0.31364041566848755,9.624691009521484,-0.48828125,0.06103515625,-2.74658203125
3.1574999000000004,0.43095630407333374,-0.30885201692581177,9.974244117736816,5.55419921875,0.457763671875,0.091552734375
3.1624999000000003,0.33099839091300964,-0.25677812099456787,9.610923767089844,-5.67626953125,0.06103515625,1.64794921875
3.1674999,0.5135562419891357,-0.2687491476535797,9.616311073303223,1.495361328125,0.213623046875,-2.716064453125
3.1724999,0.3627215623855591,-0.25019407272338867,9.941324234008789,3.997802734375,0.396728515625,0.396728515625
3.1774999000000004,0.3405751883983612,-0.26096799969673157,9.95209789276123,2.38037109375,-0.091552734375,1.373291015625
3.1824999000000003,0.34596213698387146,-0.2783259451389313,9.50857162475586,-6.04248046875,-0.091552734375,0.213623046875
3.1874999,0.5602431893348694,-0.3363853394985199,9.75517463684082,4.913330078125,-0.030517578125,-2.44140625
3.1924999,0.3471592366695404,-0.26396074891090393,9.949105262756348,0.42724609375,-0.152587890625,1.983642578125
3.1974999000000004,0.4429273009300232,-0.2890998423099518,9.534309387207031,-5.2490234375,-0.30517578125,-0.701904296875
3.2024999000000003,0.31603461503982544,-0.25917232036590576,9.900622367858887,-1.251220703125,-0.06103515625,2.0751953125
3.2074999,0.48961424827575684,-0.30705636739730835,9.544485092163086,-4.5166015625,-0.640869140625,-1.52587890625
3.2124999,0.5303156971931458,-0.3495534360408783,9.976638793945312,6.4697265625,0.3662109375,-1.8310546875
3.2174999,0.2867056429386139,-0.25079262256622314,9.858723640441895,-3.35693359375,0.091552734375,2.288818359375
3.2224999000000003,0.5374982953071594,-0.32022446393966675,9.64923095703125,-1.983642578125,0.30517578125,-1.800537109375
3.2274999,0.5003881454467773,-0.272938996553421,9.657012939453125,1.46484375,-0.213623046875,-2.960205078125
3.2324999,0.3687070608139038,-0.23702596127986908,9.99459457397461,4.638671875,0.213623046875,1.068115234375
3.2374999,0.2825157940387726,-0.21188685297966003,9.597756385803223,-5.950927734375,0,1.03759765625
3.2424999000000003,0.5207388401031494,-0.2992752194404602,9.66539192199707,2.50244140625,-0.67138671875,-2.99072265625
3.2474999,0.3794809579849243,-0.24480712413787842,9.888651847839355,2.716064453125,0.518798828125,1.434326171875
3.2524999,0.3800795078277588,-0.27653029561042786,9.48343276977539,-6.134033203125,0.1220703125,0.518798828125
3.2574999,0.5877765417098999,-0.31364041566848755,9.715670585632324,4.82177734375,0.152587890625,-2.655029296875
3.2624999000000003,0.3579331636428833,-0.22206220030784607,9.945513725280762,0.640869140625,0.18310546875,1.739501953125
3.2674999000000002,0.5596446394920349,-0.30885201692581177,9.895236015319824,6.34765625,0.274658203125,-1.800537109375
3.2724999,0.304063618183136,-0.2041056901216507,9.93593692779541,-1.129150390625,-0.30517578125,2.01416015625
3.2774999,0.4495113790035248,-0.2783259451389313,9.588179588317871,-4.45556640625,0.152587890625,-1.28173828125
3.2824999000000004,0.5081692934036255,-0.2998737692832947,10.014945983886719,6.591796875,0.213623046875,-1.129150390625
3.2874999000000003,0.27653029561042786,-0.24361002445220947,9.921571731567383,-3.143310546875,-0.030517578125,2.25830078125
3.2924999,0.5333084464073181,-0.3274070918560028,9.671378135681152,-3.11279296875,-1.0986328125,-2.25830078125
3.2974999,0.5003881454467773,-0.32620999217033386,10.06043529510498,6.439208984375,0.518798828125,-0.701904296875
3.3024999000000004,0.3423708379268646,-0.29149407148361206,9.834183692932129,-4.5166015625,0.42724609375,2.197265625
3.3074999000000003,0.5823895931243896,-0.35494041442871094,9.616311073303223,-0.640869140625,0.54931640625,-2.410888671875
3.3124999,0.47824180126190186,-0.2974795699119568,9.996989250183105,5.9814453125,0.3662109375,-0.244140625
3.3174999,0.35733461380004883,-0.30526071786880493,9.63187313079834,-5.7373046875,0.06103515625,1.861572265625
3.3224999000000004,0.5279214978218079,-0.2849099934101105,9.601346969604492,1.434326171875,0.335693359375,-2.593994140625
3.3274999000000003,0.47884035110473633,-0.2555810213088989,9.679159164428711,3.082275390625,-0.030517578125,-2.44140625
3.3324999,0.35254621505737305,-0.2106897532939911,9.951498985290527,2.8076171875,0,1.129150390625
3.3374999,0.33279404044151306,-0.27054479718208313,9.53849983215332,-6.34765625,-0.885009765625,0.06103515625
3.3424999,0.5548562407493591,-0.2825157940387726,9.742006301879883,4.608154296875,0.244140625,-2.44140625
3.3474999000000003,0.3411737382411957,-0.24480712413787842,9.973047256469727,1.03759765625,0.244140625,2.044677734375
3.3524999,0.414795458316803,-0.29628247022628784,9.547477722167969,-5.67626953125,-0.3662109375,-0.3662109375
3.3574999,0.5847837924957275,-0.3315969407558441,9.856329917907715,5.645751953125,0.18310546875,-2.227783203125
3.3624999,0.5614402890205383,-0.3196259140968323,9.948506355285645,6.28662109375,0.06103515625,-2.044677734375
3.3674999000000003,0.4985924959182739,-0.33339259028434753,10.040084838867188,6.40869140625,0.030517578125,-0.946044921875
3.3724999,0.30226796865463257,-0.3058592677116394,9.821614265441895,-4.39453125,-0.335693359375,1.739501953125
3.3774999,0.5327098965644836,-0.33698388934135437,9.587580680847168,-1.0986328125,0.091552734375,-2.105712890625
3.3824999,0.42616790533065796,-0.2735375463962555,9.977835655212402,5.9814453125,0.42724609375,0.213623046875
3.3874999000000003,0.314238965511322,-0.28131869435310364,9.66299819946289,-5.584716796875,-0.213623046875,1.434326171875
3.3924999000000002,0.5039794445037842,-0.272938996553421,9.588777542114258,0.518798828125,-0.18310546875,-2.655029296875
3.3974999,0.375291109085083,-0.23283611238002777,9.96945571899414,4.974365234375,0.213623046875,0.823974609375
3.4024999,0.2777273952960968,-0.2495955228805542,9.608530044555664,-6.103515625,-0.67138671875,0.91552734375
3.4074999000000004,0.4812345504760742,-0.26336219906806946,9.66419506072998,2.685546875,0.274658203125,-2.9296875
3.4124999000000003,0.36810851097106934,-0.24899697303771973,9.938929557800293,3.326416015625,0.30517578125,1.46484375
3.4174999,0.38965633511543274,-0.28311434388160706,9.50617790222168,-5.67626953125,0.244140625,0.1220703125
3.4224999,0.38965633511543274,-0.28311434388160706,9.50617790222168,-5.67626953125,0.244140625,0.1220703125
3.4274999000000004,0.5829881429672241,-0.30885201692581177,9.841964721679688,5.645751953125,0.1220703125,-2.197265625
3.4324999000000003,0.3585317134857178,-0.26336219906806946,9.907206535339355,-0.274658203125,-0.030517578125,1.46484375
3.4374999,0.4686649739742279,-0.27712884545326233,9.52353572845459,-4.82177734375,0.091552734375,-0.823974609375
3.4424999,0.5566518902778625,-0.2998737692832947,9.891045570373535,6.256103515625,-0.30517578125,-1.15966796875
3.4474999000000004,0.2735375463962555,-0.22744916379451752,9.86231517791748,-2.288818359375,-0.579833984375,2.01416015625
3.4524999000000003,0.47884035110473633,-0.29807811975479126,9.579200744628906,-3.41796875,-0.213623046875,-1.89208984375
3.4574999,0.49799394607543945,-0.3166331648826599,9.965266227722168,6.4697265625,0.152587890625,-0.8544921875
3.4624999,0.30945056676864624,-0.2819172441959381,9.77013874053955,-4.150390625,-0.091552734375,2.3193359375
3.4674999,0.5740098357200623,-0.3298012912273407,9.556455612182617,-1.953125,-0.1220703125,-2.44140625
3.4724999000000003,0.3411737382411957,-0.27712884545326233,9.719860076904297,-5.096435546875,0.06103515625,2.105712890625
3.4774999,0.557250440120697,-0.2974795699119568,9.61571216583252,0.274658203125,-0.1220703125,-2.838134765625
3.4824999,0.4339490532875061,-0.2735375463962555,9.98681354522705,5.279541015625,0.091552734375,-0.244140625
3.4874999,0.3190273642539978,-0.2663549482822418,9.64683723449707,-5.92041015625,-0.54931640625,1.5869140625
3.4924999000000003,0.49978959560394287,-0.262763649225235,9.677961349487305,2.0751953125,0.213623046875,-2.410888671875
3.4974999,0.3555389642715454,-0.24899697303771973,10.000580787658691,3.753662109375,0.457763671875,0.762939453125
3.5024999,0.2932897210121155,-0.23822307586669922,9.636063575744629,-6.378173828125,-0.18310546875,0.67138671875
3.5074999,0.5171475410461426,-0.2992752194404602,9.703699111938477,3.875732421875,0.54931640625,-2.5634765625
3.5124999000000003,0.3603273630142212,-0.262763649225235,9.956886291503906,2.3193359375,0.3662109375,1.678466796875
3.5174999000000002,0.3693056106567383,-0.284311443567276,9.510367393493652,-5.889892578125,-0.48828125,-0.213623046875
3.5224999,0.4776432514190674,-0.2974795699119568,9.5624418258667,-4.180908203125,-0.3662109375,-1.068115234375
3.5274999,0.5225345492362976,-0.34596213698387146,9.992799758911133,6.28662109375,0.06103515625,-1.52587890625
3.5324999000000004,0.28790274262428284,-0.26575639843940735,9.831789016723633,-3.265380859375,-0.274658203125,1.983642578125
3.5374999000000003,0.5482721924781799,-0.3100491166114807,9.606734275817871,-2.593994140625,0.06103515625,-1.617431640625
3.5424999,0.48243165016174316,-0.31543606519699097,9.989806175231934,6.072998046875,0.30517578125,-0.640869140625
3.5474999,0.31842881441116333,-0.25079262256622314,9.79288387298584,-4.669189453125,-0.213623046875,1.708984375
3.5524999000000004,0.5482721924781799,-0.2974795699119568,9.647436141967773,-0.9765625,-0.42724609375,-2.349853515625
3.5574999000000003,0.4387374520301819,-0.2944868206977844,10.04188060760498,5.67626953125,0.244140625,0.152587890625
3.5624999,0.333991140127182,-0.26755204796791077,9.692327499389648,-5.706787109375,0.030517578125,1.678466796875
3.5674999,0.5201402902603149,-0.2621650993824005,9.655217170715332,1.129150390625,-0.213623046875,-2.655029296875
3.5724999000000004,0.35494041442871094,-0.26994624733924866,9.522936820983887,-6.2255859375,-0.06103515625,0.3662109375
3.5774999000000003,0.5758054852485657,-0.31184476613998413,9.68574333190918,4.364013671875,-0.335693359375,-2.3193359375
3.5824999,0.3645172119140625,-0.2406172752380371,9.946710586547852,1.03759765625,0.06103515625,1.495361328125
3.5874999,0.4207809567451477,-0.25977087020874023,9.518747329711914,-5.615234375,0.18310546875,-0.3662109375
3.5924999,0.5841852426528931,-0.3214215636253357,9.835380554199219,5.828857421875,0.579833984375,-1.953125
3.5974999000000003,0.3315969407558441,-0.2495955228805542,9.896432876586914,-0.701904296875,0.06103515625,2.044677734375
3.6024999,0.4554968774318695,-0.2711433470249176,9.516951560974121,-4.94384765625,-0.79345703125,-1.3427734375
3.6074999,0.5315127968788147,-0.3357867896556854,9.941922187805176,6.317138671875,0,-1.52587890625
3.6124999,0.2645592987537384,-0.2322375625371933,9.906009674072266,-2.25830078125,-0.335693359375,2.50244140625
3.6174999000000003,0.35913026332855225,-0.2663549482822418,9.719860076904297,-5.126953125,-0.518798828125,1.52587890625
3.6224999,0.5602431893348694,-0.28131869435310364,9.61212158203125,0.152587890625,0.1220703125,-2.197265625
3.6274999,0.4189853072166443,-0.25677812099456787,9.965864181518555,4.791259765625,0.396728515625,0.213623046875
3.6324999,0.3016694188117981,-0.23044191300868988,9.617507934570312,-6.2255859375,-0.274658203125,0.8544921875
3.6374999000000003,0.47584760189056396,-0.24241292476654053,9.660603523254395,2.38037109375,0.8544921875,-2.5634765625
3.6424999000000002,0.33279404044151306,-0.25258827209472656,9.992799758911133,4.0283203125,0.152587890625,1.15966796875
3.6474999,0.284311443567276,-0.23702596127986908,9.626486778259277,-6.40869140625,-0.42724609375,0.48828125
3.6524999,0.5063736438751221,-0.32022446393966675,9.713874816894531,3.387451171875,-0.42724609375,-2.62451171875
3.6574999000000004,0.6045359373092651,-0.3711012601852417,9.825803756713867,6.28662109375,0.18310546875,-1.983642578125
3.6624999000000003,0.33039984107017517,-0.24779987335205078,9.856329917907715,-1.5869140625,0.091552734375,1.8310546875
3.6674999,0.4854243993759155,-0.28072014451026917,9.561244010925293,-4.119873046875,0.274658203125,-1.556396484375
3.6724999,0.5033808946609497,-0.3381809890270233,10.020332336425781,6.378173828125,0.3662109375,-1.129150390625
3.6774999000000004,0.26815059781074524,-0.24839842319488525,9.864709854125977,-3.41796875,-0.030517578125,2.105712890625
3.6824999000000003,0.28131869435310364,-0.243011474609375,9.810839653015137,-4.913330078125,-0.518798828125,2.25830078125
3.6874999,0.3471592366695404,-0.2711433470249176,9.59476375579834,-5.645751953125,-0.54931640625,1.495361328125
3.6924999,0.5410895943641663,-0.27712884545326233,9.569623947143555,1.190185546875,-0.42724609375,-2.593994140625
3.6974999000000004,0.39803603291511536,-0.2537853717803955,9.913790702819824,4.058837890625,-0.06103515625,0.54931640625
3.7024999000000003,0.3016694188117981,-0.21188685297966003,9.557653427124023,-6.622314453125,-0.3662109375,0.9765625
3.7074999,0.5111620426177979,-0.2974795699119568,9.672574996948242,3.326416015625,0.54931640625,-2.593994140625
3.7124999,0.3627215623855591,-0.24779987335205078,9.905410766601562,2.960205078125,0.579833984375,1.251220703125
3.7174999,0.33758243918418884,-0.26396074891090393,9.522936820983887,-6.072998046875,-0.18310546875,0.091552734375
3.7224999000000003,0.5374982953071594,-0.30466216802597046,9.710283279418945,4.57763671875,0.3662109375,-2.655029296875
3.7274999,0.3100491166114807,-0.2082955539226532,9.950302124023438,1.190185546875,0.42724609375,1.953125
3.7324999,0.38127660751342773,-0.2322375625371933,9.534309387207031,-5.157470703125,0.18310546875,-0.457763671875
3.7374999,0.5512649416923523,-0.322618693113327,9.856329917907715,5.340576171875,-0.48828125,-2.44140625
3.7424999000000003,0.4854243993759155,-0.2795230448246002,9.533711433410645,-4.364013671875,-0.213623046875,-0.946044921875
3.7474999,0.5668272376060486,-0.32860419154167175,9.954492568969727,6.53076171875,0.274658203125,-1.708984375
3.7524999,0.31842881441116333,-0.2256535142660141,9.892841339111328,-2.593994140625,0.213623046875,2.166748046875
3.7574999,0.558447539806366,-0.32022446393966675,9.655217170715332,-3.173828125,-0.244140625,-1.5869140625
3.7624999000000003,0.5704185366630554,-0.35015198588371277,9.606135368347168,-1.03759765625,0.1220703125,-2.044677734375
3.7674999000000002,0.46148237586021423,-0.2968810200691223,9.97065258026123,6.256103515625,0.67138671875,-0.06103515625
3.7724999,0.34596213698387146,-0.2801215946674347,9.668384552001953,-5.218505859375,0.152587890625,1.40380859375
3.7774999,0.5315127968788147,-0.2783259451389313,9.553462982177734,0.06103515625,-0.335693359375,-2.532958984375
3.7824999000000004,0.39803603291511536,-0.21787235140800476,9.912593841552734,5.035400390625,0,0.762939453125
3.7874999000000003,0.28790274262428284,-0.23044191300868988,9.568427085876465,-6.439208984375,-0.06103515625,1.28173828125
3.7924999,0.3603273630142212,-0.24480712413787842,9.96825885772705,3.326416015625,-0.091552734375,0.885009765625
3.7974999,0.3148375153541565,-0.28072014451026917,9.579200744628906,-6.195068359375,-0.213623046875,0.91552734375
3.8024999000000004,0.5392939448356628,-0.314238965511322,9.710283279418945,4.150390625,0.18310546875,-2.716064453125
3.8074999000000003,0.35494041442871094,-0.2454056739807129,9.983820915222168,1.64794921875,0.06103515625,1.3427734375
3.8124999,0.37409400939941406,-0.2902969419956207,9.521739959716797,-6.103515625,0.1220703125,0.091552734375
3.8174999,0.5746083855628967,-0.31783026456832886,9.82999324798584,5.55419921875,0.30517578125,-2.227783203125
3.8224999000000004,0.3477577865123749,-0.2819172441959381,9.914987564086914,0,0,1.617431640625
3.8274999000000003,0.45429977774620056,-0.322618693113327,9.515754699707031,-4.791259765625,-0.152587890625,-0.885009765625
3.8324999,0.5692214369773865,-0.3363853394985199,9.907206535339355,6.256103515625,0.30517578125,-1.556396484375
3.8374999,0.2861070930957794,-0.25677812099456787,9.897629737854004,-2.13623046875,-0.030517578125,2.197265625
3.8424999,0.48303020000457764,-0.31184476613998413,9.625887870788574,-4.0283203125,-0.152587890625,-1.708984375
3.8474999000000003,0.5111620426177979,-0.31124621629714966,10.052056312561035,6.34765625,0.213623046875,-1.373291015625
3.8524999,0.4537012279033661,-0.2902969419956207,9.980828285217285,6.2255859375,0.48828125,-0.79345703125
3.8574999,0.2968810200691223,-0.27712884545326233,9.745597839355469,-5.06591796875,0,2.105712890625
3.8624999,0.5273229479789734,-0.304063618183136,9.593565940856934,-0.457763671875,-0.30517578125,-2.166748046875
3.8674999000000003,0.4213795065879822,-0.25438392162323,9.93354320526123,5.340576171875,0.06103515625,-0.1220703125
3.8724999,0.32620999217033386,-0.27892449498176575,9.595361709594727,-5.79833984375,-0.18310546875,1.251220703125
3.8774999,0.517746090888977,-0.2603694200515747,9.599552154541016,1.678466796875,-0.152587890625,-2.44140625
3.8824999,0.38067805767059326,-0.21847090125083923,9.963470458984375,4.21142578125,0.213623046875,0.640869140625
3.8874999000000003,0.3064578175544739,-0.23163901269435883,9.62828254699707,-6.34765625,-0.213623046875,0.67138671875
3.8924999000000002,0.517746090888977,-0.2759317457675934,9.733028411865234,3.47900390625,0.1220703125,-2.5634765625
3.8974999,0.3776853084564209,-0.23942017555236816,9.975440979003906,2.593994140625,0.18310546875,1.495361328125
3.9024999,0.5560533404350281,-0.28131869435310364,9.75397777557373,4.5166015625,0.274658203125,-2.685546875
3.9074999000000004,0.3298012912273407,-0.23163901269435883,9.961075782775879,0.732421875,0.18310546875,2.01416015625
3.9124999000000003,0.4034229815006256,-0.2711433470249176,9.533112525939941,-5.706787109375,-0.48828125,-0.18310546875
3.9174999,0.5668272376060486,-0.2950853705406189,9.855133056640625,5.950927734375,0.030517578125,-2.38037109375
3.9224999,0.32860419154167175,-0.26156654953956604,9.901819229125977,-1.03759765625,-0.1220703125,1.89208984375
3.9274999000000004,0.4686649739742279,-0.31184476613998413,9.527127265930176,-4.33349609375,-0.518798828125,-0.885009765625
3.9324999000000003,0.4686649739742279,-0.31184476613998413,9.527127265930176,-4.33349609375,-0.518798828125,-0.885009765625
3.9374999,0.5566518902778625,-0.3214215636253357,9.965266227722168,6.378173828125,0,-1.495361328125
3.9424999,0.31124621629714966,-0.29568392038345337,9.909002304077148,-2.838134765625,-0.213623046875,1.861572265625
3.9474999000000004,0.5512649416923523,-0.3387795388698578,9.652822494506836,-2.777099609375,-0.030517578125,-1.77001953125
3.9524999000000003,0.5285200476646423,-0.34656068682670593,10.054450035095215,6.591796875,0.6103515625,-0.762939453125
3.9574999,0.333991140127182,-0.30885201692581177,9.835979461669922,-3.997802734375,-0.06103515625,1.983642578125
3.9624999,0.45489832758903503,-0.2998737692832947,10.003573417663574,5.767822265625,0.640869140625,-0.213623046875
3.9674999000000004,0.3345896899700165,-0.26096799969673157,9.6989107131958,-5.523681640625,0.30517578125,1.922607421875
3.9724999000000003,0.5333084464073181,-0.2783259451389313,9.589376449584961,0.396728515625,0.1220703125,-2.655029296875
3.9774999,0.4040215313434601,-0.24361002445220947,9.935338973999023,4.82177734375,0.274658203125,0.213623046875
3.9824999,0.29867666959762573,-0.24420857429504395,9.57201862335205,-6.04248046875,0.30517578125,1.251220703125
3.9874999,0.4878185987472534,-0.25019407272338867,9.647436141967773,2.349853515625,0.274658203125,-2.593994140625
3.9924999000000003,0.3621230125427246,-0.26156654953956604,9.98681354522705,3.692626953125,0.274658203125,0.946044921875
3.9974999,0.3214215636253357,-0.2585737705230713,9.622296333312988,-6.16455078125,-0.030517578125,0.640869140625
4.0024999,0.3663128614425659,-0.2825157940387726,9.979631423950195,1.678466796875,0,1.40380859375
4.0074999,0.3842693865299225,-0.31184476613998413,9.5408935546875,-6.378173828125,-0.823974609375,-0.274658203125
4.0124999,0.5734112858772278,-0.33339259028434753,9.829395294189453,5.4931640625,0.457763671875,-2.288818359375
4.0174999,0.45010992884635925,-0.29149407148361206,9.582193374633789,-4.82177734375,0.457763671875,-0.823974609375
4.022499900000001,0.569819986820221,-0.34596213698387146,9.928754806518555,6.011962890625,0.030517578125,-2.105712890625
4.0274999000000005,0.2974795699119568,-0.23762452602386475,9.943717956542969,-1.46484375,-0.06103515625,2.227783203125
4.0324999,0.46627077460289,-0.2908954918384552,9.59476375579834,-3.875732421875,0.030517578125,-1.3427734375
4.0374999,0.5201402902603149,-0.3280056416988373,10.019734382629395,6.16455078125,0,-1.617431640625
4.0424999,0.2968810200691223,-0.2693476974964142,9.86231517791748,-3.326416015625,-0.091552734375,2.3193359375
4.0474999,0.5644330382347107,-0.31842881441116333,9.63067626953125,-2.166748046875,-0.030517578125,-1.64794921875
4.0524999,0.5021837949752808,-0.322618693113327,10.019135475158691,6.195068359375,0.244140625,-0.91552734375
4.0574999,0.33099839091300964,-0.25079262256622314,9.785101890563965,-4.669189453125,-0.1220703125,1.861572265625
4.062499900000001,0.557250440120697,-0.2944868206977844,9.615114212036133,-0.6103515625,-0.48828125,-2.0751953125
4.0674999000000005,0.4507084786891937,-0.2819172441959381,9.96825885772705,5.401611328125,-0.091552734375,-0.1220703125
4.0724999,0.3363853394985199,-0.2663549482822418,9.603142738342285,-5.7373046875,-0.640869140625,1.251220703125
4.0774999,0.3728969097137451,-0.2472013235092163,9.961075782775879,4.425048828125,0.42724609375,0.91552734375
4.0824999,0.34177228808403015,-0.2783259451389313,9.570222854614258,-6.561279296875,-1.03759765625,-0.030517578125
4.0874999,0.5530605912208557,-0.33698388934135437,9.694122314453125,4.150390625,-0.1220703125,-2.62451171875
4.0924999,0.3519476354122162,-0.2651578485965729,9.956886291503906,1.8310546875,0.1220703125,1.983642578125
4.0974999,0.40282443165779114,-0.29568392038345337,9.533112525939941,-5.92041015625,-0.213623046875,-0.1220703125
4.1024999,0.5805938839912415,-0.3489548861980438,9.849146842956543,5.43212890625,0.30517578125,-2.50244140625
4.1074999000000005,0.353743314743042,-0.2759317457675934,9.898826599121094,-0.244140625,0.1220703125,2.044677734375
4.1124999,0.4626794755458832,-0.2968810200691223,9.504382133483887,-4.486083984375,0.457763671875,-0.54931640625
4.1174999,0.5518634915351868,-0.35913026332855225,9.8970308303833,6.2255859375,0.579833984375,-1.708984375
4.1224999,0.5518634915351868,-0.3274070918560028,9.61571216583252,-2.044677734375,0.030517578125,-2.410888671875
4.1274999,0.45908817648887634,-0.2968810200691223,9.96825885772705,6.317138671875,0.701904296875,-0.30517578125
4.1324999,0.31184476613998413,-0.25318682193756104,9.758167266845703,-5.096435546875,-0.091552734375,1.800537109375
4.1374999,0.5345055460929871,-0.30286651849746704,9.603142738342285,-0.06103515625,0.457763671875,-2.685546875
4.1424999,0.4255693554878235,-0.27234044671058655,9.9371337890625,5.279541015625,0.30517578125,0.1220703125
4.147499900000001,0.3196259140968323,-0.2693476974964142,9.57441234588623,-5.859375,-0.457763671875,1.678466796875
4.1524999000000005,0.5105634927749634,-0.2795230448246002,9.57201862335205,1.678466796875,0.1220703125,-2.593994140625
4.1574999,0.3711012601852417,-0.24361002445220947,9.944316864013672,3.96728515625,0.244140625,0.54931640625
4.1624999,0.2968810200691223,-0.24361002445220947,9.610325813293457,-6.2255859375,-0.48828125,1.007080078125
4.1674999,0.36810851097106934,-0.25677812099456787,9.988609313964844,2.25830078125,0,1.03759765625
4.1724999,0.36571431159973145,-0.30466216802597046,9.569025993347168,-6.40869140625,-0.274658203125,0.091552734375
4.1774999,0.5668272376060486,-0.31842881441116333,9.782109260559082,5.035400390625,0.42724609375,-2.227783203125
4.1824999,0.3447650372982025,-0.25677812099456787,9.962273597717285,0.8544921875,0.091552734375,1.89208984375
4.187499900000001,0.42676645517349243,-0.28790274262428284,9.527725219726562,-5.401611328125,-0.152587890625,-0.762939453125
4.1924999000000005,0.5728127360343933,-0.33039984107017517,9.827000617980957,5.950927734375,0.244140625,-2.166748046875
4.1974999,0.3172317147254944,-0.24839842319488525,9.852140426635742,-1.03759765625,-0.030517578125,2.38037109375
4.2024999,0.46627077460289,-0.2950853705406189,9.480440139770508,-4.364013671875,-0.274658203125,-1.28173828125
4.2074999,0.5297171473503113,-0.31184476613998413,9.911994934082031,6.34765625,0.06103515625,-1.8310546875
4.2124999,0.2867056429386139,-0.2585737705230713,9.856928825378418,-2.685546875,-0.091552734375,2.288818359375
4.2174999,0.5398924946784973,-0.3315969407558441,9.619902610778809,-2.716064453125,-0.213623046875,-1.46484375
4.2224999,0.5069721937179565,-0.3214215636253357,10.025120735168457,6.500244140625,0.1220703125,-1.190185546875
4.2274999,0.45848962664604187,-0.2932897210121155,9.97065258026123,5.9814453125,0.457763671875,-0.06103515625
4.2324999000000005,0.35075053572654724,-0.28730419278144836,9.660603523254395,-5.37109375,0.42724609375,1.617431640625
4.2374999,0.536899745464325,-0.284311443567276,9.563638687133789,0.9765625,0.518798828125,-2.86865234375
4.2424999,0.40462008118629456,-0.2148796021938324,9.93474006652832,5.218505859375,0.640869140625,0.67138671875
4.2474999,0.2932897210121155,-0.21847090125083923,9.57860279083252,-6.317138671875,0.091552734375,1.28173828125
4.2524999,0.4776432514190674,-0.21188685297966003,9.63187313079834,2.044677734375,-0.42724609375,-2.9296875
4.2574999,0.3513490855693817,-0.1999158412218094,9.93474006652832,3.265380859375,0.244140625,1.312255859375
4.2624999,0.30226796865463257,-0.23403321206569672,9.536105155944824,-6.28662109375,-0.213623046875,0.885009765625
4.2674999,0.5213374495506287,-0.29807811975479126,9.64683723449707,3.90625,0.06103515625,-2.655029296875
4.272499900000001,0.3274070918560028,-0.2687491476535797,9.914389610290527,1.556396484375,-0.091552734375,1.3427734375
4.2774999000000005,0.3603273630142212,-0.3274070918560028,9.494206428527832,-5.767822265625,-0.6103515625,0.06103515625
4.2824999,0.37169981002807617,-0.29867666959762573,9.90241813659668,0,0.152587890625,1.8310546875
4.2874999,0.5069721937179565,-0.29388827085494995,9.500192642211914,-5.0048828125,-0.1220703125,-0.732421875
4.2924999,0.6314706802368164,-0.31543606519699097,9.86889934539795,5.767822265625,0.1220703125,-1.678466796875
4.2974999,0.3447650372982025,-0.2298433631658554,9.84256362915039,-2.0751953125,0.244140625,2.13623046875
4.3024999,0.518943190574646,-0.304063618183136,9.563039779663086,-3.47900390625,0.1220703125,-1.739501953125
4.3074999,0.52552729845047,-0.333991140127182,9.98681354522705,6.65283203125,0.823974609375,-1.15966796875
4.312499900000001,0.2932897210121155,-0.30286651849746704,9.831191062927246,-3.2958984375,0.18310546875,2.288818359375
4.3174999000000005,0.5327098965644836,-0.33039984107017517,9.630077362060547,-2.655029296875,-0.732421875,-2.105712890625
4.3224999,0.43993455171585083,-0.29867666959762573,10.004770278930664,6.134033203125,0.244140625,-0.6103515625
4.3274999,0.27234044671058655,-0.2495955228805542,9.779715538024902,-4.913330078125,-0.18310546875,1.953125
4.3324999,0.5081692934036255,-0.28550854325294495,9.625887870788574,-0.30517578125,-0.18310546875,-2.3193359375
4.3374999,0.406415730714798,-0.27712884545326233,9.967659950256348,5.523681640625,-0.030517578125,-0.1220703125
4.3424999,0.5273229479789734,-0.2753331959247589,9.616311073303223,1.922607421875,0.3662109375,-2.532958984375
4.3474999,0.3998316824436188,-0.2621650993824005,9.977835655212402,4.45556640625,0.457763671875,0.701904296875
4.352499900000001,0.3172317147254944,-0.24121582508087158,9.63187313079834,-6.16455078125,0.48828125,0.91552734375
4.3574999000000005,0.5297171473503113,-0.2890998423099518,9.726444244384766,3.265380859375,0.518798828125,-2.5634765625
4.3624999,0.38127660751342773,-0.284311443567276,9.975440979003906,2.593994140625,0.6103515625,1.46484375
4.3674999,0.3531447649002075,-0.3058592677116394,9.572616577148438,-5.92041015625,-0.091552734375,0.152587890625
4.3724999,0.5446808934211731,-0.32620999217033386,9.762955665588379,4.302978515625,-0.244140625,-2.5634765625
4.3774999,0.314238965511322,-0.2693476974964142,9.980828285217285,0.8544921875,0.030517578125,1.983642578125
4.3824999,0.375291109085083,-0.27473464608192444,9.548674583435059,-5.615234375,-0.274658203125,-0.091552734375
4.3874999,0.545877993106842,-0.32680854201316833,9.847352027893066,5.43212890625,-0.152587890625,-1.89208984375
4.3924999,0.30705636739730835,-0.25977087020874023,9.888651847839355,-1.068115234375,-0.274658203125,2.166748046875
4.397499900000001,0.46507367491722107,-0.28790274262428284,9.519346237182617,-4.45556640625,-0.518798828125,-1.007080078125
4.4024999000000005,0.557250440120697,-0.3082534670829773,9.654019355773926,-3.204345703125,-0.030517578125,-1.40380859375
4.4074999,0.5464765429496765,-0.33518823981285095,10.052056312561035,6.4697265625,0.701904296875,-1.007080078125
4.4124999,0.345363587141037,-0.2687491476535797,9.820416450500488,-3.84521484375,0.213623046875,1.5869140625
4.4174999,0.5692214369773865,-0.31364041566848755,9.598953247070312,-1.495361328125,0.1220703125,-2.166748046875
4.4224999,0.4465186297893524,-0.304063618183136,9.973047256469727,5.889892578125,0.244140625,-0.18310546875
4.4274999,0.3100491166114807,-0.2651578485965729,9.682151794433594,-5.462646484375,-0.274658203125,1.495361328125
4.4324999,0.5015852451324463,-0.27413609623908997,9.582193374633789,-0.091552734375,-0.79345703125,-2.62451171875
4.437499900000001,0.36571431159973145,-0.24660277366638184,9.94970417022705,5.096435546875,0.3662109375,0.8544921875
4.4424999000000005,0.26575639843940735,-0.2172738015651703,9.616311073303223,-6.195068359375,-0.1220703125,1.373291015625
4.4474999,0.46327802538871765,-0.23283611238002777,9.675567626953125,2.227783203125,-0.213623046875,-2.777099609375
4.4524999,0.353743314743042,-0.2555810213088989,9.990405082702637,3.692626953125,0.06103515625,1.251220703125
4.4574999,0.32620999217033386,-0.2519897222518921,9.603142738342285,-5.950927734375,0.1220703125,0.762939453125
4.4624999,0.5590460896492004,-0.3250128924846649,9.679159164428711,4.180908203125,0.244140625,-2.74658203125
4.4674999,0.38965633511543274,-0.2759317457675934,9.947309494018555,2.044677734375,0.1220703125,1.373291015625
4.4724999,0.406415730714798,-0.2849099934101105,9.510367393493652,-6.195068359375,-0.06103515625,0
4.477499900000001,0.6015431880950928,-0.3280056416988373,9.815628051757812,5.157470703125,0.244140625,-2.044677734375
4.4824999000000005,0.37888240814208984,-0.27054479718208313,9.905410766601562,-0.091552734375,0.3662109375,1.800537109375
4.4874999,0.47584760189056396,-0.27653029561042786,9.510966300964355,-5.096435546875,-0.335693359375,-0.823974609375
4.4924999,0.5913678407669067,-0.3357867896556854,9.848548889160156,6.40869140625,0.640869140625,-1.617431640625
4.4974999,0.3076549172401428,-0.23283611238002777,9.865307807922363,-1.46484375,-0.06103515625,1.953125
4.5024999,0.4854243993759155,-0.26994624733924866,9.55825138092041,-4.0283203125,-0.518798828125,-1.708984375
4.5074999,0.5207388401031494,-0.3513490855693817,10.005967140197754,6.4697265625,0.244140625,-1.495361328125
4.5124999,0.2992752194404602,-0.26994624733924866,9.831191062927246,-3.387451171875,-0.152587890625,2.197265625
4.5174999,0.4273650050163269,-0.3172317147254944,10.028712272644043,5.7373046875,0.640869140625,0.091552734375
4.522499900000001,0.3214215636253357,-0.2717418968677521,9.674370765686035,-5.706787109375,-0.091552734375,1.495361328125
4.5274999000000005,0.5033808946609497,-0.26755204796791077,9.660603523254395,1.434326171875,0.48828125,-2.593994140625
4.5324999,0.353743314743042,-0.2621650993824005,9.99459457397461,4.302978515625,0.3662109375,0.762939453125
4.5374999,0.26575639843940735,-0.2172738015651703,9.635464668273926,-6.378173828125,-0.518798828125,0.762939453125
4.5424999,0.4866214990615845,-0.2998737692832947,9.691728591918945,3.448486328125,-0.091552734375,-2.899169921875
4.5474999,0.345363587141037,-0.2693476974964142,9.9185791015625,3.021240234375,0.091552734375,1.434326171875
4.5524999,0.3477577865123749,-0.2777273952960968,9.494206428527832,-5.67626953125,0.48828125,0.18310546875
4.5574999,0.5644330382347107,-0.33099839091300964,9.688735961914062,4.791259765625,0.335693359375,-2.838134765625
4.562499900000001,0.4297592043876648,-0.27054479718208313,9.503783226013184,-5.828857421875,-0.30517578125,-0.457763671875
4.5674999000000005,0.4297592043876648,-0.27054479718208313,9.503783226013184,-5.828857421875,-0.30517578125,-0.457763671875
4.5724999,0.5781996846199036,-0.35075053572654724,9.828198432922363,5.767822265625,0.396728515625,-2.227783203125
4.5774999,0.3256114423274994,-0.2406172752380371,9.882665634155273,-0.946044921875,0.06103515625,1.922607421875
4.5824999,0.4602852761745453,-0.27653029561042786,9.517550468444824,-4.45556640625,-0.54931640625,-1.190185546875
4.5874999,0.517746090888977,-0.33279404044151306,9.964667320251465,6.317138671875,0.06103515625,-1.3427734375
4.5924999,0.2651578485965729,-0.23104046285152435,9.9000244140625,-2.899169921875,-0.030517578125,1.89208984375
4.5974999,0.5165489912033081,-0.2968810200691223,9.659406661987305,-2.838134765625,-0.030517578125,-1.8310546875
4.602499900000001,0.4842272996902466,-0.3345896899700165,10.046669006347656,6.591796875,-0.091552734375,-0.67138671875
4.6074999000000005,0.3172317147254944,-0.24899697303771973,9.825204849243164,-4.45556640625,-0.335693359375,1.800537109375
4.6124999,0.5596446394920349,-0.29807811975479126,9.598953247070312,-1.40380859375,-0.1220703125,-2.44140625
4.6174999,0.46327802538871765,-0.28969839215278625,9.967061996459961,5.645751953125,0.06103515625,0.091552734375
4.6224999,0.5392939448356628,-0.27413609623908997,9.576807022094727,0.9765625,0.457763671875,-2.50244140625
4.6274999,0.39145198464393616,-0.2585737705230713,9.932944297790527,4.82177734375,0.396728515625,0.48828125
4.6324999,0.2783259451389313,-0.23343466222286224,9.586383819580078,-6.40869140625,0.06103515625,1.617431640625
4.6374999,0.48063600063323975,-0.2783259451389313,9.673771858215332,2.655029296875,0.030517578125,-2.86865234375
4.6424999,0.35673606395721436,-0.25079262256622314,9.968857765197754,1.77001953125,-0.091552734375,1.3427734375
4.647499900000001,0.4141969084739685,-0.2753331959247589,9.522936820983887,-5.218505859375,0,-0.213623046875
4.6524999000000005,0.5943605899810791,-0.3495534360408783,9.830592155456543,5.462646484375,0.48828125,-1.8310546875
4.6574999,0.3693056106567383,-0.25737667083740234,9.881468772888184,-0.213623046875,0.42724609375,2.166748046875
4.6624999,0.48722004890441895,-0.2711433470249176,9.505578994750977,-5.218505859375,0.335693359375,-0.823974609375
4.6674999,0.2861070930957794,-0.21368250250816345,9.88506031036377,-2.3193359375,0.152587890625,2.166748046875
4.6724999,0.5021837949752808,-0.2992752194404602,9.639654159545898,-3.5400390625,-0.518798828125,-1.5869140625
4.6774999,0.49380409717559814,-0.35673606395721436,10.011354446411133,6.34765625,0.213623046875,-1.312255859375
4.6824999,0.29628247022628784,-0.2717418968677521,9.808445930480957,-3.814697265625,-0.335693359375,2.0751953125
4.687499900000001,0.5452794432640076,-0.3447650372982025,9.589376449584961,-1.922607421875,-0.152587890625,-1.953125
4.6924999000000005,0.4423287510871887,-0.32381579279899597,9.942521095275879,6.256103515625,0.274658203125,-0.274658203125
4.6974999,0.30526071786880493,-0.2753331959247589,9.731831550598145,-5.126953125,0.1220703125,1.708984375
4.7024999,0.5171475410461426,-0.3148375153541565,9.606135368347168,0.213623046875,-0.244140625,-2.5634765625
4.7074999,0.3932476341724396,-0.2944868206977844,9.97065258026123,5.218505859375,0.06103515625,0.396728515625
4.7124999,0.2992752194404602,-0.26994624733924866,9.638457298278809,-6.011962890625,-0.30517578125,0.946044921875
4.7174999,0.48901569843292236,-0.28131869435310364,9.636661529541016,1.953125,-0.152587890625,-2.8076171875
4.7224999,0.5716156363487244,-0.3100491166114807,9.788095474243164,5.096435546875,0.30517578125,-2.227783203125
4.727499900000001,0.5716156363487244,-0.3100491166114807,9.788095474243164,5.096435546875,0.30517578125,-2.227783203125
4.7324999000000005,0.34656068682670593,-0.2322375625371933,9.955090522766113,0.1220703125,0.152587890625,1.89208984375
4.7374999,0.4423287510871887,-0.2579752206802368,9.535507202148438,-5.401611328125,-1.068115234375,-0.67138671875
4.7424999,0.5668272376060486,-0.333991140127182,9.932345390319824,5.7373046875,-0.396728515625,-1.800537109375
4.7474999,0.3010708689689636,-0.2190694510936737,9.922170639038086,-1.953125,-0.213623046875,1.922607421875
4.7524999,0.48961424827575684,-0.30047231912612915,9.613917350769043,-4.058837890625,-0.244140625,-1.40380859375
4.7574999,0.5351040959358215,-0.32680854201316833,10.023923873901367,6.927490234375,0.48828125,-1.373291015625
4.7624999,0.3196259140968323,-0.2693476974964142,9.832986831665039,-3.143310546875,0.06103515625,1.922607421875
4.7674999,0.569819986820221,-0.33279404044151306,9.621698379516602,-1.800537109375,0.274658203125,-2.0751953125
4.772499900000001,0.42616790533065796,-0.262763649225235,9.9371337890625,5.523681640625,0.3662109375,0.244140625
4.7774999000000005,0.31184476613998413,-0.2825157940387726,9.575610160827637,-5.950927734375,0.030517578125,1.5869140625
4.7824999,0.5021837949752808,-0.28311434388160706,9.57441234588623,1.89208984375,0.335693359375,-2.74658203125
4.7874999,0.36092591285705566,-0.2364274114370346,9.930550575256348,4.39453125,0.152587890625,0.79345703125
4.7924999,0.2944868206977844,-0.23762452602386475,9.596558570861816,-6.40869140625,0.1220703125,1.220703125
4.7974999,0.5225345492362976,-0.29209262132644653,9.688735961914062,3.143310546875,-0.06103515625,-2.410888671875
4.8024999,0.3758896589279175,-0.23762452602386475,9.930550575256348,2.166748046875,-0.18310546875,1.190185546875
4.8074999,0.37169981002807617,-0.2932897210121155,9.49001693725586,-6.4697265625,-0.213623046875,0.091552734375
4.812499900000001,0.5728127360343933,-0.30526071786880493,9.708487510681152,4.974365234375,0.244140625,-2.197265625
4.8174999000000005,0.3489548861980438,-0.25438392162323,9.909002304077148,0.701904296875,0.244140625,1.739501953125
4.8224999,0.536899745464325,-0.3495534360408783,9.616311073303223,-2.532958984375,-0.091552734375,-1.861572265625
4.8274999,0.48482584953308105,-0.322618693113327,10.02691650390625,6.103515625,0.18310546875,-1.03759765625
4.8324999,0.31842881441116333,-0.292691171169281,9.785700798034668,-4.852294921875,0.030517578125,2.0751953125
4.8374999,0.5464765429496765,-0.3423708379268646,9.603142738342285,-0.518798828125,-0.335693359375,-2.227783203125
4.8424999,0.44831427931785583,-0.29388827085494995,9.984419822692871,5.645751953125,0.3662109375,-0.091552734375
4.8474999,0.3250128924846649,-0.31543606519699097,9.625887870788574,-5.4931640625,-0.06103515625,1.556396484375
4.852499900000001,0.5165489912033081,-0.2890998423099518,9.618106842041016,1.3427734375,0.335693359375,-2.50244140625
4.8574999000000005,0.27413609623908997,-0.24121582508087158,9.621099472045898,-6.378173828125,-0.518798828125,0.79345703125
4.8624999,0.49320554733276367,-0.27712884545326233,9.713874816894531,3.021240234375,0.48828125,-2.9296875
4.8674999,0.3579331636428833,-0.24779987335205078,9.958083152770996,2.899169921875,0.30517578125,1.52587890625
4.8724999,0.3477577865123749,-0.28969839215278625,9.542689323425293,-6.317138671875,-0.79345703125,0.30517578125
4.8774999,0.5680243372917175,-0.29388827085494995,9.715670585632324,4.638671875,0.152587890625,-2.838134765625
4.8824999,0.345363587141037,-0.24001872539520264,9.938929557800293,1.129150390625,0.091552734375,2.01416015625
4.8874999,0.414795458316803,-0.28131869435310364,9.519944190979004,-5.767822265625,-0.091552734375,-0.152587890625
4.8924999,0.5781996846199036,-0.31543606519699097,9.820416450500488,5.706787109375,0.18310546875,-2.44140625
4.897499900000001,0.34177228808403015,-0.2717418968677521,9.8784761428833,-0.762939453125,0.18310546875,2.166748046875
4.9024999000000005,0.47644615173339844,-0.30705636739730835,9.48762321472168,-4.5166015625,0,-0.91552734375
4.9074999,0.5554547905921936,-0.3208230137825012,9.923966407775879,6.439208984375,0.06103515625,-1.708984375
4.9124999,0.2890998423099518,-0.25977087020874023,9.865307807922363,-2.716064453125,-0.213623046875,1.89208984375
4.9174999,0.3196259140968323,-0.2783259451389313,9.677363395690918,-5.55419921875,-0.3662109375,1.52587890625
4.9224999,0.5093663930892944,-0.2753331959247589,9.573814392089844,0.518798828125,-0.213623046875,-2.655029296875
4.9274999,0.3860650360584259,-0.23403321206569672,9.943717956542969,5.0048828125,0.213623046875,0.396728515625
4.9324999,0.2867056429386139,-0.25438392162323,9.589376449584961,-6.256103515625,0.030517578125,1.40380859375
4.937499900000001,0.48961424827575684,-0.26994624733924866,9.640851974487305,2.349853515625,0,-2.38037109375
4.9424999000000005,0.3734954595565796,-0.25318682193756104,9.973047256469727,3.41796875,0.457763671875,0.8544921875
4.9474999,0.333991140127182,-0.28550854325294495,9.576807022094727,-6.16455078125,-0.18310546875,0.54931640625
4.9524999,0.5506663918495178,-0.3034650683403015,9.718663215637207,4.180908203125,0.06103515625,-2.532958984375
4.9574999,0.36152446269989014,-0.25318682193756104,9.984419822692871,1.739501953125,0.3662109375,1.46484375
4.9624999,0.3824737071990967,-0.2932897210121155,9.531316757202148,-5.615234375,-0.06103515625,-0.244140625
4.9674999,0.5752069354057312,-0.32022446393966675,9.846753120422363,5.31005859375,0.1220703125,-2.288818359375
4.9724999,0.34177228808403015,-0.28969839215278625,9.913790702819824,-0.48828125,0.244140625,2.0751953125
4.977499900000001,0.4513070285320282,-0.32381579279899597,9.519346237182617,-5.035400390625,-0.335693359375,-1.129150390625
4.9824999000000005,0.5578489899635315,-0.34416648745536804,9.891644477844238,6.16455078125,0.030517578125,-1.953125
4.9874999,0.2651578485965729,-0.26396074891090393,9.864709854125977,-2.166748046875,-0.335693359375,2.38037109375
4.9924999,0.4818331003189087,-0.3214215636253357,9.601945877075195,-3.753662109375,-0.3662109375,-1.5869140625
4.9974999,0.4967968463897705,-0.31783026456832886,9.983820915222168,5.9814453125,-0.244140625,-1.312255859375
5.0024999,0.3034650683403015,-0.2992752194404602,9.806650161743164,-3.96728515625,-0.30517578125,2.166748046875
5.0074999,0.5692214369773865,-0.345363587141037,9.583391189575195,-2.13623046875,0.3662109375,-1.861572265625
5.0124999,0.4854243993759155,-0.3016694188117981,9.955689430236816,6.28662109375,0.396728515625,-0.48828125
5.0174999,0.34596213698387146,-0.292691171169281,9.748590469360352,-4.94384765625,0.091552734375,1.617431640625
5.022499900000001,0.32202014327049255,-0.292691171169281,9.624691009521484,-5.55419921875,0,1.15966796875
5.0274999000000005,0.4991910457611084,-0.26815059781074524,9.61571216583252,1.40380859375,-0.48828125,-2.99072265625
5.0324999,0.35075053572654724,-0.2406172752380371,9.958083152770996,3.84521484375,-0.091552734375,1.03759765625
5.0374999,0.2783259451389313,-0.23822307586669922,9.601945877075195,-6.7138671875,-0.213623046875,0.885009765625
5.0424999,0.5847837924957275,-0.3214215636253357,9.792284965515137,5.31005859375,0.30517578125,-2.38037109375
5.0474999,0.36810851097106934,-0.2711433470249176,9.97065258026123,0.54931640625,0.1220703125,1.556396484375
5.0524999,0.4507084786891937,-0.29807811975479126,9.55466079711914,-5.157470703125,-0.244140625,-0.48828125
5.0574999,0.3172317147254944,-0.2693476974964142,9.895236015319824,-1.373291015625,0.030517578125,1.800537109375
5.062499900000001,0.46088382601737976,-0.3034650683403015,9.5223388671875,-3.997802734375,0.518798828125,-1.28173828125
5.0674999000000005,0.52552729845047,-0.3214215636253357,9.960477828979492,6.622314453125,0.213623046875,-1.46484375
5.0724999,0.28311434388160706,-0.2693476974964142,9.84615421295166,-2.99072265625,-0.06103515625,1.983642578125
5.0774999,0.547075092792511,-0.30047231912612915,9.63187313079834,-2.5634765625,-0.213623046875,-2.13623046875
5.0824999,0.48961424827575684,-0.3058592677116394,10.035296440124512,6.317138671875,0.48828125,-0.823974609375
5.0874999,0.3130418658256531,-0.24779987335205078,9.813234329223633,-4.364013671875,0.30517578125,2.105712890625
5.0924999,0.5398924946784973,-0.2932897210121155,9.622296333312988,-1.068115234375,-0.518798828125,-2.471923828125
5.0974999,0.4297592043876648,-0.26994624733924866,9.999382972717285,5.55419921875,0.06103515625,-0.42724609375
5.102499900000001,0.31184476613998413,-0.2663549482822418,9.642647743225098,-5.828857421875,-0.640869140625,1.739501953125
5.1074999000000005,0.4967968463897705,-0.2645592987537384,9.618106842041016,1.77001953125,0.579833984375,-2.471923828125
5.1124999,0.3579331636428833,-0.24480712413787842,9.97364616394043,4.57763671875,-0.091552734375,0.457763671875
5.1174999,0.49559974670410156,-0.28371289372444153,9.68694019317627,2.685546875,-0.152587890625,-2.5634765625
5.1224999,0.3711012601852417,-0.29149407148361206,9.532513618469238,-6.40869140625,-0.396728515625,0.18310546875
5.1274999,0.5883750915527344,-0.31364041566848755,9.697713851928711,4.547119140625,0.823974609375,-2.655029296875
5.1324999,0.37169981002807617,-0.24839842319488525,9.950302124023438,1.3427734375,0.8544921875,2.01416015625
5.1374999,0.4225766062736511,-0.2735375463962555,9.52473258972168,-5.706787109375,0.152587890625,-0.42724609375
5.1424999,0.5781996846199036,-0.33099839091300964,9.852140426635742,5.79833984375,0.396728515625,-2.532958984375
5.147499900000001,0.33099839091300964,-0.2711433470249176,9.90122127532959,-0.3662109375,0.244140625,2.288818359375
5.1524999000000005,0.33099839091300964,-0.2711433470249176,9.90122127532959,-0.3662109375,0.244140625,2.288818359375
5.1574999,0.4423287510871887,-0.30226796865463257,9.531316757202148,-4.7607421875,-0.06103515625,-1.007080078125
5.1624999,0.5171475410461426,-0.3405751883983612,9.935338973999023,6.04248046875,-0.1220703125,-1.77001953125
5.1674999,0.24779987335205078,-0.24839842319488525,9.891045570373535,-2.532958984375,-0.091552734375,2.227783203125
5.1724999,0.5279214978218079,-0.2885012924671173,9.579200744628906,0.67138671875,0.6103515625,-2.685546875
5.1774999,0.39564183354377747,-0.23822307586669922,9.959878921508789,5.218505859375,0.6103515625,0.335693359375
5.1824999,0.292691171169281,-0.24660277366638184,9.619902610778809,-6.195068359375,0.030517578125,1.40380859375
5.187499900000001,0.4812345504760742,-0.2579752206802368,9.655815124511719,2.593994140625,0.335693359375,-2.8076171875
5.1924999000000005,0.36152446269989014,-0.228047713637352,10.005369186401367,3.692626953125,0.213623046875,0.946044921875
5.1974999,0.31603461503982544,-0.23762452602386475,9.610325813293457,-6.378173828125,-0.3662109375,0.640869140625
5.2024999,0.35015198588371277,-0.23343466222286224,9.988011360168457,1.983642578125,0,1.28173828125
5.2074999,0.5692214369773865,-0.3232172429561615,9.82759952545166,5.401611328125,0.030517578125,-2.227783203125
5.2124999,0.5692214369773865,-0.3232172429561615,9.82759952545166,5.401611328125,0.030517578125,-2.227783203125
5.2174999,0.35733461380004883,-0.28072014451026917,9.924564361572266,-0.091552734375,0.1220703125,1.89208984375
5.2224999,0.4728548228740692,-0.30526071786880493,9.519346237182617,-5.31005859375,-0.67138671875,-0.91552734375
5.227499900000001,0.5913678407669067,-0.34596213698387146,9.9000244140625,6.256103515625,0.579833984375,-2.01416015625
5.2324999000000005,0.3016694188117981,-0.25019407272338867,9.884461402893066,-1.739501953125,0.06103515625,2.25830078125
5.2374999,0.4950011968612671,-0.3064578175544739,9.595361709594727,-4.0283203125,-0.213623046875,-1.40380859375
5.2424999,0.5123591423034668,-0.32202014327049255,10.017938613891602,6.378173828125,0.640869140625,-1.64794921875
5.2474999,0.29388827085494995,-0.272938996553421,9.833584785461426,-3.5400390625,0.30517578125,2.166748046875
5.2524999,0.5506663918495178,-0.32620999217033386,9.649829864501953,-1.953125,-0.335693359375,-1.64794921875
5.2574999,0.45908817648887634,-0.2950853705406189,10.014347076416016,6.103515625,-0.152587890625,-0.885009765625
5.2624999,0.3130418658256531,-0.25917232036590576,9.821614265441895,-5.218505859375,-0.762939453125,1.556396484375
5.2674999,0.42856210470199585,-0.2561795711517334,10.007762908935547,5.55419921875,0.244140625,0.457763671875
