# Time (seconds),Accel_X,Accel_Y,Accel_Z,Gyro_X,Gyro_Y,Gyro_Z
0.0024999,0.5171475410461426,-0.24480712413787842,9.64564037322998,0.42724609375,-1.0986328125,-2.8076171875
0.0074999,0.5171475410461426,-0.24480712413787842,9.64564037322998,0.42724609375,-1.0986328125,-2.8076171875
0.012499900000000001,0.5171475410461426,-0.24480712413787842,9.64564037322998,0.42724609375,-1.0986328125,-2.8076171875
0.0174999,0.38726213574409485,-0.2651578485965729,10.007762908935547,4.69970703125,-0.48828125,0.335693359375
0.0224999,0.2825157940387726,-0.2059013396501541,9.68274974822998,-5.615234375,-0.274658203125,1.373291015625
0.0274999,0.45848962664604187,-0.20769700407981873,9.697115898132324,1.89208984375,0.457763671875,-2.655029296875
0.0324999,0.345363587141037,-0.25438392162323,10.002376556396484,3.7841796875,-0.3662109375,0.823974609375
0.0374999,0.28371289372444153,-0.23702596127986908,9.634865760803223,-6.134033203125,-0.274658203125,0.732421875
0.0424999,0.3663128614425659,-0.29568392038345337,9.944915771484375,3.0517578125,-0.213623046875,1.15966796875
0.0474999,0.3208230137825012,-0.2753331959247589,9.583989143371582,-6.195068359375,-0.18310546875,0.518798828125
0.0524999,0.5213374495506287,-0.30705636739730835,9.725846290588379,3.509521484375,0.152587890625,-2.593994140625
0.0574999,0.33039984107017517,-0.2585737705230713,10.010157585144043,1.708984375,-0.335693359375,1.46484375
0.0624999,0.34416648745536804,-0.25438392162323,9.61331844329834,-5.9814453125,0.152587890625,0.1220703125
0.0674999,0.5440823435783386,-0.30286651849746704,9.84256362915039,4.8828125,1.190185546875,-2.3193359375
0.0724999,0.33698388934135437,-0.27234044671058655,9.991601943969727,0.91552734375,-0.06103515625,1.800537109375
0.0774999,0.4315548539161682,-0.29388827085494995,9.57321548461914,-5.035400390625,0.457763671875,-0.48828125
0.0824999,0.5793967843055725,-0.3645172119140625,9.82879638671875,6.16455078125,1.617431640625,-2.13623046875
0.0874999,0.33758243918418884,-0.2801215946674347,9.872490882873535,0.152587890625,-0.213623046875,1.739501953125
0.0924999,0.4423287510871887,-0.25917232036590576,9.519346237182617,-4.82177734375,-0.1220703125,-0.91552734375
0.0974999,0.5249287486076355,-0.3010708689689636,9.873088836669922,5.859375,0.9765625,-1.77001953125
0.1024999,0.43335050344467163,-0.25737667083740234,9.619902610778809,-3.997802734375,0.213623046875,-1.28173828125
0.1074999,0.4991910457611084,-0.3411737382411957,10.028712272644043,6.134033203125,0.18310546875,-1.373291015625
0.1124999,0.2693476974964142,-0.284311443567276,9.911994934082031,-2.471923828125,-0.42724609375,2.01416015625
0.1174999,0.5219359993934631,-0.3106476664543152,9.618705749511719,-3.173828125,-0.274658203125,-1.495361328125
0.1224999,0.48901569843292236,-0.3321954905986786,9.95748519897461,5.859375,0.244140625,-0.946044921875
0.1274999,0.2968810200691223,-0.25079262256622314,9.77672290802002,-3.753662109375,0,1.89208984375
0.1324999,0.5237316489219666,-0.27473464608192444,9.573814392089844,-1.373291015625,0.6103515625,-2.227783203125
0.1374999,0.424970805644989,-0.2801215946674347,9.93474006652832,6.011962890625,-0.42724609375,-0.79345703125
0.1424999,0.2849099934101105,-0.24241292476654053,9.782708168029785,-4.425048828125,-0.9765625,1.5869140625
0.1474999,0.5231330990791321,-0.2861070930957794,9.626486778259277,-0.30517578125,0.518798828125,-2.349853515625
0.1524999,0.42018240690231323,-0.28550854325294495,9.98681354522705,5.7373046875,-0.244140625,-0.1220703125
0.1574999,0.32860419154167175,-0.2651578485965729,9.688735961914062,-5.37109375,-0.91552734375,1.77001953125
0.1624999,0.44412440061569214,-0.21308395266532898,9.567828178405762,2.197265625,2.74658203125,-2.5634765625
0.1674999,0.35254621505737305,-0.23163901269435883,9.941922187805176,4.425048828125,0.91552734375,0.8544921875
0.1724999,0.27892449498176575,-0.23822307586669922,9.603741645812988,-6.103515625,0.42724609375,1.068115234375
0.17749990000000002,0.49559974670410156,-0.3064578175544739,9.668983459472656,2.655029296875,0.42724609375,-2.655029296875
0.1824999,0.3705027103424072,-0.30286651849746704,9.955689430236816,2.9296875,0.091552734375,1.0986328125
0.1874999,0.3208230137825012,-0.314238965511322,9.59476375579834,-6.317138671875,0.030517578125,0.54931640625
0.1924999,0.5261258482933044,-0.3214215636253357,9.731831550598145,3.631591796875,-0.48828125,-2.50244140625
0.1974999,0.3321954905986786,-0.2513911724090576,10.017938613891602,1.678466796875,-0.762939453125,1.373291015625
0.2024999,0.3471592366695404,-0.24600422382354736,9.619303703308105,-6.256103515625,-0.6103515625,0.06103515625
0.20749990000000001,0.3429693877696991,-0.22086510062217712,10.005967140197754,1.15966796875,0.152587890625,1.77001953125
0.2124999,0.4273650050163269,-0.25977087020874023,9.580398559570312,-5.31005859375,0.335693359375,-0.274658203125
0.2174999,0.5841852426528931,-0.32441434264183044,9.82999324798584,5.06591796875,-1.220703125,-2.38037109375
0.2224999,0.34177228808403015,-0.27892449498176575,9.858723640441895,-0.213623046875,-0.79345703125,1.739501953125
0.2274999,0.43035775423049927,-0.2867056429386139,9.481637001037598,-4.302978515625,1.52587890625,-0.885009765625
0.2324999,0.50876784324646,-0.3124433159828186,9.820416450500488,5.584716796875,-0.30517578125,-1.800537109375
0.2374999,0.2406172752380371,-0.2298433631658554,9.871294021606445,-1.89208984375,-0.762939453125,1.983642578125
0.2424999,0.4082113802433014,-0.26815059781074524,9.554061889648438,-4.119873046875,-0.18310546875,-1.28173828125
0.2474999,0.4902127981185913,-0.3034650683403015,9.97065258026123,6.195068359375,1.0986328125,-1.3427734375
0.2524999,0.2783259451389313,-0.28730419278144836,9.883264541625977,-2.50244140625,-0.18310546875,1.983642578125
0.2574999,0.5404910445213318,-0.32680854201316833,9.619303703308105,-3.0517578125,-0.54931640625,-1.77001953125
0.2624999,0.5153518915176392,-0.333991140127182,9.952696800231934,5.889892578125,-0.274658203125,-1.129150390625
0.2674999,0.4231751561164856,-0.2669534981250763,9.932345390319824,6.134033203125,-0.244140625,-0.640869140625
0.2724999,0.2651578485965729,-0.2495955228805542,9.770736694335938,-4.730224609375,-0.48828125,1.77001953125
0.2774999,0.5021837949752808,-0.2998737692832947,9.621698379516602,-0.6103515625,1.678466796875,-2.166748046875
0.2824999,0.4183867573738098,-0.26755204796791077,9.989208221435547,5.37109375,-0.42724609375,-0.1220703125
0.28749990000000003,0.3172317147254944,-0.3100491166114807,9.706692695617676,-5.767822265625,-1.007080078125,1.77001953125
0.2924999,0.5225345492362976,-0.29867666959762573,9.621099472045898,0.48828125,0.274658203125,-2.62451171875
0.2974999,0.39384618401527405,-0.25079262256622314,9.964069366455078,5.279541015625,1.0986328125,0.457763671875
0.3024999,0.2849099934101105,-0.24420857429504395,9.671378135681152,-5.218505859375,0.67138671875,1.434326171875
0.3074999,0.4531026780605316,-0.22385786473751068,9.673172950744629,1.861572265625,0.67138671875,-2.716064453125
0.3124999,0.33758243918418884,-0.2059013396501541,10.023324966430664,4.302978515625,-0.030517578125,0.79345703125
0.3174999,0.25498247146606445,-0.2495955228805542,9.660603523254395,-6.072998046875,-0.396728515625,1.0986328125
0.3224999,0.3627215623855591,-0.28550854325294495,9.971850395202637,3.326416015625,0,1.129150390625
0.3274999,0.33039984107017517,-0.322618693113327,9.582792282104492,-6.011962890625,-0.701904296875,0.42724609375
0.3324999,0.5488707423210144,-0.30226796865463257,9.680954933166504,4.150390625,1.312255859375,-2.62451171875
0.3374999,0.365115761756897,-0.24660277366638184,9.95329475402832,1.89208984375,-0.518798828125,1.495361328125
0.3424999,0.3603273630142212,-0.26396074891090393,9.54209041595459,-6.65283203125,-0.54931640625,0.1220703125
0.34749990000000003,0.5446808934211731,-0.25258827209472656,9.767744064331055,4.69970703125,0.91552734375,-2.655029296875
0.35249990000000003,0.33518823981285095,-0.24361002445220947,9.967061996459961,1.15966796875,0,1.5869140625
0.3574999,0.4118026793003082,-0.28371289372444153,9.554061889648438,-5.126953125,-0.48828125,-0.6103515625
0.3624999,0.5692214369773865,-0.3106476664543152,9.824007987976074,4.7607421875,-0.640869140625,-2.227783203125
0.3674999,0.3387795388698578,-0.2867056429386139,9.86650562286377,-0.823974609375,-0.30517578125,2.044677734375
0.3724999,0.42676645517349243,-0.32680854201316833,9.494805335998535,-4.57763671875,0.54931640625,-0.701904296875
0.3774999,0.5135562419891357,-0.3034650683403015,9.832387924194336,6.2255859375,0.30517578125,-2.0751953125
0.3824999,0.4926069974899292,-0.2603694200515747,10.032303810119629,6.2255859375,0.946044921875,-1.46484375
0.3874999,0.26096799969673157,-0.2759317457675934,9.941922187805176,-2.62451171875,0.18310546875,2.166748046875
0.3924999,0.5045779943466187,-0.333991140127182,9.650428771972656,-2.838134765625,0.457763671875,-1.64794921875
0.3974999,0.5045779943466187,-0.28730419278144836,9.979631423950195,6.40869140625,-1.190185546875,-1.64794921875
0.4024999,0.29149407148361206,-0.3232172429561615,9.798270225524902,-3.47900390625,-1.5869140625,1.617431640625
0.4074999,0.5111620426177979,-0.32620999217033386,9.586383819580078,-1.5869140625,1.190185546875,-1.739501953125
0.41249990000000003,0.4183867573738098,-0.23762452602386475,9.937732696533203,6.04248046875,0.48828125,-0.54931640625
0.41749990000000003,0.24420857429504395,-0.28311434388160706,9.763554573059082,-4.730224609375,-0.1220703125,1.922607421875
0.4224999,0.4878185987472534,-0.284311443567276,9.61571216583252,-1.28173828125,-1.15966796875,-2.471923828125
0.4274999,0.40282443165779114,-0.24361002445220947,9.954492568969727,5.67626953125,-0.1220703125,-0.274658203125
0.4324999,0.3124433159828186,-0.3345896899700165,9.71926212310791,-5.126953125,-0.640869140625,1.8310546875
0.4374999,0.32860419154167175,-0.2968810200691223,9.68813705444336,-5.523681640625,-0.579833984375,1.495361328125
0.4424999,0.48063600063323975,-0.19692309200763702,9.70429801940918,1.434326171875,0.518798828125,-2.50244140625
0.4474999,0.3579331636428833,-0.2322375625371933,10.054450035095215,4.547119140625,0.1220703125,0.518798828125
0.4524999,0.262763649225235,-0.19931729137897491,9.727641105651855,-5.4931640625,-0.79345703125,0.79345703125
0.4574999,0.4531026780605316,-0.2106897532939911,9.746196746826172,1.89208984375,-0.8544921875,-2.593994140625
0.4624999,0.36332011222839355,-0.304063618183136,10.00836181640625,3.2958984375,-0.457763671875,1.03759765625
0.4674999,0.32022446393966675,-0.2555810213088989,9.613917350769043,-6.2255859375,0,0.823974609375
0.47249990000000003,0.5297171473503113,-0.32022446393966675,9.66299819946289,3.143310546875,0.67138671875,-2.50244140625
0.47749990000000003,0.3842693865299225,-0.30705636739730835,9.911396026611328,2.288818359375,-0.67138671875,1.3427734375
0.4824999,0.35254621505737305,-0.26575639843940735,9.530119895935059,-6.072998046875,-0.457763671875,0.457763671875
0.4874999,0.5398924946784973,-0.29807811975479126,9.709086418151855,4.33349609375,0.79345703125,-2.44140625
0.4924999,0.3842693865299225,-0.25438392162323,9.583989143371582,-5.43212890625,0.8544921875,0.06103515625
0.4974999,0.5626373887062073,-0.32381579279899597,9.82999324798584,4.852294921875,0.9765625,-2.166748046875
0.5024999,0.3363853394985199,-0.29388827085494995,9.938331604003906,-0.091552734375,-0.396728515625,1.861572265625
0.5074999,0.43514615297317505,-0.29568392038345337,9.543288230895996,-5.06591796875,-0.3662109375,-0.67138671875
0.5124999,0.5392939448356628,-0.35494041442871094,9.841964721679688,5.523681640625,0.8544921875,-2.044677734375
0.5174999,0.2861070930957794,-0.2579752206802368,9.906009674072266,-0.885009765625,-0.54931640625,1.8310546875
0.5224999,0.4082113802433014,-0.228047713637352,9.561244010925293,-4.45556640625,-0.091552734375,-1.03759765625
0.5274999,0.4884171485900879,-0.2932897210121155,9.963470458984375,5.615234375,-0.18310546875,-1.861572265625
0.5324999,0.2406172752380371,-0.2041056901216507,9.922768592834473,-2.25830078125,-0.732421875,2.0751953125
0.5374999,0.4710591733455658,-0.25019407272338867,9.649829864501953,-3.509521484375,-0.42724609375,-1.28173828125
0.5424999,0.5033808946609497,-0.32680854201316833,9.998186111450195,6.591796875,1.40380859375,-1.129150390625
0.5474999,0.3124433159828186,-0.2651578485965729,9.888052940368652,-2.777099609375,0.091552734375,2.0751953125
0.5524999,0.48243165016174316,-0.3130418658256531,9.981427192687988,6.40869140625,0.579833984375,-0.885009765625
0.5574999,0.2908954918384552,-0.22625206410884857,9.787496566772461,-3.60107421875,-0.396728515625,1.922607421875
0.5624999,0.5183446407318115,-0.26096799969673157,9.599552154541016,-1.251220703125,-0.54931640625,-1.89208984375
0.5674999000000001,0.41718965768814087,-0.3016694188117981,9.95329475402832,5.462646484375,-0.9765625,-0.335693359375
0.5724999000000001,0.3148375153541565,-0.26815059781074524,9.754576683044434,-5.157470703125,-1.28173828125,1.678466796875
0.5774999000000001,0.5392939448356628,-0.29867666959762573,9.616909980773926,-0.762939453125,-0.946044921875,-2.44140625
0.5824999,0.4339490532875061,-0.32620999217033386,9.982025146484375,4.8828125,-0.946044921875,-0.06103515625
0.5874999,0.3250128924846649,-0.27473464608192444,9.680954933166504,-5.645751953125,-1.068115234375,1.251220703125
0.5924999,0.49380409717559814,-0.25737667083740234,9.643245697021484,1.28173828125,1.77001953125,-2.410888671875
0.5974999,0.3489548861980438,-0.2579752206802368,10.001178741455078,4.791259765625,0.885009765625,0.518798828125
0.6024999,0.25498247146606445,-0.19931729137897491,9.68813705444336,-5.828857421875,0.244140625,1.251220703125
0.6074999,0.4291606545448303,-0.21607670187950134,9.719860076904297,2.197265625,0.274658203125,-2.62451171875
0.6124999,0.5093663930892944,-0.31783026456832886,9.700108528137207,3.082275390625,0.518798828125,-2.410888671875
0.6174999,0.37229835987091064,-0.322618693113327,9.962273597717285,2.716064453125,-0.457763671875,1.15966796875
0.6224999,0.3561375141143799,-0.2825157940387726,9.613917350769043,-6.103515625,-0.701904296875,0.30517578125
0.6274999,0.5476736426353455,-0.314238965511322,9.773730278015137,3.84521484375,-0.18310546875,-2.593994140625
0.6324999,0.3477577865123749,-0.272938996553421,10.029311180114746,1.739501953125,-0.274658203125,1.373291015625
0.6374999,0.3477577865123749,-0.272938996553421,10.029311180114746,1.739501953125,-0.274658203125,1.373291015625
0.6424999,0.5524620413780212,-0.3166331648826599,9.84256362915039,4.69970703125,0.42724609375,-2.3193359375
0.6474999,0.5524620413780212,-0.3166331648826599,9.84256362915039,4.69970703125,0.42724609375,-2.3193359375
0.6524999,0.33518823981285095,-0.27712884545326233,9.971850395202637,0.274658203125,-0.42724609375,1.8310546875
0.6574999,0.44352585077285767,-0.26396074891090393,9.560646057128906,-5.462646484375,-0.54931640625,-0.6103515625
0.6624999,0.5734112858772278,-0.34356793761253357,9.834781646728516,5.645751953125,1.28173828125,-2.197265625
0.6674999,0.2364274114370346,-0.22385786473751068,9.920374870300293,-1.739501953125,-0.6103515625,1.800537109375
0.6724999,0.44532153010368347,-0.26156654953956604,9.627084732055664,-4.119873046875,-0.762939453125,-1.28173828125
0.6774999,0.49559974670410156,-0.3531447649002075,10.00716495513916,6.2255859375,0.244140625,-1.0986328125
0.6824999,0.29867666959762573,-0.2861070930957794,9.894637107849121,-2.8076171875,-0.579833984375,1.983642578125
0.6874999,0.5536591410636902,-0.30286651849746704,9.634865760803223,-2.838134765625,-0.1220703125,-1.800537109375
0.6924999000000001,0.4944026470184326,-0.3387795388698578,9.995193481445312,5.79833984375,0.213623046875,-0.823974609375
0.6974999000000001,0.3130418658256531,-0.2454056739807129,9.823410034179688,-3.84521484375,-0.18310546875,1.922607421875
0.7024999000000001,0.535702645778656,-0.26396074891090393,9.610325813293457,-1.617431640625,0.274658203125,-2.25830078125
0.7074999,0.42856210470199585,-0.29867666959762573,9.971251487731934,6.103515625,1.007080078125,-0.48828125
0.7124999,0.3058592677116394,-0.26156654953956604,9.749788284301758,-4.608154296875,-0.335693359375,1.678466796875
0.7174999,0.4040215313434601,-0.3280056416988373,9.940725326538086,5.279541015625,-0.579833984375,-0.091552734375
0.7224999,0.3064578175544739,-0.28072014451026917,9.683947563171387,-5.401611328125,-0.701904296875,1.617431640625
0.7274999,0.4812345504760742,-0.24839842319488525,9.619902610778809,0.79345703125,0.335693359375,-2.62451171875
0.7324999,0.3621230125427246,-0.2603694200515747,10.02571964263916,4.608154296875,-0.06103515625,0.457763671875
0.7374999,0.2663549482822418,-0.2041056901216507,9.715670585632324,-5.950927734375,-0.213623046875,1.251220703125
0.7424999,0.4668693244457245,-0.21847090125083923,9.731831550598145,1.708984375,0.1220703125,-2.50244140625
0.7474999,0.3663128614425659,-0.28371289372444153,10.037092208862305,4.180908203125,0.701904296875,0.91552734375
0.7524999,0.33099839091300964,-0.24779987335205078,9.651026725769043,-5.43212890625,0.701904296875,0.762939453125
0.7574999,0.5398924946784973,-0.29807811975479126,9.672574996948242,3.265380859375,0.48828125,-2.62451171875
0.7624999,0.4040215313434601,-0.28371289372444153,9.956287384033203,2.838134765625,-0.18310546875,1.190185546875
0.7674999,0.35913026332855225,-0.2406172752380371,9.570222854614258,-6.04248046875,0.091552734375,0.30517578125
0.7724999,0.5422866940498352,-0.2753331959247589,9.752182006835938,3.997802734375,0.152587890625,-2.197265625
0.7774999,0.35494041442871094,-0.23582886159420013,9.586981773376465,-5.706787109375,-0.457763671875,-0.30517578125
0.7824999,0.5380968451499939,-0.3166331648826599,9.801861763000488,4.5166015625,0.091552734375,-2.197265625
0.7874999,0.3256114423274994,-0.2849099934101105,9.900622367858887,0.244140625,-0.6103515625,1.708984375
0.7924999,0.4339490532875061,-0.29388827085494995,9.496002197265625,-5.43212890625,-1.15966796875,-0.732421875
0.7974999,0.5554547905921936,-0.36571431159973145,9.802460670471191,5.584716796875,0.18310546875,-1.983642578125
0.8024999,0.2992752194404602,-0.26815059781074524,9.889249801635742,-0.91552734375,-0.579833984375,1.800537109375
0.8074999,0.4124012291431427,-0.2693476974964142,9.569623947143555,-4.364013671875,0.732421875,-1.007080078125
0.8124999,0.4854243993759155,-0.33279404044151306,9.980828285217285,6.195068359375,1.251220703125,-1.40380859375
0.8174999000000001,0.23762452602386475,-0.2585737705230713,9.979631423950195,-1.983642578125,0.3662109375,2.0751953125
0.8224999000000001,0.4602852761745453,-0.2908954918384552,9.668983459472656,-3.23486328125,-0.1220703125,-1.5869140625
0.8274999000000001,0.5045779943466187,-0.36092591285705566,10.033500671386719,6.378173828125,0.48828125,-1.129150390625
0.8324999000000001,0.2968810200691223,-0.25258827209472656,9.747992515563965,-4.8828125,-1.007080078125,1.8310546875
0.8374999,0.5093663930892944,-0.2759317457675934,9.59596061706543,0.091552734375,0.762939453125,-2.288818359375
0.8424999,0.3944447338581085,-0.30945056676864624,9.944316864013672,5.126953125,0.6103515625,0.18310546875
0.8474999,0.2861070930957794,-0.26336219906806946,9.624092102050781,-5.462646484375,0.091552734375,1.5869140625
0.8524999,0.4602852761745453,-0.25318682193756104,9.616909980773926,1.03759765625,0.396728515625,-2.716064453125
0.8574999,0.345363587141037,-0.27413609623908997,9.990405082702637,4.547119140625,-0.152587890625,0.335693359375
0.8624999,0.2669534981250763,-0.20709845423698425,9.679159164428711,-6.256103515625,-0.79345703125,1.068115234375
0.8674999,0.38067805767059326,-0.27653029561042786,10.007762908935547,3.326416015625,-0.518798828125,0.885009765625
0.8724999,0.3196259140968323,-0.26575639843940735,9.621698379516602,-6.2255859375,-1.03759765625,0.6103515625
0.8774999,0.5392939448356628,-0.33339259028434753,9.697713851928711,3.387451171875,1.190185546875,-2.349853515625
0.8824999,0.3645172119140625,-0.2783259451389313,9.599552154541016,-6.2255859375,-0.8544921875,0.18310546875
0.8874999,0.5680243372917175,-0.29388827085494995,9.805453300476074,3.72314453125,-0.1220703125,-2.532958984375
0.8924999,0.3585317134857178,-0.23343466222286224,10.02452278137207,1.15966796875,-0.823974609375,1.678466796875
0.8974999,0.4106055796146393,-0.23283611238002777,9.610325813293457,-5.767822265625,-0.6103515625,-0.152587890625
0.9024999,0.5770025849342346,-0.31364041566848755,9.836577415466309,4.7607421875,0.030517578125,-2.44140625
0.9074999,0.34416648745536804,-0.2795230448246002,9.926959037780762,0.030517578125,-0.8544921875,1.77001953125
0.9124999,0.4357447028160095,-0.2777273952960968,9.537302017211914,-5.462646484375,-0.732421875,-0.42724609375
0.9174999,0.5363011956214905,-0.3477577865123749,9.869498252868652,6.072998046875,1.953125,-1.800537109375
0.9224999,0.4076128304004669,-0.243011474609375,9.599552154541016,-3.814697265625,-0.3662109375,-1.3427734375
0.9274999,0.48303020000457764,-0.3082534670829773,10.01075553894043,6.378173828125,1.52587890625,-1.3427734375
0.9324999,0.24480712413787842,-0.2388216257095337,9.94970417022705,-1.953125,0.457763671875,2.044677734375
0.9374999,0.4854243993759155,-0.27413609623908997,9.64564037322998,-3.448486328125,0.091552734375,-1.3427734375
0.9424999000000001,0.5009866952896118,-0.3489548861980438,10.007762908935547,5.859375,-0.091552734375,-1.190185546875
0.9474999000000001,0.30885201692581177,-0.272938996553421,9.858125686645508,-3.448486328125,-0.457763671875,2.13623046875
0.9524999000000001,0.5440823435783386,-0.2932897210121155,9.621698379516602,-1.800537109375,1.15966796875,-1.495361328125
0.9574999000000001,0.45489832758903503,-0.31124621629714966,9.996989250183105,6.16455078125,0.30517578125,-0.91552734375
0.9624999,0.2885012924671173,-0.22625206410884857,9.817423820495605,-4.2724609375,-0.9765625,1.861572265625
0.9674999,0.5129576921463013,-0.2585737705230713,9.635464668273926,-1.373291015625,0.213623046875,-2.01416015625
0.9724999,0.4124012291431427,-0.2783259451389313,9.986215591430664,5.706787109375,0.579833984375,-0.06103515625
0.9774999,0.30286651849746704,-0.2687491476535797,9.73542308807373,-5.096435546875,0.518798828125,2.044677734375
0.9824999,0.39384618401527405,-0.2902969419956207,9.965266227722168,5.126953125,-0.06103515625,0.091552734375
0.9874999,0.3058592677116394,-0.23762452602386475,9.672574996948242,-5.55419921875,-0.91552734375,1.190185546875
0.9924999,0.4704606235027313,-0.20350714027881622,9.661202430725098,1.3427734375,0.762939453125,-2.685546875
0.9974999,0.36092591285705566,-0.2298433631658554,10.031704902648926,4.119873046875,-0.640869140625,0.701904296875
1.0024999,0.27413609623908997,-0.19393034279346466,9.66958236694336,-6.195068359375,-0.8544921875,0.946044921875
1.0074999000000002,0.4710591733455658,-0.2717418968677521,9.701305389404297,2.13623046875,-0.457763671875,-2.471923828125
1.0124999000000001,0.3645172119140625,-0.29388827085494995,9.971251487731934,3.570556640625,0.3662109375,1.251220703125
1.0174999000000002,0.30885201692581177,-0.30286651849746704,9.597756385803223,-5.950927734375,-0.213623046875,0.457763671875
1.0224999000000001,0.5261258482933044,-0.3321954905986786,9.709086418151855,3.875732421875,0.79345703125,-2.471923828125
1.0274999,0.34596213698387146,-0.29149407148361206,9.99220085144043,2.44140625,0.213623046875,1.617431640625
1.0324999000000001,0.35075053572654724,-0.2669534981250763,9.61331844329834,-5.523681640625,1.068115234375,0.213623046875
1.0374999,0.5494692921638489,-0.3064578175544739,9.830592155456543,4.974365234375,1.220703125,-2.38037109375
1.0424999000000001,0.5859808921813965,-0.34596213698387146,9.831789016723633,5.523681640625,1.220703125,-2.197265625
1.0474999,0.3477577865123749,-0.28790274262428284,9.872490882873535,0.030517578125,-0.335693359375,1.922607421875
1.0524999000000002,0.4411316514015198,-0.27712884545326233,9.48762321472168,-4.82177734375,-0.030517578125,-0.54931640625
1.0574999,0.5249287486076355,-0.33039984107017517,9.834781646728516,6.011962890625,1.129150390625,-2.0751953125
1.0624999000000002,0.24660277366638184,-0.23403321206569672,9.892242431640625,-1.40380859375,0.396728515625,2.105712890625
1.0674999,0.4034229815006256,-0.2555810213088989,9.576208114624023,-3.997802734375,0.18310546875,-1.0986328125
1.0724999000000002,0.46746787428855896,-0.3274070918560028,10.002974510192871,6.134033203125,0.274658203125,-1.708984375
1.0774999,0.23762452602386475,-0.2693476974964142,9.901819229125977,-2.44140625,-0.457763671875,1.922607421875
1.0824999000000002,0.49799394607543945,-0.2968810200691223,9.631275177001953,-2.74658203125,0.946044921875,-1.495361328125
1.0874999,0.4752490520477295,-0.3423708379268646,9.97603988647461,6.04248046875,0.091552734375,-1.068115234375
1.0924999000000002,0.292691171169281,-0.2603694200515747,9.805453300476074,-3.662109375,-0.762939453125,1.89208984375
1.0974999,0.2867056429386139,-0.24480712413787842,9.806650161743164,-4.608154296875,-0.42724609375,1.922607421875
1.1024999000000002,0.5273229479789734,-0.2908954918384552,9.643245697021484,-0.48828125,0.48828125,-2.105712890625
1.1074999,0.4279635548591614,-0.2932897210121155,10.00836181640625,5.523681640625,0.79345703125,-0.091552734375
1.1124999000000002,0.3363853394985199,-0.2693476974964142,9.719860076904297,-5.2490234375,0.030517578125,1.556396484375
1.1174999,0.5153518915176392,-0.25677812099456787,9.624092102050781,0.335693359375,0.213623046875,-2.44140625
1.1224999000000002,0.38307225704193115,-0.2495955228805542,9.988011360168457,4.974365234375,-0.30517578125,0.30517578125
1.1274999,0.2669534981250763,-0.20111294090747833,9.651026725769043,-5.859375,-0.457763671875,1.373291015625
1.1324999000000002,0.4357447028160095,-0.2148796021938324,9.683947563171387,1.64794921875,-0.06103515625,-2.44140625
1.1374999000000001,0.33099839091300964,-0.2406172752380371,9.998186111450195,4.08935546875,0.579833984375,0.8544921875
1.1424999000000002,0.27054479718208313,-0.24361002445220947,9.638457298278809,-5.950927734375,0.42724609375,0.946044921875
1.1474999000000001,0.5021837949752808,-0.31842881441116333,9.68694019317627,3.387451171875,1.3427734375,-2.655029296875
1.1524999000000002,0.36571431159973145,-0.2992752194404602,9.597756385803223,-6.195068359375,-0.06103515625,0.42724609375
1.1574999000000001,0.557250440120697,-0.31364041566848755,9.755773544311523,4.180908203125,1.007080078125,-2.62451171875
1.1624999,0.3513490855693817,-0.24241292476654053,10.020332336425781,1.89208984375,0.30517578125,1.373291015625
1.1674999000000001,0.36092591285705566,-0.2537853717803955,9.608530044555664,-5.67626953125,0.244140625,-0.1220703125
1.1724999,0.5452794432640076,-0.30286651849746704,9.822811126708984,4.913330078125,0.274658203125,-2.532958984375
1.1774999000000002,0.3345896899700165,-0.2579752206802368,9.946112632751465,0.823974609375,-0.152587890625,1.861572265625
1.1824999,0.43694180250167847,-0.28072014451026917,9.522936820983887,-4.638671875,1.739501953125,-0.396728515625
1.1874999000000002,0.5692214369773865,-0.3447650372982025,9.800065994262695,5.523681640625,0.152587890625,-2.13623046875
1.1924999,0.3130418658256531,-0.2519897222518921,9.864709854125977,-1.068115234375,-1.007080078125,1.953125
1.1974999000000002,0.424970805644989,-0.2735375463962555,9.512762069702148,-4.730224609375,-0.79345703125,-0.9765625
1.2024999,0.5009866952896118,-0.3124433159828186,9.91977596282959,6.591796875,1.617431640625,-1.708984375
1.2074999000000002,0.25438392162323,-0.24181437492370605,9.945513725280762,-1.89208984375,-0.396728515625,2.197265625
1.2124999,0.5153518915176392,-0.3423708379268646,10.037092208862305,6.378173828125,0.396728515625,-1.46484375
1.2174999000000002,0.3034650683403015,-0.3148375153541565,9.872490882873535,-2.960205078125,-0.762939453125,1.922607421875
1.2224999,0.5386953949928284,-0.33518823981285095,9.619902610778809,-2.38037109375,0.30517578125,-1.708984375
1.2274999000000002,0.4578910768032074,-0.3315969407558441,9.983820915222168,6.744384765625,1.190185546875,-0.8544921875
1.2324999,0.27413609623908997,-0.2753331959247589,9.816825866699219,-4.08935546875,-0.152587890625,1.8310546875
1.2374999000000002,0.5045779943466187,-0.29388827085494995,9.66419506072998,-1.708984375,0.030517578125,-2.044677734375
1.2424999,0.41359832882881165,-0.2795230448246002,10.022727012634277,5.889892578125,1.15966796875,-0.396728515625
1.2474999000000002,0.30945056676864624,-0.2849099934101105,9.815628051757812,-5.035400390625,-0.091552734375,1.800537109375
1.2524999,0.5303156971931458,-0.31783026456832886,9.66958236694336,-0.152587890625,0.213623046875,-2.3193359375
1.2574999000000002,0.4255693554878235,-0.2849099934101105,10.02452278137207,5.37109375,0.152587890625,0
1.2624999000000001,0.31124621629714966,-0.2819172441959381,9.679757118225098,-5.859375,-0.48828125,1.52587890625
1.2674999000000002,0.31124621629714966,-0.2819172441959381,9.679757118225098,-5.859375,-0.48828125,1.52587890625
1.2724999000000001,0.3489548861980438,-0.20111294090747833,9.975440979003906,4.638671875,0.732421875,0.579833984375
1.2774999000000002,0.2603694200515747,-0.19812019169330597,9.638457298278809,-5.615234375,0.396728515625,1.068115234375
1.2824999000000001,0.3758896589279175,-0.24779987335205078,9.980828285217285,3.5400390625,-0.18310546875,0.885009765625
1.2874999,0.3758896589279175,-0.24779987335205078,9.980828285217285,3.5400390625,-0.18310546875,0.885009765625
1.2924999000000001,0.3214215636253357,-0.31124621629714966,9.588179588317871,-6.04248046875,-0.1220703125,0.579833984375
1.2974999,0.5386953949928284,-0.3315969407558441,9.692925453186035,3.997802734375,2.288818359375,-2.3193359375
1.3024999000000002,0.36152446269989014,-0.2861070930957794,9.949105262756348,2.5634765625,-0.091552734375,1.46484375
1.3074999,0.35015198588371277,-0.2992752194404602,9.566033363342285,-6.134033203125,-0.518798828125,0.42724609375
1.3124999000000002,0.545877993106842,-0.2825157940387726,9.765350341796875,4.425048828125,0.1220703125,-2.655029296875
1.3174999,0.3280056416988373,-0.2388216257095337,9.954492568969727,1.28173828125,-0.1220703125,1.708984375
1.3224999000000002,0.40282443165779114,-0.27413609623908997,9.549273490905762,-5.37109375,0.42724609375,-0.396728515625
1.3274999,0.569819986820221,-0.29867666959762573,9.802460670471191,5.55419921875,1.007080078125,-2.3193359375
1.3324999000000002,0.48961424827575684,-0.36571431159973145,9.635464668273926,-3.23486328125,-0.3662109375,-1.5869140625
1.3374999,0.48961424827575684,-0.36571431159973145,9.635464668273926,-3.23486328125,-0.3662109375,-1.5869140625
1.3424999000000002,0.4944026470184326,-0.32381579279899597,9.975440979003906,6.53076171875,0.48828125,-1.190185546875
1.3474999,0.29807811975479126,-0.33279404044151306,9.816825866699219,-3.60107421875,-0.701904296875,2.13623046875
1.3524999000000002,0.5297171473503113,-0.33279404044151306,9.606135368347168,-2.62451171875,0.213623046875,-1.64794921875
1.3574999,0.44592007994651794,-0.24181437492370605,9.971251487731934,5.889892578125,0.396728515625,-0.67138671875
1.3624999000000002,0.32441434264183044,-0.3130418658256531,9.739612579345703,-5.035400390625,-0.946044921875,1.312255859375
1.3674999,0.5201402902603149,-0.2825157940387726,9.624691009521484,0.54931640625,0.6103515625,-2.349853515625
1.3724999000000002,0.3860650360584259,-0.21308395266532898,10.004171371459961,4.486083984375,-1.129150390625,0.1220703125
1.3774999,0.2795230448246002,-0.26815059781074524,9.68155288696289,-6.53076171875,-1.800537109375,1.190185546875
1.3824999000000002,0.44831427931785583,-0.17896658182144165,9.701305389404297,1.800537109375,0.48828125,-2.655029296875
1.3874999000000001,0.3315969407558441,-0.19572599232196808,10.04188060760498,3.7841796875,-0.54931640625,0.79345703125
1.3924999000000002,0.2783259451389313,-0.22206220030784607,9.694122314453125,-6.2255859375,-1.007080078125,1.007080078125
1.3974999000000001,0.4854243993759155,-0.2537853717803955,9.709685325622559,2.471923828125,-0.823974609375,-3.0517578125
1.4024999000000002,0.38067805767059326,-0.2849099934101105,9.971251487731934,3.23486328125,-0.274658203125,1.068115234375
1.4074999000000001,0.3298012912273407,-0.3166331648826599,9.563039779663086,-5.584716796875,0.54931640625,0.762939453125
1.4124999,0.33758243918418884,-0.2885012924671173,9.963470458984375,1.983642578125,-0.54931640625,1.64794921875
1.4174999000000001,0.33698388934135437,-0.2711433470249176,9.59715747833252,-5.615234375,-0.8544921875,0.152587890625
1.4224999,0.5279214978218079,-0.292691171169281,9.824007987976074,4.547119140625,0.457763671875,-2.44140625
1.4274999000000002,0.3166331648826599,-0.2717418968677521,10.011953353881836,0.91552734375,-0.274658203125,1.5869140625
1.4324999,0.4058171808719635,-0.26994624733924866,9.576208114624023,-5.462646484375,0.18310546875,-0.30517578125
1.4374999000000002,0.5638344883918762,-0.3489548861980438,9.85034465789795,5.67626953125,0.6103515625,-2.0751953125
1.4424999,0.33279404044151306,-0.2795230448246002,9.92097282409668,-0.3662109375,-1.068115234375,1.708984375
1.4474999000000002,0.43514615297317505,-0.2693476974964142,9.572616577148438,-4.852294921875,-0.79345703125,-0.8544921875
1.4524999,0.5201402902603149,-0.32202014327049255,9.947309494018555,6.256103515625,1.129150390625,-1.5869140625
1.4574999000000002,0.2585737705230713,-0.23403321206569672,9.999981880187988,-1.5869140625,-0.42724609375,2.105712890625
1.4624999,0.4339490532875061,-0.2663549482822418,9.651026725769043,-4.33349609375,-0.579833984375,-1.434326171875
1.4674999000000002,0.497395396232605,-0.33937808871269226,10.041281700134277,6.103515625,0.42724609375,-1.312255859375
1.4724999,0.5321113467216492,-0.3082534670829773,9.611522674560547,-2.9296875,-0.457763671875,-1.64794921875
1.4774999000000002,0.4920084476470947,-0.3405751883983612,9.985616683959961,6.28662109375,0.79345703125,-0.732421875
1.4824999,0.29807811975479126,-0.2585737705230713,9.80904483795166,-3.875732421875,0.213623046875,2.166748046875
1.4874999000000002,0.5213374495506287,-0.2849099934101105,9.658209800720215,-2.044677734375,0.030517578125,-2.01416015625
1.4924999,0.4106055796146393,-0.29867666959762573,10.018536567687988,6.04248046875,1.15966796875,-0.457763671875
1.4974999000000002,0.26755204796791077,-0.2579752206802368,9.824007987976074,-4.45556640625,0.335693359375,1.77001953125
1.5024999,0.5033808946609497,-0.3190273642539978,9.673172950744629,-0.030517578125,1.40380859375,-2.288818359375
1.5074999000000002,0.3998316824436188,-0.3058592677116394,9.976638793945312,5.37109375,-0.6103515625,-0.244140625
1.5124999000000001,0.31842881441116333,-0.2974795699119568,9.707889556884766,-5.4931640625,-1.15966796875,1.495361328125
1.5174999000000002,0.5027823448181152,-0.2663549482822418,9.600749015808105,0.8544921875,1.739501953125,-2.471923828125
1.5224999000000001,0.2783259451389313,-0.2041056901216507,9.622895240783691,-5.7373046875,-0.3662109375,1.28173828125
1.5274999000000002,0.3603273630142212,-0.23283611238002777,9.952696800231934,3.84521484375,-0.42724609375,0.67138671875
1.5324999000000001,0.2998737692832947,-0.23523031175136566,9.609128952026367,-6.378173828125,-0.8544921875,0.79345703125
1.5374999000000003,0.52552729845047,-0.30526071786880493,9.66958236694336,2.74658203125,0.213623046875,-2.50244140625
1.5424999000000001,0.39205053448677063,-0.2861070930957794,9.966463088989258,2.777099609375,0.3662109375,1.129150390625
1.5474999,0.3621230125427246,-0.3076549172401428,9.5809965133667,-5.889892578125,0.48828125,0.518798828125
1.5524999000000002,0.5554547905921936,-0.31184476613998413,9.773131370544434,4.180908203125,0.396728515625,-2.532958984375
1.5574999,0.34177228808403015,-0.24660277366638184,10.019135475158691,1.77001953125,-0.67138671875,1.3427734375
1.5624999000000002,0.3555389642715454,-0.24660277366638184,9.627683639526367,-5.828857421875,-1.861572265625,-0.335693359375
1.5674999,0.5374982953071594,-0.28072014451026917,9.855133056640625,4.608154296875,0.06103515625,-2.349853515625
1.5724999000000002,0.3196259140968323,-0.24779987335205078,9.965864181518555,0.213623046875,-0.42724609375,1.77001953125
1.5774999,0.4231751561164856,-0.2753331959247589,9.543288230895996,-5.06591796875,0.9765625,-0.396728515625
1.5824999000000002,0.5554547905921936,-0.3345896899700165,9.845556259155273,5.645751953125,0.457763671875,-1.953125
1.5874999,0.4207809567451477,-0.28371289372444153,9.564237594604492,-4.7607421875,-1.556396484375,-1.312255859375
1.5924999000000002,0.49619829654693604,-0.3034650683403015,9.956287384033203,6.2255859375,0.823974609375,-1.800537109375
1.5974999,0.24121582508087158,-0.25917232036590576,9.947908401489258,-2.13623046875,-0.18310546875,2.0751953125
1.6024999000000002,0.3010708689689636,-0.31603461503982544,9.865307807922363,-2.655029296875,-0.91552734375,1.739501953125
1.6074999,0.5446808934211731,-0.32441434264183044,9.625887870788574,-2.44140625,0.030517578125,-1.8310546875
1.6124999000000002,0.48303020000457764,-0.2795230448246002,9.981427192687988,5.9814453125,0.1220703125,-0.885009765625
1.6174999,0.29628247022628784,-0.24660277366638184,9.824606895446777,-4.69970703125,-0.885009765625,2.044677734375
1.6224999000000002,0.5273229479789734,-0.2801215946674347,9.633668899536133,-1.495361328125,0.762939453125,-2.166748046875
1.6274999,0.4297592043876648,-0.24001872539520264,9.988011360168457,5.462646484375,-1.0986328125,-0.579833984375
1.6324999000000002,0.30885201692581177,-0.284311443567276,9.747992515563965,-5.401611328125,-1.8310546875,1.800537109375
1.6374999000000001,0.42018240690231323,-0.2537853717803955,9.952696800231934,5.157470703125,0.54931640625,-0.1220703125
1.6424999000000002,0.31543606519699097,-0.29628247022628784,9.642647743225098,-5.4931640625,0.152587890625,1.708984375
1.6474999000000001,0.4794389009475708,-0.2513911724090576,9.61451530456543,0.8544921875,-0.946044921875,-2.5634765625
1.6524999000000002,0.34835633635520935,-0.22625206410884857,9.978434562683105,3.997802734375,-0.701904296875,0.335693359375
1.6574999000000001,0.25498247146606445,-0.2537853717803955,9.660005569458008,-6.591796875,-0.6103515625,1.28173828125
1.6624999000000003,0.45250412821769714,-0.2495955228805542,9.679159164428711,2.62451171875,1.251220703125,-2.62451171875
1.6674999000000001,0.3585317134857178,-0.25917232036590576,9.961674690246582,3.814697265625,0.579833984375,0.67138671875
1.6724999,0.3124433159828186,-0.30466216802597046,9.567230224609375,-6.2255859375,-0.091552734375,0.701904296875
1.6774999000000002,0.5249287486076355,-0.31184476613998413,9.655217170715332,3.84521484375,1.434326171875,-2.288818359375
1.6824999,0.3860650360584259,-0.2717418968677521,9.61212158203125,-5.462646484375,0.335693359375,-0.091552734375
1.6874999000000002,0.5740098357200623,-0.26994624733924866,9.838373184204102,5.462646484375,0.79345703125,-2.227783203125
1.6924999,0.36810851097106934,-0.27712884545326233,9.894637107849121,-0.244140625,-0.823974609375,1.64794921875
1.6974999000000002,0.4554968774318695,-0.3166331648826599,9.4822359085083,-5.035400390625,-0.518798828125,-0.579833984375
1.7024999,0.5602431893348694,-0.2801215946674347,9.832387924194336,5.9814453125,0.518798828125,-1.89208984375
1.7074999000000002,0.2861070930957794,-0.2801215946674347,9.898826599121094,-1.46484375,-0.274658203125,1.8310546875
1.7124999,0.406415730714798,-0.2711433470249176,9.578003883361816,-3.90625,0.67138671875,-0.79345703125
1.7174999000000002,0.4866214990615845,-0.26396074891090393,9.993996620178223,5.79833984375,0.6103515625,-1.52587890625
1.7224999,0.24181437492370605,-0.29388827085494995,9.926360130310059,-2.50244140625,-0.152587890625,1.922607421875
1.7274999000000002,0.4866214990615845,-0.2902969419956207,9.624691009521484,-2.86865234375,-0.18310546875,-1.495361328125
1.7324999,0.507570743560791,-0.32202014327049255,9.97484302520752,6.53076171875,0.274658203125,-1.28173828125
1.7374999000000002,0.31842881441116333,-0.3124433159828186,9.805453300476074,-3.23486328125,-0.79345703125,1.953125
1.7424999,0.46806642413139343,-0.3196259140968323,9.9371337890625,5.950927734375,0.48828125,-0.701904296875
1.7474999000000002,0.2890998423099518,-0.2388216257095337,9.740809440612793,-4.547119140625,-0.54931640625,1.922607421875
1.7524999,0.5165489912033081,-0.2801215946674347,9.599552154541016,-1.220703125,0.30517578125,-2.13623046875
1.7574999000000002,0.4040215313434601,-0.31184476613998413,9.95748519897461,5.645751953125,0.3662109375,-0.30517578125
1.7624999000000001,0.2968810200691223,-0.25677812099456787,9.707889556884766,-5.462646484375,-0.67138671875,1.46484375
1.7674999000000002,0.46986207365989685,-0.22625206410884857,9.692925453186035,1.068115234375,0.274658203125,-2.74658203125
1.7724999000000001,0.3477577865123749,-0.23942017555236816,10.035296440124512,4.39453125,0.1220703125,0.518798828125
1.7774999000000002,0.2663549482822418,-0.18495208024978638,9.696516990661621,-6.011962890625,0.030517578125,1.03759765625
1.7824999000000001,0.4572925269603729,-0.23343466222286224,9.725846290588379,2.0751953125,-0.18310546875,-2.685546875
1.7874999000000003,0.3645172119140625,-0.27473464608192444,9.998785018920898,3.631591796875,0.18310546875,0.8544921875
1.7924999000000001,0.30885201692581177,-0.28790274262428284,9.617507934570312,-5.67626953125,0.30517578125,0.701904296875
1.7974999,0.5327098965644836,-0.3363853394985199,9.70549488067627,3.326416015625,-0.42724609375,-2.62451171875
1.8024999000000002,0.363918662071228,-0.30945056676864624,9.961075782775879,2.288818359375,-1.0986328125,1.373291015625
1.8074999,0.3603273630142212,-0.26396074891090393,9.582792282104492,-6.40869140625,-1.129150390625,0.030517578125
1.8124999000000002,0.5542576909065247,-0.2902969419956207,9.757569313049316,3.997802734375,-0.06103515625,-2.777099609375
1.8174999,0.3495534360408783,-0.2322375625371933,9.971251487731934,1.068115234375,-0.335693359375,1.800537109375
1.8224999000000002,0.4189853072166443,-0.25737667083740234,9.557653427124023,-5.31005859375,0.457763671875,-0.1220703125
1.8274999,0.5841852426528931,-0.3345896899700165,9.801262855529785,5.462646484375,0.244140625,-2.44140625
1.8324999000000002,0.3555389642715454,-0.28371289372444153,9.896432876586914,0.274658203125,-0.67138671875,1.800537109375
1.8374999,0.4423287510871887,-0.28371289372444153,9.527127265930176,-4.5166015625,0.6103515625,-0.67138671875
1.8424999000000002,0.25498247146606445,-0.24839842319488525,9.906009674072266,-2.197265625,0.42724609375,2.25830078125
1.8474999,0.25498247146606445,-0.24839842319488525,9.906009674072266,-2.197265625,0.42724609375,2.25830078125
1.8524999000000002,0.5003881454467773,-0.2908954918384552,9.61451530456543,-3.082275390625,1.3427734375,-1.556396484375
1.8574999,0.4991910457611084,-0.34596213698387146,9.967659950256348,6.103515625,-0.1220703125,-1.03759765625
1.8624999000000002,0.3010708689689636,-0.2795230448246002,9.784503936767578,-3.2958984375,-0.9765625,2.044677734375
1.8674999,0.5309142470359802,-0.3082534670829773,9.560047149658203,-2.288818359375,-0.732421875,-2.288818359375
1.8724999000000002,0.436343252658844,-0.3148375153541565,9.915586471557617,6.4697265625,1.0986328125,-0.762939453125
1.8774999,0.2777273952960968,-0.24420857429504395,9.77253246307373,-4.119873046875,0.3662109375,1.953125
1.8824999000000002,0.5021837949752808,-0.2759317457675934,9.61212158203125,-1.220703125,0.67138671875,-2.13623046875
1.8874999000000001,0.40701428055763245,-0.2825157940387726,9.998186111450195,5.889892578125,0.79345703125,-0.213623046875
1.8924999000000002,0.29388827085494995,-0.24600422382354736,9.59057331085205,-5.767822265625,-1.3427734375,1.15966796875
1.8974999000000001,0.46327802538871765,-0.2190694510936737,9.585186958312988,1.617431640625,0.732421875,-2.62451171875
1.9024999000000002,0.35913026332855225,-0.22026655077934265,9.98681354522705,4.547119140625,0.9765625,0.701904296875
1.9074999000000001,0.28072014451026917,-0.19812019169330597,9.650428771972656,-5.79833984375,0.54931640625,0.9765625
1.9124999000000003,0.4842272996902466,-0.26096799969673157,9.67077922821045,2.716064453125,0.79345703125,-2.8076171875
1.9174999000000001,0.37469255924224854,-0.2735375463962555,9.947908401489258,3.509521484375,-0.48828125,1.03759765625
1.9224999,0.314238965511322,-0.29149407148361206,9.545083999633789,-5.79833984375,-0.9765625,0.701904296875
1.9274999000000002,0.5339069962501526,-0.31842881441116333,9.66958236694336,3.96728515625,1.068115234375,-2.5634765625
1.9324999,0.3447650372982025,-0.2579752206802368,9.967061996459961,2.044677734375,-0.732421875,1.40380859375
1.9374999000000002,0.35254621505737305,-0.25438392162323,9.606734275817871,-6.28662109375,-0.67138671875,0.213623046875
1.9424999,0.322618693113327,-0.26575639843940735,9.864709854125977,-0.213623046875,-0.579833984375,2.01416015625
1.9474999000000002,0.322618693113327,-0.26575639843940735,9.864709854125977,-0.213623046875,-0.579833984375,2.01416015625
1.9524999,0.4273650050163269,-0.25917232036590576,9.484031677246094,-4.39453125,1.220703125,-0.6103515625
1.9574999000000002,0.5111620426177979,-0.31184476613998413,9.819818496704102,5.950927734375,0.579833984375,-2.01416015625
1.9624999,0.24839842319488525,-0.2124854028224945,9.876680374145508,-1.46484375,-0.152587890625,2.01416015625
1.9674999000000002,0.41120412945747375,-0.27234044671058655,9.560646057128906,-3.814697265625,1.861572265625,-0.823974609375
1.9724999,0.4800374507904053,-0.3357867896556854,9.989208221435547,6.4697265625,0.3662109375,-1.434326171875
1.9774999000000002,0.26096799969673157,-0.2902969419956207,9.907206535339355,-2.593994140625,-0.762939453125,1.922607421875
1.9824999,0.5213374495506287,-0.33339259028434753,9.644442558288574,-3.143310546875,-0.396728515625,-1.52587890625
1.9874999000000002,0.5009866952896118,-0.3411737382411957,10.013150215148926,6.256103515625,0.8544921875,-0.91552734375
1.9924999,0.2902969419956207,-0.2495955228805542,9.800065994262695,-4.608154296875,-1.495361328125,1.617431640625
1.9974999000000002,0.5225345492362976,-0.29149407148361206,9.621099472045898,-0.579833984375,0.18310546875,-2.25830078125
2.0024999,0.4273650050163269,-0.2687491476535797,9.988011360168457,5.767822265625,0.30517578125,-0.030517578125
2.0074999,0.32680854201316833,-0.28790274262428284,9.68813705444336,-5.462646484375,-0.335693359375,1.64794921875
2.0124999000000003,0.5057750940322876,-0.2693476974964142,9.605537414550781,0.579833984375,0.244140625,-2.410888671875
2.0174999000000002,0.37229835987091064,-0.23582886159420013,9.973047256469727,5.0048828125,0.274658203125,0.42724609375
2.0224999,0.25498247146606445,-0.2124854028224945,9.65222454071045,-5.67626953125,-0.640869140625,1.312255859375
2.0274999,0.4279635548591614,-0.21607670187950134,9.675567626953125,1.3427734375,0.579833984375,-2.288818359375
2.0324999000000004,0.3256114423274994,-0.21009120345115662,10.003573417663574,4.08935546875,0.396728515625,1.068115234375
2.0374999000000003,0.262763649225235,-0.24899697303771973,9.630077362060547,-6.04248046875,0.457763671875,1.068115234375
2.0424999,0.5333084464073181,-0.272938996553421,9.651625633239746,4.33349609375,1.15966796875,-2.44140625
2.0474999,0.3298012912273407,-0.23403321206569672,9.93474006652832,1.800537109375,0,1.46484375
2.0524999,0.34656068682670593,-0.24839842319488525,9.547477722167969,-5.615234375,0.762939453125,0.18310546875
2.0574999000000003,0.5434837937355042,-0.2711433470249176,9.801262855529785,5.035400390625,0.579833984375,-2.5634765625
2.0624999,0.3345896899700165,-0.26336219906806946,9.939528465270996,0.457763671875,-0.732421875,1.617431640625
2.0674999,0.43933600187301636,-0.29628247022628784,9.533711433410645,-5.31005859375,-0.79345703125,-0.457763671875
2.0724999,0.5734112858772278,-0.33099839091300964,9.835979461669922,5.43212890625,-0.48828125,-2.50244140625
2.0774999000000003,0.3190273642539978,-0.27712884545326233,9.88386344909668,-0.701904296875,-0.9765625,1.739501953125
2.0824999,0.42437225580215454,-0.2950853705406189,9.533711433410645,-4.425048828125,0.91552734375,-0.579833984375
2.0874999,0.4944026470184326,-0.28969839215278625,9.917980194091797,5.828857421875,0.823974609375,-1.678466796875
2.0924999,0.4423287510871887,-0.30466216802597046,9.601346969604492,-3.692626953125,-0.42724609375,-1.46484375
2.0974999000000003,0.4926069974899292,-0.30047231912612915,9.996390342712402,6.805419921875,0.9765625,-1.373291015625
2.1024999,0.28311434388160706,-0.3124433159828186,9.838373184204102,-3.204345703125,-0.518798828125,2.166748046875
2.1074999,0.5201402902603149,-0.33339259028434753,9.585186958312988,-2.99072265625,-1.0986328125,-1.953125
2.1124999,0.4668693244457245,-0.28550854325294495,9.95090103149414,6.317138671875,0.48828125,-0.946044921875
2.1174999000000003,0.27413609623908997,-0.26755204796791077,9.77013874053955,-3.96728515625,-0.3662109375,2.044677734375
2.1224999,0.5081692934036255,-0.2890998423099518,9.607931137084961,-1.52587890625,-0.213623046875,-2.13623046875
2.1274999,0.41778820753097534,-0.22385786473751068,9.965864181518555,6.072998046875,-0.48828125,-0.6103515625
2.1324999,0.3010708689689636,-0.28371289372444153,9.759963035583496,-4.638671875,-1.190185546875,1.40380859375
2.1374999000000003,0.5297171473503113,-0.31842881441116333,9.625288963317871,-0.3662109375,-0.701904296875,-2.3193359375
2.1424999000000002,0.4189853072166443,-0.26396074891090393,9.97603988647461,5.340576171875,0.06103515625,0.091552734375
2.1474999,0.31783026456832886,-0.31364041566848755,9.6803560256958,-6.011962890625,-0.6103515625,1.373291015625
2.1524999,0.4578910768032074,-0.22924481332302094,9.652822494506836,2.38037109375,-0.457763671875,-2.899169921875
2.1574999000000004,0.3645172119140625,-0.23283611238002777,9.970054626464844,3.387451171875,-1.068115234375,0.823974609375
2.1624999000000003,0.3513490855693817,-0.2561795711517334,9.92097282409668,2.25830078125,-0.701904296875,1.15966796875
2.1674999,0.3363853394985199,-0.30945056676864624,9.548076629638672,-6.317138671875,-0.732421875,0.030517578125
2.1724999,0.5345055460929871,-0.22924481332302094,9.753378868103027,5.218505859375,1.708984375,-2.471923828125
2.1774999000000004,0.3411737382411957,-0.25677812099456787,9.996989250183105,1.495361328125,-0.030517578125,1.678466796875
2.1824999000000003,0.3992331326007843,-0.27413609623908997,9.57979965209961,-5.523681640625,-0.244140625,-0.274658203125
2.1874999,0.5829881429672241,-0.2801215946674347,9.838972091674805,5.126953125,0,-2.349853515625
2.1924999,0.4728548228740692,-0.2849099934101105,9.674968719482422,-3.23486328125,0.732421875,-1.251220703125
2.1974999,0.4944026470184326,-0.34596213698387146,10.033500671386719,6.2255859375,1.190185546875,-1.312255859375
2.2024999000000003,0.28371289372444153,-0.27413609623908997,9.875483512878418,-2.9296875,-0.48828125,2.044677734375
2.2074999,0.5207388401031494,-0.2663549482822418,9.641449928283691,-2.25830078125,-0.244140625,-1.556396484375
2.2124999,0.4381389021873474,-0.30466216802597046,10.031106948852539,6.072998046875,0.518798828125,-1.03759765625
2.2174999,0.2693476974964142,-0.22266076505184174,9.854534149169922,-4.08935546875,-0.3662109375,1.8310546875
2.2224999000000003,0.31364041566848755,-0.2645592987537384,9.761758804321289,-4.791259765625,-0.152587890625,1.77001953125
2.2274999,0.524330198764801,-0.2890998423099518,9.59057331085205,0.18310546875,1.15966796875,-2.25830078125
2.2324999,0.4129997789859772,-0.3064578175544739,9.923966407775879,5.401611328125,0.18310546875,0.18310546875
2.2374999,0.31842881441116333,-0.25258827209472656,9.620500564575195,-5.401611328125,0,1.28173828125
2.2424999000000003,0.27234044671058655,-0.1933317929506302,9.644442558288574,-5.950927734375,0.030517578125,1.007080078125
2.2474999,0.4620809257030487,-0.2406172752380371,9.684545516967773,2.50244140625,1.46484375,-2.74658203125
2.2524999,0.3621230125427246,-0.292691171169281,9.967061996459961,3.448486328125,-0.946044921875,0.9765625
2.2574999,0.31783026456832886,-0.27892449498176575,9.592369079589844,-6.439208984375,-1.556396484375,0.762939453125
2.2624999000000003,0.5237316489219666,-0.33937808871269226,9.68155288696289,3.60107421875,0.335693359375,-2.777099609375
2.2674999000000002,0.5327098965644836,-0.3106476664543152,9.790489196777344,4.119873046875,0.30517578125,-2.50244140625
2.2724999,0.32441434264183044,-0.2717418968677521,10.008959770202637,1.28173828125,0,1.8310546875
2.2774999,0.4010287821292877,-0.26575639843940735,9.589376449584961,-5.37109375,-0.091552734375,-0.244140625
2.2824999000000004,0.5680243372917175,-0.3489548861980438,9.844358444213867,4.82177734375,0.06103515625,-2.044677734375
2.2874999000000003,0.33758243918418884,-0.29149407148361206,9.927556991577148,-0.030517578125,0.091552734375,2.0751953125
2.2924999,0.4225766062736511,-0.2717418968677521,9.544485092163086,-4.852294921875,0.67138671875,-0.67138671875
2.2974999,0.5123591423034668,-0.33339259028434753,9.873687744140625,5.462646484375,0.152587890625,-1.861572265625
2.3024999000000004,0.24001872539520264,-0.22026655077934265,9.913790702819824,-1.28173828125,-0.518798828125,2.13623046875
2.3074999000000003,0.395043283700943,-0.24241292476654053,9.570821762084961,-4.058837890625,-0.54931640625,-1.312255859375
2.3124999,0.47644615173339844,-0.31783026456832886,9.963470458984375,6.072998046875,-0.335693359375,-1.800537109375
2.3174999,0.25498247146606445,-0.25498247146606445,9.894038200378418,-2.227783203125,-0.67138671875,2.0751953125
2.3224999,0.43095630407333374,-0.314238965511322,10.000580787658691,6.439208984375,0.9765625,-0.762939453125
2.3274999000000003,0.2783259451389313,-0.23762452602386475,9.814431190490723,-4.08935546875,-0.244140625,1.89208984375
2.3324999,0.5081692934036255,-0.2777273952960968,9.650428771972656,-0.732421875,0.518798828125,-2.105712890625
2.3374999,0.41120412945747375,-0.30466216802597046,10.003573417663574,5.767822265625,0.732421875,-0.18310546875
2.3424999,0.31364041566848755,-0.29149407148361206,9.73781681060791,-5.035400390625,0.54931640625,2.01416015625
2.3474999000000003,0.5129576921463013,-0.30705636739730835,9.61451530456543,0.396728515625,0.06103515625,-2.38037109375
2.3524999,0.38965633511543274,-0.304063618183136,9.961075782775879,5.43212890625,0.8544921875,0.1220703125
2.3574999,0.2885012924671173,-0.24181437492370605,9.62947940826416,-5.31005859375,0.091552734375,1.373291015625
2.3624999,0.4638765752315521,-0.2172738015651703,9.654019355773926,1.28173828125,0.091552734375,-2.62451171875
2.3674999000000003,0.35075053572654724,-0.23343466222286224,9.989806175231934,4.180908203125,0.335693359375,0.762939453125
2.3724999,0.2693476974964142,-0.20889410376548767,9.655815124511719,-5.950927734375,-0.091552734375,1.03759765625
2.3774999,0.47584760189056396,-0.2825157940387726,9.704896926879883,2.777099609375,-0.030517578125,-2.899169921875
2.3824999,0.3555389642715454,-0.28790274262428284,9.958083152770996,3.23486328125,-0.274658203125,1.068115234375
2.3874999000000003,0.3190273642539978,-0.284311443567276,9.57321548461914,-6.072998046875,-0.457763671875,0.732421875
2.3924999000000002,0.5351040959358215,-0.3208230137825012,9.674968719482422,3.387451171875,-0.1220703125,-2.44140625
2.3974999,0.3477577865123749,-0.2663549482822418,9.946710586547852,1.89208984375,0.335693359375,1.495361328125
2.4024999,0.32860419154167175,-0.27234044671058655,9.952696800231934,1.007080078125,-0.152587890625,1.52587890625
2.4074999000000004,0.32860419154167175,-0.27234044671058655,9.952696800231934,1.007080078125,-0.152587890625,1.52587890625
2.4124999000000003,0.41359832882881165,-0.28730419278144836,9.543886184692383,-5.43212890625,-0.152587890625,-0.30517578125
2.4174999,0.25019407272338867,-0.22505496442317963,9.911994934082031,-1.52587890625,-0.67138671875,1.8310546875
2.4224999,0.444722980260849,-0.28371289372444153,9.620500564575195,-3.72314453125,0.762939453125,-1.312255859375
2.4274999000000004,0.48722004890441895,-0.3387795388698578,10.013150215148926,6.28662109375,1.0986328125,-1.220703125
2.4324999000000003,0.2759317457675934,-0.2902969419956207,9.888651847839355,-3.326416015625,-0.3662109375,1.953125
2.4374999,0.517746090888977,-0.3166331648826599,9.61451530456543,-2.838134765625,-0.274658203125,-1.8310546875
2.4424999,0.47225627303123474,-0.3345896899700165,9.963470458984375,6.40869140625,-0.030517578125,-0.8544921875
2.4474999,0.2902969419956207,-0.2735375463962555,9.79288387298584,-3.96728515625,-0.8544921875,1.922607421875
2.4524999000000003,0.5183446407318115,-0.29628247022628784,9.582792282104492,-1.678466796875,0.885009765625,-2.044677734375
2.4574999,0.424970805644989,-0.2968810200691223,9.95090103149414,5.950927734375,0.762939453125,-0.396728515625
2.4624999,0.42377370595932007,-0.26396074891090393,9.873088836669922,5.18798828125,-0.3662109375,-0.030517578125
2.4674999,0.42377370595932007,-0.26396074891090393,9.873088836669922,5.18798828125,-0.3662109375,-0.030517578125
2.4724999000000003,0.30466216802597046,-0.26336219906806946,9.567230224609375,-5.889892578125,-0.396728515625,1.5869140625
2.4774999,0.4752490520477295,-0.24600422382354736,9.535507202148438,0.823974609375,-0.213623046875,-2.5634765625
2.4824999,0.34835633635520935,-0.2322375625371933,9.928754806518555,4.57763671875,0.030517578125,0.335693359375
2.4874999,0.2561795711517334,-0.20769700407981873,9.640851974487305,-5.706787109375,-0.946044921875,0.885009765625
2.4924999000000003,0.45010992884635925,-0.228047713637352,9.68574333190918,2.166748046875,-0.1220703125,-2.74658203125
2.4974999,0.35254621505737305,-0.2561795711517334,9.999382972717285,3.96728515625,0.701904296875,0.732421875
2.5024999,0.30047231912612915,-0.2717418968677521,9.624092102050781,-5.7373046875,0.48828125,0.701904296875
2.5074999,0.5093663930892944,-0.3357867896556854,9.686341285705566,3.143310546875,0.1220703125,-2.288818359375
2.5124999000000003,0.353743314743042,-0.30047231912612915,9.961075782775879,2.655029296875,-0.06103515625,1.40380859375
2.5174999000000002,0.32202014327049255,-0.3124433159828186,9.583989143371582,-6.04248046875,-0.79345703125,0.030517578125
2.5224999,0.31184476613998413,-0.24779987335205078,10.018536567687988,1.0986328125,-0.823974609375,1.8310546875
2.5274999,0.3705027103424072,-0.25677812099456787,9.610923767089844,-5.92041015625,-0.518798828125,-0.091552734375
2.5324999000000004,0.5578489899635315,-0.3034650683403015,9.84615421295166,4.730224609375,-0.335693359375,-2.25830078125
2.5374999000000003,0.3387795388698578,-0.262763649225235,9.942521095275879,0.091552734375,-0.30517578125,1.861572265625
2.5424999,0.4429273009300232,-0.2735375463962555,9.536105155944824,-4.791259765625,0.54931640625,-0.67138671875
2.5474999,0.5464765429496765,-0.3357867896556854,9.860519409179688,5.340576171875,-0.640869140625,-2.0751953125
2.5524999000000004,0.28311434388160706,-0.23942017555236816,9.916783332824707,-1.251220703125,-0.6103515625,1.953125
2.5574999000000003,0.414795458316803,-0.272938996553421,9.576208114624023,-4.21142578125,-0.030517578125,-0.946044921875
2.5624999,0.48303020000457764,-0.3172317147254944,9.991601943969727,5.828857421875,-0.67138671875,-1.52587890625
2.5674999,0.24181437492370605,-0.26336219906806946,9.925761222839355,-2.62451171875,-1.251220703125,2.044677734375
2.5724999,0.4842272996902466,-0.31184476613998413,9.639056205749512,-3.96728515625,-0.1220703125,-1.46484375
2.5774999000000003,0.4926069974899292,-0.3387795388698578,9.989208221435547,6.195068359375,0.518798828125,-1.251220703125
2.5824999,0.4423287510871887,-0.2801215946674347,9.910798072814941,6.195068359375,-0.1220703125,-0.762939453125
2.5874999,0.27892449498176575,-0.22625206410884857,9.75278091430664,-4.638671875,-0.54931640625,1.922607421875
2.5924999,0.5135562419891357,-0.26396074891090393,9.583391189575195,-0.762939453125,1.129150390625,-2.197265625
2.5974999000000003,0.4165911078453064,-0.24420857429504395,9.920374870300293,5.523681640625,-0.030517578125,-0.152587890625
2.6024999,0.30945056676864624,-0.27892449498176575,9.671976089477539,-5.340576171875,-0.762939453125,1.77001953125
2.6074999,0.5117605924606323,-0.30226796865463257,9.54209041595459,0.457763671875,-0.213623046875,-2.716064453125
2.6124999,0.3818751573562622,-0.26575639843940735,9.882067680358887,4.974365234375,-0.67138671875,0.30517578125
2.6174999000000003,0.2735375463962555,-0.25737667083740234,9.557653427124023,-5.92041015625,-0.762939453125,1.373291015625
2.6224999,0.45250412821769714,-0.22744916379451752,9.565434455871582,1.64794921875,1.0986328125,-2.50244140625
2.6274999,0.3471592366695404,-0.21128830313682556,9.943120002746582,3.96728515625,-0.335693359375,0.67138671875
2.6324999,0.28790274262428284,-0.2298433631658554,9.646238327026367,-6.16455078125,-0.823974609375,1.068115234375
2.6374999000000003,0.5309142470359802,-0.2711433470249176,9.750386238098145,5.31005859375,1.800537109375,-2.288818359375
2.6424999000000002,0.3280056416988373,-0.2472013235092163,9.920374870300293,0.732421875,0.152587890625,1.922607421875
2.6474999,0.4165911078453064,-0.2950853705406189,9.522936820983887,-5.645751953125,0.06103515625,-0.152587890625
2.6524999,0.5704185366630554,-0.32620999217033386,9.815030097961426,5.279541015625,-0.274658203125,-2.166748046875
2.6574999000000004,0.3280056416988373,-0.2885012924671173,9.901819229125977,-0.8544921875,-1.129150390625,2.01416015625
2.6624999000000003,0.4315548539161682,-0.30466216802597046,9.550470352172852,-5.7373046875,-1.40380859375,-0.946044921875
2.6674999,0.5123591423034668,-0.29807811975479126,9.938331604003906,6.04248046875,0.946044921875,-1.800537109375
2.6724999,0.42856210470199585,-0.3016694188117981,9.631275177001953,-3.662109375,-0.885009765625,-1.77001953125
2.6774999000000004,0.48303020000457764,-0.29388827085494995,10.019734382629395,6.317138671875,0.152587890625,-1.373291015625
2.6824999000000003,0.25977087020874023,-0.2974795699119568,9.8970308303833,-2.9296875,-0.762939453125,2.38037109375
2.6874999,0.4991910457611084,-0.32680854201316833,9.613917350769043,-2.716064453125,0.091552734375,-1.861572265625
2.6924999,0.46806642413139343,-0.2825157940387726,9.968857765197754,6.256103515625,0.457763671875,-1.15966796875
2.6974999,0.27054479718208313,-0.28371289372444153,9.774328231811523,-3.84521484375,-0.48828125,2.044677734375
2.7024999000000003,0.5099649429321289,-0.3106476664543152,9.57860279083252,-1.373291015625,1.220703125,-1.983642578125
2.7074999,0.4189853072166443,-0.24181437492370605,9.939528465270996,6.134033203125,0.396728515625,-0.54931640625
2.7124999,0.29628247022628784,-0.2825157940387726,9.761159896850586,-4.852294921875,-0.3662109375,2.01416015625
2.7174999,0.5339069962501526,-0.3082534670829773,9.613917350769043,-0.244140625,0.54931640625,-2.25830078125
2.7224999000000003,0.36332011222839355,-0.23523031175136566,10.037690162658691,4.730224609375,0.274658203125,0.274658203125
2.7274999,0.2603694200515747,-0.24779987335205078,9.704896926879883,-5.706787109375,-0.518798828125,1.15966796875
2.7324999,0.444722980260849,-0.19871874153614044,9.722254753112793,2.3193359375,0.67138671875,-2.38037109375
2.7374999,0.34835633635520935,-0.21787235140800476,10.021530151367188,3.814697265625,0.79345703125,0.946044921875
2.7424999000000003,0.2950853705406189,-0.272938996553421,9.63187313079834,-5.828857421875,0.518798828125,0.79345703125
2.7474999,0.5195417404174805,-0.2908954918384552,9.698312759399414,3.0517578125,-0.3662109375,-2.593994140625
2.7524999,0.38486793637275696,-0.29628247022628784,9.992799758911133,2.410888671875,-0.6103515625,1.28173828125
2.7574999,0.3495534360408783,-0.3166331648826599,9.604938507080078,-6.28662109375,-0.732421875,0.457763671875
2.7624999000000003,0.5422866940498352,-0.27712884545326233,9.813833236694336,4.5166015625,1.678466796875,-2.3193359375
2.7674999000000002,0.33279404044151306,-0.2603694200515747,10.06043529510498,1.3427734375,-0.396728515625,1.8310546875
2.7724999,0.36571431159973145,-0.25019407272338867,9.65222454071045,-5.859375,-0.42724609375,-0.091552734375
2.7774999,0.5620388388633728,-0.31184476613998413,9.889848709106445,5.035400390625,1.220703125,-2.471923828125
2.7824999000000004,0.5764040350914001,-0.36152446269989014,9.872490882873535,5.43212890625,0.701904296875,-2.044677734375
2.7874999000000003,0.31364041566848755,-0.27234044671058655,9.945513725280762,-0.8544921875,-0.396728515625,1.922607421875
2.7924999,0.4213795065879822,-0.25438392162323,9.600150108337402,-4.913330078125,-0.54931640625,-1.0986328125
2.7974999,0.48961424827575684,-0.31543606519699097,10.001178741455078,6.195068359375,1.495361328125,-1.5869140625
2.8024999000000004,0.23702596127986908,-0.24600422382354736,9.992799758911133,-1.64794921875,-0.274658203125,2.0751953125
2.8074999000000003,0.44771572947502136,-0.2783259451389313,9.64923095703125,-4.08935546875,-1.129150390625,-1.64794921875
2.8124999,0.4902127981185913,-0.3477577865123749,10.017938613891602,6.256103515625,0.9765625,-1.28173828125
2.8174999,0.29209262132644653,-0.27413609623908997,9.853935241699219,-3.23486328125,-0.18310546875,2.105712890625
2.8224999,0.5321113467216492,-0.3130418658256531,9.596558570861816,-2.532958984375,0.152587890625,-1.678466796875
2.8274999000000003,0.47165772318840027,-0.33279404044151306,9.975440979003906,6.439208984375,0.79345703125,-1.068115234375
2.8324999,0.28790274262428284,-0.2669534981250763,9.810839653015137,-3.84521484375,-0.518798828125,1.64794921875
2.8374999,0.5374982953071594,-0.29388827085494995,9.621099472045898,-0.79345703125,-0.48828125,-2.197265625
2.8424999,0.4279635548591614,-0.28969839215278625,9.9772367477417,4.94384765625,-0.732421875,0.18310546875
2.8474999000000003,0.30466216802597046,-0.2908954918384552,9.640253067016602,-5.9814453125,-1.373291015625,1.434326171875
2.8524999,0.4668693244457245,-0.27473464608192444,9.615114212036133,1.220703125,0.244140625,-2.50244140625
2.8574999,0.33758243918418884,-0.26396074891090393,9.958083152770996,4.669189453125,-0.823974609375,0.579833984375
2.8624999,0.2513911724090576,-0.22505496442317963,9.655217170715332,-6.04248046875,-0.79345703125,1.129150390625
2.8674999000000003,0.45489832758903503,-0.24899697303771973,9.706692695617676,2.13623046875,0.457763671875,-2.74658203125
2.8724999,0.36990416049957275,-0.25019407272338867,10.001178741455078,3.5400390625,-0.640869140625,0.946044921875
2.8774999,0.3148375153541565,-0.2783259451389313,9.619303703308105,-6.500244140625,-0.9765625,0.67138671875
2.8824999,0.5416881442070007,-0.27892449498176575,9.749189376831055,4.39453125,0.579833984375,-2.410888671875
2.8874999000000003,0.3321954905986786,-0.2190694510936737,10.002974510192871,1.220703125,-0.396728515625,1.708984375
2.8924999000000002,0.3794809579849243,-0.25737667083740234,9.59715747833252,-6.4697265625,0.18310546875,0
2.8974999,0.557250440120697,-0.3124433159828186,9.84376049041748,5.2490234375,1.556396484375,-2.044677734375
2.9024999,0.33518823981285095,-0.29568392038345337,9.948506355285645,0.18310546875,-0.06103515625,2.105712890625
2.9074999000000004,0.43993455171585083,-0.3016694188117981,9.552865028381348,-5.523681640625,-0.79345703125,-0.518798828125
2.9124999000000003,0.557250440120697,-0.3387795388698578,9.886856079101562,6.04248046875,1.678466796875,-1.953125
2.9174999,0.30286651849746704,-0.24241292476654053,9.973047256469727,-0.91552734375,-0.030517578125,2.227783203125
2.9224999,0.4255693554878235,-0.26396074891090393,9.621698379516602,-4.364013671875,0.06103515625,-1.007080078125
2.9274999000000004,0.4926069974899292,-0.2944868206977844,10.032303810119629,5.7373046875,-0.091552734375,-1.495361328125
2.9324999000000003,0.28730419278144836,-0.30286651849746704,9.833584785461426,-3.265380859375,-0.396728515625,1.89208984375
2.9374999,0.5279214978218079,-0.32441434264183044,9.618705749511719,-2.38037109375,0.396728515625,-1.800537109375
2.9424999,0.4471171796321869,-0.292691171169281,9.982624053955078,6.4697265625,1.007080078125,-0.640869140625
2.9474999,0.27712884545326233,-0.26396074891090393,9.804854393005371,-4.119873046875,0.213623046875,1.922607421875
2.9524999000000003,0.5117605924606323,-0.28730419278144836,9.64803409576416,-0.762939453125,0.762939453125,-1.983642578125
2.9574999,0.4207809567451477,-0.2555810213088989,9.966463088989258,5.706787109375,-0.30517578125,-0.152587890625
2.9624999,0.3148375153541565,-0.29149407148361206,9.743802070617676,-5.340576171875,-0.732421875,1.40380859375
2.9674999,0.5345055460929871,-0.3064578175544739,9.609726905822754,-0.18310546875,-0.732421875,-2.471923828125
2.9724999000000003,0.4225766062736511,-0.27234044671058655,9.96945571899414,5.523681640625,1.15966796875,0.3662109375
2.9774999,0.4225766062736511,-0.27234044671058655,9.96945571899414,5.523681640625,1.15966796875,0.3662109375
2.9824999,0.5117605924606323,-0.31543606519699097,9.665990829467773,3.173828125,-0.244140625,-2.8076171875
2.9874999,0.3531447649002075,-0.2783259451389313,9.96945571899414,2.5634765625,-0.518798828125,1.15966796875
2.9924999000000003,0.3315969407558441,-0.284311443567276,9.573814392089844,-5.615234375,-1.0986328125,-0.152587890625
2.9974999,0.5309142470359802,-0.26096799969673157,9.800065994262695,4.852294921875,1.007080078125,-2.471923828125
3.0024999,0.3274070918560028,-0.22206220030784607,10.008959770202637,1.03759765625,-0.885009765625,1.678466796875
3.0074999,0.39624038338661194,-0.26815059781074524,9.588179588317871,-5.828857421875,-1.708984375,-0.48828125
3.0124999000000003,0.5380968451499939,-0.3250128924846649,9.82879638671875,6.011962890625,0.67138671875,-2.044677734375
3.0174999000000002,0.5380968451499939,-0.3250128924846649,9.82879638671875,6.011962890625,0.67138671875,-2.044677734375
3.0224999,0.27054479718208313,-0.26994624733924866,9.894038200378418,-1.251220703125,0.06103515625,2.01416015625
3.0274999,0.4076128304004669,-0.284311443567276,9.566033363342285,-3.692626953125,1.64794921875,-1.007080078125
3.0324999000000004,0.48602294921875,-0.2663549482822418,9.981427192687988,6.103515625,-0.030517578125,-1.708984375
3.0374999000000003,0.25677812099456787,-0.2902969419956207,9.937732696533203,-2.410888671875,-0.91552734375,1.922607421875
3.0424999,0.49559974670410156,-0.3274070918560028,9.64923095703125,-3.631591796875,0.274658203125,-1.556396484375
3.0474999,0.5057750940322876,-0.3130418658256531,10.015543937683105,6.378173828125,0.06103515625,-1.129150390625
3.0524999000000004,0.2992752194404602,-0.30526071786880493,9.873088836669922,-3.47900390625,-0.48828125,2.105712890625
3.0574999000000003,0.5201402902603149,-0.30526071786880493,9.641449928283691,-2.38037109375,0.274658203125,-1.708984375
3.0624999,0.4357447028160095,-0.24361002445220947,10.011953353881836,5.828857421875,0.06103515625,-0.701904296875
3.0674999,0.5021837949752808,-0.3130418658256531,9.636063575744629,-1.15966796875,0.701904296875,-1.983642578125
3.0724999000000004,0.40701428055763245,-0.24660277366638184,9.959280967712402,5.859375,0.48828125,-0.396728515625
3.0774999000000003,0.31124621629714966,-0.33039984107017517,9.721057891845703,-5.218505859375,-0.9765625,1.52587890625
3.0824999,0.5345055460929871,-0.3106476664543152,9.588179588317871,-0.18310546875,-1.251220703125,-2.44140625
3.0874999,0.4118026793003082,-0.22924481332302094,9.975440979003906,4.791259765625,-0.6103515625,0.18310546875
3.0924999,0.3172317147254944,-0.2885012924671173,9.691728591918945,-6.134033203125,-0.946044921875,1.3427734375
3.0974999000000003,0.4644751250743866,-0.1999158412218094,9.68574333190918,1.220703125,-0.06103515625,-2.50244140625
3.1024999,0.3471592366695404,-0.1975216418504715,10.081384658813477,3.997802734375,-0.213623046875,0.640869140625
3.1074999,0.25977087020874023,-0.22864626348018646,9.704896926879883,-5.950927734375,-0.457763671875,1.251220703125
3.1124999,0.46148237586021423,-0.23104046285152435,9.724050521850586,2.593994140625,0.152587890625,-2.5634765625
3.1174999000000003,0.36750996112823486,-0.25677812099456787,10.002376556396484,3.173828125,-0.213623046875,1.068115234375
3.1224999,0.3148375153541565,-0.32202014327049255,9.589975357055664,-6.04248046875,-0.396728515625,0.701904296875
3.1274999,0.3274070918560028,-0.3058592677116394,9.625288963317871,-6.317138671875,-1.129150390625,0.091552734375
3.1324999,0.52552729845047,-0.2825157940387726,9.840767860412598,4.2724609375,-0.213623046875,-2.62451171875
3.1374999000000003,0.32381579279899597,-0.2711433470249176,10.044873237609863,1.251220703125,-0.67138671875,1.861572265625
3.1424999000000002,0.38965633511543274,-0.2735375463962555,9.621099472045898,-5.4931640625,-0.30517578125,-0.18310546875
3.1474999,0.5674257874488831,-0.3381809890270233,9.854534149169922,4.913330078125,0.79345703125,-2.410888671875
3.1524999,0.33758243918418884,-0.3208230137825012,9.895236015319824,0,-0.091552734375,2.01416015625
3.1574999000000004,0.42377370595932007,-0.3010708689689636,9.503185272216797,-5.157470703125,1.251220703125,-0.274658203125
3.1624999000000003,0.5195417404174805,-0.3423708379268646,9.816226959228516,5.218505859375,-0.030517578125,-2.197265625
3.1674999,0.24779987335205078,-0.22864626348018646,9.88625717163086,-1.15966796875,-0.6103515625,2.01416015625
3.1724999,0.3926490843296051,-0.2106897532939911,9.57441234588623,-3.90625,0.396728515625,-0.885009765625
3.1774999000000004,0.47225627303123474,-0.2777273952960968,9.977835655212402,5.889892578125,0.06103515625,-1.64794921875
3.1824999000000003,0.48602294921875,-0.27712884545326233,9.613917350769043,-3.2958984375,0.30517578125,-1.52587890625
3.1874999,0.4991910457611084,-0.353743314743042,9.962273597717285,6.317138671875,0.67138671875,-1.15966796875
3.1924999,0.2992752194404602,-0.2849099934101105,9.816226959228516,-3.35693359375,0,2.0751953125
3.1974999000000004,0.5345055460929871,-0.2974795699119568,9.588179588317871,-2.349853515625,2.227783203125,-1.64794921875
3.2024999000000003,0.3932476341724396,-0.30526071786880493,9.991601943969727,5.31005859375,-0.946044921875,-0.396728515625
3.2074999,0.2968810200691223,-0.2849099934101105,9.774328231811523,-5.462646484375,-1.617431640625,1.617431640625
3.2124999,0.52552729845047,-0.30885201692581177,9.641449928283691,0.396728515625,1.0986328125,-2.471923828125
3.2174999,0.41778820753097534,-0.3172317147254944,10.006566047668457,5.43212890625,0.244140625,0.091552734375
3.2224999000000003,0.3321954905986786,-0.2687491476535797,9.707290649414062,-5.43212890625,-0.396728515625,1.46484375
3.2274999,0.2735375463962555,-0.18734627962112427,9.674370765686035,-6.011962890625,-0.1220703125,1.15966796875
3.2324999,0.4602852761745453,-0.23523031175136566,9.690531730651855,2.197265625,0.18310546875,-2.532958984375
3.2374999,0.36750996112823486,-0.28072014451026917,9.959280967712402,3.509521484375,0.091552734375,0.9765625
3.2424999000000003,0.3232172429561615,-0.27473464608192444,9.577404975891113,-5.950927734375,-0.30517578125,0.6103515625
3.2474999,0.5386953949928284,-0.32202014327049255,9.660603523254395,2.99072265625,-0.823974609375,-2.593994140625
3.2524999,0.3794809579849243,-0.2890998423099518,9.93474006652832,2.50244140625,-0.42724609375,1.373291015625
3.2574999,0.34596213698387146,-0.25737667083740234,9.545083999633789,-5.645751953125,0.091552734375,0.30517578125
3.2624999000000003,0.5327098965644836,-0.29807811975479126,9.747992515563965,4.302978515625,0.6103515625,-2.471923828125
3.2674999000000002,0.3214215636253357,-0.2513911724090576,9.974244117736816,1.28173828125,-0.640869140625,1.373291015625
3.2724999,0.3884592354297638,-0.2687491476535797,9.573814392089844,-5.37109375,-1.15966796875,-0.396728515625
3.2774999,0.568622887134552,-0.3387795388698578,9.835380554199219,5.126953125,0.640869140625,-1.983642578125
3.2824999000000004,0.45190557837486267,-0.2759317457675934,9.515155792236328,-4.608154296875,1.190185546875,-0.48828125
3.2874999000000003,0.5446808934211731,-0.3411737382411957,9.82640266418457,5.584716796875,0.18310546875,-2.01416015625
3.2924999,0.27892449498176575,-0.23283611238002777,9.9000244140625,-1.068115234375,-0.54931640625,1.861572265625
3.2974999,0.4040215313434601,-0.2621650993824005,9.569025993347168,-3.96728515625,-0.18310546875,-1.28173828125
3.3024999000000004,0.4812345504760742,-0.3321954905986786,9.996390342712402,6.195068359375,0.244140625,-1.739501953125
3.3074999000000003,0.23582886159420013,-0.27234044671058655,9.931747436523438,-2.3193359375,-0.732421875,2.01416015625
3.3124999,0.48303020000457764,-0.3064578175544739,9.633070945739746,-3.11279296875,1.52587890625,-1.28173828125
3.3174999,0.49380409717559814,-0.3603273630142212,9.980828285217285,6.34765625,0.732421875,-1.15966796875
3.3224999000000004,0.3016694188117981,-0.27473464608192444,9.822212219238281,-3.47900390625,-0.396728515625,2.197265625
3.3274999000000003,0.5404910445213318,-0.2932897210121155,9.582792282104492,-2.044677734375,0.18310546875,-1.77001953125
3.3324999,0.4531026780605316,-0.2950853705406189,9.964069366455078,6.134033203125,1.190185546875,-0.823974609375
3.3374999,0.2825157940387726,-0.22206220030784607,9.789292335510254,-4.302978515625,0.18310546875,2.01416015625
3.3424999,0.4034229815006256,-0.29149407148361206,9.979032516479492,5.157470703125,0.79345703125,0.213623046875
3.3474999000000003,0.29628247022628784,-0.25258827209472656,9.672574996948242,-5.67626953125,0.244140625,1.3427734375
3.3524999,0.45669397711753845,-0.23822307586669922,9.649829864501953,1.678466796875,0.885009765625,-2.86865234375
3.3574999,0.3405751883983612,-0.23403321206569672,9.998186111450195,4.486083984375,-0.579833984375,0.48828125
3.3624999,0.25438392162323,-0.2106897532939911,9.656414031982422,-6.04248046875,-0.8544921875,1.007080078125
3.3674999000000003,0.4602852761745453,-0.26575639843940735,9.668983459472656,1.922607421875,-0.701904296875,-2.655029296875
3.3724999,0.3693056106567383,-0.26994624733924866,9.950302124023438,3.173828125,-0.213623046875,1.190185546875
3.3774999,0.3256114423274994,-0.29628247022628784,9.561842918395996,-6.011962890625,0.823974609375,0.79345703125
3.3824999,0.5416881442070007,-0.34356793761253357,9.688735961914062,3.90625,1.251220703125,-2.44140625
3.3874999000000003,0.33339259028434753,-0.23343466222286224,10.047865867614746,1.15966796875,0.213623046875,1.708984375
3.3924999000000002,0.3944447338581085,-0.27054479718208313,9.600749015808105,-5.4931640625,0.396728515625,-0.152587890625
3.3974999,0.5620388388633728,-0.3423708379268646,9.835380554199219,4.94384765625,-1.007080078125,-2.3193359375
3.4024999,0.32680854201316833,-0.2885012924671173,9.894038200378418,-0.244140625,-0.762939453125,1.800537109375
3.4074999000000004,0.42197805643081665,-0.2932897210121155,9.50617790222168,-5.096435546875,-0.396728515625,-0.8544921875
3.4124999000000003,0.5099649429321289,-0.32620999217033386,9.851541519165039,6.317138671875,0.885009765625,-2.105712890625
3.4174999,0.2388216257095337,-0.2256535142660141,9.909002304077148,-1.068115234375,-0.42724609375,1.861572265625
3.4224999,0.3866635859012604,-0.2885012924671173,9.578003883361816,-4.39453125,-0.42724609375,-1.0986328125
3.4274999000000004,0.46507367491722107,-0.31783026456832886,9.987412452697754,6.4697265625,0.30517578125,-1.64794921875
3.4324999000000003,0.5333084464073181,-0.29388827085494995,9.620500564575195,-2.13623046875,1.03759765625,-1.678466796875
3.4374999,0.43933600187301636,-0.2513911724090576,10.014347076416016,5.767822265625,0.1220703125,-0.701904296875
3.4424999,0.5027823448181152,-0.28072014451026917,9.672574996948242,-0.79345703125,-0.30517578125,-2.532958984375
3.4474999000000004,0.40940847992897034,-0.25737667083740234,10.010157585144043,5.55419921875,-0.457763671875,-0.3662109375
3.4524999000000003,0.3064578175544739,-0.30226796865463257,9.727641105651855,-5.55419921875,-1.373291015625,1.617431640625
3.4574999,0.5123591423034668,-0.3082534670829773,9.599552154541016,0.3662109375,1.007080078125,-2.410888671875
3.4624999,0.3908534348011017,-0.25498247146606445,9.929352760314941,5.401611328125,0.335693359375,0.18310546875
3.4674999,0.2777273952960968,-0.25498247146606445,9.600150108337402,-5.37109375,-0.9765625,1.220703125
3.4724999000000003,0.333991140127182,-0.2017114907503128,9.976638793945312,4.364013671875,0.335693359375,0.79345703125
3.4774999,0.2603694200515747,-0.2346317619085312,9.657012939453125,-5.950927734375,0.1220703125,1.03759765625
3.4824999,0.4776432514190674,-0.26156654953956604,9.713275909423828,3.021240234375,1.861572265625,-2.5634765625
3.4874999,0.3705027103424072,-0.2519897222518921,9.99100399017334,3.23486328125,0.335693359375,1.068115234375
3.4924999000000003,0.3232172429561615,-0.3076549172401428,9.582193374633789,-6.04248046875,-0.762939453125,0.518798828125
3.4974999,0.5309142470359802,-0.3016694188117981,9.722254753112793,3.84521484375,0.396728515625,-2.8076171875
3.5024999,0.3519476354122162,-0.25737667083740234,9.999382972717285,2.3193359375,-0.213623046875,1.495361328125
3.5074999,0.35075053572654724,-0.2717418968677521,9.642048835754395,-5.645751953125,1.03759765625,0.54931640625
3.5124999000000003,0.5536591410636902,-0.25079262256622314,9.875483512878418,4.2724609375,-0.30517578125,-2.5634765625
3.5174999000000002,0.3519476354122162,-0.23343466222286224,10.062231063842773,0.9765625,-0.06103515625,1.8310546875
3.5224999,0.42856210470199585,-0.2908954918384552,9.632472038269043,-5.37109375,0.91552734375,-0.152587890625
3.5274999,0.5925649404525757,-0.31543606519699097,9.888651847839355,5.340576171875,0.335693359375,-2.38037109375
3.5324999000000004,0.4381389021873474,-0.33279404044151306,9.57979965209961,-5.035400390625,-0.518798828125,-0.518798828125
3.5374999000000003,0.5249287486076355,-0.2992752194404602,9.95090103149414,5.92041015625,0.335693359375,-1.89208984375
3.5424999,0.5249287486076355,-0.2992752194404602,9.95090103149414,5.92041015625,0.335693359375,-1.89208984375
3.5474999,0.25498247146606445,-0.26336219906806946,9.979631423950195,-1.495361328125,-0.42724609375,1.861572265625
3.5524999000000004,0.40880993008613586,-0.3076549172401428,9.628880500793457,-3.90625,0.48828125,-1.251220703125
3.5574999000000003,0.4920084476470947,-0.2603694200515747,10.01075553894043,6.53076171875,0.396728515625,-1.52587890625
3.5624999,0.25977087020874023,-0.3064578175544739,9.886856079101562,-2.3193359375,-0.06103515625,2.197265625
3.5674999,0.5051765441894531,-0.3381809890270233,9.602544784545898,-2.716064453125,0.30517578125,-1.77001953125
3.5724999000000004,0.49978959560394287,-0.2735375463962555,9.959878921508789,6.317138671875,0.579833984375,-1.03759765625
3.5774999000000003,0.29628247022628784,-0.3196259140968323,9.838373184204102,-3.60107421875,0.091552734375,1.922607421875
3.5824999,0.5207388401031494,-0.28790274262428284,9.637859344482422,-2.227783203125,0.18310546875,-2.105712890625
3.5874999,0.4279635548591614,-0.23702596127986908,10.025120735168457,5.950927734375,0.732421875,-0.396728515625
3.5924999,0.3974374830722809,-0.29628247022628784,9.977835655212402,5.0048828125,-0.06103515625,0.274658203125
3.5974999000000003,0.3974374830722809,-0.29628247022628784,9.977835655212402,5.0048828125,-0.06103515625,0.274658203125
3.6024999,0.3100491166114807,-0.24480712413787842,9.687539100646973,-5.523681640625,-0.79345703125,1.190185546875
3.6074999,0.4812345504760742,-0.2148796021938324,9.680954933166504,0.640869140625,-0.762939453125,-2.593994140625
3.6124999,0.3758896589279175,-0.24899697303771973,10.035895347595215,4.39453125,0.091552734375,0.701904296875
3.6174999000000003,0.2950853705406189,-0.20290859043598175,9.683947563171387,-5.828857421875,0,1.03759765625
3.6224999,0.49380409717559814,-0.2711433470249176,9.699509620666504,2.8076171875,0.91552734375,-2.349853515625
3.6274999,0.3824737071990967,-0.2902969419956207,9.95748519897461,3.47900390625,0.1220703125,1.312255859375
3.6324999,0.33099839091300964,-0.28311434388160706,9.565434455871582,-6.072998046875,0.213623046875,0.640869140625
3.6374999000000003,0.5267243981361389,-0.2801215946674347,9.765948295593262,4.486083984375,1.03759765625,-2.471923828125
3.6424999000000002,0.5267243981361389,-0.2801215946674347,9.765948295593262,4.486083984375,1.03759765625,-2.471923828125
3.6474999,0.3196259140968323,-0.2406172752380371,9.991601943969727,1.434326171875,-0.091552734375,1.8310546875
3.6524999,0.3944447338581085,-0.2717418968677521,9.586981773376465,-5.279541015625,0.6103515625,-0.091552734375
3.6574999000000004,0.5674257874488831,-0.3471592366695404,9.85034465789795,5.37109375,0.18310546875,-2.50244140625
3.6624999000000003,0.3519476354122162,-0.29209262132644653,9.928155899047852,0.396728515625,-0.579833984375,1.739501953125
3.6674999,0.45250412821769714,-0.29149407148361206,9.537900924682617,-5.035400390625,0.457763671875,-0.640869140625
3.6724999,0.5536591410636902,-0.3256114423274994,9.86650562286377,5.55419921875,-0.152587890625,-2.166748046875
3.6774999000000004,0.28550854325294495,-0.2190694510936737,9.921571731567383,-1.434326171875,-0.6103515625,1.922607421875
3.6824999000000003,0.48243165016174316,-0.2890998423099518,9.981427192687988,5.889892578125,0.42724609375,-1.5869140625
3.6874999,0.2861070930957794,-0.292691171169281,9.868300437927246,-3.72314453125,-0.885009765625,2.105712890625
3.6924999,0.2861070930957794,-0.292691171169281,9.868300437927246,-3.72314453125,-0.885009765625,2.105712890625
3.6974999000000004,0.5225345492362976,-0.32202014327049255,9.651026725769043,-2.50244140625,-0.640869140625,-2.0751953125
3.7024999000000003,0.4345476031303406,-0.3034650683403015,10.032303810119629,6.378173828125,0.9765625,-0.640869140625
3.7074999,0.2717418968677521,-0.27413609623908997,9.873088836669922,-4.21142578125,0.54931640625,2.197265625
3.7124999,0.5057750940322876,-0.3064578175544739,9.685144424438477,-1.0986328125,-0.244140625,-2.349853515625
3.7174999,0.4183867573738098,-0.26994624733924866,10.032901763916016,5.92041015625,0.274658203125,-0.396728515625
3.7224999000000003,0.31543606519699097,-0.2908954918384552,9.759963035583496,-5.0048828125,-0.396728515625,1.617431640625
3.7274999,0.5339069962501526,-0.30047231912612915,9.607931137084961,0.213623046875,1.77001953125,-2.105712890625
3.7324999,0.41120412945747375,-0.2472013235092163,9.922768592834473,5.18798828125,0.518798828125,0.152587890625
3.7374999,0.2932897210121155,-0.25019407272338867,9.582792282104492,-5.4931640625,-0.457763671875,1.373291015625
3.7424999000000003,0.33279404044151306,-0.17298106849193573,9.931747436523438,4.425048828125,0.091552734375,0.42724609375
3.7474999,0.2621650993824005,-0.20949265360832214,9.64803409576416,-5.950927734375,-0.579833984375,1.03759765625
3.7524999,0.46986207365989685,-0.23523031175136566,9.660603523254395,2.227783203125,-0.18310546875,-2.532958984375
3.7574999,0.375291109085083,-0.2561795711517334,9.967061996459961,3.41796875,0.091552734375,0.762939453125
3.7624999000000003,0.32680854201316833,-0.3100491166114807,9.558850288391113,-5.92041015625,-1.220703125,0.67138671875
3.7674999000000002,0.5321113467216492,-0.3058592677116394,9.64803409576416,3.387451171875,-0.274658203125,-2.593994140625
3.7724999,0.363918662071228,-0.26336219906806946,9.944915771484375,2.197265625,0.274658203125,1.28173828125
3.7774999,0.33997663855552673,-0.28311434388160706,9.561842918395996,-5.523681640625,0.762939453125,0.42724609375
3.7824999000000004,0.5321113467216492,-0.25498247146606445,9.785700798034668,4.5166015625,0.274658203125,-2.288818359375
3.7874999000000003,0.3315969407558441,-0.2364274114370346,10.011953353881836,1.40380859375,-0.18310546875,1.495361328125
3.7924999,0.39624038338661194,-0.2861070930957794,9.602544784545898,-5.584716796875,-0.54931640625,-0.244140625
3.7974999,0.5710170865058899,-0.29807811975479126,9.858125686645508,5.31005859375,0.091552734375,-2.349853515625
3.8024999000000004,0.4345476031303406,-0.34835633635520935,9.550470352172852,-5.035400390625,-0.18310546875,-0.762939453125
3.8074999000000003,0.5363011956214905,-0.3166331648826599,9.88625717163086,5.950927734375,0.42724609375,-2.044677734375
3.8124999,0.2711433470249176,-0.2992752194404602,9.945513725280762,-1.129150390625,-0.335693359375,1.983642578125
3.8174999,0.39145198464393616,-0.32022446393966675,9.606135368347168,-4.0283203125,0.67138671875,-0.823974609375
3.8224999000000004,0.4794389009475708,-0.2585737705230713,10.007762908935547,5.92041015625,-0.640869140625,-1.678466796875
3.8274999000000003,0.23702596127986908,-0.31184476613998413,9.965864181518555,-2.44140625,-0.732421875,2.13623046875
3.8324999,0.4704606235027313,-0.3034650683403015,9.659406661987305,-3.082275390625,0.946044921875,-1.40380859375
3.8374999,0.5033808946609497,-0.3016694188117981,10.002376556396484,6.103515625,0.06103515625,-1.40380859375
3.8424999,0.2998737692832947,-0.3172317147254944,9.807847023010254,-3.448486328125,-0.79345703125,2.01416015625
3.8474999000000003,0.5327098965644836,-0.27473464608192444,9.53849983215332,-2.227783203125,0.48828125,-1.739501953125
3.8524999,0.45908817648887634,-0.27712884545326233,9.853337287902832,6.134033203125,0.946044921875,-0.701904296875
3.8574999,0.272938996553421,-0.24600422382354736,9.694122314453125,-4.180908203125,-0.152587890625,2.13623046875
3.8624999,0.5315127968788147,-0.2992752194404602,9.639056205749512,-0.18310546875,1.0986328125,-2.197265625
3.8674999000000003,0.4141969084739685,-0.3321954905986786,10.011354446411133,5.096435546875,-0.152587890625,0.030517578125
3.8724999,0.31842881441116333,-0.28072014451026917,9.733627319335938,-5.401611328125,-0.48828125,1.3427734375
3.8774999,0.4812345504760742,-0.25079262256622314,9.674370765686035,0.885009765625,-0.244140625,-2.685546875
3.8824999,0.35254621505737305,-0.25438392162323,10.031106948852539,4.69970703125,-0.48828125,0.30517578125
3.8874999000000003,0.2651578485965729,-0.19033902883529663,9.698312759399414,-5.645751953125,-0.701904296875,1.03759765625
3.8924999000000002,0.4489128291606903,-0.1951274424791336,9.6989107131958,1.617431640625,-0.457763671875,-2.593994140625
3.8974999,0.35733461380004883,-0.25917232036590576,9.978434562683105,3.72314453125,-0.152587890625,0.823974609375
3.9024999,0.30286651849746704,-0.24779987335205078,9.605537414550781,-6.2255859375,-0.8544921875,0.6103515625
3.9074999000000004,0.5159504413604736,-0.32620999217033386,9.658209800720215,2.99072265625,-0.30517578125,-2.593994140625
3.9124999000000003,0.3489548861980438,-0.29209262132644653,9.609726905822754,-5.67626953125,0.18310546875,0.091552734375
3.9174999,0.5374982953071594,-0.3016694188117981,9.785700798034668,3.570556640625,-0.946044921875,-2.50244140625
3.9224999,0.36332011222839355,-0.23702596127986908,9.62828254699707,-6.16455078125,-1.129150390625,-0.18310546875
3.9274999000000004,0.5494692921638489,-0.32441434264183044,9.848548889160156,5.126953125,0.762939453125,-2.62451171875
3.9324999000000003,0.33997663855552673,-0.29867666959762573,9.965864181518555,0.54931640625,-0.091552734375,1.922607421875
3.9374999,0.44352585077285767,-0.31543606519699097,9.563638687133789,-4.82177734375,0.3662109375,-0.335693359375
3.9424999,0.5710170865058899,-0.38127660751342773,9.848548889160156,5.18798828125,0.30517578125,-2.197265625
3.9474999000000004,0.3190273642539978,-0.28072014451026917,9.930550575256348,-0.9765625,-1.03759765625,2.01416015625
3.9524999000000003,0.42377370595932007,-0.25258827209472656,9.576807022094727,-4.791259765625,-0.335693359375,-0.823974609375
3.9574999,0.4985924959182739,-0.30885201692581177,9.962871551513672,5.950927734375,0.48828125,-1.5869140625
3.9624999,0.4495113790035248,-0.24779987335205078,9.645041465759277,-4.69970703125,-1.007080078125,-1.3427734375
3.9674999000000004,0.5015852451324463,-0.3250128924846649,10.012551307678223,6.103515625,1.28173828125,-1.3427734375
3.9724999000000003,0.2849099934101105,-0.26575639843940735,9.884461402893066,-3.0517578125,0,2.227783203125
3.9774999,0.5303156971931458,-0.29628247022628784,9.607931137084961,-2.960205078125,-0.213623046875,-1.678466796875
3.9824999,0.47584760189056396,-0.3363853394985199,9.967659950256348,6.378173828125,0.762939453125,-1.220703125
3.9874999,0.28790274262428284,-0.2513911724090576,9.79647445678711,-3.509521484375,-0.396728515625,1.89208984375
3.9924999000000003,0.5147533416748047,-0.2849099934101105,9.633070945739746,-1.434326171875,1.3427734375,-1.983642578125
3.9974999,0.4118026793003082,-0.28969839215278625,9.99100399017334,5.859375,-0.732421875,-0.701904296875
4.0024999,0.2801215946674347,-0.2513911724090576,9.833584785461426,-4.669189453125,-1.739501953125,1.800537109375
4.0074999,0.518943190574646,-0.2849099934101105,9.673771858215332,-0.335693359375,0.732421875,-2.01416015625
4.0124999,0.424970805644989,-0.29388827085494995,10.020931243896484,5.584716796875,0.213623046875,-0.091552734375
4.0174999,0.34416648745536804,-0.27473464608192444,9.713275909423828,-5.2490234375,0.030517578125,1.708984375
4.022499900000001,0.38905778527259827,-0.25318682193756104,9.922170639038086,4.94384765625,0,0.42724609375
4.0274999000000005,0.2693476974964142,-0.22864626348018646,9.607333183288574,-5.706787109375,-0.54931640625,1.28173828125
4.0324999,0.43933600187301636,-0.21368250250816345,9.619902610778809,1.739501953125,0.701904296875,-2.593994140625
4.0374999,0.33997663855552673,-0.24420857429504395,9.965266227722168,3.997802734375,-0.3662109375,0.640869140625
4.0424999,0.292691171169281,-0.23403321206569672,9.618106842041016,-5.950927734375,-0.946044921875,0.701904296875
4.0474999,0.5141547918319702,-0.2885012924671173,9.643844604492188,2.777099609375,1.46484375,-2.471923828125
4.0524999,0.40282443165779114,-0.2902969419956207,9.929352760314941,2.899169921875,-0.091552734375,1.251220703125
4.0574999,0.3531447649002075,-0.29867666959762573,9.526528358459473,-6.256103515625,-0.518798828125,0.30517578125
4.062499900000001,0.5512649416923523,-0.3214215636253357,9.660603523254395,3.814697265625,0.3662109375,-2.838134765625
4.0674999000000005,0.34596213698387146,-0.25318682193756104,9.948506355285645,1.983642578125,0.1220703125,1.64794921875
4.0724999,0.3513490855693817,-0.2579752206802368,9.560047149658203,-5.859375,0.1220703125,0.152587890625
4.0774999,0.5351040959358215,-0.28131869435310364,9.81263542175293,4.302978515625,-0.152587890625,-2.62451171875
4.0824999,0.4279635548591614,-0.2819172441959381,9.573814392089844,-4.638671875,-0.213623046875,-0.732421875
4.0874999,0.5201402902603149,-0.3106476664543152,9.9586820602417,5.79833984375,-0.274658203125,-2.0751953125
4.0924999,0.2645592987537384,-0.24241292476654053,9.991601943969727,-1.800537109375,-0.6103515625,1.922607421875
4.0974999,0.436343252658844,-0.29807811975479126,9.646238327026367,-3.72314453125,0.1220703125,-1.03759765625
4.1024999,0.4967968463897705,-0.33698388934135437,10.019135475158691,6.561279296875,1.373291015625,-1.434326171875
4.1074999000000005,0.272938996553421,-0.32202014327049255,9.874286651611328,-2.166748046875,0.3662109375,1.800537109375
4.1124999,0.5159504413604736,-0.34656068682670593,9.576208114624023,-2.9296875,0.67138671875,-1.617431640625
4.1174999,0.48602294921875,-0.31842881441116333,9.913790702819824,6.16455078125,0.6103515625,-1.15966796875
4.1224999,0.2902969419956207,-0.272938996553421,9.744400978088379,-3.692626953125,0.030517578125,1.983642578125
4.1274999,0.5003881454467773,-0.29149407148361206,9.62828254699707,-0.79345703125,-0.274658203125,-2.410888671875
4.1324999,0.4159925580024719,-0.26575639843940735,10.004171371459961,5.37109375,-0.42724609375,-0.244140625
4.1374999,0.3232172429561615,-0.3058592677116394,9.702502250671387,-5.401611328125,-1.15966796875,1.5869140625
4.1424999,0.3232172429561615,-0.3058592677116394,9.702502250671387,-5.401611328125,-1.15966796875,1.5869140625
4.147499900000001,0.5201402902603149,-0.3082534670829773,9.633668899536133,0.091552734375,-0.457763671875,-2.50244140625
4.1524999000000005,0.395043283700943,-0.26096799969673157,9.9401273727417,4.547119140625,-0.640869140625,0.274658203125
4.1574999,0.2783259451389313,-0.27413609623908997,9.624092102050781,-5.79833984375,-0.579833984375,1.617431640625
4.1624999,0.3489548861980438,-0.21188685297966003,9.97484302520752,3.875732421875,-0.396728515625,0.48828125
4.1674999,0.3489548861980438,-0.21188685297966003,9.97484302520752,3.875732421875,-0.396728515625,0.48828125
4.1724999,0.2759317457675934,-0.2472013235092163,9.622895240783691,-6.65283203125,-0.762939453125,1.3427734375
4.1774999,0.3800795078277588,-0.26336219906806946,9.955689430236816,3.204345703125,0.030517578125,0.946044921875
4.1824999,0.3381809890270233,-0.3148375153541565,9.577404975891113,-5.950927734375,-0.18310546875,0.640869140625
4.187499900000001,0.547075092792511,-0.29149407148361206,9.676166534423828,4.119873046875,1.007080078125,-2.5634765625
4.1924999000000005,0.36571431159973145,-0.2519897222518921,9.95329475402832,1.800537109375,-0.1220703125,1.495361328125
4.1974999,0.3597288131713867,-0.27712884545326233,9.53849983215332,-6.4697265625,0.3662109375,0.396728515625
4.2024999,0.5482721924781799,-0.25917232036590576,9.75936508178711,4.669189453125,1.0986328125,-2.471923828125
4.2074999,0.33937808871269226,-0.26994624733924866,9.948506355285645,0.823974609375,-0.091552734375,1.678466796875
4.2124999,0.4076128304004669,-0.34596213698387146,9.544485092163086,-5.462646484375,-0.640869140625,-0.30517578125
4.2174999,0.569819986820221,-0.3256114423274994,9.808445930480957,5.43212890625,0.823974609375,-2.288818359375
4.2224999,0.33279404044151306,-0.3489548861980438,9.877279281616211,-0.6103515625,-0.54931640625,1.800537109375
4.2274999,0.4183867573738098,-0.3345896899700165,9.501988410949707,-4.7607421875,-1.3427734375,-1.007080078125
4.2324999000000005,0.5117605924606323,-0.2998737692832947,9.858125686645508,5.950927734375,1.434326171875,-1.708984375
4.2374999,0.5081692934036255,-0.3321954905986786,9.987412452697754,6.16455078125,0.579833984375,-1.068115234375
4.2424999,0.5033808946609497,-0.2693476974964142,9.671378135681152,-1.15966796875,0.18310546875,-2.197265625
4.2474999,0.40701428055763245,-0.29568392038345337,10.02452278137207,5.523681640625,-0.3662109375,-0.396728515625
4.2524999,0.31364041566848755,-0.2693476974964142,9.782109260559082,-5.218505859375,-0.640869140625,1.8310546875
4.2574999,0.4159925580024719,-0.31543606519699097,10.00716495513916,5.18798828125,-0.579833984375,0.091552734375
4.2624999,0.32381579279899597,-0.26575639843940735,9.704896926879883,-5.79833984375,-0.8544921875,1.434326171875
4.2674999,0.4818331003189087,-0.21966800093650818,9.661202430725098,0.9765625,0.885009765625,-2.50244140625
4.272499900000001,0.3693056106567383,-0.23582886159420013,10.019734382629395,4.608154296875,0.8544921875,0.732421875
4.2774999000000005,0.2735375463962555,-0.17537526786327362,9.655815124511719,-5.92041015625,0.274658203125,1.251220703125
4.2824999,0.4686649739742279,-0.23163901269435883,9.695918083190918,2.777099609375,1.129150390625,-2.716064453125
4.2874999,0.3734954595565796,-0.28371289372444153,9.930550575256348,3.448486328125,0.091552734375,0.946044921875
4.2924999,0.3298012912273407,-0.28550854325294495,9.569025993347168,-5.9814453125,-0.091552734375,0.79345703125
4.2974999,0.5363011956214905,-0.34416648745536804,9.601346969604492,3.448486328125,1.46484375,-2.349853515625
4.3024999,0.3818751573562622,-0.30286651849746704,9.870695114135742,2.593994140625,0.274658203125,1.28173828125
4.3074999,0.3495534360408783,-0.2759317457675934,9.488221168518066,-5.9814453125,0.579833984375,0.54931640625
4.312499900000001,0.5410895943641663,-0.2908954918384552,9.679159164428711,5.126953125,1.708984375,-2.532958984375
4.3174999000000005,0.3908534348011017,-0.26096799969673157,9.556455612182617,-5.279541015625,0.3662109375,-0.3662109375
4.3224999,0.5602431893348694,-0.3214215636253357,9.807249069213867,5.279541015625,0.6103515625,-2.38037109375
4.3274999,0.3447650372982025,-0.2861070930957794,9.926360130310059,0.579833984375,-0.396728515625,1.708984375
4.3324999,0.4321534037590027,-0.2693476974964142,9.536105155944824,-4.82177734375,0.091552734375,-0.885009765625
4.3374999,0.5404910445213318,-0.3250128924846649,9.84495735168457,5.79833984375,0.640869140625,-1.739501953125
4.3424999,0.2759317457675934,-0.21607670187950134,9.893440246582031,-1.007080078125,-0.8544921875,2.0751953125
4.3474999,0.39564183354377747,-0.23582886159420013,9.539097785949707,-4.364013671875,-0.6103515625,-1.15966796875
4.352499900000001,0.4710591733455658,-0.3124433159828186,9.925163269042969,5.950927734375,-0.1220703125,-1.89208984375
4.3574999000000005,0.22924481332302094,-0.2537853717803955,9.911994934082031,-2.01416015625,-0.823974609375,2.044677734375
4.3624999,0.4554968774318695,-0.2908954918384552,9.607931137084961,-3.326416015625,0.335693359375,-1.28173828125
4.3674999,0.49140989780426025,-0.35015198588371277,9.996390342712402,6.195068359375,0.030517578125,-1.3427734375
4.3724999,0.29568392038345337,-0.27653029561042786,9.86231517791748,-3.204345703125,-0.6103515625,1.922607421875
4.3774999,0.5392939448356628,-0.29149407148361206,9.616311073303223,-2.25830078125,1.5869140625,-1.708984375
4.3824999,0.46806642413139343,-0.3172317147254944,9.984419822692871,6.195068359375,0.518798828125,-0.8544921875
4.3874999,0.2932897210121155,-0.24241292476654053,9.821614265441895,-3.96728515625,-0.518798828125,1.77001953125
4.3924999,0.5135562419891357,-0.26815059781074524,9.618705749511719,-1.5869140625,1.617431640625,-1.800537109375
4.397499900000001,0.414795458316803,-0.2825157940387726,9.981427192687988,5.79833984375,1.007080078125,-0.335693359375
4.4024999000000005,0.41778820753097534,-0.2998737692832947,9.906607627868652,5.462646484375,0.6103515625,0
4.4074999,0.3232172429561615,-0.2783259451389313,9.633070945739746,-5.096435546875,-0.030517578125,1.52587890625
4.4124999,0.4866214990615845,-0.24660277366638184,9.55705451965332,1.03759765625,0.091552734375,-2.899169921875
4.4174999,0.3645172119140625,-0.23822307586669922,9.972448348999023,4.69970703125,-0.091552734375,0.274658203125
4.4224999,0.2645592987537384,-0.18136078119277954,9.645041465759277,-5.859375,-0.946044921875,1.15966796875
4.4274999,0.44592007994651794,-0.2148796021938324,9.692925453186035,1.861572265625,-0.244140625,-2.532958984375
4.4324999,0.5111620426177979,-0.33937808871269226,9.657012939453125,3.60107421875,1.495361328125,-2.62451171875
4.437499900000001,0.37409400939941406,-0.30226796865463257,9.928155899047852,2.99072265625,-0.06103515625,1.068115234375
4.4424999000000005,0.3579331636428833,-0.2861070930957794,9.550470352172852,-5.950927734375,-0.30517578125,0.396728515625
4.4474999,0.5488707423210144,-0.2902969419956207,9.710283279418945,4.39453125,1.40380859375,-2.410888671875
4.4524999,0.3423708379268646,-0.22266076505184174,9.989806175231934,1.739501953125,-0.1220703125,1.5869140625
4.4574999,0.3621230125427246,-0.2537853717803955,9.589975357055664,-5.67626953125,-0.274658203125,0.030517578125
4.4624999,0.545877993106842,-0.304063618183136,9.82879638671875,5.340576171875,0.91552734375,-2.44140625
4.4674999,0.3345896899700165,-0.272938996553421,9.944316864013672,0.48828125,-0.91552734375,1.617431640625
4.4724999,0.444722980260849,-0.284311443567276,9.519346237182617,-5.828857421875,-1.0986328125,-0.396728515625
4.477499900000001,0.5758054852485657,-0.3411737382411957,9.807249069213867,5.523681640625,0.91552734375,-1.77001953125
4.4824999000000005,0.32202014327049255,-0.2555810213088989,9.869498252868652,-0.8544921875,-0.091552734375,1.922607421875
4.4874999,0.4165911078453064,-0.26994624733924866,9.546878814697266,-4.913330078125,-0.42724609375,-0.885009765625
4.4924999,0.48602294921875,-0.32022446393966675,9.938331604003906,6.317138671875,0.8544921875,-1.52587890625
4.4974999,0.22744916379451752,-0.2513911724090576,9.979032516479492,-1.922607421875,-0.3662109375,1.953125
4.5024999,0.4357447028160095,-0.2908954918384552,9.644442558288574,-3.90625,-0.762939453125,-1.678466796875
4.5074999,0.48901569843292236,-0.34356793761253357,10.032303810119629,6.256103515625,0.213623046875,-1.0986328125
4.5124999,0.28730419278144836,-0.2902969419956207,9.8784761428833,-2.86865234375,-0.396728515625,2.227783203125
4.5174999,0.5273229479789734,-0.31842881441116333,9.605537414550781,-2.685546875,-0.579833984375,-1.77001953125
4.522499900000001,0.47405192255973816,-0.31842881441116333,9.927556991577148,6.103515625,-0.091552734375,-1.15966796875
4.5274999000000005,0.284311443567276,-0.25737667083740234,9.7791166305542,-3.72314453125,-0.42724609375,1.953125
4.5324999,0.5057750940322876,-0.2801215946674347,9.570821762084961,-1.0986328125,1.3427734375,-2.166748046875
4.5374999,0.406415730714798,-0.25737667083740234,9.949105262756348,6.04248046875,0.67138671875,-0.48828125
4.5424999,0.2825157940387726,-0.24660277366638184,9.768342971801758,-4.913330078125,-0.152587890625,1.953125
4.5474999,0.48722004890441895,-0.26096799969673157,9.548076629638672,0.79345703125,0.457763671875,-2.25830078125
4.5524999,0.36092591285705566,-0.21966800093650818,9.888052940368652,4.608154296875,-0.18310546875,0.3662109375
4.5574999,0.2579752206802368,-0.2106897532939911,9.588179588317871,-6.195068359375,-0.8544921875,1.129150390625
4.562499900000001,0.4315548539161682,-0.22266076505184174,9.612719535827637,2.288818359375,0.946044921875,-2.62451171875
4.5674999000000005,0.34596213698387146,-0.24241292476654053,9.963470458984375,3.72314453125,-0.762939453125,0.762939453125
4.5724999,0.2819172441959381,-0.2849099934101105,9.591172218322754,-6.378173828125,-1.5869140625,0.579833984375
4.5774999,0.5105634927749634,-0.3280056416988373,9.657012939453125,3.326416015625,0.701904296875,-2.593994140625
4.5824999,0.3776853084564209,-0.29568392038345337,9.91977596282959,2.777099609375,-0.457763671875,1.129150390625
4.5874999,0.3489548861980438,-0.3166331648826599,9.54209041595459,-6.439208984375,-1.0986328125,0.18310546875
4.5924999,0.5482721924781799,-0.28131869435310364,9.698312759399414,3.570556640625,-0.518798828125,-2.471923828125
4.5974999,0.33997663855552673,-0.272938996553421,9.951498985290527,0.152587890625,-0.79345703125,1.678466796875
4.602499900000001,0.444722980260849,-0.3010708689689636,9.545083999633789,-5.401611328125,-0.396728515625,-0.48828125
4.6074999000000005,0.5776011347770691,-0.32441434264183044,9.844358444213867,6.072998046875,0.18310546875,-2.105712890625
4.6124999,0.333991140127182,-0.2687491476535797,9.880870819091797,-0.335693359375,-0.732421875,1.8310546875
4.6174999,0.42676645517349243,-0.29568392038345337,9.509769439697266,-4.608154296875,0.518798828125,-0.701904296875
4.6224999,0.5105634927749634,-0.2974795699119568,9.894038200378418,5.859375,-0.335693359375,-1.8310546875
4.6274999,0.25079262256622314,-0.2717418968677521,9.92097282409668,-1.800537109375,-0.54931640625,1.953125
4.6324999,0.4411316514015198,-0.3256114423274994,9.619902610778809,-3.2958984375,-0.274658203125,-1.64794921875
4.6374999,0.497395396232605,-0.3034650683403015,10.029311180114746,6.4697265625,0.579833984375,-1.495361328125
4.6424999,0.2693476974964142,-0.3172317147254944,9.90361499786377,-2.655029296875,-0.6103515625,2.0751953125
4.647499900000001,0.41718965768814087,-0.22924481332302094,9.982624053955078,5.950927734375,-0.396728515625,-0.6103515625
4.6524999000000005,0.2801215946674347,-0.28311434388160706,9.77791976928711,-4.94384765625,-0.823974609375,2.044677734375
4.6574999,0.5363011956214905,-0.28730419278144836,9.628880500793457,-0.457763671875,0.67138671875,-2.25830078125
4.6624999,0.44173020124435425,-0.24361002445220947,9.97364616394043,5.035400390625,-0.67138671875,-0.091552734375
4.6674999,0.3519476354122162,-0.3232172429561615,9.6989107131958,-5.859375,-0.48828125,2.044677734375
4.6724999,0.5351040959358215,-0.2783259451389313,9.626486778259277,0.732421875,0.67138671875,-2.38037109375
4.6774999,0.3968389332294464,-0.23283611238002777,10.01075553894043,5.0048828125,1.40380859375,0.274658203125
4.6824999,0.28371289372444153,-0.24600422382354736,9.715071678161621,-5.37109375,1.129150390625,1.495361328125
4.687499900000001,0.4465186297893524,-0.18614917993545532,9.728240013122559,1.52587890625,-0.274658203125,-2.5634765625
4.6924999000000005,0.28371289372444153,-0.24121582508087158,9.68813705444336,-5.7373046875,-0.091552734375,1.190185546875
4.6974999,0.4926069974899292,-0.2555810213088989,9.716867446899414,2.86865234375,1.46484375,-2.3193359375
4.7024999,0.38965633511543274,-0.3196259140968323,9.98681354522705,3.387451171875,0.396728515625,0.9765625
4.7074999,0.33279404044151306,-0.284311443567276,9.59596061706543,-5.645751953125,-0.396728515625,0.457763671875
4.7124999,0.5380968451499939,-0.30705636739730835,9.741408348083496,3.692626953125,0.030517578125,-2.471923828125
4.7174999,0.3531447649002075,-0.27473464608192444,10.00836181640625,2.25830078125,0.18310546875,1.52587890625
4.7224999,0.3585317134857178,-0.22924481332302094,9.636063575744629,-5.523681640625,0.274658203125,0.213623046875
4.727499900000001,0.5536591410636902,-0.28730419278144836,9.846753120422363,4.852294921875,1.46484375,-2.25830078125
4.7324999000000005,0.3423708379268646,-0.26815059781074524,9.997588157653809,0.885009765625,-0.396728515625,1.52587890625
4.7374999,0.3423708379268646,-0.26815059781074524,9.997588157653809,0.885009765625,-0.396728515625,1.52587890625
4.7424999,0.4183867573738098,-0.2902969419956207,9.580398559570312,-5.4931640625,-0.885009765625,-0.3662109375
4.7474999,0.5692214369773865,-0.3603273630142212,9.822212219238281,4.94384765625,-0.1220703125,-1.861572265625
4.7524999,0.4321534037590027,-0.2537853717803955,9.520543098449707,-4.852294921875,0.396728515625,-0.885009765625
4.7574999,0.5129576921463013,-0.29867666959762573,9.8599214553833,5.2490234375,-0.274658203125,-1.708984375
4.7624999,0.2519897222518921,-0.20350714027881622,9.921571731567383,-1.556396484375,-0.30517578125,2.044677734375
4.7674999,0.4118026793003082,-0.22206220030784607,9.598953247070312,-3.814697265625,0.579833984375,-1.129150390625
4.772499900000001,0.48722004890441895,-0.3214215636253357,10.010157585144043,5.889892578125,0.091552734375,-1.52587890625
4.7774999000000005,0.26815059781074524,-0.25318682193756104,9.915586471557617,-2.3193359375,-0.335693359375,1.77001953125
4.7824999,0.5225345492362976,-0.29388827085494995,9.628880500793457,-2.74658203125,-0.213623046875,-1.922607421875
4.7874999,0.507570743560791,-0.3477577865123749,9.970054626464844,6.011962890625,-0.54931640625,-1.15966796875
4.7924999,0.31184476613998413,-0.26755204796791077,9.787496566772461,-3.631591796875,-0.885009765625,1.89208984375
4.7974999,0.5363011956214905,-0.29628247022628784,9.579200744628906,-0.946044921875,2.38037109375,-1.8310546875
4.8024999,0.4429273009300232,-0.30705636739730835,9.962871551513672,6.40869140625,0.579833984375,-0.518798828125
4.8074999,0.2950853705406189,-0.24660277366638184,9.815030097961426,-4.180908203125,-0.54931640625,1.861572265625
4.812499900000001,0.30286651849746704,-0.23942017555236816,9.657610893249512,-5.645751953125,-0.885009765625,1.556396484375
4.8174999000000005,0.4728548228740692,-0.22744916379451752,9.663596153259277,1.739501953125,1.03759765625,-2.593994140625
4.8224999,0.3555389642715454,-0.23702596127986908,10.012551307678223,4.5166015625,-0.091552734375,0.54931640625
4.8274999,0.2687491476535797,-0.21607670187950134,9.683947563171387,-6.34765625,-0.79345703125,0.762939453125
4.8324999,0.46088382601737976,-0.2735375463962555,9.713275909423828,2.5634765625,1.190185546875,-2.655029296875
4.8374999,0.3495534360408783,-0.2944868206977844,9.96825885772705,3.5400390625,0.579833984375,1.129150390625
4.8424999,0.29628247022628784,-0.30047231912612915,9.570222854614258,-6.011962890625,-0.213623046875,0.701904296875
4.8474999,0.518943190574646,-0.3477577865123749,9.66419506072998,3.936767578125,-0.030517578125,-2.74658203125
4.852499900000001,0.3519476354122162,-0.27892449498176575,9.586981773376465,-5.9814453125,1.312255859375,0.30517578125
4.8574999000000005,0.3519476354122162,-0.27892449498176575,9.586981773376465,-5.9814453125,1.312255859375,0.30517578125
4.8624999,0.5500678420066833,-0.2968810200691223,9.80904483795166,4.241943359375,-0.274658203125,-2.593994140625
4.8674999,0.3387795388698578,-0.2388216257095337,10.026318550109863,1.220703125,-0.732421875,1.861572265625
4.8724999,0.4100070297718048,-0.2585737705230713,9.607333183288574,-5.37109375,-0.244140625,-0.30517578125
4.8774999,0.5793967843055725,-0.3345896899700165,9.854534149169922,5.523681640625,0.701904296875,-2.25830078125
4.8824999,0.26815059781074524,-0.2256535142660141,9.91977596282959,-0.9765625,-0.335693359375,2.105712890625
4.8874999,0.406415730714798,-0.25977087020874023,9.575610160827637,-4.33349609375,-0.030517578125,-1.007080078125
4.8924999,0.47225627303123474,-0.314238965511322,9.968857765197754,6.28662109375,0.579833984375,-1.495361328125
4.897499900000001,0.2364274114370346,-0.262763649225235,9.893440246582031,-2.105712890625,-0.396728515625,2.01416015625
4.9024999000000005,0.29807811975479126,-0.2585737705230713,9.815030097961426,-2.99072265625,0,2.044677734375
4.9074999,0.5279214978218079,-0.284311443567276,9.607333183288574,-2.44140625,0.946044921875,-1.64794921875
4.9124999,0.4411316514015198,-0.30047231912612915,9.983820915222168,5.889892578125,0.396728515625,-0.701904296875
4.9174999,0.26994624733924866,-0.25917232036590576,9.829395294189453,-4.364013671875,0.18310546875,1.983642578125
4.9224999,0.5027823448181152,-0.304063618183136,9.663596153259277,-0.946044921875,0.18310546875,-2.197265625
4.9274999,0.4129997789859772,-0.30047231912612915,10.019135475158691,5.615234375,-0.640869140625,-0.518798828125
4.9324999,0.3082534670829773,-0.28311434388160706,9.774927139282227,-5.18798828125,-0.91552734375,1.739501953125
4.937499900000001,0.5291185975074768,-0.2992752194404602,9.618106842041016,0.732421875,1.983642578125,-2.227783203125
4.9424999000000005,0.40940847992897034,-0.2663549482822418,9.928155899047852,5.55419921875,0.42724609375,0.091552734375
4.9474999,0.30466216802597046,-0.2519897222518921,9.601945877075195,-5.584716796875,-0.18310546875,1.556396484375
4.9524999,0.46327802538871765,-0.21787235140800476,9.5624418258667,1.617431640625,0.762939453125,-2.593994140625
4.9574999,0.45190557837486267,-0.23822307586669922,9.680954933166504,2.25830078125,0.946044921875,-2.50244140625
4.9624999,0.3603273630142212,-0.24660277366638184,9.980828285217285,3.23486328125,0.67138671875,1.03759765625
4.9674999,0.3208230137825012,-0.2890998423099518,9.600749015808105,-6.2255859375,1.28173828125,1.03759765625
4.9724999,0.5297171473503113,-0.333991140127182,9.664793968200684,3.753662109375,0.9765625,-2.3193359375
4.977499900000001,0.36810851097106934,-0.28790274262428284,9.962871551513672,2.38037109375,-0.579833984375,1.251220703125
4.9824999000000005,0.3411737382411957,-0.28790274262428284,9.564835548400879,-6.072998046875,-0.640869140625,0.1220703125
4.9874999,0.5309142470359802,-0.28311434388160706,9.783905029296875,4.2724609375,0,-2.44140625
4.9924999,0.32381579279899597,-0.21966800093650818,10.002974510192871,1.3427734375,-0.18310546875,1.556396484375
4.9974999,0.3878606855869293,-0.26096799969673157,9.570821762084961,-5.67626953125,-0.091552734375,-0.335693359375
5.0024999,0.5662286877632141,-0.3010708689689636,9.805453300476074,4.974365234375,-0.8544921875,-2.38037109375
5.0074999,0.3447650372982025,-0.2867056429386139,9.835380554199219,0.030517578125,-0.6103515625,1.953125
5.0124999,0.4297592043876648,-0.3058592677116394,9.449316024780273,-4.82177734375,0.9765625,-0.396728515625
5.0174999,0.5327098965644836,-0.3381809890270233,9.758766174316406,6.134033203125,0.3662109375,-2.105712890625
5.022499900000001,0.2555810213088989,-0.26815059781074524,9.835380554199219,-0.91552734375,-0.457763671875,2.01416015625
5.0274999000000005,0.39145198464393616,-0.28730419278144836,9.52473258972168,-4.150390625,0.640869140625,-0.946044921875
5.0324999,0.47165772318840027,-0.3130418658256531,9.961075782775879,6.40869140625,1.28173828125,-1.64794921875
5.0374999,0.23343466222286224,-0.27234044671058655,9.91738224029541,-2.38037109375,-0.30517578125,2.197265625
5.0424999,0.304063618183136,-0.3010708689689636,9.875483512878418,-3.265380859375,-1.007080078125,1.922607421875
5.0474999,0.5374982953071594,-0.31842881441116333,9.643844604492188,-2.349853515625,0.274658203125,-1.739501953125
5.0524999,0.4602852761745453,-0.2867056429386139,10.006566047668457,6.072998046875,-0.335693359375,-0.946044921875
5.0574999,0.28072014451026917,-0.2669534981250763,9.834781646728516,-4.302978515625,-0.54931640625,1.861572265625
5.062499900000001,0.3082534670829773,-0.28790274262428284,9.763554573059082,-5.096435546875,-0.701904296875,1.617431640625
5.0674999000000005,0.536899745464325,-0.3034650683403015,9.627683639526367,-0.06103515625,-0.274658203125,-2.38037109375
5.0724999,0.4315548539161682,-0.262763649225235,9.953893661499023,5.18798828125,1.007080078125,0.396728515625
5.0774999,0.33099839091300964,-0.27712884545326233,9.62947940826416,-5.67626953125,0.579833984375,1.64794921875
5.0824999,0.4967968463897705,-0.23942017555236816,9.57979965209961,1.312255859375,-0.091552734375,-2.62451171875
5.0874999,0.3734954595565796,-0.22385786473751068,9.949105262756348,4.547119140625,-0.213623046875,0.48828125
5.0924999,0.2819172441959381,-0.23104046285152435,9.649829864501953,-5.889892578125,-0.42724609375,0.91552734375
5.0974999,0.47465047240257263,-0.25438392162323,9.676764488220215,2.655029296875,1.190185546875,-2.50244140625
5.102499900000001,0.3705027103424072,-0.24181437492370605,9.992799758911133,3.509521484375,0,1.068115234375
5.1074999000000005,0.3064578175544739,-0.2885012924671173,9.566631317138672,-6.378173828125,-0.244140625,0.54931640625
5.1124999,0.5213374495506287,-0.2932897210121155,9.668983459472656,3.662109375,0.8544921875,-2.44140625
5.1174999,0.5267243981361389,-0.26336219906806946,9.782708168029785,4.180908203125,-0.1220703125,-2.50244140625
5.1224999,0.3250128924846649,-0.228047713637352,10.02691650390625,1.28173828125,0.030517578125,1.953125
5.1274999,0.3968389332294464,-0.26575639843940735,9.609726905822754,-5.4931640625,0.640869140625,-0.457763671875
5.1324999,0.5758054852485657,-0.3076549172401428,9.856329917907715,5.218505859375,1.434326171875,-2.13623046875
5.1374999,0.3597288131713867,-0.2944868206977844,9.922768592834473,0.274658203125,-0.244140625,2.25830078125
5.1424999,0.4513070285320282,-0.31783026456832886,9.515155792236328,-5.7373046875,-1.5869140625,-0.79345703125
5.147499900000001,0.5530605912208557,-0.32620999217033386,9.852738380432129,6.04248046875,1.251220703125,-2.166748046875
5.1524999000000005,0.28790274262428284,-0.2519897222518921,9.917980194091797,-0.91552734375,-0.1220703125,2.288818359375
5.1574999,0.4118026793003082,-0.2753331959247589,9.59057331085205,-4.486083984375,-0.30517578125,-1.068115234375
5.1624999,0.48722004890441895,-0.27413609623908997,10.010157585144043,6.317138671875,0.91552734375,-2.0751953125
5.1674999,0.2472013235092163,-0.27473464608192444,9.964069366455078,-2.349853515625,-0.54931640625,2.105712890625
5.1724999,0.507570743560791,-0.3172317147254944,10.012551307678223,5.828857421875,-0.30517578125,-1.617431640625
5.1774999,0.2944868206977844,-0.31364041566848755,9.850942611694336,-3.631591796875,-0.823974609375,2.0751953125
5.1824999,0.5309142470359802,-0.3124433159828186,9.613917350769043,-2.5634765625,0.1220703125,-1.8310546875
5.187499900000001,0.44771572947502136,-0.2645592987537384,9.966463088989258,5.950927734375,1.03759765625,-0.732421875
5.1924999000000005,0.272938996553421,-0.2693476974964142,9.803657531738281,-4.425048828125,0.091552734375,2.044677734375
5.1974999,0.4991910457611084,-0.314238965511322,9.616311073303223,-1.28173828125,-0.457763671875,-2.25830078125
5.2024999,0.41778820753097534,-0.26396074891090393,9.972448348999023,5.92041015625,0.79345703125,-0.42724609375
5.2074999,0.31124621629714966,-0.3250128924846649,9.741408348083496,-5.2490234375,0.091552734375,1.77001953125
5.2124999,0.5386953949928284,-0.3357867896556854,9.617507934570312,0.152587890625,0.213623046875,-2.25830078125
5.2174999,0.42437225580215454,-0.26994624733924866,9.97065258026123,5.096435546875,-0.67138671875,0.244140625
5.2224999,0.31603461503982544,-0.32381579279899597,9.688735961914062,-5.767822265625,-0.823974609375,1.52587890625
5.227499900000001,0.4776432514190674,-0.26994624733924866,9.654019355773926,1.5869140625,0.9765625,-2.532958984375
5.2324999000000005,0.314238965511322,-0.3016694188117981,9.57201862335205,-5.584716796875,0.885009765625,0.67138671875
5.2374999,0.5099649429321289,-0.2759317457675934,9.625887870788574,3.5400390625,0.396728515625,-2.44140625
5.2424999,0.36332011222839355,-0.28969839215278625,9.926959037780762,2.44140625,0.18310546875,1.373291015625
5.2474999,0.3363853394985199,-0.29867666959762573,9.53849983215332,-5.828857421875,0.335693359375,0.18310546875
