# Time (seconds),Accel_X,Accel_Y,Accel_Z,Gyro_X,Gyro_Y,Gyro_Z
0.0024999,0.6919242739677429,-0.5363011956214905,9.718663215637207,3.35693359375,0.48828125,-1.220703125
0.0074999,0.706289529800415,-0.4734533727169037,9.895236015319824,1.556396484375,-0.335693359375,1.40380859375
0.012499900000000001,0.6344634294509888,-0.5494692921638489,9.800065994262695,-4.852294921875,-0.152587890625,-0.823974609375
0.0174999,0.6913257241249084,-0.52552729845047,9.710283279418945,3.265380859375,0.274658203125,-1.52587890625
0.0224999,0.7206547260284424,-0.5021837949752808,9.895236015319824,1.800537109375,-0.030517578125,1.434326171875
0.0274999,0.6356605291366577,-0.5889736413955688,9.78989028930664,-4.791259765625,-0.396728515625,-0.579833984375
0.0324999,0.6745663285255432,-0.5943605899810791,9.675567626953125,2.86865234375,0.1220703125,-1.46484375
0.0374999,0.730231523513794,-0.5740098357200623,9.894038200378418,2.166748046875,-0.091552734375,1.495361328125
0.0424999,0.6350619792938232,-0.6476315855979919,9.77672290802002,-4.791259765625,-0.30517578125,-0.244140625
0.0474999,0.6685808300971985,-0.6506243348121643,9.674370765686035,2.44140625,0.30517578125,-1.708984375
0.0524999,0.7374141216278076,-0.5979518890380859,9.898826599121094,2.471923828125,-0.30517578125,1.251220703125
0.0574999,0.6326677799224854,-0.6506243348121643,9.776124000549316,-4.8828125,-0.42724609375,-0.152587890625
0.0624999,0.669179379940033,-0.6374561786651611,9.678560256958008,2.01416015625,0.54931640625,-1.861572265625
0.0674999,0.7541735172271729,-0.5680243372917175,9.882067680358887,3.204345703125,-0.335693359375,1.03759765625
0.0724999,0.657806932926178,-0.6075286865234375,9.777320861816406,-4.852294921875,-0.42724609375,0.18310546875
0.0774999,0.6841431260108948,-0.5835866928100586,9.678560256958008,1.220703125,0.6103515625,-1.861572265625
0.0824999,0.7775170207023621,-0.5141547918319702,9.870695114135742,3.570556640625,-0.396728515625,0.91552734375
0.0874999,0.6787561774253845,-0.5536591410636902,9.816825866699219,-4.791259765625,-0.30517578125,0.42724609375
0.0924999,0.6859387755393982,-0.5554547905921936,9.71926212310791,0.946044921875,0.54931640625,-2.01416015625
0.0974999,0.6823474764823914,-0.5650315880775452,9.870096206665039,-4.638671875,-0.213623046875,0.640869140625
0.1024999,0.6763619780540466,-0.5895721912384033,9.73661994934082,0.30517578125,0.396728515625,-1.89208984375
0.1074999,0.768538773059845,-0.5602431893348694,9.858125686645508,4.08935546875,0.152587890625,0.67138671875
0.1124999,0.6739677786827087,-0.6165069341659546,9.8599214553833,-4.364013671875,-0.42724609375,0.457763671875
0.1174999,0.6667851805686951,-0.6476315855979919,9.6803560256958,0.030517578125,0.244140625,-1.861572265625
0.1224999,0.7410054206848145,-0.595557689666748,9.803058624267578,4.302978515625,0.335693359375,0.946044921875
0.1274999,0.6554127335548401,-0.6141127347946167,9.853337287902832,-3.90625,-0.640869140625,0.701904296875
0.1324999,0.6584054827690125,-0.6326677799224854,9.660603523254395,-0.579833984375,0.274658203125,-1.922607421875
0.1374999,0.7116764783859253,-0.5524620413780212,9.78869342803955,4.57763671875,0.274658203125,0.67138671875
0.1424999,0.6602011322975159,-0.5482721924781799,9.860519409179688,-3.7841796875,-0.518798828125,0.732421875
0.1474999,0.669179379940033,-0.5758054852485657,9.641449928283691,-1.007080078125,0.30517578125,-1.953125
0.1524999,0.7242460250854492,-0.48722004890441895,9.777320861816406,4.669189453125,0.091552734375,0.457763671875
0.1574999,0.6925228238105774,-0.5566518902778625,9.635464668273926,-1.46484375,0.335693359375,-1.953125
0.1624999,0.7368155717849731,-0.48722004890441895,9.761758804321289,5.18798828125,0.030517578125,0.213623046875
0.1674999,0.7170634269714355,-0.5009866952896118,9.852140426635742,-3.2958984375,-0.3662109375,1.46484375
0.1724999,0.6811503767967224,-0.5793967843055725,9.654618263244629,-1.89208984375,0.335693359375,-2.0751953125
0.17749990000000002,0.7254431247711182,-0.5165489912033081,9.767744064331055,4.638671875,0.06103515625,-0.274658203125
0.1824999,0.6961141228675842,-0.5315127968788147,9.86231517791748,-2.9296875,-0.274658203125,1.28173828125
0.1874999,0.6500257849693298,-0.6218938827514648,9.667187690734863,-2.532958984375,0.091552734375,-1.708984375
0.1924999,0.7015010714530945,-0.5578489899635315,9.749189376831055,5.126953125,0.18310546875,-0.213623046875
0.1974999,0.6817489266395569,-0.5518634915351868,9.853337287902832,-2.13623046875,-0.518798828125,1.068115234375
0.2024999,0.6446388363838196,-0.596754789352417,9.64923095703125,-2.899169921875,0.244140625,-1.678466796875
0.20749990000000001,0.702099621295929,-0.5183446407318115,9.729436874389648,4.791259765625,0.79345703125,-0.18310546875
0.2124999,0.6865373253822327,-0.4752490520477295,9.82759952545166,-1.953125,-0.457763671875,1.312255859375
0.2174999,0.6943184733390808,-0.4950011968612671,9.709685325622559,4.852294921875,0.518798828125,-0.30517578125
0.2224999,0.6853402256965637,-0.47225627303123474,9.817423820495605,-0.9765625,-0.8544921875,1.52587890625
0.2274999,0.6230909824371338,-0.579995334148407,9.61331844329834,-3.35693359375,-0.213623046875,-0.91552734375
0.2324999,0.5051765441894531,-0.6709750294685364,9.546878814697266,6.439208984375,-0.6103515625,2.62451171875
0.2374999,0.5147533416748047,-0.9163807034492493,9.657610893249512,6.011962890625,-4.241943359375,10.07080078125
0.2424999,0.1041477769613266,-1.5807716846466064,9.223662376403809,10.955810546875,-2.13623046875,14.2822265625
0.2474999,-0.014365210197865963,-1.6663644313812256,8.89026927947998,42.266845703125,-2.74658203125,28.1982421875
0.2524999,-0.3878606855869293,-2.0165164470672607,9.033323287963867,17.486572265625,-1.495361328125,52.490234375
0.2574999,-0.9373299479484558,-1.9734207391738892,8.056488990783691,36.407470703125,4.8828125,56.5185546875
0.2624999,-0.9894038438796997,-1.3958195447921753,9.06863784790039,27.557373046875,-5.706787109375,77.239990234375
0.2674999,-1.4191631078720093,-1.313219666481018,8.271368026733398,20.294189453125,-8.392333984375,75.0732421875
0.2724999,-0.9810241460800171,0.040701430290937424,8.908226013183594,35.0341796875,-16.632080078125,86.639404296875
0.2774999,-0.2861070930957794,1.259350061416626,8.529343605041504,39.154052734375,-19.775390625,89.141845703125
0.2824999,-0.2711433470249176,0.7206547260284424,8.271966934204102,-5.79833984375,-15.655517578125,92.8955078125
0.28749990000000003,0.5297171473503113,1.2910733222961426,8.871115684509277,47.54638671875,-14.95361328125,96.3134765625
0.2924999,0.2513911724090576,0.4794389009475708,8.185176849365234,-7.38525390625,-11.90185546875,94.90966796875
0.2974999,1.0989385843276978,0.7218518257141113,9.189544677734375,51.8798828125,-13.0615234375,94.146728515625
0.3024999,0.7745242714881897,-0.05027823522686958,8.02416706085205,7.293701171875,-5.0048828125,83.49609375
0.3074999,1.644816517829895,0.6021417379379272,8.941145896911621,31.8603515625,-9.09423828125,85.235595703125
0.3124999,1.7232266664505005,0.49799394607543945,7.927800178527832,25.177001953125,0.244140625,69.27490234375
0.3174999,2.074575662612915,0.8122329115867615,8.31865406036377,-25.634765625,-6.4697265625,62.3779296875
0.3224999,2.363675594329834,0.5859808921813965,7.9427642822265625,-45.2880859375,0.579833984375,23.3154296875
0.3274999,3.0370447635650635,0.9720458984375,8.705317497253418,-10.101318359375,-2.5634765625,7.354736328125
0.3324999,3.3249475955963135,0.8906430602073669,8.473678588867188,-61.248779296875,11.962890625,-26.18408203125
0.3374999,3.6176388263702393,0.7164648771286011,8.859145164489746,-6.439208984375,24.7802734375,-34.393310546875
0.3424999,3.3004069328308105,0.8529343605041504,8.489839553833008,-46.234130859375,36.956787109375,-36.62109375
0.34749990000000003,2.823961019515991,0.28072014451026917,9.16201114654541,-50.29296875,32.562255859375,-33.02001953125
0.35249990000000003,2.3020248413085938,-0.025737667456269264,9.633070945739746,-7.080078125,43.121337890625,-37.261962890625
0.3574999,1.2419921159744263,-0.6548141837120056,10.114903450012207,-34.027099609375,37.53662109375,-29.6630859375
0.3624999,0.20530278980731964,-1.1815385818481445,11.10490608215332,5.0048828125,20.721435546875,-12.20703125
0.3674999,-0.6613982319831848,-1.8626888990402222,11.153986930847168,15.625,15.7470703125,-24.71923828125
0.3724999,-1.5065513849258423,-1.941697597503662,10.951677322387695,-10.1318359375,-2.288818359375,-22.430419921875
0.3774999,-1.7363947629928589,-2.0380642414093018,10.572794914245605,15.19775390625,-7.6904296875,-11.993408203125
0.3824999,-1.6813281774520874,-1.6891093254089355,9.643844604492188,-1.617431640625,-6.561279296875,-18.218994140625
0.3874999,-1.3569138050079346,-1.238999366760254,9.5809965133667,-5.55419921875,-15.106201171875,1.800537109375
0.3924999,-0.16998831927776337,-0.0802057534456253,9.452308654785156,-17.578125,-13.61083984375,-2.532958984375
0.3974999,0.4279635548591614,0.1735796183347702,9.851541519165039,4.39453125,-10.528564453125,8.7890625
0.4024999,1.0534487962722778,-0.07900865375995636,9.873088836669922,-12.5732421875,-10.7421875,0.396728515625
0.4074999,1.3634978532791138,-0.37828385829925537,9.797073364257812,11.322021484375,4.119873046875,2.62451171875
0.41249990000000003,1.3239935636520386,-0.7146692276000977,9.684545516967773,-13.397216796875,-0.885009765625,-6.500244140625
0.41749990000000003,1.3120225667953491,-0.9786299467086792,10.042478561401367,11.627197265625,2.99072265625,5.859375
0.4224999,1.2186486721038818,-0.9181763529777527,9.66419506072998,4.39453125,9.8876953125,-5.43212890625
0.4274999,0.8846575021743774,-0.8876502513885498,9.938331604003906,-6.805419921875,-2.166748046875,-2.227783203125
0.4324999,0.823006808757782,-0.6727706789970398,9.865906715393066,16.78466796875,10.1318359375,2.01416015625
0.4374999,0.4985924959182739,-0.4495113790035248,9.64564037322998,-12.8173828125,0.48828125,-7.26318359375
0.4424999,0.4040215313434601,-0.35733461380004883,9.97364616394043,6.683349609375,-1.89208984375,5.0048828125
0.4474999,0.414795458316803,-0.3579331636428833,9.794678688049316,13.153076171875,2.62451171875,3.96728515625
0.4524999,0.3645172119140625,-0.44831427931785583,9.646238327026367,-15.777587890625,-5.126953125,-5.828857421875
0.4574999,0.4991910457611084,-0.628477931022644,10.021530151367188,8.7890625,-3.23486328125,6.103515625
0.4624999,0.6847416758537292,-0.5632359385490417,9.61212158203125,-1.03759765625,3.692626953125,-5.218505859375
0.4674999,0.6536170840263367,-0.6715735793113708,9.97065258026123,-7.110595703125,-6.500244140625,1.0986328125
0.47249990000000003,0.933738648891449,-0.6224924325942993,9.7791166305542,14.007568359375,7.99560546875,1.129150390625
0.47749990000000003,0.7918822169303894,-0.5770025849342346,9.688735961914062,-14.95361328125,-2.197265625,-4.94384765625
0.4824999,0.9205705523490906,-0.595557689666748,9.953893661499023,13.916015625,3.082275390625,5.523681640625
0.4874999,0.790086567401886,-0.4602852761745453,9.510966300964355,-7.080078125,4.5166015625,-7.14111328125
0.4924999,0.6506243348121643,-0.5015852451324463,9.990405082702637,0.3662109375,-4.21142578125,4.547119140625
0.4974999,0.690727174282074,-0.40462008118629456,9.625887870788574,8.026123046875,7.415771484375,-2.288818359375
0.5024999,0.7338228225708008,-0.47824180126190186,9.621099472045898,8.087158203125,5.37109375,-2.74658203125
0.5074999,0.5841852426528931,-0.5668272376060486,9.824007987976074,-13.3056640625,-5.92041015625,-1.3427734375
0.5124999,0.7864952683448792,-0.5692214369773865,9.794678688049316,15.380859375,3.509521484375,2.5634765625
0.5174999,0.6177040338516235,-0.5847837924957275,9.579200744628906,-14.984130859375,-1.922607421875,-5.37109375
0.5224999,0.7146692276000977,-0.5871779918670654,10.012551307678223,12.542724609375,-0.518798828125,5.43212890625
0.5274999,0.6518214344978333,-0.4920084476470947,9.509170532226562,-8.453369140625,2.685546875,-6.866455078125
0.5324999,0.7098808288574219,-0.43993455171585083,9.623494148254395,2.62451171875,5.126953125,-4.669189453125
0.5374999,0.5237316489219666,-0.46327802538871765,10.012551307678223,-8.270263671875,-5.37109375,1.953125
0.5424999,0.7547720670700073,-0.48602294921875,9.768941879272461,11.71875,4.7607421875,-0.885009765625
0.5474999,0.5560533404350281,-0.5165489912033081,9.85034465789795,-14.678955078125,-3.5400390625,-2.105712890625
0.5524999,0.7422025203704834,-0.5374982953071594,9.9185791015625,15.289306640625,2.349853515625,2.9296875
0.5574999,0.558447539806366,-0.517746090888977,9.59057331085205,-15.07568359375,-0.396728515625,-5.0048828125
0.5624999,0.690727174282074,-0.47405192255973816,9.499593734741211,-0.9765625,4.150390625,-5.584716796875
0.5674999000000001,0.5889736413955688,-0.5404910445213318,10.04188060760498,-2.899169921875,-3.60107421875,4.08935546875
0.5724999000000001,0.7416039705276489,-0.49978959560394287,9.595361709594727,6.927490234375,4.302978515625,-3.47900390625
0.5774999000000001,0.7248445749282837,-0.5602431893348694,9.875483512878418,15.13671875,1.8310546875,1.922607421875
0.5824999,0.5410895943641663,-0.6212953329086304,9.647436141967773,-15.07568359375,-0.6103515625,-3.570556640625
0.5874999,0.6847416758537292,-0.5781996846199036,9.938929557800293,14.251708984375,0.06103515625,4.058837890625
0.5924999,0.5231330990791321,-0.5722141861915588,9.461885452270508,-12.908935546875,0.701904296875,-5.31005859375
0.5974999,0.646434485912323,-0.5033808946609497,10.030508041381836,11.04736328125,-1.678466796875,5.18798828125
0.6024999,0.5752069354057312,-0.4800374507904053,9.427767753601074,-9.1552734375,2.166748046875,-6.16455078125
0.6074999,0.6536170840263367,-0.4985924959182739,10.143633842468262,6.683349609375,-2.777099609375,5.523681640625
0.6124999,0.6596025824546814,-0.47165772318840027,9.515754699707031,-4.241943359375,2.716064453125,-6.134033203125
0.6174999,0.6171054840087891,-0.5500678420066833,10.1753568649292,1.739501953125,-3.387451171875,5.279541015625
0.6224999,0.6829460263252258,-0.5123591423034668,9.555258750915527,0.396728515625,3.082275390625,-5.645751953125
0.6274999,0.6943184733390808,-0.518943190574646,9.5408935546875,4.486083984375,2.838134765625,-4.852294921875
0.6324999,0.5518634915351868,-0.47584760189056396,9.916783332824707,-6.500244140625,-3.5400390625,3.5400390625
0.6374999,0.7380126714706421,-0.5237316489219666,9.5624418258667,7.8125,2.716064453125,-3.936767578125
0.6424999,0.558447539806366,-0.4926069974899292,9.892242431640625,-10.894775390625,-2.716064453125,1.617431640625
0.6474999,0.7326257228851318,-0.578798234462738,9.731232643127441,11.505126953125,2.655029296875,-1.8310546875
0.6524999,0.5398924946784973,-0.5213374495506287,9.881468772888184,-11.993408203125,-2.13623046875,0.579833984375
0.6574999,0.7487865686416626,-0.6027402877807617,9.764153480529785,12.5732421875,2.38037109375,-0.640869140625
0.6624999,0.5620388388633728,-0.52552729845047,9.820416450500488,-12.5732421875,-1.800537109375,-0.42724609375
0.6674999,0.7817068696022034,-0.5404910445213318,9.81024169921875,12.664794921875,1.89208984375,-0.030517578125
0.6724999,0.5752069354057312,-0.4596867263317108,9.778518676757812,-12.664794921875,-1.5869140625,-0.946044921875
0.6774999,0.5518634915351868,-0.46986207365989685,9.77672290802002,-12.75634765625,-1.068115234375,-1.495361328125
0.6824999,0.5518634915351868,-0.46986207365989685,9.77672290802002,-12.75634765625,-1.068115234375,-1.495361328125
0.6874999,0.751779317855835,-0.5680243372917175,9.874286651611328,12.664794921875,1.312255859375,1.007080078125
0.6924999000000001,0.5291185975074768,-0.5566518902778625,9.743802070617676,-12.451171875,-0.946044921875,-1.739501953125
0.6974999000000001,0.7416039705276489,-0.6320692300796509,9.835979461669922,12.63427734375,1.068115234375,1.434326171875
0.7024999000000001,0.5237316489219666,-0.6027402877807617,9.691728591918945,-12.420654296875,-0.885009765625,-2.01416015625
0.7074999,0.74040687084198,-0.6248866319656372,9.804854393005371,12.0849609375,1.007080078125,1.434326171875
0.7124999,0.5207388401031494,-0.586579442024231,9.686341285705566,-12.359619140625,-0.91552734375,-1.983642578125
0.7174999,0.7362170219421387,-0.5770025849342346,9.809642791748047,12.20703125,0.762939453125,1.434326171875
0.7224999,0.5237316489219666,-0.5758054852485657,9.696516990661621,-12.115478515625,-0.8544921875,-1.77001953125
0.7274999,0.7451952695846558,-0.5351040959358215,9.81143856048584,11.932373046875,0.91552734375,0.9765625
0.7324999,0.5374982953071594,-0.586579442024231,9.699509620666504,-12.20703125,-1.03759765625,-1.495361328125
0.7374999,0.5291185975074768,-0.5841852426528931,9.728838920593262,-11.688232421875,-1.46484375,-0.9765625
0.7424999,0.7410054206848145,-0.5303156971931458,9.726444244384766,11.41357421875,1.03759765625,-0.1220703125
0.7474999,0.5015852451324463,-0.5871779918670654,9.781511306762695,-11.474609375,-1.678466796875,0.030517578125
0.7524999,0.7032967209815979,-0.5464765429496765,9.744999885559082,10.894775390625,1.28173828125,-0.701904296875
0.7574999,0.49619829654693604,-0.5805938839912415,9.857526779174805,-10.528564453125,-1.64794921875,0.54931640625
0.7624999,0.7224503755569458,-0.5135562419891357,9.742605209350586,9.918212890625,1.495361328125,-1.77001953125
0.7674999,0.5279214978218079,-0.48482584953308105,9.873687744140625,-9.185791015625,-1.678466796875,1.77001953125
0.7724999,0.761954665184021,-0.4710591733455658,9.639056205749512,8.331298828125,1.861572265625,-2.5634765625
0.7774999,0.5662286877632141,-0.4100070297718048,9.86770248413086,-7.415771484375,-1.953125,2.532958984375
0.7824999,0.7631517648696899,-0.4776432514190674,9.551667213439941,6.378173828125,1.89208984375,-3.448486328125
0.7874999,0.5644330382347107,-0.39205053448677063,9.95329475402832,-5.340576171875,-2.13623046875,3.326416015625
0.7924999,0.7236474752426147,-0.5374982953071594,9.543886184692383,3.814697265625,2.01416015625,-4.486083984375
0.7974999,0.6721721291542053,-0.6422445774078369,9.487024307250977,-2.25830078125,1.922607421875,-5.67626953125
0.8024999,0.6733692288398743,-0.4728548228740692,10.08437728881836,3.84521484375,-1.77001953125,5.06591796875
0.8074999,0.5925649404525757,-0.5919663906097412,9.464279174804688,-5.37109375,1.861572265625,-5.55419921875
0.8124999,0.6404489278793335,-0.4124012291431427,10.018536567687988,7.080078125,-1.434326171875,4.8828125
0.8174999000000001,0.4854243993759155,-0.5464765429496765,9.497200012207031,-8.331298828125,1.190185546875,-4.94384765625
0.8224999000000001,0.6374561786651611,-0.4620809257030487,9.919178009033203,9.368896484375,-1.129150390625,4.058837890625
0.8274999000000001,0.50876784324646,-0.6332663297653198,9.618106842041016,-10.162353515625,0.640869140625,-3.84521484375
0.8324999000000001,0.727837324142456,-0.5638344883918762,9.914389610290527,10.833740234375,-0.518798828125,2.593994140625
0.8374999,0.5901707410812378,-0.7332242727279663,9.758766174316406,-10.8642578125,-0.091552734375,-2.044677734375
0.8424999,0.7918822169303894,-0.6111199855804443,9.832387924194336,10.19287109375,0.213623046875,0.518798828125
0.8474999,0.7661445140838623,-0.5608417391777039,9.636063575744629,8.544921875,0.701904296875,-1.556396484375
0.8524999,0.5518634915351868,-0.5285200476646423,9.81263542175293,-6.77490234375,-1.007080078125,2.01416015625
0.8574999,0.7272387742996216,-0.5273229479789734,9.48882007598877,4.638671875,1.40380859375,-3.47900390625
0.8624999,0.5895721912384033,-0.4578910768032074,9.954492568969727,-2.471923828125,-1.495361328125,3.753662109375
0.8674999,0.6853402256965637,-0.5596446394920349,9.448118209838867,0,1.556396484375,-4.791259765625
0.8724999,0.6560112833976746,-0.4297592043876648,10.078392028808594,2.50244140625,-1.495361328125,4.486083984375
0.8774999,0.6051344871520996,-0.5734112858772278,9.429563522338867,-5.035400390625,1.434326171875,-5.06591796875
0.8824999,0.6763619780540466,-0.4183867573738098,9.982025146484375,6.9580078125,-1.129150390625,4.486083984375
0.8874999,0.5446808934211731,-0.5943605899810791,9.518747329711914,-8.697509765625,0.701904296875,-4.180908203125
0.8924999,0.6943184733390808,-0.47824180126190186,9.936535835266113,9.735107421875,-0.9765625,2.716064453125
0.8974999,0.5608417391777039,-0.6308721303939819,9.780313491821289,-10.07080078125,0.244140625,-2.3193359375
0.9024999,0.7445967197418213,-0.5339069962501526,9.908403396606445,9.8876953125,0.152587890625,0.48828125
0.9074999,0.6440402865409851,-0.38965633511543274,10.045472145080566,1.556396484375,-1.3427734375,4.0283203125
0.9124999,0.5949591398239136,-0.5530605912208557,9.385869026184082,-4.425048828125,1.190185546875,-4.669189453125
0.9174999,0.6703764796257019,-0.4321534037590027,9.904213905334473,6.866455078125,-1.03759765625,3.90625
0.9224999,0.5380968451499939,-0.6476315855979919,9.510966300964355,-8.72802734375,0.732421875,-3.72314453125
0.9274999,0.6967126727104187,-0.4818331003189087,9.84495735168457,9.490966796875,-0.213623046875,2.197265625
0.9324999,0.5201402902603149,-0.6530185341835022,9.764153480529785,-9.58251953125,0,-1.312255859375
0.9374999,0.7158663272857666,-0.5345055460929871,9.753378868103027,8.148193359375,0.396728515625,-0.79345703125
0.9424999000000001,0.5374982953071594,-0.5392939448356628,9.935338973999023,-6.40869140625,-0.6103515625,1.52587890625
0.9474999000000001,0.6991068720817566,-0.5321113467216492,9.5624418258667,3.11279296875,0.946044921875,-3.143310546875
0.9524999000000001,0.5674257874488831,-0.6087257862091064,9.604938507080078,-8.4228515625,0.640869140625,-3.570556640625
0.9574999000000001,0.7104793787002563,-0.4572925269603729,9.870096206665039,9.521484375,-0.54931640625,1.861572265625
0.9624999,0.5590460896492004,-0.5949591398239136,9.81143856048584,-9.1552734375,-0.152587890625,-0.885009765625
0.9674999,0.7254431247711182,-0.5267243981361389,9.754576683044434,7.14111328125,0.6103515625,-0.946044921875
0.9724999,0.569819986820221,-0.48243165016174316,10.021530151367188,-4.82177734375,-0.885009765625,1.953125
0.9774999,0.6649895310401917,-0.5919663906097412,9.551667213439941,1.3427734375,0.946044921875,-3.662109375
0.9824999,0.6230909824371338,-0.43694180250167847,10.07779312133789,2.50244140625,-1.220703125,3.570556640625
0.9874999,0.5518634915351868,-0.5925649404525757,9.521739959716797,-5.706787109375,1.068115234375,-4.08935546875
0.9924999,0.707486629486084,-0.4710591733455658,9.927556991577148,7.99560546875,-0.701904296875,3.11279296875
0.9974999,0.568622887134552,-0.568622887134552,9.720458984375,-9.246826171875,0.244140625,-2.410888671875
1.0024999,0.6165069341659546,-0.5111620426177979,9.913790702819824,-6.927490234375,-0.54931640625,0.8544921875
1.0074999000000002,0.7104793787002563,-0.5165489912033081,9.55466079711914,3.692626953125,0.885009765625,-2.471923828125
1.0124999000000001,0.6153098344802856,-0.4225766062736511,10.014347076416016,0.42724609375,-1.129150390625,3.143310546875
1.0174999000000002,0.5835866928100586,-0.5997475385665894,9.467870712280273,-3.84521484375,0.823974609375,-3.96728515625
1.0224999000000001,0.6859387755393982,-0.4638765752315521,9.926959037780762,7.2021484375,-0.640869140625,3.143310546875
1.0274999,0.5710170865058899,-0.6703764796257019,9.66299819946289,-8.697509765625,0.42724609375,-2.593994140625
1.0324999000000001,0.7104793787002563,-0.5716156363487244,9.765948295593262,8.7890625,0.091552734375,0.732421875
1.0374999,0.5758054852485657,-0.6350619792938232,9.929352760314941,-7.476806640625,-0.48828125,0.396728515625
1.0424999000000001,0.669179379940033,-0.6206967830657959,9.607931137084961,4.0283203125,0.579833984375,-2.410888671875
1.0474999,0.5764040350914001,-0.517746090888977,10.038289070129395,0.030517578125,-0.91552734375,2.716064453125
1.0524999000000002,0.5650315880775452,-0.6290764808654785,9.496601104736328,-3.753662109375,0.79345703125,-3.814697265625
1.0574999,0.6901286244392395,-0.4842272996902466,9.934141159057617,7.2021484375,-0.79345703125,2.99072265625
1.0624999000000002,0.6631938815116882,-0.5632359385490417,9.57321548461914,2.655029296875,0.579833984375,-2.593994140625
1.0674999,0.6105214357376099,-0.44173020124435425,10.06701946258545,1.8310546875,-1.220703125,3.0517578125
1.0724999000000002,0.5518634915351868,-0.5548562407493591,9.581595420837402,-5.37109375,0.6103515625,-3.7841796875
1.0774999,0.6500257849693298,-0.43514615297317505,10.002376556396484,8.11767578125,-0.640869140625,2.227783203125
1.0824999000000002,0.5069721937179565,-0.5494692921638489,9.774927139282227,-8.697509765625,0.152587890625,-1.495361328125
1.0874999,0.6943184733390808,-0.5392939448356628,9.765350341796875,6.89697265625,0.518798828125,-0.640869140625
1.0924999000000002,0.6171054840087891,-0.517746090888977,9.99339771270752,-3.814697265625,-0.640869140625,1.8310546875
1.0974999,0.6542156338691711,-0.5835866928100586,9.527725219726562,-0.701904296875,0.91552734375,-3.326416015625
1.1024999000000002,0.7056909799575806,-0.41958385705947876,9.971850395202637,4.8828125,-0.79345703125,3.11279296875
1.1074999,0.6075286865234375,-0.5949591398239136,9.610325813293457,-7.598876953125,0.3662109375,-2.838134765625
1.1124999000000002,0.6805518269538879,-0.5464765429496765,9.565434455871582,3.662109375,0.640869140625,-2.25830078125
1.1174999,0.6051344871520996,-0.45190557837486267,9.99339771270752,0.732421875,-0.67138671875,2.86865234375
1.1224999000000002,0.6476315855979919,-0.5877765417098999,9.516353607177734,-2.197265625,0.79345703125,-3.173828125
1.1274999,0.730231523513794,-0.4387374520301819,9.939528465270996,5.79833984375,-0.30517578125,2.5634765625
1.1324999000000002,0.585382342338562,-0.585382342338562,9.600150108337402,-8.514404296875,0.1220703125,-1.983642578125
1.1374999000000001,0.7344213724136353,-0.5039794445037842,9.636661529541016,7.9345703125,-0.30517578125,-0.1220703125
1.1424999000000002,0.6320692300796509,-0.517746090888977,9.938331604003906,-5.0048828125,-0.640869140625,1.15966796875
1.1474999000000001,0.6332663297653198,-0.5620388388633728,9.534908294677734,0.579833984375,0.6103515625,-2.9296875
1.1524999000000002,0.6643909811973572,-0.41718965768814087,9.989208221435547,4.33349609375,-0.885009765625,2.685546875
1.1574999000000001,0.5781996846199036,-0.5692214369773865,9.646238327026367,-7.26318359375,0.213623046875,-2.74658203125
1.1624999,0.67815762758255,-0.4507084786891937,9.739013671875,7.99560546875,0.1220703125,0.6103515625
1.1674999000000001,0.6153098344802856,-0.5410895943641663,9.903017044067383,-6.378173828125,-0.3662109375,0.8544921875
1.1724999,0.6446388363838196,-0.5937620401382446,9.552865028381348,2.25830078125,0.6103515625,-2.593994140625
1.1774999000000002,0.6362590789794922,-0.48482584953308105,9.959878921508789,2.716064453125,-0.640869140625,2.777099609375
1.1824999,0.5063736438751221,-0.7122750282287598,9.583391189575195,-6.103515625,0,-1.15966796875
1.1874999000000002,0.46327802538871765,-0.6697779297828674,9.765948295593262,12.542724609375,-1.922607421875,7.8125
1.1924999,0.17298106849193573,-0.8517372608184814,9.88386344909668,0.152587890625,-4.8828125,9.368896484375
1.1974999000000002,0,-0.7996633648872375,9.460687637329102,27.83203125,-3.41796875,10.894775390625
1.2024999,-0.5404910445213318,-0.1412578970193863,10.466851234436035,39.97802734375,-13.153076171875,39.55078125
1.2074999000000002,-1.0893617868423462,-0.36810851097106934,9.537900924682617,19.805908203125,-9.8876953125,42.05322265625
1.2124999,-0.8421604633331299,0.42437225580215454,9.970054626464844,48.2177734375,-16.05224609375,55.5419921875
1.2174999000000002,-1.0995371341705322,0.12090718746185303,8.885480880737305,21.240234375,-13.48876953125,55.2978515625
1.2224999,-0.4495113790035248,0.8301894664764404,9.271546363830566,54.840087890625,-17.88330078125,65.216064453125
1.2274999000000002,-0.4537012279033661,0.3423708379268646,8.398859977722168,33.26416015625,-17.2119140625,57.55615234375
1.2324999,0.4357447028160095,0.5201402902603149,9.37748908996582,54.840087890625,-27.40478515625,63.262939453125
1.2374999000000002,0.6434416770935059,0.47165772318840027,8.527547836303711,53.497314453125,-17.02880859375,48.76708984375
1.2424999,1.414973258972168,0.3705027103424072,9.300874710083008,36.92626953125,-27.252197265625,50.994873046875
1.2474999000000002,1.8381483554840088,0.5710170865058899,8.856152534484863,77.2705078125,-19.012451171875,32.073974609375
1.2524999,2.102707624435425,0.5303156971931458,8.55029296875,10.80322265625,-22.735595703125,24.932861328125
1.2574999000000002,2.6587610244750977,0.6206967830657959,8.810063362121582,61.4013671875,-21.54541015625,6.2255859375
1.2624999000000001,2.9293057918548584,0.8553285598754883,7.908048152923584,-6.7138671875,-16.845703125,-15.838623046875
1.2674999000000002,3.0849289894104004,1.3186066150665283,7.474697589874268,10.8642578125,-1.64794921875,-39.825439453125
1.2724999000000001,2.940079689025879,1.6747441291809082,7.223905086517334,-53.985595703125,0.244140625,-38.665771484375
1.2774999000000002,3.1070752143859863,2.249951124191284,7.614160060882568,-32.745361328125,11.077880859375,-47.515869140625
1.2824999000000001,2.8652608394622803,2.6791117191314697,7.041945934295654,-76.019287109375,22.5830078125,-55.999755859375
1.2874999,2.695871114730835,2.8455088138580322,7.437587738037109,-99.029541015625,26.0009765625,-47.821044921875
1.2924999000000001,2.6617536544799805,2.7120320796966553,7.252037048339844,-85.9375,49.560546875,-62.19482421875
1.2974999,2.207453966140747,2.4163479804992676,7.337629795074463,-139.190673828125,54.99267578125,-54.19921875
1.3024999000000002,1.9734207391738892,1.9033904075622559,8.573038101196289,-107.2998046875,65.49072265625,-40.1611328125
1.3074999,1.1162965297698975,0.5081692934036255,10.31601619720459,-82.763671875,68.2373046875,-31.036376953125
1.3124999000000002,1.1162965297698975,0.5081692934036255,10.31601619720459,-82.763671875,68.2373046875,-31.036376953125
1.3174999,-0.15143325924873352,-1.3090298175811768,12.848483085632324,-5.43212890625,24.0478515625,-1.434326171875
1.3224999000000002,-2.344521999359131,-5.045780181884766,14.041394233703613,1.15966796875,-1.190185546875,-26.0009765625
1.3274999,-2.5534160137176514,-5.541978359222412,12.068572044372559,14.251708984375,-17.730712890625,-24.2919921875
1.3324999000000002,-2.115875720977783,-4.747702121734619,9.148244857788086,17.2119140625,-24.810791015625,-39.520263671875
1.3374999,-1.3467384576797485,-3.137601375579834,7.4106526374816895,-14.34326171875,-16.78466796875,-21.484375
1.3424999000000002,-0.2172738015651703,-1.2725181579589844,7.293336868286133,0.213623046875,5.43212890625,-7.110595703125
1.3474999,0.5015852451324463,0.322618693113327,8.221688270568848,-10.711669921875,6.439208984375,3.2958984375
1.3524999000000002,1.0720038414001465,1.3718775510787964,9.767146110534668,7.049560546875,-0.274658203125,14.434814453125
1.3574999,1.136048674583435,1.4939818382263184,10.248380661010742,-13.702392578125,-1.129150390625,-6.866455078125
1.3624999000000002,0.48482584953308105,-0.7206547260284424,9.871294021606445,-14.09912109375,-6.500244140625,-3.173828125
1.3674999,0.7858967185020447,-1.1252747774124146,10.035296440124512,4.08935546875,-3.326416015625,3.082275390625
1.3724999000000002,0.7858967185020447,-1.1252747774124146,10.035296440124512,4.08935546875,-3.326416015625,3.082275390625
1.3774999,0.9923965930938721,-0.7691373229026794,9.586383819580078,5.615234375,6.683349609375,-4.2724609375
1.3824999000000002,0.8565256595611572,-0.547075092792511,9.804854393005371,-13.0615234375,-1.861572265625,-0.6103515625
1.3874999000000001,0.9552865028381348,-0.39803603291511536,9.800664901733398,14.923095703125,6.77490234375,4.302978515625
1.3924999000000002,0.7284358739852905,-0.34416648745536804,9.633668899536133,-14.2822265625,1.312255859375,-6.866455078125
1.3974999000000001,0.6302735805511475,-0.4734533727169037,10.073603630065918,9.58251953125,-0.54931640625,5.950927734375
1.4024999000000002,0.596754789352417,-0.4794389009475708,9.603142738342285,-1.556396484375,4.852294921875,-6.256103515625
1.4074999000000001,0.3926490843296051,-0.6003460884094238,10.04427433013916,-5.06591796875,-5.79833984375,2.838134765625
1.4124999,0.5835866928100586,-0.5674257874488831,9.764751434326172,12.0849609375,4.364013671875,0
1.4174999000000001,0.3926490843296051,-0.5602431893348694,9.756970405578613,-14.70947265625,-5.06591796875,-3.662109375
1.4224999,0.6135141849517822,-0.5183446407318115,9.90122127532959,14.862060546875,1.77001953125,5.126953125
1.4274999000000002,0.5883750915527344,-0.5889736413955688,10.00836181640625,-5.9814453125,-5.645751953125,2.899169921875
1.4324999,0.7583633661270142,-0.5674257874488831,9.754576683044434,11.53564453125,4.82177734375,-0.335693359375
1.4374999000000002,0.5650315880775452,-0.5835866928100586,9.858723640441895,-14.22119140625,-4.486083984375,-2.62451171875
1.4424999,0.730231523513794,-0.5656301379203796,9.898826599121094,15.533447265625,2.5634765625,3.90625
1.4474999000000002,0.6518214344978333,-0.5237316489219666,9.601346969604492,-14.09912109375,0.18310546875,-6.40869140625
1.4524999,0.7422025203704834,-0.5734112858772278,9.974244117736816,10.162353515625,-1.556396484375,5.767822265625
1.4574999000000002,0.7469909191131592,-0.517746090888977,9.4636812210083,-5.950927734375,3.60107421875,-6.34765625
1.4624999,0.6631938815116882,-0.5889736413955688,9.944915771484375,0.30517578125,-4.547119140625,4.94384765625
1.4674999000000002,0.7445967197418213,-0.5638344883918762,9.528923034667969,5.18798828125,4.791259765625,-3.72314453125
1.4724999,0.5530605912208557,-0.6135141849517822,9.857526779174805,-9.429931640625,-5.2490234375,1.15966796875
1.4774999000000002,0.6093243360519409,-0.5536591410636902,9.576807022094727,-14.58740234375,-0.54931640625,-5.55419921875
1.4824999,0.702099621295929,-0.5321113467216492,10.020332336425781,11.5966796875,-1.52587890625,5.645751953125
1.4874999000000002,0.6703764796257019,-0.4866214990615845,9.43255615234375,-8.636474609375,2.349853515625,-6.500244140625
1.4924999,0.6590040326118469,-0.5386953949928284,10.11430549621582,4.791259765625,-3.631591796875,5.523681640625
1.4974999000000002,0.7541735172271729,-0.5027823448181152,9.516353607177734,-0.518798828125,4.058837890625,-5.645751953125
1.5024999,0.6266822814941406,-0.557250440120697,10.057442665100098,-3.265380859375,-4.180908203125,3.997802734375
1.5074999000000002,0.7745242714881897,-0.5416881442070007,9.619902610778809,6.988525390625,4.425048828125,-3.509521484375
1.5124999000000001,0.5740098357200623,-0.5231330990791321,9.907805442810059,-10.07080078125,-3.875732421875,1.46484375
1.5174999000000002,0.7445967197418213,-0.5339069962501526,9.710283279418945,12.420654296875,3.84521484375,-0.762939453125
1.5224999000000001,0.7116764783859253,-0.657806932926178,9.904213905334473,14.495849609375,0.213623046875,3.936767578125
1.5274999000000002,0.5554547905921936,-0.6051344871520996,9.49001693725586,-13.12255859375,0.79345703125,-5.035400390625
1.5324999000000001,0.6470330357551575,-0.5734112858772278,9.909601211547852,11.65771484375,-1.15966796875,5.157470703125
1.5374999000000003,0.5722141861915588,-0.518943190574646,9.395445823669434,-9.857177734375,2.227783203125,-6.072998046875
1.5424999000000001,0.6643909811973572,-0.5351040959358215,10.016142845153809,7.904052734375,-2.74658203125,5.615234375
1.5474999,0.6500257849693298,-0.5380968451499939,9.441534042358398,-6.011962890625,3.021240234375,-6.28662109375
1.5524999000000002,0.6703764796257019,-0.5740098357200623,10.13405704498291,3.47900390625,-3.204345703125,5.67626953125
1.5574999,0.6943184733390808,-0.5817909836769104,9.526528358459473,-1.953125,3.5400390625,-5.859375
1.5624999000000002,0.6015431880950928,-0.5931634902954102,10.14902114868164,-0.06103515625,-3.90625,5.126953125
1.5674999,0.7122750282287598,-0.5925649404525757,9.570821762084961,1.8310546875,3.570556640625,-5.279541015625
1.5724999000000002,0.5488707423210144,-0.5710170865058899,10.034099578857422,-3.509521484375,-3.5400390625,4.364013671875
1.5774999,0.5416881442070007,-0.4944026470184326,9.91977596282959,-6.011962890625,-3.570556640625,3.47900390625
1.5824999000000002,0.7206547260284424,-0.547075092792511,9.578003883361816,7.2021484375,3.173828125,-3.448486328125
1.5874999,0.5632359385490417,-0.45010992884635925,9.893440246582031,-7.904052734375,-3.387451171875,2.5634765625
1.5924999000000002,0.7368155717849731,-0.5566518902778625,9.637260437011719,8.697509765625,2.471923828125,-2.899169921875
1.5974999,0.5638344883918762,-0.46567222476005554,9.881468772888184,-9.429931640625,-2.960205078125,1.678466796875
1.6024999000000002,0.5386953949928284,-0.4602852761745453,9.889848709106445,-10.498046875,-2.288818359375,1.0986328125
1.6074999,0.7182605266571045,-0.5781996846199036,9.768342971801758,10.3759765625,1.77001953125,-1.8310546875
1.6124999000000002,0.5548562407493591,-0.4620809257030487,9.8784761428833,-10.833740234375,-1.983642578125,0.335693359375
1.6174999,0.7457938194274902,-0.6141127347946167,9.765948295593262,10.80322265625,1.77001953125,-1.007080078125
1.6224999000000002,0.6087257862091064,-0.5195417404174805,9.82999324798584,-10.894775390625,-1.40380859375,0.244140625
1.6274999,0.7846996188163757,-0.6643909811973572,9.715670585632324,10.955810546875,1.678466796875,-0.6103515625
1.6324999000000002,0.5524620413780212,-0.4818331003189087,9.823410034179688,-9.796142578125,-1.40380859375,0.42724609375
1.6374999000000001,0.727837324142456,-0.5656301379203796,9.711481094360352,9.8876953125,1.373291015625,-1.220703125
1.6424999000000002,0.5345055460929871,-0.4578910768032074,9.876680374145508,-9.368896484375,-1.373291015625,0.946044921875
1.6474999000000001,0.7475894689559937,-0.5464765429496765,9.6618013381958,9.002685546875,1.52587890625,-1.678466796875
1.6524999000000002,0.535702645778656,-0.4710591733455658,9.879075050354004,-8.48388671875,-1.800537109375,1.556396484375
1.6574999000000001,0.7457938194274902,-0.5722141861915588,9.616909980773926,8.087158203125,1.678466796875,-2.50244140625
1.6624999000000003,0.545877993106842,-0.5279214978218079,9.893440246582031,-7.32421875,-1.800537109375,2.410888671875
1.6674999000000001,0.5710170865058899,-0.5015852451324463,10.057442665100098,-3.814697265625,-2.3193359375,4.08935546875
1.6724999,0.7398083209991455,-0.6099228858947754,9.55705451965332,2.50244140625,1.89208984375,-4.7607421875
1.6774999000000002,0.6302735805511475,-0.5009866952896118,10.094552993774414,-1.373291015625,-2.471923828125,4.57763671875
1.6824999,0.7146692276000977,-0.6248866319656372,9.518747329711914,-0.030517578125,1.983642578125,-5.37109375
1.6874999000000002,0.6637924313545227,-0.5345055460929871,10.089165687561035,1.434326171875,-2.197265625,4.913330078125
1.6924999,0.6787561774253845,-0.657806932926178,9.469666481018066,-3.0517578125,2.01416015625,-5.4931640625
1.6974999000000002,0.6859387755393982,-0.5297171473503113,10.061633110046387,4.364013671875,-2.0751953125,5.096435546875
1.7024999,0.6212953329086304,-0.6392518281936646,9.433155059814453,-6.072998046875,2.105712890625,-5.79833984375
1.7074999000000002,0.6631938815116882,-0.45250412821769714,9.996390342712402,7.080078125,-2.044677734375,4.913330078125
1.7124999,0.5201402902603149,-0.5871779918670654,9.470264434814453,-8.11767578125,1.617431640625,-5.035400390625
1.7174999000000002,0.6374561786651611,-0.6655880808830261,9.791088104248047,-9.979248046875,0.030517578125,-0.6103515625
1.7224999,0.7805097699165344,-0.5668272376060486,9.648633003234863,8.97216796875,0.30517578125,-0.91552734375
1.7274999000000002,0.5554547905921936,-0.5291185975074768,9.789292335510254,-7.659912109375,-0.48828125,1.52587890625
1.7324999,0.729034423828125,-0.5267243981361389,9.525331497192383,5.950927734375,1.007080078125,-2.9296875
1.7374999000000002,0.5668272376060486,-0.4734533727169037,9.983222961425781,-3.72314453125,-1.0986328125,3.11279296875
1.7424999,0.7110779285430908,-0.569819986820221,9.511565208435059,1.64794921875,1.708984375,-4.241943359375
1.7474999000000002,0.6619967818260193,-0.4620809257030487,10.112509727478027,0.91552734375,-1.434326171875,4.5166015625
1.7524999,0.6853402256965637,-0.5985504388809204,9.494805335998535,-3.35693359375,1.708984375,-5.18798828125
1.7574999000000002,0.5764040350914001,-0.6135141849517822,9.510367393493652,-7.537841796875,1.495361328125,-4.608154296875
1.7624999000000001,0.7422025203704834,-0.5961562395095825,9.868300437927246,10.284423828125,-0.54931640625,1.678466796875
1.7674999000000002,0.5961562395095825,-0.6973112225532532,9.841964721679688,-9.765625,0.274658203125,-0.91552734375
1.7724999000000001,0.7451952695846558,-0.5512649416923523,9.70310115814209,8.392333984375,0.3662109375,-0.823974609375
1.7774999000000002,0.5488707423210144,-0.5093663930892944,9.880870819091797,-6.53076171875,-0.67138671875,1.5869140625
1.7824999000000001,0.70090252161026,-0.4991910457611084,9.534908294677734,4.0283203125,0.91552734375,-3.143310546875
1.7874999000000003,0.5949591398239136,-0.4381389021873474,10.037690162658691,-1.373291015625,-1.15966796875,3.875732421875
1.7924999000000001,0.667982280254364,-0.5315127968788147,9.525331497192383,-1.8310546875,1.129150390625,-4.638671875
1.7974999,0.6637924313545227,-0.4159925580024719,10.041281700134277,4.57763671875,-1.64794921875,3.997802734375
1.8024999000000002,0.5662286877632141,-0.5728127360343933,9.576807022094727,-6.988525390625,1.373291015625,-4.547119140625
1.8074999,0.5776011347770691,-0.6655880808830261,9.724050521850586,-9.70458984375,0.640869140625,-2.9296875
1.8124999000000002,0.730231523513794,-0.6003460884094238,9.856928825378418,9.429931640625,-0.213623046875,0.946044921875
1.8174999,0.5937620401382446,-0.6655880808830261,9.898826599121094,-8.453369140625,0.152587890625,-0.030517578125
1.8224999000000002,0.7212532758712769,-0.5722141861915588,9.665990829467773,6.378173828125,0.732421875,-1.77001953125
1.8274999,0.5805938839912415,-0.5099649429321289,10.018536567687988,-3.387451171875,-0.579833984375,2.655029296875
1.8324999000000002,0.6817489266395569,-0.557250440120697,9.513360023498535,0.48828125,1.251220703125,-3.875732421875
1.8374999,0.6548141837120056,-0.42018240690231323,10.041281700134277,3.11279296875,-1.251220703125,3.96728515625
1.8424999000000002,0.5770025849342346,-0.568622887134552,9.525331497192383,-6.011962890625,1.129150390625,-4.45556640625
1.8474999,0.6955155730247498,-0.46507367491722107,9.907805442810059,8.148193359375,-0.885009765625,3.2958984375
1.8524999000000002,0.5704185366630554,-0.6380547285079956,9.679757118225098,-9.765625,0.640869140625,-2.8076171875
1.8574999,0.7194576263427734,-0.558447539806366,9.778518676757812,9.33837890625,-0.152587890625,0.701904296875
1.8624999000000002,0.5805938839912415,-0.6602011322975159,9.886856079101562,-7.598876953125,-0.213623046875,0.030517578125
1.8674999,0.5740098357200623,-0.5291185975074768,10.053253173828125,-1.922607421875,-0.885009765625,2.86865234375
1.8724999000000002,0.646434485912323,-0.5554547905921936,9.50498104095459,-1.800537109375,1.068115234375,-4.119873046875
1.8774999,0.6536170840263367,-0.41958385705947876,10.000580787658691,5.035400390625,-1.0986328125,3.631591796875
1.8824999000000002,0.5758054852485657,-0.585382342338562,9.566631317138672,-8.087158203125,0.79345703125,-3.692626953125
1.8874999000000001,0.67815762758255,-0.44412440061569214,9.837176322937012,9.27734375,-1.129150390625,2.349853515625
1.8924999000000002,0.5626373887062073,-0.6356605291366577,9.733627319335938,-8.819580078125,0.152587890625,-1.3427734375
1.8974999000000001,0.7158663272857666,-0.5560533404350281,9.70310115814209,7.50732421875,0.152587890625,-0.823974609375
1.9024999000000002,0.7158663272857666,-0.5560533404350281,9.70310115814209,7.50732421875,0.152587890625,-0.823974609375
1.9074999000000001,0.629675030708313,-0.5380968451499939,9.988011360168457,-4.45556640625,-0.396728515625,1.983642578125
1.9124999000000003,0.7224503755569458,-0.6123170852661133,9.547477722167969,0.579833984375,1.068115234375,-3.2958984375
1.9174999000000001,0.6979097723960876,-0.4387374520301819,10.04307746887207,2.9296875,-1.0986328125,3.387451171875
1.9224999,0.6745663285255432,-0.5099649429321289,9.940725326538086,8.636474609375,-0.91552734375,2.349853515625
1.9274999000000002,0.5201402902603149,-0.6344634294509888,9.707889556884766,-9.002685546875,0.244140625,-1.708984375
1.9324999,0.6685808300971985,-0.6003460884094238,9.726444244384766,7.720947265625,-0.152587890625,-0.30517578125
1.9374999000000002,0.5650315880775452,-0.5847837924957275,9.931747436523438,-5.401611328125,-0.640869140625,1.129150390625
1.9424999,0.6799532771110535,-0.6212953329086304,9.494805335998535,1.434326171875,0.701904296875,-3.204345703125
1.9474999000000002,0.656609833240509,-0.4596867263317108,10.00716495513916,2.9296875,-0.79345703125,3.35693359375
1.9524999,0.6236895322799683,-0.5973533391952515,9.548674583435059,-6.4697265625,0.946044921875,-3.753662109375
1.9574999000000002,0.6853402256965637,-0.45010992884635925,9.950302124023438,8.575439453125,-0.42724609375,2.471923828125
1.9624999,0.5776011347770691,-0.5907692909240723,9.752182006835938,-9.09423828125,0.457763671875,-1.373291015625
1.9674999000000002,0.7080851793289185,-0.557250440120697,9.746794700622559,7.476806640625,-0.030517578125,-0.6103515625
1.9724999,0.6476315855979919,-0.5536591410636902,9.993996620178223,-3.997802734375,-0.30517578125,1.739501953125
1.9774999000000002,0.6913257241249084,-0.6200982332229614,9.536704063415527,-0.213623046875,0.732421875,-3.41796875
1.9824999,0.71766197681427,-0.4507084786891937,9.996989250183105,4.39453125,-0.8544921875,3.082275390625
1.9874999000000002,0.7003039717674255,-0.5734112858772278,9.631275177001953,5.2490234375,0.274658203125,-1.312255859375
1.9924999,0.7003039717674255,-0.5734112858772278,9.631275177001953,5.2490234375,0.274658203125,-1.312255859375
1.9974999000000002,0.5680243372917175,-0.4920084476470947,10.022128105163574,-1.251220703125,-0.9765625,2.349853515625
2.0024999,0.5877765417098999,-0.6045359373092651,9.503783226013184,-2.960205078125,0.67138671875,-3.509521484375
2.0074999,0.6811503767967224,-0.4531026780605316,9.936535835266113,6.77490234375,-0.8544921875,2.8076171875
2.0124999000000003,0.5817909836769104,-0.6350619792938232,9.645041465759277,-8.60595703125,0.48828125,-2.471923828125
2.0174999000000002,0.7422025203704834,-0.5321113467216492,9.68274974822998,8.056640625,-0.30517578125,0.18310546875
2.0224999,0.6536170840263367,-0.5728127360343933,9.945513725280762,-5.706787109375,-0.30517578125,1.15966796875
2.0274999,0.6937199234962463,-0.5817909836769104,9.549872398376465,1.434326171875,0.732421875,-2.960205078125
2.0324999000000004,0.6697779297828674,-0.4429273009300232,10.025120735168457,3.0517578125,-0.732421875,2.838134765625
2.0374999000000003,0.6242880821228027,-0.6302735805511475,9.641449928283691,-6.8359375,0.762939453125,-3.082275390625
2.0424999,0.5662286877632141,-0.6105214357376099,9.861717224121094,-7.904052734375,-0.030517578125,-0.48828125
2.0474999,0.6829460263252258,-0.568622887134552,9.608530044555664,4.913330078125,0.213623046875,-1.77001953125
2.0524999,0.5973533391952515,-0.4944026470184326,9.996390342712402,-0.30517578125,-0.79345703125,2.44140625
2.0574999000000003,0.5793967843055725,-0.5734112858772278,9.551667213439941,-4.21142578125,0.701904296875,-3.387451171875
2.0624999,0.6883329749107361,-0.4728548228740692,9.988011360168457,7.293701171875,-0.6103515625,2.044677734375
2.0674999,0.5632359385490417,-0.5758054852485657,9.776124000549316,-8.48388671875,0.152587890625,-1.312255859375
2.0724999,0.7134721279144287,-0.5638344883918762,9.762955665588379,6.927490234375,-0.152587890625,-0.79345703125
2.0774999000000003,0.6500257849693298,-0.5291185975074768,10.014945983886719,-2.86865234375,-0.518798828125,1.77001953125
2.0824999,0.6572083830833435,-0.6099228858947754,9.534908294677734,-1.739501953125,0.6103515625,-3.204345703125
2.0874999,0.7368155717849731,-0.4752490520477295,9.964069366455078,6.2255859375,-0.79345703125,2.593994140625
2.0924999,0.5997475385665894,-0.606930136680603,9.624691009521484,-8.148193359375,0.30517578125,-2.0751953125
2.0974999000000003,0.7463923692703247,-0.52552729845047,9.663596153259277,7.659912109375,0.030517578125,-0.244140625
2.1024999,0.690727174282074,-0.4985924959182739,9.739013671875,7.62939453125,-0.06103515625,0.457763671875
2.1074999,0.690727174282074,-0.4985924959182739,9.739013671875,7.62939453125,-0.06103515625,0.457763671875
2.1124999,0.6548141837120056,-0.5680243372917175,9.972448348999023,-5.523681640625,-0.1220703125,0.946044921875
2.1174999000000003,0.6260837316513062,-0.6105214357376099,9.576208114624023,0.946044921875,0.335693359375,-2.62451171875
2.1224999,0.6649895310401917,-0.48303020000457764,9.98681354522705,3.96728515625,-0.640869140625,2.62451171875
2.1274999,0.5973533391952515,-0.6308721303939819,9.655815124511719,-7.32421875,0.518798828125,-2.349853515625
2.1324999,0.6811503767967224,-0.48722004890441895,9.716867446899414,7.965087890625,-0.244140625,0.518798828125
2.1374999000000003,0.6554127335548401,-0.5668272376060486,9.943120002746582,-5.889892578125,-0.06103515625,0.579833984375
2.1424999000000002,0.6302735805511475,-0.5949591398239136,9.561244010925293,1.251220703125,0.701904296875,-2.716064453125
2.1474999,0.6757634282112122,-0.4794389009475708,9.97484302520752,3.570556640625,-0.518798828125,2.62451171875
2.1524999,0.6613982319831848,-0.49380409717559814,9.975440979003906,3.84521484375,-0.54931640625,2.593994140625
2.1574999000000004,0.5847837924957275,-0.6021417379379272,9.654019355773926,-7.4462890625,0.457763671875,-2.38037109375
2.1624999000000003,0.7015010714530945,-0.48602294921875,9.710882186889648,7.293701171875,-0.152587890625,0.06103515625
2.1674999,0.6709750294685364,-0.5345055460929871,9.970054626464844,-4.8828125,-0.244140625,1.068115234375
2.1724999,0.6254851818084717,-0.586579442024231,9.560646057128906,0.1220703125,0.518798828125,-2.5634765625
2.1774999000000004,0.6829460263252258,-0.4967968463897705,10.004770278930664,4.974365234375,-0.8544921875,2.227783203125
2.1824999000000003,0.5291185975074768,-0.6117185354232788,9.659406661987305,-7.568359375,0.335693359375,-1.983642578125
2.1874999,0.6739677786827087,-0.5339069962501526,9.711481094360352,7.354736328125,-0.091552734375,-0.335693359375
2.1924999,0.7140706777572632,-0.5111620426177979,10.034099578857422,6.011962890625,-0.48828125,1.89208984375
2.1974999,0.5668272376060486,-0.6105214357376099,9.739013671875,-7.75146484375,0.42724609375,-1.434326171875
2.2024999000000003,0.7080851793289185,-0.545877993106842,9.701305389404297,6.28662109375,0.244140625,-0.79345703125
2.2074999,0.6392518281936646,-0.4818331003189087,9.959280967712402,-1.861572265625,-0.48828125,1.77001953125
2.2124999,0.6165069341659546,-0.5823895931243896,9.601346969604492,-3.173828125,0.67138671875,-2.838134765625
2.2174999,0.6811503767967224,-0.47884035110473633,9.961674690246582,6.805419921875,-0.54931640625,1.739501953125
2.2224999000000003,0.5392939448356628,-0.6260837316513062,9.835380554199219,-7.537841796875,0.030517578125,-0.579833984375
2.2274999,0.6350619792938232,-0.6057330369949341,9.641449928283691,4.39453125,0.30517578125,-1.64794921875
2.2324999,0.6117185354232788,-0.5165489912033081,9.931148529052734,0.3662109375,-0.579833984375,2.3193359375
2.2374999,0.6386532783508301,-0.6518214344978333,9.55705451965332,-5.31005859375,0.48828125,-2.62451171875
2.2424999000000003,0.7224503755569458,-0.48602294921875,9.77013874053955,7.537841796875,-0.152587890625,0.823974609375
2.2474999,0.71766197681427,-0.48303020000457764,9.912593841552734,3.204345703125,-0.457763671875,2.5634765625
2.2524999,0.5380968451499939,-0.7164648771286011,9.583391189575195,-5.828857421875,-0.396728515625,0.42724609375
2.2574999,0.4183867573738098,-0.8912416100502014,9.35773754119873,16.143798828125,-2.38037109375,9.796142578125
2.2624999000000003,0.1843535304069519,-1.0384849309921265,9.631275177001953,13.031005859375,-5.18798828125,17.303466796875
2.2674999000000002,-0.35673606395721436,-1.7627309560775757,8.936956405639648,38.177490234375,-2.197265625,20.782470703125
2.2724999,-0.42856210470199585,-1.3120225667953491,9.871891975402832,43.609619140625,-1.953125,45.47119140625
2.2774999,-1.1725603342056274,-1.8315643072128296,9.221267700195312,35.64453125,-0.67138671875,53.28369140625
2.2824999000000004,-0.99479079246521,-1.1665748357772827,10.237606048583984,68.17626953125,-8.514404296875,78.887939453125
2.2874999000000003,-1.876455545425415,-1.7585411071777344,9.196727752685547,48.7060546875,-9.552001953125,86.12060546875
2.2924999,-1.6831238269805908,-1.1540051698684692,9.40023422241211,81.54296875,-17.39501953125,119.964599609375
2.2974999,-2.4139537811279297,-1.766920804977417,8.035539627075195,41.412353515625,-15.0146484375,115.478515625
2.3024999000000004,-0.04010287672281265,1.456871747970581,9.158419609069824,120.574951171875,-49.49951171875,107.23876953125
2.3074999000000003,1.0995371341705322,1.4867992401123047,9.922768592834473,69.122314453125,-59.326171875,103.82080078125
2.3124999,2.3738510608673096,1.656787633895874,10.363900184631348,158.905029296875,-55.755615234375,90.8203125
2.3174999,2.8598740100860596,1.268328309059143,9.284713745117188,100.341796875,-50.933837890625,71.868896484375
2.3224999,3.403956174850464,0.41718965768814087,9.245808601379395,95.306396484375,-60.48583984375,59.417724609375
2.3274999000000003,3.8576574325561523,0.6470330357551575,8.06427001953125,125.244140625,-49.4384765625,29.388427734375
2.3324999,3.931279182434082,0.7320271730422974,7.222707748413086,46.966552734375,-44.097900390625,13.946533203125
2.3374999,4.3209357261657715,1.382651448249817,7.036558628082275,57.220458984375,-38.360595703125,-4.5166015625
2.3424999,4.43585729598999,2.2242133617401123,6.214150428771973,24.4140625,-23.834228515625,-33.660888671875
2.3474999000000003,4.492120742797852,3.0358476638793945,6.33565616607666,-13.824462890625,-19.317626953125,-35.858154296875
2.3524999,4.185064792633057,3.907935619354248,6.0866594314575195,-68.90869140625,10.223388671875,-61.03515625
2.3574999,3.959411144256592,4.038419723510742,6.472724437713623,-74.371337890625,20.172119140625,-59.814453125
2.3624999,3.6332011222839355,3.9671921730041504,6.282983779907227,-101.318359375,42.510986328125,-77.789306640625
2.3674999000000003,3.177704095840454,3.863642930984497,6.517016887664795,-143.768310546875,41.229248046875,-71.624755859375
2.3724999,3.044826030731201,3.575141668319702,6.682217121124268,-138.5498046875,59.99755859375,-77.301025390625
2.3774999,2.583343744277954,3.309385299682617,6.408679485321045,-188.90380859375,70.770263671875,-83.43505859375
2.3824999,2.363077163696289,2.941276788711548,6.898293495178223,-196.807861328125,71.746826171875,-72.08251953125
2.3874999000000003,2.0919337272644043,2.4612393379211426,6.89410400390625,-203.30810546875,93.07861328125,-81.451416015625
2.3924999000000002,1.247977614402771,1.149815320968628,7.8080902099609375,-234.771728515625,104.339599609375,-63.323974609375
2.3974999,0.5207388401031494,-0.9074024558067322,9.749189376831055,-60.455322265625,108.734130859375,-43.243408203125
2.4024999,-2.9544448852539062,-5.22175407409668,7.021595001220703,12.5732421875,-50.628662109375,-59.600830078125
2.4074999000000004,-1.8800468444824219,-2.7054479122161865,5.191826343536377,-20.416259765625,-48.675537109375,-72.479248046875
2.4124999000000003,-0.6350619792938232,-0.18495208024978638,4.678868770599365,-70.61767578125,-38.330078125,-67.535400390625
2.4174999,0.7308300733566284,2.0248961448669434,5.74129581451416,-55.267333984375,-3.41796875,-46.539306640625
2.4224999,1.92134690284729,3.290830135345459,7.569867134094238,-42.17529296875,37.689208984375,-29.022216796875
2.4274999000000004,2.337938070297241,3.4123358726501465,10.293869972229004,-19.012451171875,30.181884765625,16.4794921875
2.4324999000000003,2.185307502746582,2.694674015045166,12.240954399108887,3.90625,12.542724609375,19.53125
2.4374999,1.2282254695892334,0.8050503134727478,12.83711051940918,-23.86474609375,0,-2.227783203125
2.4424999,0.10474632680416107,-0.7595604658126831,12.299612998962402,0.885009765625,-10.498046875,-2.227783203125
2.4474999,-0.5770025849342346,-2.24935245513916,10.702081680297852,13.12255859375,-8.453369140625,-17.120361328125
2.4524999000000003,-0.8361749649047852,-2.8820202350616455,9.531915664672852,-5.37109375,-7.598876953125,-2.25830078125
2.4574999,1.3012486696243286,-0.2472013235092163,9.55705451965332,3.631591796875,3.570556640625,-4.669189453125
2.4624999,1.325789213180542,0.2064998894929886,9.774328231811523,-15.2587890625,-0.42724609375,-0.396728515625
2.4674999,1.4083890914916992,0.24121582508087158,9.822212219238281,13.336181640625,8.026123046875,5.889892578125
2.4724999000000003,1.1635819673538208,0.0933738648891449,9.59715747833252,-15.19775390625,4.730224609375,-6.805419921875
2.4774999,0.8780734539031982,-0.35673606395721436,10.002376556396484,4.119873046875,-0.579833984375,5.889892578125
2.4824999,0.7110779285430908,-0.608127236366272,9.699509620666504,7.049560546875,4.913330078125,-4.058837890625
2.4874999,0.39564183354377747,-0.8696937561035156,9.86889934539795,-11.932373046875,-6.40869140625,-1.708984375
2.4924999000000003,0.45908817648887634,-0.9421183466911316,9.88625717163086,18.61572265625,1.922607421875,5.950927734375
2.4974999,0.46627077460289,-0.7942764163017273,9.603142738342285,-12.542724609375,-0.732421875,-6.7138671875
2.5024999,0.545877993106842,-0.7003039717674255,9.966463088989258,5.67626953125,-2.288818359375,5.92041015625
2.5074999,0.7003039717674255,-0.6637924313545227,10.052654266357422,10.894775390625,-1.434326171875,6.866455078125
2.5124999000000003,0.7218518257141113,-0.6218938827514648,9.603142738342285,-2.01416015625,4.364013671875,-5.92041015625
2.5174999000000002,0.5877765417098999,-0.6937199234962463,10.00716495513916,-4.8828125,-5.31005859375,2.471923828125
2.5224999,0.5877765417098999,-0.6937199234962463,10.00716495513916,-4.8828125,-5.31005859375,2.471923828125
2.5274999,0.7499836683273315,-0.6075286865234375,9.742605209350586,12.87841796875,6.011962890625,0.18310546875
2.5324999000000004,0.5488707423210144,-0.5488707423210144,9.715670585632324,-15.899658203125,-3.936767578125,-3.814697265625
2.5374999000000003,0.70090252161026,-0.5171475410461426,9.923367500305176,15.13671875,1.64794921875,5.401611328125
2.5424999,0.608127236366272,-0.42197805643081665,9.498396873474121,-12.14599609375,0.701904296875,-6.28662109375
2.5474999,0.5883750915527344,-0.5321113467216492,10.00836181640625,5.218505859375,-3.997802734375,6.195068359375
2.5524999000000004,0.6518214344978333,-0.6123170852661133,9.706692695617676,-15.899658203125,-2.86865234375,-3.47900390625
2.5574999000000003,0.7954735159873962,-0.5925649404525757,9.914987564086914,15.289306640625,1.15966796875,5.18798828125
2.5624999,0.6224924325942993,-0.5273229479789734,10.046669006347656,-5.035400390625,-5.06591796875,3.082275390625
2.5674999,0.8008604645729065,-0.5195417404174805,9.644442558288574,10.345458984375,4.974365234375,-1.64794921875
2.5724999,0.6667851805686951,-0.5877765417098999,9.832387924194336,-13.916015625,-4.0283203125,-1.251220703125
2.5774999000000003,0.8391677141189575,-0.6374561786651611,9.78989028930664,15.68603515625,2.532958984375,2.593994140625
2.5824999,0.6637924313545227,-0.6200982332229614,9.607931137084961,-15.56396484375,-0.67138671875,-4.638671875
2.5874999,0.679354727268219,-0.5740098357200623,10.02811336517334,-3.631591796875,-4.638671875,3.875732421875
2.5924999,0.679354727268219,-0.5740098357200623,10.02811336517334,-3.631591796875,-4.638671875,3.875732421875
2.5974999000000003,0.7829039692878723,-0.5542576909065247,9.63067626953125,8.1787109375,4.486083984375,-2.8076171875
2.6024999,0.6374561786651611,-0.5440823435783386,9.886856079101562,-11.505126953125,-3.47900390625,0.701904296875
2.6074999,0.7852981686592102,-0.5626373887062073,9.767744064331055,14.068603515625,3.143310546875,0.1220703125
2.6124999,0.6033388376235962,-0.6003460884094238,9.761758804321289,-15.19775390625,-1.953125,-2.105712890625
2.6174999000000003,0.7523778676986694,-0.6153098344802856,9.909601211547852,15.380859375,0.9765625,2.99072265625
2.6224999,0.5710170865058899,-0.5883750915527344,9.61571216583252,-14.556884765625,0.335693359375,-4.486083984375
2.6274999,0.7110779285430908,-0.5764040350914001,9.974244117736816,13.0615234375,-1.312255859375,4.852294921875
2.6324999,0.6218938827514648,-0.5153518915176392,9.48343276977539,-10.589599609375,2.166748046875,-5.92041015625
2.6374999000000003,0.7098808288574219,-0.6147112846374512,10.102334022521973,2.105712890625,-3.753662109375,5.279541015625
2.6424999000000002,0.7044938206672668,-0.6159083843231201,9.59177017211914,6.2255859375,3.96728515625,-3.753662109375
2.6474999,0.7044938206672668,-0.6159083843231201,9.59177017211914,6.2255859375,3.96728515625,-3.753662109375
2.6524999,0.585382342338562,-0.5494692921638489,9.877279281616211,-8.4228515625,-3.35693359375,2.685546875
2.6574999000000004,0.7422025203704834,-0.5781996846199036,9.615114212036133,10.284423828125,3.0517578125,-2.197265625
2.6624999000000003,0.6177040338516235,-0.5039794445037842,9.805453300476074,-11.474609375,-2.777099609375,0.9765625
2.6674999,0.7805097699165344,-0.5859808921813965,9.66419506072998,12.725830078125,1.861572265625,-0.640869140625
2.6724999,0.6392518281936646,-0.5560533404350281,9.767744064331055,-13.275146484375,-1.678466796875,-0.6103515625
2.6774999000000004,0.8134300112724304,-0.6063315868377686,9.800664901733398,13.916015625,0.91552734375,0.946044921875
2.6824999000000003,0.6584054827690125,-0.618302583694458,9.761159896850586,-13.7939453125,-0.42724609375,-2.105712890625
2.6874999,0.7739257216453552,-0.5823895931243896,9.926959037780762,13.18359375,-0.67138671875,3.23486328125
2.6924999,0.5907692909240723,-0.5548562407493591,9.589975357055664,-12.75634765625,1.28173828125,-4.0283203125
2.6974999,0.7236474752426147,-0.5482721924781799,9.891045570373535,12.054443359375,-1.068115234375,3.96728515625
2.7024999000000003,0.5758054852485657,-0.545877993106842,9.506776809692383,-11.474609375,1.983642578125,-4.94384765625
2.7074999,0.7152677774429321,-0.5273229479789734,9.925761222839355,11.199951171875,-1.617431640625,4.5166015625
2.7124999,0.5746083855628967,-0.517746090888977,9.530718803405762,-10.43701171875,2.3193359375,-5.18798828125
2.7174999,0.729034423828125,-0.4926069974899292,9.995792388916016,9.857177734375,-1.983642578125,4.730224609375
2.7224999000000003,0.6602011322975159,-0.6278793811798096,9.452308654785156,-8.85009765625,2.410888671875,-5.523681640625
2.7274999,0.7769184708595276,-0.5847837924957275,9.998186111450195,8.60595703125,-2.593994140625,5.096435546875
2.7324999,0.6362590789794922,-0.6667851805686951,9.476250648498535,-8.209228515625,2.5634765625,-5.615234375
2.7374999,0.7344213724136353,-0.547075092792511,10.062829971313477,8.209228515625,-2.227783203125,5.126953125
2.7424999000000003,0.6224924325942993,-0.6458359360694885,9.515155792236328,-8.30078125,2.44140625,-5.55419921875
2.7474999,0.7356184720993042,-0.48482584953308105,10.066421508789062,8.544921875,-2.471923828125,5.035400390625
2.7524999,0.6111199855804443,-0.6224924325942993,9.5408935546875,-8.575439453125,2.410888671875,-5.340576171875
2.7574999,0.7493851184844971,-0.44592007994651794,10.046070098876953,9.063720703125,-2.197265625,4.852294921875
2.7624999000000003,0.5985504388809204,-0.6177040338516235,9.55825138092041,-9.429931640625,2.044677734375,-5.096435546875
2.7674999000000002,0.7613561153411865,-0.4596867263317108,10.002376556396484,9.735107421875,-2.25830078125,4.425048828125
2.7724999,0.5997475385665894,-0.6009446382522583,9.580398559570312,-10.009765625,1.983642578125,-4.791259765625
2.7774999,0.761954665184021,-0.48602294921875,9.971251487731934,10.345458984375,-2.044677734375,4.119873046875
2.7824999000000004,0.6260837316513062,-0.6290764808654785,9.596558570861816,-10.650634765625,1.922607421875,-4.45556640625
2.7874999000000003,0.646434485912323,-0.7110779285430908,9.641449928283691,-11.199951171875,1.434326171875,-3.60107421875
2.7924999,0.8140285611152649,-0.5722141861915588,9.954492568969727,11.383056640625,-1.28173828125,2.86865234375
2.7974999,0.6542156338691711,-0.7499836683273315,9.737217903137207,-11.77978515625,1.434326171875,-2.9296875
2.8024999000000004,0.7990648150444031,-0.5632359385490417,9.951498985290527,11.627197265625,-0.91552734375,2.01416015625
2.8074999000000003,0.6350619792938232,-0.7056909799575806,9.797073364257812,-11.627197265625,0.67138671875,-1.800537109375
2.8124999,0.7679402232170105,-0.5291185975074768,9.832986831665039,11.505126953125,-0.518798828125,0.885009765625
2.8174999,0.5847837924957275,-0.6171054840087891,9.755773544311523,-11.138916015625,0.396728515625,-0.701904296875
2.8224999,0.7547720670700073,-0.49380409717559814,9.70429801940918,10.55908203125,-0.091552734375,-0.518798828125
2.8274999000000003,0.5740098357200623,-0.5141547918319702,9.75278091430664,-9.857177734375,0,0.732421875
2.8324999,0.750582218170166,-0.45429977774620056,9.64564037322998,8.85009765625,0.457763671875,-1.739501953125
2.8374999,0.5907692909240723,-0.48602294921875,9.840767860412598,-7.598876953125,-0.518798828125,2.01416015625
2.8424999,0.7769184708595276,-0.5297171473503113,9.57979965209961,6.256103515625,0.91552734375,-3.143310546875
2.8474999000000003,0.7954735159873962,-0.6051344871520996,9.572616577148438,2.9296875,1.129150390625,-4.2724609375
2.8524999,0.7224503755569458,-0.4985924959182739,10.105326652526855,-1.220703125,-1.3427734375,4.241943359375
2.8574999,0.761954665184021,-0.618302583694458,9.551069259643555,-0.8544921875,1.373291015625,-4.974365234375
2.8624999,0.7511807680130005,-0.4638765752315521,10.087968826293945,2.86865234375,-1.5869140625,4.852294921875
2.8674999000000003,0.6649895310401917,-0.5991489887237549,9.459490776062012,-4.638671875,1.495361328125,-5.18798828125
2.8724999,0.7050924301147461,-0.436343252658844,9.978434562683105,6.53076171875,-1.52587890625,4.45556640625
2.8774999,0.5380968451499939,-0.5841852426528931,9.482834815979004,-7.965087890625,1.15966796875,-4.82177734375
2.8824999,0.5614402890205383,-0.6913257241249084,9.695918083190918,-10.406494140625,0.8544921875,-3.082275390625
2.8874999000000003,0.7691373229026794,-0.5566518902778625,9.922768592834473,10.650634765625,-1.03759765625,1.89208984375
2.8924999000000002,0.6236895322799683,-0.6883329749107361,9.819219589233398,-10.406494140625,0.42724609375,-1.52587890625
2.8974999,0.7972691655158997,-0.5153518915176392,9.777320861816406,9.979248046875,-0.396728515625,-0.396728515625
2.9024999,0.6266822814941406,-0.4465186297893524,10.011354446411133,-4.608154296875,-0.701904296875,2.8076171875
2.9074999000000004,0.7428010702133179,-0.5518634915351868,9.548076629638672,2.01416015625,0.946044921875,-4.302978515625
2.9124999000000003,0.7182605266571045,-0.44173020124435425,10.098742485046387,0.701904296875,-1.007080078125,4.150390625
2.9174999,0.6763619780540466,-0.6189011335372925,9.469666481018066,-3.204345703125,1.28173828125,-4.791259765625
2.9224999,0.7272387742996216,-0.47165772318840027,9.951498985290527,5.950927734375,-1.40380859375,4.150390625
2.9274999000000004,0.5889736413955688,-0.6596025824546814,9.49001693725586,-7.904052734375,1.220703125,-4.302978515625
2.9324999000000003,0.706289529800415,-0.5548562407493591,9.911994934082031,9.063720703125,-1.068115234375,3.0517578125
2.9374999,0.6039373874664307,-0.7104793787002563,9.709086418151855,-9.796142578125,0.701904296875,-2.38037109375
2.9424999,0.7529764175415039,-0.6165069341659546,9.895236015319824,9.8876953125,-0.762939453125,0.732421875
2.9474999,0.6302735805511475,-0.6883329749107361,9.888651847839355,-8.85009765625,0.091552734375,-0.06103515625
2.9524999000000003,0.7870938181877136,-0.5811924338340759,9.678560256958008,7.01904296875,0.091552734375,-1.861572265625
2.9574999,0.6643909811973572,-0.5153518915176392,9.990405082702637,-4.45556640625,-0.457763671875,2.74658203125
2.9624999,0.7428010702133179,-0.4010287821292877,10.020332336425781,1.89208984375,-1.068115234375,3.72314453125
2.9674999,0.6536170840263367,-0.5722141861915588,9.440337181091309,-4.486083984375,1.15966796875,-4.425048828125
2.9724999000000003,0.7493851184844971,-0.4423287510871887,9.889249801635742,7.32421875,-1.190185546875,3.692626953125
2.9774999,0.6057330369949341,-0.6901286244392395,9.595361709594727,-9.185791015625,0.9765625,-3.2958984375
2.9824999,0.7631517648696899,-0.5650315880775452,9.798270225524902,9.552001953125,-0.91552734375,1.739501953125
2.9874999,0.6135141849517822,-0.7248445749282837,9.801262855529785,-9.46044921875,0.06103515625,-0.823974609375
2.9924999000000003,0.7529764175415039,-0.6027402877807617,9.723451614379883,7.8125,-0.274658203125,-1.0986328125
2.9974999,0.6236895322799683,-0.5542576909065247,9.996989250183105,-4.7607421875,-0.457763671875,1.739501953125
3.0024999,0.7038952708244324,-0.5668272376060486,9.576807022094727,1.8310546875,0.579833984375,-3.2958984375
3.0074999,0.6901286244392395,-0.41958385705947876,10.084976196289062,1.434326171875,-0.732421875,3.7841796875
3.0124999000000003,0.7451952695846558,-0.44831427931785583,9.940725326538086,7.171630859375,-0.946044921875,3.143310546875
3.0174999000000002,0.6224924325942993,-0.6440402865409851,9.649829864501953,-9.09423828125,0.79345703125,-2.8076171875
3.0224999,0.7781155705451965,-0.5506663918495178,9.779715538024902,9.613037109375,-0.67138671875,0.946044921875
3.0274999,0.6404489278793335,-0.6787561774253845,9.825803756713867,-8.11767578125,0.274658203125,-0.18310546875
3.0324999000000004,0.761954665184021,-0.6015431880950928,9.616909980773926,5.950927734375,0.30517578125,-1.739501953125
3.0374999000000003,0.6332663297653198,-0.5632359385490417,10.02571964263916,-2.471923828125,-0.48828125,2.655029296875
3.0424999,0.6655880808830261,-0.5793967843055725,9.527725219726562,-1.373291015625,0.9765625,-3.753662109375
3.0474999,0.6973112225532532,-0.41120412945747375,10.014347076416016,4.57763671875,-0.579833984375,3.5400390625
3.0524999000000004,0.6021417379379272,-0.5991489887237549,9.59715747833252,-7.75146484375,0.946044921875,-3.448486328125
3.0574999000000003,0.7320271730422974,-0.43095630407333374,9.843161582946777,9.002685546875,-0.579833984375,1.953125
3.0624999,0.618302583694458,-0.6129156351089478,9.743802070617676,-8.7890625,0.30517578125,-1.129150390625
3.0674999,0.7643488645553589,-0.524330198764801,9.702502250671387,7.2021484375,-0.213623046875,-0.946044921875
3.0724999000000004,0.7050924301147461,-0.6625953316688538,9.553462982177734,-6.8359375,0.946044921875,-3.448486328125
3.0774999000000003,0.7769184708595276,-0.517746090888977,9.85034465789795,8.9111328125,-1.007080078125,2.13623046875
3.0824999,0.656609833240509,-0.7003039717674255,9.68813705444336,-8.758544921875,0.396728515625,-1.220703125
3.0874999,0.7703344225883484,-0.6165069341659546,9.701904296875,7.080078125,0.030517578125,-0.91552734375
3.0924999,0.7098808288574219,-0.6051344871520996,9.972448348999023,-3.997802734375,-0.1220703125,1.8310546875
3.0974999000000003,0.7224503755569458,-0.6266822814941406,9.560047149658203,-0.091552734375,0.8544921875,-3.021240234375
3.1024999,0.7799112200737,-0.4602852761745453,9.998785018920898,3.814697265625,-0.701904296875,3.204345703125
3.1074999,0.6745663285255432,-0.646434485912323,9.597756385803223,-7.32421875,0.701904296875,-3.2958984375
3.1124999,0.8032546639442444,-0.4704606235027313,9.794678688049316,8.6669921875,-0.54931640625,1.678466796875
3.1174999000000003,0.6374561786651611,-0.645237386226654,9.788095474243164,-8.36181640625,0.244140625,-0.6103515625
3.1224999,0.6542156338691711,-0.586579442024231,9.536105155944824,-2.13623046875,0.823974609375,-3.47900390625
3.1274999,0.6542156338691711,-0.586579442024231,9.536105155944824,-2.13623046875,0.823974609375,-3.47900390625
3.1324999,0.7116764783859253,-0.4411316514015198,9.96945571899414,5.828857421875,-0.701904296875,2.86865234375
3.1374999000000003,0.6266822814941406,-0.6350619792938232,9.609726905822754,-8.30078125,0.732421875,-2.38037109375
3.1424999000000002,0.7320271730422974,-0.524330198764801,9.712079048156738,8.85009765625,-0.244140625,0.54931640625
3.1474999,0.6745663285255432,-0.6302735805511475,9.871891975402832,-6.8359375,-0.030517578125,0.396728515625
3.1524999,0.7098808288574219,-0.6003460884094238,9.53969669342041,3.082275390625,0.335693359375,-2.410888671875
3.1574999000000004,0.6943184733390808,-0.4985924959182739,10.014945983886719,1.15966796875,-0.54931640625,2.86865234375
3.1624999000000003,0.6530185341835022,-0.6165069341659546,9.568427085876465,-5.55419921875,0.640869140625,-3.35693359375
3.1674999,0.7098808288574219,-0.47465047240257263,9.977835655212402,7.87353515625,-0.67138671875,1.983642578125
3.1724999,0.608127236366272,-0.6302735805511475,9.79527759552002,-8.514404296875,0.274658203125,-1.129150390625
3.1774999000000004,0.6584054827690125,-0.6500257849693298,9.560646057128906,-8.23974609375,0.640869140625,-2.288818359375
3.1824999000000003,0.7799112200737,-0.5380968451499939,9.64683723449707,8.056640625,-0.030517578125,0.30517578125
3.1874999,0.7003039717674255,-0.5949591398239136,9.874884605407715,-5.645751953125,0.06103515625,0.9765625
3.1924999,0.6997054219245911,-0.5979518890380859,9.546280860900879,1.678466796875,0.518798828125,-2.62451171875
3.1974999000000004,0.7296329736709595,-0.4620809257030487,9.99459457397461,2.960205078125,-0.518798828125,2.777099609375
3.2024999000000003,0.7457938194274902,-0.46746787428855896,9.834183692932129,8.331298828125,-0.67138671875,0.9765625
3.2074999,0.7457938194274902,-0.46746787428855896,9.834183692932129,8.331298828125,-0.67138671875,0.9765625
3.2124999,0.6596025824546814,-0.5985504388809204,9.90122127532959,-7.26318359375,0.06103515625,0.1220703125
3.2174999,0.7044938206672668,-0.5847837924957275,9.592967987060547,3.90625,-0.06103515625,-2.227783203125
3.2224999000000003,0.6643909811973572,-0.628477931022644,9.546280860900879,-5.31005859375,0.732421875,-2.9296875
3.2274999,0.7559691667556763,-0.47165772318840027,9.865906715393066,7.659912109375,-0.30517578125,1.617431640625
3.2324999,0.6392518281936646,-0.6302735805511475,9.80904483795166,-7.9345703125,0.213623046875,-0.3662109375
3.2374999,0.7356184720993042,-0.5793967843055725,9.63067626953125,4.94384765625,0.152587890625,-1.64794921875
3.2424999000000003,0.6757634282112122,-0.5147533416748047,9.959878921508789,-0.640869140625,-0.335693359375,2.0751953125
3.2474999,0.6554127335548401,-0.618302583694458,9.548076629638672,-4.180908203125,0.67138671875,-3.082275390625
3.2524999,0.7416039705276489,-0.4770447015762329,9.927556991577148,7.598876953125,-0.274658203125,1.8310546875
3.2574999,0.6177040338516235,-0.6488286852836609,9.782109260559082,-7.99560546875,0.335693359375,-0.762939453125
3.2624999000000003,0.6991068720817566,-0.585382342338562,9.639654159545898,5.950927734375,0.18310546875,-1.220703125
3.2674999000000002,0.6637924313545227,-0.667982280254364,9.979032516479492,-0.3662109375,-0.579833984375,3.47900390625
3.2724999,0.5907692909240723,-0.7697358727455139,9.43255615234375,-2.288818359375,-0.274658203125,-0.091552734375
3.2774999,0.6278793811798096,-1.0223240852355957,9.99339771270752,14.58740234375,-2.99072265625,7.232666015625
3.2824999000000004,-1.4179660081863403,-1.0959458351135254,8.064867973327637,30.94482421875,-1.678466796875,72.6318359375
3.2874999000000003,-0.9726444482803345,0.04668693244457245,8.834604263305664,39.0625,-14.007568359375,107.513427734375
3.2924999,-1.647210717201233,-1.0187327861785889,7.1670427322387695,29.60205078125,-4.08935546875,97.71728515625
3.2974999,-1.1827356815338135,-0.21787235140800476,7.754819393157959,2.5634765625,-19.378662109375,117.85888671875
3.3024999000000004,-1.1665748357772827,-0.49320554733276367,7.193378925323486,33.87451171875,-11.749267578125,105.77392578125
3.3074999000000003,-0.8571242094039917,-0.5015852451324463,7.6566572189331055,-17.425537109375,-16.143798828125,102.142333984375
3.3124999,0.18794482946395874,0.08439560979604721,8.414422035217285,19.195556640625,-20.843505859375,97.503662109375
3.3174999,1.1492167711257935,1.0923545360565186,9.833584785461426,59.356689453125,-35.491943359375,100.189208984375
3.3224999000000004,1.6938977241516113,1.1994950771331787,9.594164848327637,121.124267578125,-26.702880859375,94.329833984375
3.3274999000000003,1.9704279899597168,0.9690531492233276,9.460089683532715,36.92626953125,-31.402587890625,83.19091796875
3.3324999,2.632424831390381,1.3479355573654175,10.274118423461914,106.292724609375,-40.95458984375,65.582275390625
3.3374999,2.8383262157440186,1.0205284357070923,9.405621528625488,117.767333984375,-30.3955078125,49.74365234375
3.3424999,2.802412986755371,1.2862848043441772,9.1446533203125,31.402587890625,-38.39111328125,34.1796875
3.3474999000000003,3.1932666301727295,0.8936358094215393,9.155426979064941,73.394775390625,-41.595458984375,10.040283203125
3.3524999,3.375225782394409,1.3724761009216309,8.166023254394531,68.4814453125,-21.8505859375,-15.07568359375
3.3574999,3.5488054752349854,1.5340847969055176,7.558494567871094,-13.0615234375,-26.06201171875,-25.57373046875
3.3624999,3.846883535385132,2.0907366275787354,7.250241279602051,-2.01416015625,-22.64404296875,-42.236328125
3.3674999000000003,3.9899370670318604,2.716221809387207,6.587047576904297,-15.07568359375,0.42724609375,-63.5986328125
3.3724999,3.796006679534912,3.2184057235717773,6.497264862060547,-70.770263671875,19.47021484375,-64.27001953125
3.3774999,3.6511576175689697,3.268085241317749,6.452373504638672,-85.9375,44.586181640625,-76.35498046875
3.3824999,2.9933507442474365,2.7485435009002686,6.429628849029541,-146.697998046875,40.802001953125,-65.887451171875
3.3874999000000003,2.5911247730255127,2.1553800106048584,7.207744121551514,-112.762451171875,52.1240234375,-59.906005859375
3.3924999000000002,1.9572598934173584,1.6112977266311646,7.420828342437744,-104.3701171875,79.010009765625,-58.197021484375
3.3974999,0.5656301379203796,0.6326677799224854,7.650073051452637,-163.63525390625,65.85693359375,-46.295166015625
3.4024999,0.09157821536064148,-0.23523031175136566,9.361329078674316,-93.963623046875,62.68310546875,-24.84130859375
3.4074999000000004,-0.4572925269603729,-1.5658079385757446,9.773730278015137,6.7138671875,80.078125,-11.749267578125
3.4124999000000003,-0.9510966539382935,-2.297236442565918,10.89301872253418,-56.549072265625,29.693603515625,17.242431640625
3.4174999,-1.2216414213180542,-3.7654807567596436,11.500547409057617,22.796630859375,-9.002685546875,8.697509765625
3.4224999,-1.3976151943206787,-3.448249101638794,11.692682266235352,87.493896484375,-7.537841796875,-4.669189453125
3.4274999000000004,-1.8309657573699951,-3.090315818786621,10.5344877243042,9.46044921875,-22.918701171875,-14.984130859375
3.4324999000000003,1.88782799243927,2.1721394062042236,7.18320369720459,-41.534423828125,21.30126953125,-9.27734375
3.4374999,2.6575639247894287,2.1769278049468994,8.204330444335938,-40.10009765625,21.453857421875,8.60595703125
3.4424999,2.6839001178741455,1.3539210557937622,9.43255615234375,-13.916015625,31.890869140625,15.19775390625
3.4474999000000004,1.956661343574524,0.0011971008498221636,10.602123260498047,-2.44140625,20.8740234375,0.762939453125
3.4524999000000003,0.9678560495376587,-1.347337007522583,11.192893028259277,-7.568359375,3.23486328125,-20.1416015625
3.4574999,0.028730420395731926,-2.456450939178467,11.192893028259277,0.457763671875,-1.52587890625,-16.357421875
3.4624999,-0.5428852438926697,-2.8658595085144043,10.663774490356445,18.6767578125,-1.89208984375,1.64794921875
3.4674999,-0.628477931022644,-2.5929205417633057,9.973047256469727,12.481689453125,-1.739501953125,-1.5869140625
3.4724999000000003,-0.39624038338661194,-1.7866730690002441,9.564835548400879,-4.058837890625,-6.927490234375,-8.7890625
3.4774999,0.0293289702385664,-0.8092401623725891,9.57321548461914,1.15966796875,-4.94384765625,2.899169921875
3.4824999,0.8224082589149475,0.4884171485900879,9.630077362060547,-10.19287109375,-4.180908203125,-7.8125
3.4874999,0.9828197956085205,0.34656068682670593,9.666589736938477,-10.040283203125,-1.495361328125,-4.8828125
3.4924999000000003,1.0283095836639404,-0.033518824726343155,9.743802070617676,4.8828125,4.45556640625,13.24462890625
3.4974999,0.99479079246521,-0.5207388401031494,9.763554573059082,2.899169921875,1.220703125,0.732421875
3.5024999,0.8858546018600464,-0.8702923059463501,9.791088104248047,-5.096435546875,-4.150390625,-15.594482421875
3.5074999,0.7846996188163757,-1.035492181777954,9.859322547912598,5.31005859375,1.46484375,3.692626953125
3.5124999000000003,0.6829460263252258,-0.9020155072212219,9.808445930480957,7.843017578125,4.913330078125,11.993408203125
3.5174999000000002,0.6685808300971985,-0.6637924313545227,9.708487510681152,-5.279541015625,-2.5634765625,-11.65771484375
3.5224999,0.6099228858947754,-0.5380968451499939,9.803058624267578,-4.669189453125,-2.288818359375,-6.988525390625
3.5274999,0.5746083855628967,-0.38127660751342773,9.86889934539795,5.9814453125,4.547119140625,14.2822265625
3.5324999000000004,0.6015431880950928,-0.40222588181495667,9.780912399291992,-2.349853515625,-1.251220703125,-2.685546875
3.5374999000000003,0.6278793811798096,-0.5093663930892944,9.815628051757812,-7.87353515625,-5.06591796875,-12.6953125
3.5424999,0.6715735793113708,-0.5985504388809204,9.744400978088379,3.021240234375,1.40380859375,4.57763671875
3.5474999,0.7140706777572632,-0.6440402865409851,9.716269493103027,-7.99560546875,-4.33349609375,-14.495849609375
3.5524999000000004,0.6973112225532532,-0.6572083830833435,9.84495735168457,4.94384765625,2.685546875,5.0048828125
3.5574999000000003,0.7667431235313416,-0.536899745464325,9.770736694335938,5.06591796875,4.241943359375,9.09423828125
3.5624999,0.7541735172271729,-0.5482721924781799,9.723451614379883,-9.09423828125,-3.631591796875,-13.12255859375
3.5674999,0.67815762758255,-0.5931634902954102,9.821614265441895,1.922607421875,0.9765625,0.8544921875
3.5724999000000004,0.6655880808830261,-0.5434837937355042,9.786299705505371,6.500244140625,3.814697265625,10.7421875
3.5774999000000003,0.6500257849693298,-0.5764040350914001,9.674968719482422,-8.36181640625,-4.425048828125,-11.1083984375
3.5824999,0.606930136680603,-0.6590040326118469,9.821015357971191,1.190185546875,-1.251220703125,-1.312255859375
3.5874999,0.6584054827690125,-0.6051344871520996,9.827000617980957,7.87353515625,3.173828125,10.8642578125
3.5924999,0.7116764783859253,-0.5602431893348694,9.683947563171387,-8.9111328125,-4.547119140625,-10.101318359375
3.5974999000000003,0.6961141228675842,-0.6248866319656372,9.841964721679688,0.1220703125,-0.885009765625,-2.105712890625
3.6024999,0.6661866307258606,-0.5261258482933044,9.729436874389648,-12.603759765625,-5.096435546875,-10.009765625
3.6074999,0.6254851818084717,-0.619499683380127,9.920374870300293,6.103515625,1.64794921875,3.47900390625
3.6124999,0.667982280254364,-0.47165772318840027,9.742006301879883,5.096435546875,2.99072265625,4.5166015625
3.6174999000000003,0.6667851805686951,-0.6063315868377686,9.707290649414062,-13.092041015625,-5.706787109375,-9.6435546875
3.6224999,0.6643909811973572,-0.6619967818260193,9.923966407775879,10.833740234375,3.387451171875,6.40869140625
3.6274999,0.730231523513794,-0.5446808934211731,9.695918083190918,0.48828125,1.3427734375,0.213623046875
3.6324999,0.6685808300971985,-0.4967968463897705,9.628880500793457,-14.09912109375,-4.39453125,-7.781982421875
3.6374999000000003,0.6655880808830261,-0.6721721291542053,9.975440979003906,3.7841796875,-0.67138671875,2.960205078125
3.6424999000000002,0.7374141216278076,-0.5404910445213318,9.773730278015137,9.613037109375,5.401611328125,2.13623046875
3.6474999,0.6344634294509888,-0.6033388376235962,9.724050521850586,-16.998291015625,-6.53076171875,-7.049560546875
3.6524999,0.6835445761680603,-0.6613982319831848,9.907206535339355,13.61083984375,3.72314453125,6.89697265625
3.6574999000000004,0.7080851793289185,-0.5261258482933044,9.570222854614258,-2.532958984375,1.708984375,-4.302978515625
3.6624999000000003,0.6153098344802856,-0.6254851818084717,9.797672271728516,-10.162353515625,-5.92041015625,-1.861572265625
3.6674999,0.7422025203704834,-0.5776011347770691,9.834183692932129,17.181396484375,6.77490234375,5.79833984375
3.6724999,0.67815762758255,-0.6380547285079956,10.005967140197754,4.8828125,-1.434326171875,4.974365234375
3.6774999000000004,0.7655459642410278,-0.5267243981361389,9.707889556884766,7.568359375,5.4931640625,-1.068115234375
3.6824999000000003,0.6649895310401917,-0.4704606235027313,9.545681953430176,-10.6201171875,-0.6103515625,-7.110595703125
3.6874999,0.6763619780540466,-0.6344634294509888,9.932944297790527,-0.823974609375,-4.33349609375,3.60107421875
3.6924999,0.7942764163017273,-0.5291185975074768,9.68155288696289,11.505126953125,6.439208984375,0.244140625
3.6974999000000004,0.6236895322799683,-0.5536591410636902,9.66299819946289,-17.27294921875,-5.92041015625,-5.096435546875
3.7024999000000003,0.7697358727455139,-0.6422445774078369,9.9185791015625,16.2353515625,2.960205078125,6.561279296875
3.7074999,0.6823474764823914,-0.5027823448181152,9.512163162231445,-9.124755859375,1.15966796875,-7.14111328125
3.7124999,0.6673837304115295,-0.6404489278793335,9.945513725280762,-1.373291015625,-4.302978515625,3.662109375
3.7174999,0.7799112200737,-0.5542576909065247,9.685144424438477,11.16943359375,6.317138671875,-0.48828125
3.7224999000000003,0.6380547285079956,-0.5159504413604736,9.543288230895996,-11.65771484375,0.457763671875,-7.2021484375
3.7274999,0.6380547285079956,-0.5159504413604736,9.543288230895996,-11.65771484375,0.457763671875,-7.2021484375
3.7324999,0.6631938815116882,-0.608127236366272,9.996989250183105,2.685546875,-3.41796875,5.157470703125
3.7374999,0.761954665184021,-0.5147533416748047,9.635464668273926,6.77490234375,5.67626953125,-2.838134765625
3.7424999000000003,0.628477931022644,-0.6392518281936646,9.831191062927246,-13.824462890625,-5.67626953125,-1.556396484375
3.7474999,0.7493851184844971,-0.6428431272506714,9.848548889160156,17.059326171875,4.39453125,4.08935546875
3.7524999,0.6428431272506714,-0.6500257849693298,9.615114212036133,-15.899658203125,-1.678466796875,-6.622314453125
3.7574999,0.6643909811973572,-0.6925228238105774,10.032303810119629,10.711669921875,-1.068115234375,6.500244140625
3.7624999000000003,0.7092822790145874,-0.5476736426353455,9.561244010925293,-3.021240234375,3.570556640625,-5.9814453125
3.7674999000000002,0.6153098344802856,-0.6159083843231201,9.952696800231934,-5.340576171875,-4.82177734375,2.685546875
3.7724999,0.761954665184021,-0.5267243981361389,9.676166534423828,12.115478515625,5.401611328125,-0.3662109375
3.7774999,0.6625953316688538,-0.5428852438926697,9.540295600891113,-14.22119140625,0.030517578125,-6.622314453125
3.7824999000000004,0.6625953316688538,-0.5428852438926697,9.540295600891113,-14.22119140625,0.030517578125,-6.622314453125
3.7874999000000003,0.6751648783683777,-0.628477931022644,10.035895347595215,8.819580078125,-2.0751953125,6.28662109375
3.7924999,0.7320271730422974,-0.5261258482933044,9.526528358459473,-2.105712890625,3.997802734375,-5.615234375
3.7974999,0.6021417379379272,-0.5752069354057312,10.022727012634277,-5.06591796875,-4.82177734375,3.0517578125
3.8024999000000004,0.7523778676986694,-0.5297171473503113,9.66299819946289,10.92529296875,4.69970703125,-1.40380859375
3.8074999000000003,0.6033388376235962,-0.585382342338562,9.80904483795166,-15.106201171875,-3.84521484375,-1.739501953125
3.8124999,0.7751228213310242,-0.6236895322799683,9.819818496704102,16.90673828125,2.50244140625,3.387451171875
3.8174999,0.646434485912323,-0.6021417379379272,9.546280860900879,-16.082763671875,-0.6103515625,-5.645751953125
3.8224999000000004,0.760757565498352,-0.6434416770935059,9.990405082702637,13.18359375,-0.91552734375,5.859375
3.8274999000000003,0.7140706777572632,-0.5225345492362976,9.419986724853516,-8.60595703125,2.3193359375,-6.561279296875
3.8324999,0.7721300721168518,-0.5303156971931458,9.545681953430176,2.838134765625,4.058837890625,-4.730224609375
3.8374999,0.6135141849517822,-0.6093243360519409,9.949105262756348,-8.026123046875,-3.936767578125,2.38037109375
3.8424999,0.7966706156730652,-0.629675030708313,9.808445930480957,16.448974609375,1.739501953125,2.471923828125
3.8474999000000003,0.7966706156730652,-0.629675030708313,9.808445930480957,16.448974609375,1.739501953125,2.471923828125
3.8524999,0.6236895322799683,-0.6290764808654785,9.601346969604492,-16.204833984375,-0.54931640625,-4.57763671875
3.8574999,0.7266402244567871,-0.6051344871520996,9.976638793945312,14.6484375,-0.732421875,4.94384765625
3.8624999,0.6350619792938232,-0.5668272376060486,9.481039047241211,-11.810302734375,1.708984375,-6.16455078125
3.8674999000000003,0.6913257241249084,-0.5829881429672241,10.050260543823242,8.11767578125,-2.166748046875,5.706787109375
3.8724999,0.7092822790145874,-0.5009866952896118,9.474454879760742,-4.7607421875,3.143310546875,-6.195068359375
3.8774999,0.6548141837120056,-0.596754789352417,10.102334022521973,0.30517578125,-3.23486328125,5.126953125
3.8824999,0.7416039705276489,-0.5327098965644836,9.582792282104492,3.509521484375,3.448486328125,-4.638671875
3.8874999000000003,0.7679402232170105,-0.586579442024231,9.727043151855469,14.068603515625,1.983642578125,-0.06103515625
3.8924999000000002,0.6332663297653198,-0.568622887134552,9.739612579345703,-15.167236328125,-1.373291015625,-1.40380859375
3.8974999,0.8134300112724304,-0.667982280254364,9.859322547912598,15.411376953125,0.579833984375,1.922607421875
3.9024999,0.6631938815116882,-0.6709750294685364,9.667187690734863,-15.167236328125,-0.030517578125,-3.47900390625
3.9074999000000004,0.7829039692878723,-0.6973112225532532,9.931148529052734,14.58740234375,-0.518798828125,3.7841796875
3.9124999000000003,0.6123170852661133,-0.6189011335372925,9.519346237182617,-13.427734375,1.068115234375,-5.035400390625
3.9174999,0.7015010714530945,-0.5889736413955688,9.910199165344238,12.115478515625,-1.556396484375,4.82177734375
3.9224999,0.707486629486084,-0.5171475410461426,9.991601943969727,8.60595703125,-2.13623046875,5.4931640625
3.9274999000000004,0.7122750282287598,-0.5500678420066833,9.425971984863281,-6.77490234375,2.593994140625,-6.134033203125
3.9324999000000003,0.7380126714706421,-0.5650315880775452,9.547477722167969,-3.265380859375,2.86865234375,-6.195068359375
3.9374999,0.7140706777572632,-0.6147112846374512,10.174758911132812,1.64794921875,-2.8076171875,5.55419921875
3.9424999,0.7086837291717529,-0.6003460884094238,9.552266120910645,-0.3662109375,2.8076171875,-5.767822265625
3.9474999000000004,0.6117185354232788,-0.5901707410812378,10.13405704498291,-1.220703125,-2.716064453125,5.0048828125
3.9524999000000003,0.6949170231819153,-0.5991489887237549,9.57321548461914,2.166748046875,2.9296875,-5.401611328125
3.9574999,0.5650315880775452,-0.5716156363487244,10.08198356628418,-3.509521484375,-2.50244140625,4.547119140625
3.9624999,0.7026981711387634,-0.5931634902954102,9.57321548461914,4.21142578125,2.593994140625,-4.94384765625
3.9674999000000004,0.5722141861915588,-0.5536591410636902,9.967659950256348,-5.06591796875,-2.38037109375,4.08935546875
3.9724999000000003,0.7362170219421387,-0.606930136680603,9.514557838439941,6.011962890625,2.38037109375,-4.39453125
3.9774999,0.5847837924957275,-0.5518634915351868,9.892841339111328,-6.195068359375,-2.13623046875,3.631591796875
3.9824999,0.760757565498352,-0.6039373874664307,9.528923034667969,6.866455078125,1.922607421875,-3.96728515625
3.9874999,0.5781996846199036,-0.5327098965644836,9.912593841552734,-7.080078125,-1.617431640625,3.2958984375
3.9924999000000003,0.7721300721168518,-0.568622887134552,9.655217170715332,7.50732421875,1.617431640625,-3.631591796875
3.9974999,0.5817909836769104,-0.4967968463897705,9.960477828979492,-7.476806640625,-1.46484375,2.9296875
4.0024999,0.7811083197593689,-0.608127236366272,9.623494148254395,6.927490234375,1.46484375,-3.72314453125
4.0074999,0.6039373874664307,-0.5201402902603149,9.981427192687988,-6.65283203125,-1.3427734375,3.204345703125
4.0124999,0.7805097699165344,-0.628477931022644,9.603142738342285,5.889892578125,1.495361328125,-3.753662109375
4.0174999,0.6171054840087891,-0.5321113467216492,9.997588157653809,-5.523681640625,-1.434326171875,3.631591796875
4.022499900000001,0.7709329724311829,-0.6428431272506714,9.592369079589844,5.126953125,1.0986328125,-4.119873046875
4.0274999000000005,0.6260837316513062,-0.5392939448356628,10.005369186401367,-4.608154296875,-1.556396484375,3.7841796875
4.0324999,0.7571662664413452,-0.6446388363838196,9.582792282104492,3.90625,1.52587890625,-4.608154296875
4.0374999,0.7398083209991455,-0.6230909824371338,9.551069259643555,2.410888671875,1.5869140625,-4.852294921875
4.0424999,0.6697779297828674,-0.4513070285320282,10.022727012634277,-1.28173828125,-1.739501953125,4.669189453125
4.0474999,0.7146692276000977,-0.5991489887237549,9.476848602294922,0.457763671875,1.678466796875,-5.340576171875
4.0524999,0.7032967209815979,-0.48303020000457764,10.011354446411133,0.42724609375,-1.678466796875,4.94384765625
4.0574999,0.7068880796432495,-0.6218938827514648,9.443329811096191,-1.46484375,1.739501953125,-5.523681640625
4.062499900000001,0.7158663272857666,-0.5297171473503113,10.071209907531738,2.86865234375,-1.953125,5.31005859375
4.0674999000000005,0.6721721291542053,-0.6482301354408264,9.458892822265625,-3.90625,1.5869140625,-5.706787109375
4.0724999,0.6817489266395569,-0.5237316489219666,10.047865867614746,5.035400390625,-1.739501953125,4.94384765625
4.0774999,0.5841852426528931,-0.6512228846549988,9.445724487304688,-6.591796875,1.739501953125,-5.2490234375
4.0824999,0.71766197681427,-0.5416881442070007,9.964069366455078,9.918212890625,-1.617431640625,3.84521484375
4.0874999,0.7864952683448792,-0.5656301379203796,10.004770278930664,11.077880859375,-1.007080078125,2.86865234375
4.0924999,0.6554127335548401,-0.7398083209991455,9.788095474243164,-11.505126953125,1.129150390625,-2.50244140625
4.0974999,0.7906851172447205,-0.5578489899635315,9.939528465270996,11.566162109375,-0.823974609375,1.0986328125
4.1024999,0.628477931022644,-0.6272808313369751,9.768941879272461,-11.1083984375,0.579833984375,-0.8544921875
4.1074999000000005,0.7721300721168518,-0.5261258482933044,9.728838920593262,10.498046875,-0.42724609375,-0.6103515625
4.1124999,0.5805938839912415,-0.5500678420066833,9.734225273132324,-9.27734375,0.335693359375,1.15966796875
4.1174999,0.778714120388031,-0.5057750940322876,9.564237594604492,7.965087890625,0.152587890625,-2.44140625
4.1224999,0.6141127347946167,-0.5195417404174805,9.901819229125977,-6.011962890625,-0.396728515625,2.716064453125
4.1274999,0.7858967185020447,-0.5428852438926697,9.552865028381348,4.241943359375,0.701904296875,-3.875732421875
4.1324999,0.706289529800415,-0.48901569843292236,10.095151901245117,-1.922607421875,-0.823974609375,4.119873046875
4.1374999,0.7709329724311829,-0.5985504388809204,9.554061889648438,-0.701904296875,1.129150390625,-4.913330078125
4.1424999,0.7499836683273315,-0.47584760189056396,10.071209907531738,3.143310546875,-1.495361328125,4.425048828125
4.147499900000001,0.730231523513794,-0.5057750940322876,9.940725326538086,7.2021484375,-1.373291015625,4.425048828125
4.1524999000000005,0.5835866928100586,-0.7200561761856079,9.537302017211914,-8.85009765625,1.220703125,-4.180908203125
4.1574999,0.7368155717849731,-0.5560533404350281,9.913790702819824,9.94873046875,-1.220703125,2.74658203125
4.1624999,0.6123170852661133,-0.751779317855835,9.721057891845703,-10.92529296875,0.9765625,-2.38037109375
4.1674999,0.7691373229026794,-0.5776011347770691,9.885659217834473,10.467529296875,-0.579833984375,0.67138671875
4.1724999,0.5919663906097412,-0.6727706789970398,9.858125686645508,-9.552001953125,0.30517578125,-0.030517578125
4.1774999,0.7661445140838623,-0.5632359385490417,9.715071678161621,7.9345703125,-0.244140625,-1.861572265625
4.1824999,0.6075286865234375,-0.5404910445213318,9.99459457397461,-5.7373046875,-0.18310546875,2.38037109375
4.187499900000001,0.7457938194274902,-0.5446808934211731,9.551667213439941,2.99072265625,0.48828125,-3.753662109375
4.1924999000000005,0.7056909799575806,-0.4531026780605316,10.062829971313477,-0.335693359375,-0.48828125,3.997802734375
4.1974999,0.6883329749107361,-0.5895721912384033,9.453505516052246,-2.960205078125,1.190185546875,-4.791259765625
4.2024999,0.718859076499939,-0.4710591733455658,9.947908401489258,5.523681640625,-1.251220703125,3.96728515625
4.2074999,0.6901286244392395,-0.5345055460929871,9.92097282409668,9.33837890625,-0.946044921875,2.777099609375
4.2124999,0.5781996846199036,-0.7080851793289185,9.702502250671387,-10.009765625,0.946044921875,-2.410888671875
4.2174999,0.7362170219421387,-0.5668272376060486,9.843161582946777,9.765625,-0.48828125,0.54931640625
4.2224999,0.5895721912384033,-0.6356605291366577,9.8599214553833,-8.270263671875,0.091552734375,0.42724609375
4.2274999,0.7841010689735413,-0.5716156363487244,9.627084732055664,6.2255859375,-0.06103515625,-2.197265625
4.2324999000000005,0.6703764796257019,-0.5111620426177979,10.014347076416016,-3.0517578125,-0.6103515625,2.9296875
4.2374999,0.7416039705276489,-0.5770025849342346,9.551667213439941,0,0.701904296875,-4.08935546875
4.2424999,0.7260416746139526,-0.43095630407333374,10.035895347595215,3.23486328125,-0.885009765625,3.936767578125
4.2474999,0.6236895322799683,-0.596754789352417,9.545083999633789,-6.103515625,1.129150390625,-4.39453125
4.2524999,0.7026981711387634,-0.5165489912033081,9.947309494018555,8.36181640625,-0.640869140625,3.23486328125
4.2574999,0.5847837924957275,-0.6751648783683777,9.673172950744629,-9.82666015625,0.823974609375,-2.5634765625
4.2624999,0.7320271730422974,-0.5973533391952515,9.822212219238281,9.33837890625,-0.579833984375,0.823974609375
4.2674999,0.7667431235313416,-0.579995334148407,9.59177017211914,5.645751953125,0.06103515625,-2.197265625
4.272499900000001,0.6607996821403503,-0.5303156971931458,9.989806175231934,-2.38037109375,-0.396728515625,2.838134765625
4.2774999000000005,0.7056909799575806,-0.5997475385665894,9.495404243469238,-1.251220703125,0.732421875,-4.058837890625
4.2824999,0.7170634269714355,-0.4411316514015198,9.981427192687988,4.730224609375,-0.732421875,3.7841796875
4.2874999,0.6380547285079956,-0.6368576288223267,9.57860279083252,-7.415771484375,0.946044921875,-3.72314453125
4.2924999,0.7463923692703247,-0.46148237586021423,9.865906715393066,9.124755859375,-0.762939453125,2.349853515625
4.2974999,0.6224924325942993,-0.6500257849693298,9.743204116821289,-9.368896484375,0.579833984375,-1.251220703125
4.3024999,0.7535749673843384,-0.5608417391777039,9.75936508178711,8.026123046875,-0.396728515625,-0.42724609375
4.3074999,0.6482301354408264,-0.5793967843055725,9.968857765197754,-5.2490234375,-0.06103515625,1.556396484375
4.312499900000001,0.7146692276000977,-0.6242880821228027,9.579200744628906,1.77001953125,0.518798828125,-3.41796875
4.3174999000000005,0.6919242739677429,-0.4920084476470947,10.040084838867188,2.227783203125,-0.457763671875,3.35693359375
4.3224999,0.6428431272506714,-0.6434416770935059,9.525930404663086,-5.7373046875,0.823974609375,-3.997802734375
4.3274999,0.5740098357200623,-0.6697779297828674,9.639654159545898,-9.246826171875,0.518798828125,-2.0751953125
4.3324999,0.7242460250854492,-0.6159083843231201,9.740211486816406,8.7890625,-0.54931640625,0.091552734375
4.3374999,0.6177040338516235,-0.6332663297653198,9.870096206665039,-6.4697265625,-0.030517578125,1.251220703125
4.3424999,0.7422025203704834,-0.6386532783508301,9.503185272216797,2.8076171875,0.18310546875,-3.0517578125
4.3474999,0.6961141228675842,-0.4908113479614258,10.00836181640625,1.434326171875,-0.67138671875,3.2958984375
4.352499900000001,0.6613982319831848,-0.6033388376235962,9.543886184692383,-4.913330078125,0.579833984375,-3.631591796875
4.3574999000000005,0.707486629486084,-0.4602852761745453,10.00955867767334,7.99560546875,-0.396728515625,2.74658203125
4.3624999,0.5776011347770691,-0.6063315868377686,9.709086418151855,-9.368896484375,0.701904296875,-1.953125
4.3674999,0.7224503755569458,-0.5644330382347107,9.793481826782227,8.30078125,-0.1220703125,-0.30517578125
4.3724999,0.6470330357551575,-0.5901707410812378,9.932944297790527,-5.67626953125,-0.06103515625,1.40380859375
4.3774999,0.6470330357551575,-0.5901707410812378,9.932944297790527,-5.67626953125,-0.06103515625,1.40380859375
4.3824999,0.7218518257141113,-0.6488286852836609,9.532513618469238,1.800537109375,0.213623046875,-2.99072265625
4.3874999,0.6787561774253845,-0.7092822790145874,9.551069259643555,-6.439208984375,0.67138671875,-3.570556640625
4.3924999,0.7451952695846558,-0.5297171473503113,9.855731010437012,8.697509765625,-0.640869140625,1.983642578125
4.397499900000001,0.6135141849517822,-0.7182605266571045,9.725247383117676,-8.6669921875,0.48828125,-1.0986328125
4.4024999000000005,0.47405192255973816,-1.0235211849212646,9.750386238098145,1.373291015625,-2.655029296875,9.1552734375
4.4074999,0.47405192255973816,-1.0235211849212646,9.750386238098145,1.373291015625,-2.655029296875,9.1552734375
4.4124999,0.10534487664699554,-1.557428240776062,9.115324020385742,8.85009765625,-4.425048828125,11.383056640625
4.4174999,-0.014365210197865963,-1.1725603342056274,9.708487510681152,31.158447265625,-10.1318359375,21.78955078125
4.4224999,-0.7044938206672668,-1.7782933712005615,9.056666374206543,19.287109375,-7.87353515625,27.40478515625
4.4274999,-0.768538773059845,-0.8415619134902954,9.728240013122559,46.9970703125,-9.918212890625,56.396484375
4.4324999,-1.6089035272598267,-1.4658499956130981,8.752004623413086,11.962890625,-7.843017578125,72.906494140625
4.437499900000001,-1.6525976657867432,-1.2072762250900269,9.133879661560059,45.867919921875,-13.641357421875,110.137939453125
4.4424999000000005,-2.233191728591919,-2.491166830062866,7.438784599304199,-17.547607421875,-4.8828125,104.034423828125
4.4474999,2.7898435592651367,0.5674257874488831,8.918999671936035,-41.748046875,-12.5732421875,-11.383056640625
4.4524999,2.7898435592651367,0.5674257874488831,8.918999671936035,-41.748046875,-12.5732421875,-11.383056640625
4.4574999,3.4314894676208496,2.2667105197906494,9.453505516052246,26.611328125,-17.88330078125,-2.44140625
4.4624999,3.4566287994384766,2.785055160522461,9.244611740112305,36.43798828125,-15.93017578125,4.364013671875
4.4674999,2.9724013805389404,3.0418331623077393,9.051279067993164,-18.61572265625,-10.711669921875,-7.14111328125
4.4724999,2.8107926845550537,3.6098575592041016,9.997588157653809,41.56494140625,-14.556884765625,6.28662109375
4.477499900000001,2.27748441696167,3.268085241317749,9.8970308303833,40.130615234375,-5.615234375,13.702392578125
4.4824999000000005,1.2599486112594604,1.0743980407714844,9.841964721679688,35.94970703125,-17.242431640625,11.41357421875
4.4874999,1.2599486112594604,1.0743980407714844,9.841964721679688,35.94970703125,-17.242431640625,11.41357421875
4.4924999,0.8517372608184814,0.4638765752315521,9.429563522338867,68.756103515625,11.5966796875,18.951416015625
4.4974999,1.6412252187728882,0.19213469326496124,8.56645393371582,-64.3310546875,-14.801025390625,-13.946533203125
4.5024999,1.6412252187728882,0.19213469326496124,8.56645393371582,-64.3310546875,-14.801025390625,-13.946533203125
4.5074999,1.787870168685913,0.2124854028224945,8.204330444335938,-32.562255859375,-8.97216796875,-26.0009765625
4.5124999,1.9776105880737305,0.596754789352417,8.271966934204102,26.031494140625,26.123046875,-21.17919921875
4.5174999,1.9488801956176758,0.5422866940498352,8.09778881072998,-47.698974609375,32.562255859375,-9.58251953125
4.522499900000001,1.9303251504898071,1.0336965322494507,8.578424453735352,-86.669921875,12.939453125,-18.524169921875
4.5274999000000005,1.6112977266311646,0.6997054219245911,8.814253807067871,-50.445556640625,26.2451171875,-21.270751953125
4.5324999,1.292868971824646,0.43514615297317505,9.633668899536133,9.21630859375,45.47119140625,3.143310546875
4.5374999,0.7206547260284424,-0.4554968774318695,10.267534255981445,-23.92578125,28.839111328125,14.068603515625
4.5424999,0.414795458316803,-1.0504560470581055,11.413159370422363,-32.958984375,-3.021240234375,-9.918212890625
4.5474999,-0.06883329898118973,-1.2228385210037231,11.152191162109375,0.54931640625,5.43212890625,-7.415771484375
4.5524999,-0.06883329898118973,-1.2228385210037231,11.152191162109375,0.54931640625,5.43212890625,-7.415771484375
4.5574999,-0.15263035893440247,-1.5909470319747925,10.399813652038574,8.514404296875,-4.638671875,-2.655029296875
4.562499900000001,-0.01496376097202301,-1.856104850769043,9.667786598205566,-12.939453125,-4.08935546875,-11.04736328125
4.5674999000000005,0.2651578485965729,-1.8010382652282715,9.328408241271973,-3.662109375,2.349853515625,-6.927490234375
4.5724999,0.5817909836769104,-1.5418659448623657,9.20211410522461,1.89208984375,6.40869140625,7.598876953125
4.5774999,0.7876923680305481,-0.9906009435653687,9.420584678649902,-0.823974609375,2.838134765625,4.730224609375
4.5824999,0.8523358106613159,-0.7631517648696899,9.63067626953125,-1.5869140625,-0.732421875,-10.25390625
4.5874999,0.8379706144332886,-0.6308721303939819,9.742006301879883,-1.77001953125,0.274658203125,-8.209228515625
4.5924999,0.7469909191131592,-0.5596446394920349,9.7791166305542,2.8076171875,0.640869140625,7.75146484375
4.5974999,0.6751648783683777,-0.5644330382347107,9.816226959228516,4.119873046875,0.06103515625,7.659912109375
4.602499900000001,0.7164648771286011,-0.5111620426177979,9.841365814208984,-0.762939453125,-2.197265625,-9.27734375
4.6074999000000005,0.7242460250854492,-0.47465047240257263,9.785101890563965,-4.913330078125,-0.67138671875,-11.199951171875
4.6124999,0.7906851172447205,-0.5345055460929871,9.755773544311523,2.9296875,1.8310546875,11.962890625
4.6174999,0.811634361743927,-0.5931634902954102,9.800065994262695,-0.18310546875,-1.46484375,-7.2021484375
4.6224999,0.751779317855835,-0.6494272351264954,9.745597839355469,-5.18798828125,-1.03759765625,-13.916015625
4.6274999,0.7715315222740173,-0.6961141228675842,9.790489196777344,1.312255859375,1.861572265625,4.547119140625
4.6324999,0.7044938206672668,-0.6961141228675842,9.73542308807373,4.638671875,1.739501953125,13.24462890625
4.6374999,0.7667431235313416,-0.6655880808830261,9.780912399291992,-0.244140625,-1.52587890625,-6.89697265625
4.6424999,0.7224503755569458,-0.6290764808654785,9.803657531738281,-6.195068359375,-0.91552734375,-14.34326171875
4.647499900000001,0.7727286219596863,-0.5985504388809204,9.815030097961426,1.800537109375,2.01416015625,6.195068359375
4.6524999000000005,0.7864952683448792,-0.5452794432640076,9.791686058044434,4.913330078125,1.15966796875,13.031005859375
4.6574999,0.7571662664413452,-0.5524620413780212,9.763554573059082,-2.288818359375,-1.983642578125,-9.33837890625
4.6624999,0.7535749673843384,-0.6027402877807617,9.758766174316406,-5.92041015625,-1.129150390625,-12.847900390625
4.6674999,0.6631938815116882,-0.6356605291366577,9.740211486816406,4.150390625,2.288818359375,10.406494140625
4.6724999,0.7386112213134766,-0.6171054840087891,9.699509620666504,-5.4931640625,-2.044677734375,-13.5498046875
4.6774999,0.7655459642410278,-0.6362590789794922,9.743802070617676,-3.0517578125,0.3662109375,-6.744384765625
4.6824999,0.7571662664413452,-0.5835866928100586,9.79408073425293,6.53076171875,2.62451171875,14.556884765625
4.687499900000001,0.8277952671051025,-0.557250440120697,9.793481826782227,0.91552734375,-0.91552734375,0.06103515625
4.6924999000000005,0.778714120388031,-0.5560533404350281,9.759963035583496,-7.99560546875,-1.678466796875,-15.411376953125
4.6974999,0.7769184708595276,-0.6117185354232788,9.808445930480957,2.960205078125,1.983642578125,4.669189453125
4.7024999,0.7422025203704834,-0.586579442024231,9.806051254272461,5.67626953125,1.373291015625,12.176513671875
4.7074999,0.7559691667556763,-0.5793967843055725,9.715670585632324,-5.92041015625,-2.227783203125,-11.444091796875
4.7124999,0.7003039717674255,-0.6572083830833435,9.802460670471191,-3.35693359375,-0.030517578125,-7.598876953125
4.7174999,0.6847416758537292,-0.6404489278793335,9.882665634155273,7.62939453125,2.532958984375,13.885498046875
4.7224999,0.7026981711387634,-0.628477931022644,9.824007987976074,-0.885009765625,-1.0986328125,-1.52587890625
4.727499900000001,0.7206547260284424,-0.5925649404525757,9.780912399291992,7.110595703125,1.434326171875,10.92529296875
4.7324999000000005,0.7589619159698486,-0.5734112858772278,9.667786598205566,-8.819580078125,-2.3193359375,-10.955810546875
4.7374999,0.7523778676986694,-0.6661866307258606,9.807249069213867,-0.732421875,0.640869140625,-3.2958984375
4.7424999,0.7541735172271729,-0.5985504388809204,9.807847023010254,9.3994140625,2.105712890625,12.115478515625
4.7474999,0.8289923667907715,-0.5740098357200623,9.664793968200684,-7.32421875,-2.13623046875,-7.9345703125
4.7524999,0.7553706169128418,-0.641047477722168,9.758766174316406,-3.84521484375,-0.030517578125,-6.439208984375
4.7574999,0.7362170219421387,-0.596754789352417,9.78989028930664,11.16943359375,2.50244140625,11.688232421875
4.7624999,0.7924807667732239,-0.547075092792511,9.668983459472656,-6.195068359375,-1.8310546875,-5.462646484375
4.7674999,0.7212532758712769,-0.6242880821228027,9.840168952941895,12.0849609375,2.685546875,10.955810546875
4.772499900000001,0.7775170207023621,-0.5997475385665894,9.697713851928711,-5.55419921875,-1.8310546875,-4.608154296875
4.7774999000000005,0.727837324142456,-0.6943184733390808,9.79527759552002,-7.4462890625,-0.885009765625,-7.2021484375
4.7824999,0.7248445749282837,-0.6655880808830261,9.839570045471191,13.36669921875,3.0517578125,10.3759765625
4.7874999,0.7906851172447205,-0.6141127347946167,9.695320129394531,-6.16455078125,-1.739501953125,-4.82177734375
4.7924999,0.7296329736709595,-0.6835445761680603,9.748590469360352,-7.537841796875,-1.129150390625,-5.79833984375
4.7974999,0.7320271730422974,-0.679354727268219,9.844358444213867,14.678955078125,3.23486328125,9.796142578125
4.8024999,0.8032546639442444,-0.5913678407669067,9.643844604492188,-8.48388671875,-2.01416015625,-6.2255859375
4.8074999,0.7015010714530945,-0.6512228846549988,9.759963035583496,-6.195068359375,-1.129150390625,-3.47900390625
4.812499900000001,0.7643488645553589,-0.6482301354408264,9.870695114135742,15.899658203125,3.41796875,8.758544921875
4.8174999000000005,0.7751228213310242,-0.5488707423210144,9.67077922821045,-11.932373046875,-2.288818359375,-7.904052734375
4.8224999,0.7140706777572632,-0.6973112225532532,9.900622367858887,-3.0517578125,-0.67138671875,-0.30517578125
4.8274999,0.7906851172447205,-0.5716156363487244,9.68274974822998,-16.05224609375,-2.838134765625,-9.002685546875
4.8324999,0.7326257228851318,-0.6943184733390808,9.877877235412598,3.021240234375,0.030517578125,3.60107421875
4.8374999,0.8026561141014099,-0.5680243372917175,9.749189376831055,12.87841796875,3.173828125,2.777099609375
4.8424999,0.7242460250854492,-0.5949591398239136,9.601945877075195,-18.890380859375,-3.570556640625,-8.453369140625
4.8474999,0.7026981711387634,-0.6823474764823914,9.867103576660156,10.6201171875,0.946044921875,6.927490234375
4.852499900000001,0.788889467716217,-0.5560533404350281,9.647436141967773,5.218505859375,2.5634765625,-2.13623046875
4.8574999000000005,0.6823474764823914,-0.6254851818084717,9.637260437011719,-17.63916015625,-4.058837890625,-5.2490234375
4.8624999,0.7422025203704834,-0.6721721291542053,9.919178009033203,17.76123046875,2.593994140625,7.598876953125
4.8674999,0.7499836683273315,-0.5674257874488831,9.618106842041016,-6.2255859375,0.79345703125,-6.744384765625
4.8724999,0.6572083830833435,-0.6985083222389221,9.8784761428833,-9.124755859375,-3.60107421875,0.335693359375
4.8774999,0.7823054194450378,-0.6619967818260193,9.889848709106445,18.798828125,3.84521484375,4.5166015625
4.8824999,0.74040687084198,-0.5835866928100586,9.631275177001953,-17.303466796875,-1.708984375,-8.331298828125
4.8874999,0.8529343605041504,-0.5644330382347107,9.679757118225098,9.429931640625,4.08935546875,-1.8310546875
4.8924999,0.6901286244392395,-0.5746083855628967,9.645041465759277,-18.707275390625,-3.997802734375,-4.5166015625
4.897499900000001,0.8319851160049438,-0.667982280254364,9.917980194091797,17.547607421875,1.8310546875,6.9580078125
4.9024999000000005,0.7577648162841797,-0.5476736426353455,9.567828178405762,-8.087158203125,1.8310546875,-7.32421875
4.9074999,0.7260416746139526,-0.6979097723960876,9.912593841552734,-5.7373046875,-3.997802734375,2.5634765625
4.9124999,0.8325836658477783,-0.6536170840263367,9.832387924194336,16.6015625,4.21142578125,1.64794921875
4.9174999,0.6961141228675842,-0.6159083843231201,9.658209800720215,-19.10400390625,-2.25830078125,-6.591796875
4.9224999,0.7493851184844971,-0.7230489253997803,9.986215591430664,13.00048828125,-0.3662109375,6.988525390625
4.9274999,0.7858967185020447,-0.5883750915527344,9.583391189575195,-1.495361328125,3.509521484375,-6.011962890625
4.9324999,0.6985083222389221,-0.6961141228675842,9.816226959228516,-10.467529296875,-4.364013671875,0.946044921875
4.937499900000001,0.8505401611328125,-0.6446388363838196,9.786897659301758,17.791748046875,3.753662109375,2.685546875
4.9424999000000005,0.7439981698989868,-0.5811924338340759,9.5624418258667,-18.157958984375,-1.190185546875,-6.77490234375
4.9474999,0.7870938181877136,-0.536899745464325,9.583989143371582,-0.518798828125,3.692626953125,-5.767822265625
4.9524999,0.6649895310401917,-0.6189011335372925,9.86770248413086,-10.19287109375,-4.119873046875,1.28173828125
4.9574999,0.8170213103294373,-0.6033388376235962,9.817423820495605,17.15087890625,3.509521484375,1.983642578125
4.9624999,0.6889315247535706,-0.5907692909240723,9.57979965209961,-18.280029296875,-1.007080078125,-5.92041015625
4.9674999,0.7984662652015686,-0.669179379940033,9.968857765197754,13.36669921875,-0.9765625,6.7138671875
4.9724999,0.761954665184021,-0.5674257874488831,9.497797966003418,-4.57763671875,3.021240234375,-6.65283203125
4.977499900000001,0.7134721279144287,-0.6141127347946167,9.9000244140625,-5.401611328125,-4.150390625,3.35693359375
4.9824999000000005,0.8265981078147888,-0.5608417391777039,9.698312759399414,13.763427734375,3.47900390625,-0.579833984375
4.9874999,0.6631938815116882,-0.5716156363487244,9.692925453186035,-17.822265625,-1.89208984375,-3.7841796875
4.9924999,0.7882909178733826,-0.6733692288398743,9.894038200378418,17.08984375,0.457763671875,5.401611328125
4.9974999,0.7236474752426147,-0.6242880821228027,9.5223388671875,-12.20703125,1.861572265625,-7.171630859375
5.0024999,0.7110779285430908,-0.7601590156555176,9.9772367477417,3.997802734375,-2.99072265625,5.584716796875
5.0074999,0.884058952331543,-0.7003039717674255,9.851541519165039,16.754150390625,2.13623046875,1.52587890625
5.0124999,0.6937199234962463,-0.6141127347946167,9.642647743225098,-17.669677734375,-0.48828125,-4.7607421875
5.0174999,0.7942764163017273,-0.641047477722168,9.965266227722168,14.95361328125,-0.762939453125,5.79833984375
5.022499900000001,0.7152677774429321,-0.5303156971931458,9.473855972290039,-9.58251953125,2.410888671875,-7.01904296875
5.0274999000000005,0.679354727268219,-0.6141127347946167,9.984419822692871,2.685546875,-2.86865234375,5.43212890625
5.0324999,0.8074445128440857,-0.5847837924957275,9.597756385803223,4.8828125,3.082275390625,-4.5166015625
5.0374999,0.8074445128440857,-0.5847837924957275,9.597756385803223,4.8828125,3.082275390625,-4.5166015625
5.0424999,0.6811503767967224,-0.5991489887237549,9.561244010925293,-13.458251953125,1.617431640625,-6.256103515625
5.0474999,0.7350199222564697,-0.6590040326118469,10.030508041381836,8.697509765625,-1.983642578125,5.92041015625
5.0524999,0.7541735172271729,-0.5907692909240723,9.512163162231445,-3.0517578125,2.38037109375,-6.40869140625
5.0574999,0.6925228238105774,-0.6356605291366577,9.965266227722168,-2.86865234375,-2.38037109375,4.39453125
5.062499900000001,0.7906851172447205,-0.6087257862091064,9.648633003234863,8.453369140625,2.349853515625,-3.47900390625
5.0674999000000005,0.619499683380127,-0.5859808921813965,9.830592155456543,-12.725830078125,-1.251220703125,1.007080078125
5.0724999,0.7793126702308655,-0.6087257862091064,9.782708168029785,15.472412109375,1.129150390625,0.213623046875
5.0774999,0.6440402865409851,-0.6123170852661133,9.703699111938477,-16.41845703125,0.18310546875,-2.716064453125
5.0824999,0.7661445140838623,-0.6344634294509888,9.921571731567383,16.29638671875,-0.54931640625,3.570556640625
5.0874999,0.639850378036499,-0.6171054840087891,9.55466079711914,-14.6484375,1.52587890625,-5.55419921875
5.0924999,0.7206547260284424,-0.6428431272506714,9.988609313964844,11.71875,-1.953125,5.2490234375
5.0974999,0.706289529800415,-0.5740098357200623,9.449316024780273,-7.99560546875,2.01416015625,-6.40869140625
5.102499900000001,0.7457938194274902,-0.6087257862091064,10.021530151367188,3.72314453125,-2.25830078125,5.523681640625
5.1074999000000005,0.7314286231994629,-0.6518214344978333,10.033500671386719,-4.364013671875,-1.8310546875,4.180908203125
5.1124999,0.8301894664764404,-0.6775590777397156,9.70310115814209,7.9345703125,1.434326171875,-3.96728515625
5.1174999,0.6769605278968811,-0.641047477722168,9.874884605407715,-11.1083984375,-0.9765625,1.983642578125
5.1224999,0.8026561141014099,-0.6584054827690125,9.742006301879883,13.214111328125,0.823974609375,-1.556396484375
5.1274999,0.6925228238105774,-0.5877765417098999,9.699509620666504,-14.801025390625,0.030517578125,-0.457763671875
5.1324999,0.8146271109580994,-0.5997475385665894,9.798270225524902,15.5029296875,-0.152587890625,0.885009765625
5.1374999,0.7032967209815979,-0.5997475385665894,9.660005569458008,-15.56396484375,0.6103515625,-2.716064453125
5.1424999,0.829590916633606,-0.6087257862091064,9.947309494018555,15.106201171875,-0.9765625,2.99072265625
5.147499900000001,0.6727706789970398,-0.6344634294509888,9.624691009521484,-13.946533203125,1.28173828125,-4.364013671875
5.1524999000000005,0.768538773059845,-0.6212953329086304,10.017938613891602,12.664794921875,-1.556396484375,4.2724609375
5.1574999,0.6278793811798096,-0.6033388376235962,9.502586364746094,-11.077880859375,1.8310546875,-5.4931640625
5.1624999,0.7038952708244324,-0.5781996846199036,9.989208221435547,9.1552734375,-2.01416015625,5.218505859375
5.1674999,0.7439981698989868,-0.5728127360343933,10.046070098876953,5.157470703125,-1.922607421875,5.401611328125
5.1724999,0.7727286219596863,-0.6159083843231201,9.48882007598877,-3.265380859375,1.922607421875,-5.9814453125
5.1774999,0.8224082589149475,-0.6518214344978333,10.095151901245117,1.739501953125,-1.89208984375,5.4931640625
5.1824999,0.8224082589149475,-0.6607996821403503,9.534309387207031,0.06103515625,1.77001953125,-5.706787109375
5.187499900000001,0.7870938181877136,-0.6625953316688538,10.088567733764648,-1.617431640625,-1.64794921875,4.852294921875
5.1924999000000005,0.7912836670875549,-0.6655880808830261,9.593565940856934,3.143310546875,1.678466796875,-5.401611328125
5.1974999,0.6889315247535706,-0.6326677799224854,10.054450035095215,-4.302978515625,-1.40380859375,4.486083984375
5.2024999,0.7661445140838623,-0.6655880808830261,9.579200744628906,7.14111328125,1.007080078125,-4.33349609375
5.2074999,0.6584054827690125,-0.6033388376235962,9.86889934539795,-7.781982421875,-0.67138671875,3.173828125
5.2124999,0.8008604645729065,-0.6572083830833435,9.585784912109375,8.60595703125,0.732421875,-3.509521484375
5.2174999,0.8259995579719543,-0.6254851818084717,9.636661529541016,9.09423828125,0.6103515625,-3.47900390625
5.2224999,0.6667851805686951,-0.5464765429496765,9.810839653015137,-9.307861328125,-0.3662109375,2.410888671875
5.227499900000001,0.8355764150619507,-0.6165069341659546,9.680954933166504,9.58251953125,0.152587890625,-2.777099609375
5.2324999000000005,0.6811503767967224,-0.5500678420066833,9.805453300476074,-9.58251953125,-0.091552734375,2.50244140625
5.2374999,0.8433575630187988,-0.6356605291366577,9.694721221923828,9.552001953125,0.152587890625,-2.99072265625
5.2424999,0.6865373253822327,-0.5722141861915588,9.804854393005371,-9.58251953125,0.06103515625,2.0751953125
5.2474999,0.8427590131759644,-0.6596025824546814,9.697115898132324,9.307861328125,0.152587890625,-2.716064453125
5.2524999,0.6745663285255432,-0.5883750915527344,9.82879638671875,-9.307861328125,0.152587890625,2.44140625
5.2574999,0.8349778652191162,-0.6751648783683777,9.697713851928711,9.09423828125,0.030517578125,-2.99072265625
