# Time (seconds),Accel_X,Accel_Y,Accel_Z,Gyro_X,Gyro_Y,Gyro_Z
0.0024999,1.061229944229126,-0.9403226971626282,9.7791166305542,3.631591796875,-4.21142578125,30.76171875
0.0074999,1.061229944229126,-0.9403226971626282,9.7791166305542,3.631591796875,-4.21142578125,30.76171875
0.012499900000000001,0.9612720012664795,-0.4279635548591614,9.871891975402832,9.033203125,-5.43212890625,25.054931640625
0.0174999,1.092953085899353,-0.08080431073904037,9.373299598693848,-7.354736328125,-2.532958984375,13.824462890625
0.0224999,1.7908629179000854,0.05386953800916672,9.938929557800293,-3.23486328125,16.387939453125,-51.69677734375
0.0274999,2.0231003761291504,0.21787235140800476,9.55466079711914,-0.762939453125,25.299072265625,-21.820068359375
0.0324999,0.3196259140968323,0.4471171796321869,10.061034202575684,-17.4560546875,-3.41796875,-8.7890625
0.0374999,-0.4734533727169037,-0.46148237586021423,9.481637001037598,-2.471923828125,-9.857177734375,1.89208984375
0.0424999,-0.6446388363838196,-1.445499300956726,8.999205589294434,7.904052734375,-6.866455078125,-3.11279296875
0.0474999,-0.383670836687088,-1.902193307876587,8.89445972442627,10.101318359375,-2.01416015625,-0.640869140625
0.0524999,0.02214636653661728,-1.7525556087493896,9.050681114196777,5.2490234375,-1.312255859375,5.2490234375
0.0574999,0.4040215313434601,-1.2880805730819702,9.410409927368164,3.082275390625,-0.396728515625,0.885009765625
0.0624999,0.5758054852485657,-0.7823054194450378,9.658209800720215,2.8076171875,0.3662109375,-3.204345703125
0.0674999,0.6027402877807617,-0.4405331015586853,9.85034465789795,3.662109375,0.152587890625,-1.5869140625
0.0724999,0.5626373887062073,-0.26096799969673157,9.915586471557617,3.631591796875,-0.9765625,-0.8544921875
0.0774999,0.4920084476470947,-0.1843535304069519,9.956886291503906,3.021240234375,-2.471923828125,-0.30517578125
0.0824999,0.4596867263317108,-0.16400282084941864,9.987412452697754,1.8310546875,-2.471923828125,0.244140625
0.0874999,0.5728127360343933,-0.33039984107017517,9.885659217834473,-0.06103515625,1.800537109375,-0.946044921875
0.0924999,0.48482584953308105,-0.3274070918560028,9.855731010437012,-0.54931640625,-0.244140625,-0.1220703125
0.0974999,0.48482584953308105,-0.3274070918560028,9.855731010437012,-0.54931640625,-0.244140625,-0.1220703125
0.1024999,0.4297592043876648,-0.38546648621559143,9.82999324798584,-1.220703125,-0.885009765625,-1.8310546875
0.1074999,0.42197805643081665,-0.3800795078277588,9.808445930480957,-0.823974609375,1.678466796875,-2.716064453125
0.1124999,0.44771572947502136,-0.414795458316803,9.805453300476074,-0.67138671875,3.265380859375,-0.6103515625
0.1174999,0.517746090888977,-0.4321534037590027,9.781511306762695,-1.434326171875,3.2958984375,-3.265380859375
0.1224999,0.5117605924606323,-0.4854243993759155,9.773730278015137,-1.007080078125,4.0283203125,-3.35693359375
0.1274999,0.4902127981185913,-0.4794389009475708,9.764153480529785,-1.03759765625,4.180908203125,-1.434326171875
0.1324999,0.45250412821769714,-0.5063736438751221,9.762955665588379,-1.28173828125,3.23486328125,-2.44140625
0.1374999,0.20051439106464386,-1.1097124814987183,9.743802070617676,-3.692626953125,3.35693359375,-8.453369140625
0.1424999,0.3058592677116394,-0.7960720658302307,9.542689323425293,0.762939453125,6.317138671875,-16.082763671875
0.1474999,0.15801730751991272,-0.9397241473197937,9.819818496704102,14.617919921875,0.213623046875,7.720947265625
0.1524999,0.25737667083740234,-0.43095630407333374,9.700706481933594,-3.814697265625,-3.35693359375,8.72802734375
0.1574999,0.1885433793067932,0.10833762586116791,9.982025146484375,-8.056640625,-5.18798828125,-0.396728515625
0.1624999,0.507570743560791,-0.8224082589149475,9.646238327026367,9.185791015625,-2.960205078125,7.476806640625
0.1674999,0.507570743560791,-0.8224082589149475,9.646238327026367,9.185791015625,-2.960205078125,7.476806640625
0.1724999,0.5081692934036255,-0.99479079246521,9.642647743225098,10.7421875,-7.843017578125,9.82666015625
0.17749990000000002,0.48961424827575684,-0.6871358752250671,9.706093788146973,-0.762939453125,-9.429931640625,-2.44140625
0.1824999,0.8038532137870789,-0.42856210470199585,9.75517463684082,4.058837890625,2.13623046875,-0.457763671875
0.1874999,0.8038532137870789,-0.42856210470199585,9.75517463684082,4.058837890625,2.13623046875,-0.457763671875
0.1924999,0.8319851160049438,-0.5015852451324463,9.727043151855469,3.143310546875,3.23486328125,-0.54931640625
0.1974999,0.7374141216278076,-0.45010992884635925,9.741408348083496,0.762939453125,1.678466796875,-1.708984375
0.2024999,0.5829881429672241,-0.3728969097137451,9.79288387298584,-0.701904296875,-0.42724609375,-2.25830078125
0.20749990000000001,0.49559974670410156,-0.3992331326007843,9.79408073425293,-0.48828125,-0.06103515625,-2.38037109375
0.2124999,0.4878185987472534,-0.38067805767059326,9.819219589233398,1.983642578125,3.0517578125,-2.9296875
0.2174999,0.557250440120697,-0.46806642413139343,9.77253246307373,1.434326171875,4.669189453125,-2.349853515625
0.2224999,0.6637924313545227,-0.47824180126190186,9.764751434326172,0.1220703125,6.134033203125,-5.523681640625
0.2274999,0.7272387742996216,-0.46148237586021423,9.758766174316406,1.251220703125,9.307861328125,-6.53076171875
0.2324999,0.7852981686592102,-0.47884035110473633,9.713874816894531,0.91552734375,10.986328125,-5.950927734375
0.2374999,0.6602011322975159,-0.3405751883983612,9.791088104248047,2.74658203125,11.444091796875,-6.317138671875
0.2424999,0.25977087020874023,-0.04668693244457245,9.938929557800293,-6.591796875,10.1318359375,-10.498046875
0.2474999,0.25977087020874023,-0.04668693244457245,9.938929557800293,-6.591796875,10.1318359375,-10.498046875
0.2524999,0.040701430290937424,0.0017956512747332454,9.979631423950195,-8.514404296875,6.805419921875,-7.87353515625
0.2574999,-0.09816227108240128,-0.37229835987091064,9.949105262756348,-11.138916015625,2.105712890625,-3.326416015625
0.2624999,-0.27054479718208313,-0.3974374830722809,9.829395294189453,-5.279541015625,-1.220703125,5.9814453125
0.2674999,-0.28790274262428284,-0.7092822790145874,9.833584785461426,1.800537109375,-8.7890625,9.246826171875
0.2724999,-0.2974795699119568,-0.5141547918319702,9.785101890563965,-5.615234375,-11.932373046875,5.615234375
0.2774999,-0.20051439106464386,-0.43694180250167847,9.882665634155273,-8.331298828125,-15.68603515625,14.404296875
0.2824999,0.0071826050989329815,-0.5141547918319702,9.896432876586914,-5.035400390625,-18.6767578125,19.927978515625
0.28749990000000003,0.26156654953956604,-0.7990648150444031,9.761758804321289,3.143310546875,-18.310546875,21.240234375
0.2924999,0.5027823448181152,-1.1240776777267456,9.604340553283691,13.36669921875,-14.556884765625,18.4326171875
0.2974999,0.7793126702308655,-0.7577648162841797,9.738415718078613,7.720947265625,-6.89697265625,0.1220703125
0.3024999,0.8212111592292786,-0.36092591285705566,9.885659217834473,5.401611328125,-5.218505859375,-1.617431640625
0.3074999,0.9175778031349182,-0.1041477769613266,9.91738224029541,3.509521484375,-1.739501953125,-5.157470703125
0.3124999,1.0606313943862915,-0.013766659423708916,9.870096206665039,2.86865234375,4.33349609375,-7.87353515625
0.3174999,1.1965023279190063,-0.08080431073904037,9.797073364257812,2.86865234375,11.199951171875,-8.697509765625
0.3224999,1.2653355598449707,-0.17956513166427612,9.727641105651855,3.021240234375,15.31982421875,-9.6435546875
0.3274999,1.2563573122024536,-0.24839842319488525,9.692327499389648,1.800537109375,18.4326171875,-14.2822265625
0.3324999,1.1953052282333374,-0.2801215946674347,9.6618013381958,-0.8544921875,22.5830078125,-20.20263671875
0.3374999,1.0211269855499268,-0.4884171485900879,9.6803560256958,-2.288818359375,26.42822265625,-22.430419921875
0.3424999,0.7763199210166931,-0.3561375141143799,9.730634689331055,3.387451171875,25.45166015625,-20.904541015625
0.34749990000000003,0.40222588181495667,-0.2603694200515747,9.822212219238281,-0.946044921875,20.843505859375,-26.763916015625
0.35249990000000003,-0.7422025203704834,-0.5351040959358215,9.818022727966309,-16.845703125,-25.238037109375,19.775390625
0.3574999,-0.1562216579914093,-0.7026981711387634,9.924564361572266,-0.67138671875,-28.411865234375,36.346435546875
0.3624999,0.4950011968612671,-1.245583415031433,9.742006301879883,6.744384765625,-27.679443359375,42.8466796875
0.3674999,0.7829039692878723,-1.3718775510787964,9.487024307250977,22.552490234375,-20.3857421875,44.677734375
0.3724999,0.9283517003059387,-1.6729484796524048,9.501389503479004,31.341552734375,-10.101318359375,41.1376953125
0.3774999,0.8277952671051025,-1.3557167053222656,9.536105155944824,15.07568359375,3.997802734375,27.130126953125
0.3824999,0.7236474752426147,-0.6619967818260193,9.743802070617676,11.749267578125,2.777099609375,20.233154296875
0.3874999,1.170764684677124,0.19632454216480255,9.946112632751465,5.859375,1.922607421875,-2.685546875
0.3924999,1.5514427423477173,0.2753331959247589,9.848548889160156,0.8544921875,8.72802734375,-17.974853515625
0.3974999,1.843535304069519,0.15143325924873352,9.753378868103027,1.007080078125,21.636962890625,-23.5595703125
0.4024999,1.909974455833435,-0.009576806798577309,9.6618013381958,1.678466796875,28.961181640625,-24.23095703125
0.4074999,1.731606364250183,-0.23104046285152435,9.660603523254395,0.3662109375,30.059814453125,-30.487060546875
0.41249990000000003,1.3227964639663696,-0.3016694188117981,9.694122314453125,-3.41796875,31.18896484375,-37.322998046875
0.41749990000000003,0.7356184720993042,-0.365115761756897,9.84256362915039,-3.60107421875,25.45166015625,-42.78564453125
0.4224999,0.046088382601737976,0.05506663769483566,9.991601943969727,-11.322021484375,13.824462890625,-51.6357421875
0.4274999,-0.7182605266571045,0.31184476613998413,10.269927978515625,-21.209716796875,5.31005859375,-47.607421875
0.4324999,-1.268328309059143,0.25079262256622314,10.226832389831543,-32.77587890625,1.03759765625,-31.43310546875
0.4374999,-1.6633716821670532,0.36571431159973145,10.019734382629395,-23.773193359375,-9.82666015625,7.904052734375
0.4424999,-1.611896276473999,-0.3082534670829773,9.912593841552734,-0.1220703125,-30.731201171875,32.8369140625
0.4474999,-0.5297171473503113,-0.8068459630012512,9.635464668273926,-12.63427734375,-32.501220703125,37.7197265625
0.4524999,0.30226796865463257,-1.5981296300888062,9.619902610778809,6.9580078125,-35.858154296875,55.11474609375
0.4574999,0.8134300112724304,-1.8728642463684082,9.227252960205078,23.895263671875,-30.21240234375,63.5986328125
0.4624999,0.9654618501663208,-2.251148223876953,9.16201114654541,45.928955078125,-15.80810546875,65.460205078125
0.4674999,0.8643068075180054,-2.031480073928833,9.245808601379395,29.449462890625,8.941650390625,51.57470703125
0.47249990000000003,0.6033388376235962,-1.1528080701828003,9.622895240783691,17.08984375,11.993408203125,36.31591796875
0.47749990000000003,0.6602011322975159,-0.3579331636428833,9.950302124023438,12.75634765625,2.410888671875,20.355224609375
0.4824999,1.0307037830352783,0.3513490855693817,10.123283386230469,6.591796875,-1.64794921875,1.03759765625
0.4874999,1.6292542219161987,0.7164648771286011,10.007762908935547,-0.67138671875,5.035400390625,-19.500732421875
0.4924999,2.2254104614257812,0.7086837291717529,9.840767860412598,-2.716064453125,24.383544921875,-30.33447265625
0.4974999,2.5294740200042725,0.4578910768032074,9.715071678161621,-1.495361328125,38.299560546875,-32.867431640625
0.5024999,2.362478494644165,0.08499415963888168,9.70310115814209,0.9765625,40.34423828125,-37.567138671875
0.5074999,-1.8848352432250977,0.05925649031996727,10.093356132507324,-32.8369140625,-5.767822265625,-35.430908203125
0.5124999,-2.1074960231781006,0.08858546614646912,9.912593841552734,-17.669677734375,-15.716552734375,12.5732421875
0.5174999,-1.7687164545059204,-0.4315548539161682,9.904213905334473,-7.38525390625,-32.135009765625,31.646728515625
0.5224999,-1.1683704853057861,-0.6637924313545227,9.710283279418945,-24.90234375,-33.0810546875,28.3203125
0.5274999,-0.37469255924224854,-0.9630676507949829,9.692327499389648,-11.8408203125,-36.529541015625,45.562744140625
0.5324999,0.4315548539161682,-1.6388310194015503,9.493608474731445,11.16943359375,-40.313720703125,62.43896484375
0.5374999,0.8643068075180054,-2.07397723197937,9.14585018157959,36.041259765625,-31.890869140625,68.54248046875
0.5424999,1.016338586807251,-2.362478494644165,9.091382026672363,45.34912109375,-8.7890625,66.436767578125
0.5474999,0.8517372608184814,-2.009932279586792,9.32661247253418,28.25927734375,14.190673828125,53.436279296875
0.5524999,0.8876502513885498,-0.24600422382354736,10.11550235748291,14.6484375,6.591796875,23.681640625
0.5574999,1.3820528984069824,0.5297171473503113,10.184335708618164,6.34765625,2.960205078125,0
0.5624999,2.056020736694336,0.8768763542175293,10.004171371459961,-2.838134765625,9.857177734375,-26.336669921875
0.5674999000000001,2.6437971591949463,0.862511157989502,9.781511306762695,-4.08935546875,32.501220703125,-38.787841796875
0.5724999000000001,2.8341362476348877,0.5805938839912415,9.684545516967773,-1.40380859375,45.562744140625,-42.41943359375
0.5774999000000001,2.565985679626465,0.22445641458034515,9.72165584564209,-0.213623046875,42.54150390625,-49.346923828125
0.5824999,1.742978811264038,-0.01735796220600605,9.852140426635742,-5.462646484375,33.75244140625,-60.455322265625
0.5874999,0.5428852438926697,-0.018555063754320145,10.014945983886719,-13.275146484375,18.646240234375,-69.854736328125
0.5924999,-0.7691373229026794,0.08259996026754379,10.119691848754883,-20.08056640625,3.265380859375,-76.812744140625
0.5974999,-1.866280198097229,0.22385786473751068,10.113107681274414,-30.303955078125,-7.781982421875,-67.81005859375
0.6024999,-2.538452386856079,-0.08140286058187485,10.148422241210938,-38.238525390625,-12.39013671875,-28.289794921875
0.6074999,-2.5683798789978027,-0.19393034279346466,9.905410766601562,-17.76123046875,-26.79443359375,28.472900390625
0.6124999,-1.1671733856201172,-0.9858125448226929,9.793481826782227,-12.02392578125,-36.163330078125,42.724609375
0.6174999,-0.07841010391712189,-1.4700398445129395,9.603142738342285,-5.889892578125,-40.252685546875,56.0302734375
0.6224999,0.8188169598579407,-2.1547815799713135,9.240421295166016,21.087646484375,-42.6025390625,71.77734375
0.6274999,1.2737152576446533,-2.6587610244750977,8.969876289367676,54.38232421875,-26.092529296875,77.972412109375
0.6324999,1.2401964664459229,-2.5486276149749756,9.015366554260254,48.980712890625,6.53076171875,73.05908203125
0.6374999,0.9409212470054626,-1.8746598958969116,9.396044731140137,25.421142578125,20.56884765625,50.96435546875
0.6424999,2.3253684043884277,1.235408067703247,9.92097282409668,-5.55419921875,22.430419921875,-38.4521484375
0.6474999,2.823362350463867,1.0684125423431396,9.73542308807373,-5.67626953125,43.487548828125,-45.806884765625
0.6524999,2.8113913536071777,0.6554127335548401,9.718064308166504,-1.861572265625,46.844482421875,-50.47607421875
0.6574999,1.182137131690979,-0.004788403399288654,10.002376556396484,-10.55908203125,26.824951171875,-70.098876953125
0.6624999,-0.15921440720558167,-0.033518824726343155,10.129867553710938,-16.2353515625,10.406494140625,-78.61328125
0.6674999,-1.4760253429412842,0.06823474913835526,10.20648193359375,-27.191162109375,-5.06591796875,-78.338623046875
0.6724999,-2.4241292476654053,-0.1777694821357727,10.252570152282715,-37.445068359375,-13.031005859375,-50.445556640625
0.6774999,-2.8137855529785156,-0.3106476664543152,9.998186111450195,-24.810791015625,-20.050048828125,7.38525390625
0.6824999,-2.5025393962860107,-0.46986207365989685,9.980828285217285,-17.27294921875,-40.924072265625,39.520263671875
0.6874999,-1.7028759717941284,-0.8032546639442444,9.797073364257812,-14.434814453125,-40.435791015625,40.985107421875
0.6924999000000001,-0.545877993106842,-1.0881646871566772,9.68155288696289,-12.359619140625,-37.994384765625,48.797607421875
0.6974999000000001,-0.545877993106842,-1.0881646871566772,9.68155288696289,-12.359619140625,-37.994384765625,48.797607421875
0.7024999000000001,0.5207388401031494,-1.7369933128356934,9.321824073791504,6.7138671875,-43.76220703125,66.34521484375
0.7074999,1.2216414213180542,-2.4396915435791016,8.958504676818848,46.142578125,-36.0107421875,77.57568359375
0.7124999,1.3628993034362793,-2.646191358566284,8.866327285766602,56.915283203125,-7.537841796875,79.52880859375
0.7174999,0.8248024582862854,-0.09636662155389786,10.210073471069336,13.427734375,3.7841796875,21.6064453125
0.7224999,2.9436709880828857,0.7362170219421387,9.727043151855469,-2.716064453125,49.31640625,-47.027587890625
0.7274999,2.9436709880828857,0.7362170219421387,9.727043151855469,-2.716064453125,49.31640625,-47.027587890625
0.7324999,2.586336374282837,0.23044191300868988,9.768941879272461,-1.129150390625,44.61669921875,-55.0537109375
0.7374999,1.6424223184585571,-0.025737667456269264,9.93354320526123,-8.087158203125,32.3486328125,-65.0634765625
0.7424999,0.2861070930957794,-0.07003039866685867,10.111311912536621,-13.397216796875,16.326904296875,-73.6083984375
0.7474999,-1.1228805780410767,0.11611878126859665,10.219650268554688,-24.200439453125,-0.54931640625,-77.606201171875
0.7524999,-2.2589292526245117,-0.16519992053508759,10.228628158569336,-35.797119140625,-11.3525390625,-56.427001953125
0.7574999,-1.9057846069335938,-0.7200561761856079,9.840168952941895,-15.9912109375,-40.130615234375,37.353515625
0.7624999,-1.9057846069335938,-0.7200561761856079,9.840168952941895,-15.9912109375,-40.130615234375,37.353515625
0.7674999,-0.7230489253997803,-0.9415197968482971,9.742605209350586,-14.58740234375,-37.872314453125,45.22705078125
0.7724999,0.4429273009300232,-1.5352818965911865,9.45111083984375,4.730224609375,-42.266845703125,63.995361328125
0.7774999,1.2641384601593018,-2.2200236320495605,9.095572471618652,37.2314453125,-37.933349609375,75.653076171875
0.7824999,1.4748282432556152,-2.516305923461914,8.881889343261719,49.468994140625,-10.7421875,74.951171875
0.7874999,1.2288240194320679,-2.297236442565918,9.041702270507812,36.31591796875,16.11328125,59.87548828125
0.7924999,0.8517372608184814,-1.5095441341400146,9.57441234588623,21.575927734375,15.07568359375,38.9404296875
0.7974999,0.7631517648696899,-0.41718965768814087,10.056245803833008,12.939453125,3.753662109375,20.965576171875
0.8024999,1.9003976583480835,1.0977414846420288,10.117298126220703,-4.33349609375,10.55908203125,-28.9306640625
0.8074999,1.9003976583480835,1.0977414846420288,10.117298126220703,-4.33349609375,10.55908203125,-28.9306640625
0.8124999,2.606088638305664,1.128267526626587,9.93354320526123,-5.889892578125,36.2548828125,-38.4521484375
0.8174999000000001,-1.0570400953292847,0.10115502029657364,10.18792724609375,-21.270751953125,0.396728515625,-68.145751953125
0.8224999000000001,-2.1529858112335205,-0.0077811554074287415,10.128670692443848,-31.280517578125,-9.246826171875,-51.1474609375
0.8274999000000001,-2.7096378803253174,-0.031124621629714966,10.004171371459961,-22.308349609375,-16.937255859375,-4.791259765625
0.8324999000000001,-2.492962598800659,-0.1388636976480484,9.907206535339355,-15.2587890625,-34.332275390625,27.16064453125
0.8374999,-1.7286136150360107,-0.5392939448356628,9.95209789276123,-17.2119140625,-36.529541015625,35.919189453125
0.8424999,-0.5590460896492004,-0.8074445128440857,9.838373184204102,-19.927978515625,-36.041259765625,44.98291015625
0.8474999,0.4908113479614258,-1.4347254037857056,9.549872398376465,2.38037109375,-39.825439453125,62.042236328125
0.8524999,1.1959037780761719,-2.166752576828003,9.150638580322266,36.407470703125,-37.384033203125,70.526123046875
0.8574999,1.3215993642807007,-2.519897222518921,8.886079788208008,47.79052734375,-12.481689453125,68.878173828125
0.8624999,1.1797429323196411,0.49799394607543945,10.211869239807129,3.90625,-0.579833984375,-1.434326171875
0.8674999,1.9698294401168823,1.0295066833496094,10.061633110046387,-4.669189453125,10.7421875,-28.25927734375
0.8724999,2.6839001178741455,1.0654197931289673,9.874884605407715,-5.615234375,37.2314453125,-38.116455078125
0.8774999,2.8838160037994385,0.6147112846374512,9.758167266845703,-0.9765625,48.614501953125,-38.421630859375
0.8824999,2.3720552921295166,0.20290859043598175,9.770736694335938,1.739501953125,42.388916015625,-46.5087890625
0.8874999,1.269525408744812,-0.07003039866685867,9.905410766601562,-4.547119140625,26.214599609375,-58.77685546875
0.8924999,-0.1496376097202301,-0.0065840547904372215,10.09934139251709,-16.2353515625,9.8876953125,-68.2373046875
0.8974999,-1.4772224426269531,0.17178396880626678,10.22503662109375,-21.78955078125,0.732421875,-61.95068359375
0.9024999,-2.2631192207336426,0.05267243832349777,10.189722061157227,-28.6865234375,-6.8359375,-45.59326171875
0.9074999,-2.4456770420074463,-0.013766659423708916,10.098742485046387,-19.683837890625,-17.02880859375,-0.732421875
0.9124999,-1.0229226350784302,-0.70090252161026,9.913191795349121,-12.786865234375,-31.646728515625,37.506103515625
0.9174999,0.02214636653661728,-1.1354501247406006,9.684545516967773,-12.359619140625,-30.303955078125,44.73876953125
0.9224999,0.7882909178733826,-1.680729627609253,9.402628898620605,9.735107421875,-37.628173828125,63.140869140625
0.9274999,1.1216834783554077,-2.2433669567108154,9.149441719055176,38.665771484375,-33.75244140625,71.197509765625
0.9324999,0.9780313968658447,-2.316390037536621,9.025542259216309,40.863037109375,-6.988525390625,66.7724609375
0.9374999,0.6470330357551575,-1.9524714946746826,9.256582260131836,27.191162109375,12.054443359375,51.69677734375
0.9424999000000001,0.43933600187301636,-1.1210849285125732,9.744400978088379,18.951416015625,8.026123046875,35.919189453125
0.9474999000000001,0.6763619780540466,-0.11192893236875534,10.0580415725708,11.260986328125,0.48828125,19.317626953125
0.9524999000000001,1.3617022037506104,0.6554127335548401,10.129268646240234,1.40380859375,0.152587890625,-6.9580078125
0.9574999000000001,2.2373814582824707,0.9546879529953003,9.947309494018555,-4.94384765625,15.960693359375,-31.8603515625
0.9624999,-0.314238965511322,0.13347674906253815,10.157401084899902,-19.744873046875,8.392333984375,-69.976806640625
0.9674999,-1.646013617515564,0.25498247146606445,10.201693534851074,-25.08544921875,-2.227783203125,-63.4765625
0.9724999,-2.537853717803955,0.14484919607639313,10.197504043579102,-29.327392578125,-10.6201171875,-36.590576171875
0.9774999,-2.5947160720825195,-0.15981295704841614,10.050858497619629,-21.3623046875,-24.200439453125,11.04736328125
0.9824999,-2.0889410972595215,-0.456095427274704,9.925761222839355,-19.6533203125,-37.841796875,37.994384765625
0.9874999,-0.9894038438796997,-1.0504560470581055,9.828198432922363,-12.3291015625,-35.491943359375,45.501708984375
0.9924999,0.11372458189725876,-1.5723919868469238,9.476250648498535,-3.11279296875,-35.125732421875,56.15234375
0.9974999,0.9283517003059387,-2.181716203689575,9.17817211151123,27.16064453125,-41.046142578125,72.845458984375
1.0024999,1.18094003200531,-2.521692991256714,9.024943351745605,48.2177734375,-24.627685546875,78.765869140625
1.0074999000000002,0.9923965930938721,-2.3313539028167725,9.082404136657715,38.116455078125,8.60595703125,69.061279296875
1.0124999000000001,0.6542156338691711,-1.6095020771026611,9.531915664672852,24.444580078125,16.7236328125,51.483154296875
1.0174999000000002,1.985990285873413,0.9900023937225342,10.071807861328125,-4.119873046875,8.36181640625,-24.10888671875
1.0224999000000001,2.869450807571411,1.0402805805206299,9.840168952941895,-4.180908203125,33.8134765625,-44.00634765625
1.0274999,3.2561142444610596,0.6997054219245911,9.732429504394531,-1.46484375,51.1474609375,-48.553466796875
1.0324999000000001,2.8365304470062256,0.2603694200515747,9.774328231811523,1.068115234375,47.271728515625,-53.8330078125
1.0374999,1.7854759693145752,0.29867666959762573,9.943717956542969,-7.9345703125,27.923583984375,-63.507080078125
1.0424999000000001,0.1711854189634323,0.25258827209472656,10.198700904846191,-22.308349609375,14.7705078125,-68.695068359375
1.0474999,-1.3227964639663696,0.37229835987091064,10.300454139709473,-22.552490234375,0.9765625,-65.85693359375
1.0524999000000002,-2.4893712997436523,0.1256955862045288,10.249577522277832,-30.548095703125,-11.749267578125,-46.051025390625
1.0574999,-2.9023709297180176,-0.23762452602386475,10.019734382629395,-21.42333984375,-20.20263671875,-2.960205078125
1.0624999000000002,-2.606687068939209,-0.618302583694458,9.837176322937012,-16.326904296875,-36.224365234375,32.135009765625
1.0674999,-1.6675615310668945,-1.0564415454864502,9.75397777557373,-12.176513671875,-39.642333984375,42.29736328125
1.0724999000000002,0.629675030708313,-2.0476410388946533,9.287108421325684,18.524169921875,-38.330078125,63.4765625
1.0774999,1.2012907266616821,-2.4426841735839844,9.124900817871094,43.27392578125,-31.18896484375,73.394775390625
1.0824999000000002,1.2090718746185303,-2.3301568031311035,9.132083892822266,40.83251953125,-0.3662109375,70.49560546875
1.0874999,0.9169792532920837,-1.7369933128356934,9.47146224975586,26.519775390625,15.93017578125,53.436279296875
1.0924999000000002,0.7356184720993042,-0.7248445749282837,9.910199165344238,17.51708984375,8.11767578125,35.675048828125
1.0974999,1.0307037830352783,0.38546648621559143,10.13166332244873,7.14111328125,1.220703125,14.495849609375
1.1024999000000002,1.7711106538772583,0.9977835416793823,10.092158317565918,-3.875732421875,3.631591796875,-17.88330078125
1.1074999,2.6132712364196777,1.1414356231689453,9.877279281616211,-5.645751953125,26.611328125,-39.093017578125
1.1124999000000002,2.9981391429901123,0.8619126081466675,9.75637149810791,-3.173828125,46.356201171875,-42.449951171875
1.1174999,2.7096378803253174,0.3579331636428833,9.78989028930664,-0.42724609375,45.95947265625,-45.013427734375
1.1224999000000002,1.7537527084350586,0.23163901269435883,9.906009674072266,-3.997802734375,30.6396484375,-54.351806640625
1.1274999,-2.033874273300171,0.033518824726343155,10.23880386352539,-25.970458984375,-5.43212890625,-46.356201171875
1.1324999000000002,-2.4684219360351562,-0.2711433470249176,10.028712272644043,-22.491455078125,-16.021728515625,-7.720947265625
1.1374999000000001,-2.3044190406799316,-0.628477931022644,9.86231517791748,-18.06640625,-33.660888671875,29.144287109375
1.1424999000000002,-1.558625340461731,-1.1091139316558838,9.707889556884766,-12.02392578125,-36.0107421875,37.139892578125
1.1474999000000001,-0.5279214978218079,-1.5550340414047241,9.457695007324219,-6.866455078125,-31.6162109375,40.6494140625
1.1524999000000002,0.3944447338581085,-2.011129379272461,9.282320022583008,16.265869140625,-35.003662109375,57.403564453125
1.1574999000000001,0.93254154920578,-2.3505074977874756,9.213486671447754,39.306640625,-34.088134765625,67.9931640625
1.1624999,0.9786299467086792,-2.214038133621216,9.221267700195312,37.353515625,-8.880615234375,66.40625
1.1674999000000001,0.801459014415741,-1.6927006244659424,9.53969669342041,25.69580078125,12.02392578125,54.351806640625
1.1724999,0.7386112213134766,-0.739209771156311,9.916184425354004,19.989013671875,9.46044921875,37.78076171875
1.1774999000000002,1.113303780555725,0.3058592677116394,10.094552993774414,8.453369140625,3.72314453125,16.357421875
1.1824999,2.521692991256714,0.4273650050163269,9.758167266845703,-1.068115234375,38.726806640625,-36.529541015625
1.1874999000000002,1.6400281190872192,0.17178396880626678,9.8599214553833,-2.716064453125,30.670166015625,-50.10986328125
1.1924999,0.3974374830722809,0.10893617570400238,10.058639526367188,-15.9912109375,18.61572265625,-58.9599609375
1.1974999000000002,-0.7936778664588928,0.10594342648983002,10.160393714904785,-19.500732421875,8.270263671875,-55.6640625
1.2024999,-1.764526605606079,0.061052143573760986,10.225635528564453,-22.88818359375,-3.2958984375,-41.168212890625
1.2074999000000002,-2.189497470855713,-0.28311434388160706,10.09814453125,-23.62060546875,-13.12255859375,-11.749267578125
1.2124999,-2.0907366275787354,-0.5398924946784973,9.94970417022705,-20.111083984375,-28.289794921875,20.1416015625
1.2174999000000002,-1.4173674583435059,-1.1097124814987183,9.783307075500488,-15.594482421875,-33.5693359375,34.72900390625
1.2224999,-0.46327802538871765,-1.5622166395187378,9.430760383605957,-7.171630859375,-29.60205078125,39.36767578125
1.2274999000000002,0.395043283700943,-2.1116859912872314,9.221866607666016,16.66259765625,-30.059814453125,52.886962890625
1.2324999,0.9953893423080444,0.40521863102912903,10.110115051269531,7.781982421875,1.3427734375,13.275146484375
1.2374999000000002,1.68970787525177,1.0899603366851807,10.086173057556152,-4.180908203125,2.685546875,-13.824462890625
1.2424999,2.430713176727295,1.2114660739898682,9.931148529052734,-5.767822265625,22.491455078125,-29.9072265625
1.2474999000000002,2.782062292098999,0.9097966551780701,9.798869132995605,-1.190185546875,37.7197265625,-30.914306640625
1.2524999,2.538452386856079,0.3256114423274994,9.7791166305542,-0.8544921875,40.252685546875,-35.614013671875
1.2574999000000002,1.7531541585922241,0.028730420395731926,9.764751434326172,-0.457763671875,33.0810546875,-47.42431640625
1.2624999000000001,0.5722141861915588,0.010773907415568829,9.97484302520752,-14.7705078125,16.632080078125,-56.396484375
1.2674999000000002,-0.67815762758255,0.010175357572734356,10.07779312133789,-19.866943359375,7.14111328125,-54.779052734375
1.2724999000000001,-1.755548357963562,0.02214636653661728,10.161590576171875,-22.0947265625,-2.685546875,-39.306640625
1.2774999000000002,-2.296039342880249,-0.11192893236875534,10.086173057556152,-22.430419921875,-15.0146484375,-8.60595703125
1.2824999000000001,-0.4776432514190674,-1.5735890865325928,9.493009567260742,-4.94384765625,-28.045654296875,39.0625
1.2874999,0.45848962664604187,-2.2451627254486084,9.263765335083008,22.125244140625,-29.449462890625,54.473876953125
1.2924999000000001,0.9331400990486145,-2.5474305152893066,9.167398452758789,38.787841796875,-26.824951171875,63.04931640625
1.2974999,0.9056068062782288,-2.343923568725586,9.243413925170898,33.63037109375,-8.60595703125,60.699462890625
1.3024999000000002,0.6817489266395569,-1.6406266689300537,9.641449928283691,24.96337890625,8.48388671875,49.560546875
1.3074999,0.6189011335372925,-0.49799394607543945,9.999382972717285,19.317626953125,6.89697265625,34.454345703125
1.3124999000000002,1.039083480834961,0.6266822814941406,10.111311912536621,5.06591796875,1.617431640625,14.16015625
1.3174999,1.787870168685913,1.2503718137741089,10.043676376342773,-5.7373046875,4.21142578125,-16.021728515625
1.3224999000000002,2.5342624187469482,1.2437877655029297,9.852140426635742,-4.486083984375,25.115966796875,-31.982421875
1.3274999,1.703474521636963,0.04369417950510979,9.68813705444336,-0.701904296875,32.867431640625,-50.994873046875
1.3324999000000002,1.703474521636963,0.04369417950510979,9.68813705444336,-0.701904296875,32.867431640625,-50.994873046875
1.3374999,0.45250412821769714,0.07841010391712189,9.979631423950195,-17.88330078125,13.031005859375,-57.220458984375
1.3424999000000002,-0.900818407535553,0.07302315533161163,10.053851127624512,-22.03369140625,5.126953125,-53.863525390625
1.3474999,-1.9961656332015991,0.04010287672281265,10.189722061157227,-21.484375,-5.950927734375,-34.85107421875
1.3524999000000002,-2.4833858013153076,-0.2106897532939911,10.112509727478027,-22.064208984375,-20.3857421875,-0.30517578125
1.3574999,-2.3265655040740967,-0.6147112846374512,10.053253173828125,-20.08056640625,-34.72900390625,25.0244140625
1.3624999000000002,-0.35015198588371277,-1.7411831617355347,9.498396873474121,0.030517578125,-28.38134765625,42.633056640625
1.3674999,-0.35015198588371277,-1.7411831617355347,9.498396873474121,0.030517578125,-28.38134765625,42.633056640625
1.3724999000000002,0.6159083843231201,-2.3540987968444824,9.328408241271973,26.79443359375,-31.585693359375,60.211181640625
1.3774999,1.0696096420288086,-2.476203203201294,9.240421295166016,38.055419921875,-21.820068359375,69.732666015625
1.3824999000000002,1.0259153842926025,-2.0901381969451904,9.376891136169434,31.06689453125,2.838134765625,66.34521484375
1.3874999000000001,0.838569164276123,-0.04489128291606903,10.012551307678223,14.46533203125,7.904052734375,31.6162109375
1.3924999000000002,0.838569164276123,-0.04489128291606903,10.012551307678223,14.46533203125,7.904052734375,31.6162109375
1.3974999000000001,1.3138182163238525,0.8451532125473022,10.080187797546387,0.885009765625,2.471923828125,3.7841796875
1.4024999000000002,2.05123233795166,1.1677719354629517,9.972448348999023,-5.67626953125,10.955810546875,-24.169921875
1.4074999000000001,2.691082715988159,0.9768342971801758,9.849745750427246,0.213623046875,33.203125,-33.8134765625
1.4124999,2.808398485183716,0.5117605924606323,9.749189376831055,1.64794921875,40.71044921875,-37.689208984375
1.4174999000000001,2.2900538444519043,-0.040701430290937424,9.82879638671875,0.030517578125,37.933349609375,-44.952392578125
1.4224999,1.3377602100372314,0.04908113554120064,9.9185791015625,-2.166748046875,24.322509765625,-55.755615234375
1.4274999000000002,-0.06344634294509888,0.08379705995321274,10.104129791259766,-25.2685546875,7.4462890625,-58.746337890625
1.4324999,-1.3114240169525146,0.19213469326496124,10.181343078613281,-20.81298828125,1.190185546875,-53.64990234375
1.4374999000000002,-2.294243812561035,0.06763619929552078,10.065223693847656,-23.62060546875,-11.90185546875,-29.96826171875
1.4424999,0.8445546627044678,-2.3977930545806885,9.297882080078125,29.541015625,-26.336669921875,58.929443359375
1.4474999000000002,1.1510124206542969,-2.292448043823242,9.373299598693848,33.02001953125,-14.678955078125,61.065673828125
1.4524999,1.0546458959579468,-1.6663644313812256,9.59715747833252,24.017333984375,5.462646484375,54.290771484375
1.4574999000000002,0.8924387097358704,-0.706289529800415,9.923367500305176,17.4560546875,9.796142578125,39.764404296875
1.4624999,1.0127472877502441,0.3321954905986786,10.090961456298828,8.636474609375,4.913330078125,18.4326171875
1.4674999000000002,1.5173252820968628,0.970848798751831,10.044873237609863,-0.9765625,3.5400390625,-9.3994140625
1.4724999,2.18770170211792,0.9965864419937134,9.982624053955078,-2.471923828125,20.99609375,-28.74755859375
1.4774999000000002,2.586336374282837,0.7104793787002563,9.843161582946777,4.180908203125,35.308837890625,-30.57861328125
1.4824999,2.5037364959716797,0.24899697303771973,9.809642791748047,3.0517578125,38.0859375,-36.2548828125
1.4874999000000002,1.8608932495117188,-0.15322890877723694,9.864110946655273,0.9765625,33.294677734375,-46.722412109375
1.4924999,0.9103952050209045,0.09576806426048279,9.891644477844238,-5.401611328125,17.913818359375,-57.647705078125
1.4974999000000002,-2.321178436279297,-0.36810851097106934,9.860519409179688,-20.050048828125,-21.942138671875,9.918212890625
1.5024999,-1.9488801956176758,-0.8565256595611572,9.712677955627441,-16.41845703125,-34.393310546875,32.89794921875
1.5074999000000002,-1.0606313943862915,-1.4257471561431885,9.479243278503418,-9.033203125,-30.242919921875,35.70556640625
1.5124999000000001,-0.03890577703714371,-1.9518729448318481,9.306262016296387,8.880615234375,-25.726318359375,43.88427734375
1.5174999000000002,0.767341673374176,-2.2864625453948975,9.331999778747559,28.13720703125,-23.895263671875,54.595947265625
1.5224999000000001,1.1121066808700562,-2.1775264739990234,9.408614158630371,30.548095703125,-13.153076171875,53.466796875
1.5274999000000002,1.113303780555725,-1.6083049774169922,9.655815124511719,22.674560546875,4.364013671875,44.586181640625
1.5324999000000001,1.0444705486297607,-0.6949170231819153,9.954492568969727,17.242431640625,9.3994140625,31.31103515625
1.5374999000000003,1.1857284307479858,0.29867666959762573,10.10173511505127,8.697509765625,7.26318359375,12.786865234375
1.5424999000000001,1.5670050382614136,-0.15981295704841614,9.861717224121094,-0.30517578125,28.4423828125,-50.872802734375
1.5474999,0.7541735172271729,0.19273324310779572,9.8599214553833,-7.8125,14.190673828125,-61.004638671875
1.5524999000000002,-0.3585317134857178,0.08439560979604721,10.029311180114746,-27.2216796875,2.532958984375,-60.48583984375
1.5574999,-1.280897855758667,0.2651578485965729,10.04068374633789,-20.172119140625,-1.800537109375,-52.490234375
1.5624999000000002,-2.0877439975738525,-0.005985504016280174,10.00836181640625,-22.979736328125,-12.0849609375,-24.90234375
1.5674999,-2.296638011932373,-0.4082113802433014,9.850942611694336,-19.8974609375,-24.2919921875,14.556884765625
1.5724999000000002,-1.932719349861145,-0.8978256583213806,9.715071678161621,-16.9677734375,-37.445068359375,35.980224609375
1.5774999,-1.0432734489440918,-1.449090600013733,9.455301284790039,-9.368896484375,-31.585693359375,37.322998046875
1.5824999000000002,-0.02513911761343479,-1.9800047874450684,9.298480987548828,10.955810546875,-27.28271484375,46.875
1.5874999,1.2868833541870117,0.3166331648826599,10.125079154968262,8.30078125,7.476806640625,11.90185546875
1.5924999000000002,1.7747019529342651,0.8601169586181641,10.068815231323242,-1.46484375,8.758544921875,-16.78466796875
1.5974999,2.3032219409942627,0.8966285586357117,9.971251487731934,-0.54931640625,26.519775390625,-32.89794921875
1.6024999000000002,2.495356798171997,0.6171054840087891,9.86650562286377,5.279541015625,36.285400390625,-33.050537109375
1.6074999,2.227206230163574,0.20290859043598175,9.852738380432129,3.0517578125,35.186767578125,-40.374755859375
1.6124999000000002,1.5209165811538696,-0.17717093229293823,9.839570045471191,-0.54931640625,26.91650390625,-54.38232421875
1.6174999,0.5153518915176392,0.17836803197860718,9.954492568969727,-14.373779296875,11.5966796875,-64.483642578125
1.6224999000000002,-0.6458359360694885,0.047884032130241394,10.034697532653809,-24.688720703125,1.89208984375,-62.8662109375
1.6274999,-1.6196774244308472,0.2190694510936737,10.053851127624512,-21.42333984375,-5.462646484375,-50.6591796875
1.6324999000000002,-1.8046295642852783,-0.9917980432510376,9.61212158203125,-15.56396484375,-37.200927734375,36.07177734375
1.6374999000000001,-0.7984662652015686,-1.5807716846466064,9.382277488708496,-4.638671875,-30.120849609375,38.02490234375
1.6424999000000002,0.23822307586669922,-2.098517894744873,9.29189682006836,16.9677734375,-25.87890625,49.224853515625
1.6474999000000001,0.9498994946479797,-2.3062148094177246,9.343372344970703,31.55517578125,-22.39990234375,56.70166015625
1.6524999000000002,1.1665748357772827,-2.0380642414093018,9.449316024780273,27.40478515625,-5.340576171875,52.8564453125
1.6574999000000001,1.0797849893569946,-1.326986312866211,9.773730278015137,19.866943359375,6.65283203125,41.900634765625
1.6624999000000003,1.0193313360214233,-0.38067805767059326,10.023324966430664,14.129638671875,6.500244140625,26.30615234375
1.6674999000000001,1.2539631128311157,0.5351040959358215,10.125677108764648,5.950927734375,4.913330078125,6.77490234375
1.6724999,1.7609353065490723,0.9463081955909729,10.026318550109863,-1.861572265625,9.613037109375,-18.98193359375
1.6774999000000002,2.2379801273345947,0.8918401598930359,9.9401273727417,-0.30517578125,27.374267578125,-30.09033203125
1.6824999,0.30526071786880493,0.10773907601833344,9.9401273727417,-16.265869140625,10.345458984375,-58.197021484375
1.6874999000000002,-0.7200561761856079,0.1280897855758667,9.97364616394043,-20.050048828125,2.288818359375,-55.2978515625
1.6924999,-1.6262614727020264,0.12210428714752197,10.064026832580566,-21.6064453125,-5.4931640625,-42.1142578125
1.6974999000000002,-2.1511902809143066,-0.14065934717655182,10.013748168945312,-21.759033203125,-14.892578125,-12.39013671875
1.7024999,-2.1326351165771484,-0.5482721924781799,9.88386344909668,-19.073486328125,-29.84619140625,22.247314453125
1.7074999000000002,-1.5364789962768555,-1.0055646896362305,9.730634689331055,-15.44189453125,-35.400390625,34.576416015625
1.7124999,-0.5596446394920349,-1.5628151893615723,9.475052833557129,-4.69970703125,-28.106689453125,37.445068359375
1.7174999000000002,0.41120412945747375,-2.0428526401519775,9.361927032470703,16.876220703125,-24.871826171875,48.52294921875
1.7224999,1.0133458375930786,-2.2242133617401123,9.331400871276855,30.181884765625,-21.453857421875,55.511474609375
1.7274999000000002,1.14742112159729,-1.9584569931030273,9.422380447387695,26.55029296875,-5.37109375,50.872802734375
1.7324999,1.0217255353927612,-1.2856862545013428,9.730035781860352,19.439697265625,6.134033203125,39.306640625
1.7374999000000002,1.2186486721038818,0.44412440061569214,10.102932929992676,6.28662109375,5.06591796875,6.77490234375
1.7424999,1.7417817115783691,0.8026561141014099,10.016741752624512,-1.495361328125,10.07080078125,-18.6767578125
1.7474999000000002,2.234388828277588,0.7439981698989868,9.954492568969727,0.30517578125,27.496337890625,-29.47998046875
1.7524999,2.3696610927581787,0.4411316514015198,9.857526779174805,4.364013671875,35.09521484375,-28.472900390625
1.7574999000000002,2.034472942352295,0.05925649031996727,9.854534149169922,3.631591796875,34.698486328125,-36.102294921875
1.7624999000000001,1.280897855758667,0.015562310814857483,9.834781646728516,-0.152587890625,26.4892578125,-49.774169921875
1.7674999000000002,0.24779987335205078,0.11192893236875534,9.935338973999023,-16.11328125,10.07080078125,-57.891845703125
1.7724999000000001,-0.7793126702308655,0.18555063009262085,9.975440979003906,-19.439697265625,1.861572265625,-55.72509765625
1.7774999000000002,-1.6597803831100464,0.10175357013940811,10.019135475158691,-21.453857421875,-6.134033203125,-41.68701171875
1.7824999000000001,-2.102707624435425,-0.23523031175136566,9.906607627868652,-20.782470703125,-14.556884765625,-10.92529296875
1.7874999000000003,-2.035670042037964,-0.6434416770935059,9.808445930480957,-16.693115234375,-29.632568359375,25.543212890625
1.7924999000000001,-1.4173674583435059,-1.072602391242981,9.640851974487305,-13.427734375,-34.912109375,35.919189453125
1.7974999,1.028908133506775,-2.1039047241210938,9.402628898620605,27.679443359375,-20.172119140625,51.116943359375
1.8024999000000002,1.182137131690979,-1.8614917993545532,9.485228538513184,25.543212890625,-5.31005859375,47.119140625
1.8074999,1.0785878896713257,-1.2318167686462402,9.749189376831055,18.6767578125,6.4697265625,35.614013671875
1.8124999000000002,1.0169371366500854,-0.37888240814208984,9.9586820602417,12.939453125,6.16455078125,20.8740234375
1.8174999,1.2324153184890747,0.42018240690231323,10.075399398803711,5.9814453125,4.730224609375,3.5400390625
1.8224999000000002,1.6867151260375977,0.7547720670700073,10.011953353881836,-1.190185546875,10.80322265625,-19.6533203125
1.8274999,2.0865468978881836,0.6985083222389221,9.965266227722168,1.03759765625,26.641845703125,-27.008056640625
1.8324999000000002,2.1751322746276855,0.4010287821292877,9.871891975402832,4.69970703125,32.3486328125,-25.5126953125
1.8374999,1.84233820438385,0.035913024097681046,9.86231517791748,3.90625,32.65380859375,-34.393310546875
1.8424999000000002,1.1456254720687866,-0.02753331884741783,9.838373184204102,-0.640869140625,24.932861328125,-47.36328125
1.8474999,0.23762452602386475,0.06524199992418289,9.900622367858887,-14.617919921875,9.490966796875,-55.5419921875
1.8524999000000002,-2.0236990451812744,-0.27413609623908997,9.858723640441895,-18.798828125,-14.556884765625,-9.246826171875
1.8574999,-2.0027496814727783,-0.6123170852661133,9.747992515563965,-14.34326171875,-30.3955078125,27.496337890625
1.8624999000000002,-1.4502876996994019,-0.9522937536239624,9.68933391571045,-9.94873046875,-32.8369140625,34.36279296875
1.8674999,-1.4502876996994019,-0.9522937536239624,9.68933391571045,-9.94873046875,-32.8369140625,34.36279296875
1.8724999000000002,-0.5482721924781799,-1.348534107208252,9.59057331085205,-6.195068359375,-26.519775390625,31.646728515625
1.8774999,0.3298012912273407,-1.6466121673583984,9.54209041595459,9.6435546875,-25.970458984375,44.281005859375
1.8824999000000002,0.9576807022094727,-1.9560627937316895,9.552266120910645,26.641845703125,-20.99609375,52.764892578125
1.8874999000000001,1.1456254720687866,-1.8273744583129883,9.493009567260742,25.543212890625,-3.23486328125,49.072265625
1.8924999000000002,1.1432312726974487,-1.3820528984069824,9.70429801940918,20.01953125,8.392333984375,36.80419921875
1.8974999000000001,1.1025298833847046,-0.5123591423034668,9.876082420349121,14.129638671875,8.209228515625,21.66748046875
1.9024999000000002,2.1051018238067627,0.7410054206848145,9.9401273727417,-0.1220703125,25.87890625,-27.252197265625
1.9074999000000001,2.1051018238067627,0.7410054206848145,9.9401273727417,-0.1220703125,25.87890625,-27.252197265625
1.9124999000000003,2.16495680809021,0.40880993008613586,9.847352027893066,4.8828125,31.79931640625,-26.763916015625
1.9174999000000001,1.8225860595703125,0.016759412363171577,9.852140426635742,4.08935546875,32.501220703125,-36.80419921875
1.9224999,0.19153612852096558,0.06883329898118973,9.948506355285645,-17.27294921875,8.941650390625,-56.365966796875
1.9274999000000002,0.19153612852096558,0.06883329898118973,9.948506355285645,-17.27294921875,8.941650390625,-56.365966796875
1.9324999,-0.8535329103469849,0.25258827209472656,10.02811336517334,-18.73779296875,1.800537109375,-48.7060546875
1.9374999000000002,-1.6699557304382324,-0.05147533491253853,10.015543937683105,-23.25439453125,-7.843017578125,-36.163330078125
1.9424999,-2.145803213119507,-0.2513911724090576,9.909601211547852,-18.12744140625,-16.998291015625,-2.410888671875
1.9474999000000002,-2.01232647895813,-0.6643909811973572,9.793481826782227,-14.556884765625,-34.088134765625,31.31103515625
1.9524999,-1.3515268564224243,-1.0217255353927612,9.72285270690918,-11.04736328125,-33.416748046875,36.224365234375
1.9574999000000002,-0.3687070608139038,-1.4197616577148438,9.505578994750977,-4.638671875,-27.374267578125,37.445068359375
1.9624999,1.0833762884140015,-2.121262788772583,9.39903736114502,31.92138671875,-16.265869140625,56.82373046875
1.9674999000000002,1.2012907266616821,-1.9231425523757935,9.410409927368164,26.885986328125,3.662109375,51.605224609375
1.9724999,1.127070426940918,-1.303044319152832,9.694721221923828,20.050048828125,11.65771484375,37.078857421875
1.9774999000000002,1.1264718770980835,-0.2651578485965729,9.93593692779541,12.054443359375,8.36181640625,20.3857421875
1.9824999,1.4472949504852295,0.5931634902954102,10.056844711303711,0.701904296875,4.21142578125,-4.119873046875
1.9874999000000002,1.9249382019042969,0.8960300087928772,10.039485931396484,-3.7841796875,15.13671875,-27.618408203125
1.9924999,2.293046712875366,0.7583633661270142,9.95209789276123,3.143310546875,31.280517578125,-29.876708984375
1.9974999000000002,2.271498918533325,0.345363587141037,9.884461402893066,5.950927734375,36.041259765625,-34.3017578125
2.0024999,0.9463081955909729,0.1107318252325058,9.894038200378418,-6.561279296875,17.364501953125,-57.861328125
2.0074999,-0.20889410376548767,0.10773907601833344,10.011354446411133,-22.247314453125,4.425048828125,-59.539794921875
2.0124999000000003,-1.2713210582733154,0.12629413604736328,10.005369186401367,-20.01953125,-2.349853515625,-50.628662109375
2.0174999000000002,-2.3750481605529785,-0.4752490520477295,9.821614265441895,-12.451171875,-25.909423828125,17.578125
2.0224999,-2.0225019454956055,-0.7445967197418213,9.70549488067627,-12.939453125,-37.017822265625,37.261962890625
2.0274999,-1.072602391242981,-1.1312602758407593,9.642647743225098,-10.498046875,-30.76171875,34.66796875
2.0324999000000004,0.0017956512747332454,-1.5304933786392212,9.484031677246094,3.448486328125,-24.749755859375,42.510986328125
2.0374999000000003,0.9044097065925598,-2.032677173614502,9.486425399780273,27.618408203125,-23.529052734375,54.046630859375
2.0424999,1.30543851852417,-2.1487960815429688,9.378087997436523,30.731201171875,-4.94384765625,54.290771484375
2.0474999,1.324592113494873,-1.7896658182144165,9.57321548461914,24.0478515625,11.1083984375,44.73876953125
2.0524999,1.204882025718689,-0.8690952062606812,9.833584785461426,16.204833984375,11.138916015625,27.435302734375
2.0574999000000003,1.303044319152832,0.23163901269435883,10.029311180114746,5.4931640625,5.157470703125,7.62939453125
2.0624999,1.6525976657867432,0.8481459617614746,10.070012092590332,-3.41796875,7.232666015625,-18.98193359375
2.0674999,2.0626046657562256,0.9313444495201111,10.033500671386719,-0.457763671875,24.90234375,-29.266357421875
2.0724999,2.2212207317352295,0.5895721912384033,9.917980194091797,5.92041015625,33.416748046875,-28.86962890625
2.0774999000000003,1.3162124156951904,-0.02274491637945175,9.783905029296875,0.457763671875,25.08544921875,-49.98779296875
2.0824999,0.4165911078453064,0.02454056777060032,9.86650562286377,-15.7470703125,8.453369140625,-58.837890625
2.0874999,-0.7128735780715942,0.20051439106464386,9.971850395202637,-19.04296875,1.495361328125,-51.3916015625
2.0924999,-1.591545581817627,0.03531447425484657,9.88745403289795,-22.674560546875,-7.99560546875,-37.17041015625
2.0974999000000003,-2.2260091304779053,-0.29628247022628784,9.890447616577148,-15.838623046875,-17.51708984375,-1.15966796875
2.1024999,-2.214038133621216,-0.6123170852661133,9.79527759552002,-11.71875,-31.92138671875,27.618408203125
2.1074999,-1.6154875755310059,-0.9385270476341248,9.703699111938477,-12.847900390625,-31.707763671875,30.2734375
2.1124999,-0.6165069341659546,-1.313219666481018,9.685144424438477,-4.45556640625,-25.482177734375,32.073974609375
2.1174999000000003,0.395043283700943,-1.6490063667297363,9.594164848327637,12.847900390625,-24.566650390625,43.9453125
2.1224999,1.1007342338562012,-1.9919757843017578,9.53849983215332,26.947021484375,-16.387939453125,48.828125
2.1274999,1.3413515090942383,-1.8525135517120361,9.50857162475586,24.871826171875,2.838134765625,44.281005859375
2.1324999,1.3215993642807007,-1.2791022062301636,9.693524360656738,17.9443359375,10.07080078125,31.585693359375
2.1374999000000003,1.456871747970581,0.4878185987472534,9.995193481445312,1.3427734375,3.936767578125,-4.669189453125
2.1424999000000002,1.7729063034057617,0.7733271718025208,9.988609313964844,-2.25830078125,13.824462890625,-23.8037109375
2.1474999,2.005143880844116,0.6129156351089478,9.941324234008789,3.0517578125,26.79443359375,-24.322509765625
2.1524999,1.988384485244751,0.18076223134994507,9.859322547912598,6.40869140625,30.487060546875,-26.702880859375
2.1574999000000004,1.5969325304031372,-0.14903905987739563,9.82999324798584,2.62451171875,30.609130859375,-38.421630859375
2.1624999000000003,0.07422025501728058,0.08319851011037827,9.912593841552734,-16.937255859375,5.462646484375,-53.741455078125
2.1674999,-0.9331400990486145,0.25917232036590576,10.023923873901367,-17.27294921875,-0.42724609375,-44.00634765625
2.1724999,-1.5909470319747925,0.06524199992418289,9.828198432922363,-22.0947265625,-8.148193359375,-30.364990234375
2.1774999000000004,-2.033874273300171,-0.1975216418504715,9.86770248413086,-9.429931640625,-18.096923828125,8.72802734375
2.1824999000000003,-1.8860323429107666,-0.5937620401382446,9.672574996948242,-12.02392578125,-31.463623046875,29.23583984375
2.1874999,-1.2647370100021362,-0.8942343592643738,9.707889556884766,-9.552001953125,-29.754638671875,29.022216796875
2.1924999,-0.3908534348011017,-1.3748703002929688,9.6618013381958,-3.143310546875,-23.406982421875,29.6630859375
2.1974999,0.4710591733455658,-1.7363947629928589,9.639056205749512,13.946533203125,-23.5595703125,40.95458984375
2.2024999000000003,1.0642226934432983,-2.030282974243164,9.583391189575195,24.749755859375,-13.580322265625,43.76220703125
2.2074999,1.2862848043441772,-1.834557056427002,9.600749015808105,22.03369140625,3.7841796875,38.116455078125
2.2124999,1.3192051649093628,-1.2120646238327026,9.756970405578613,15.80810546875,8.97216796875,26.55029296875
2.2174999,1.3443442583084106,-0.2555810213088989,9.890447616577148,8.23974609375,6.16455078125,12.725830078125
2.2224999000000003,1.5502456426620483,0.4686649739742279,9.96825885772705,0.823974609375,4.82177734375,-8.4228515625
2.2274999,1.8213889598846436,0.7056909799575806,9.946112632751465,-1.46484375,15.9912109375,-24.35302734375
2.2324999,1.9638439416885376,0.5303156971931458,9.896432876586914,3.753662109375,26.55029296875,-22.003173828125
2.2374999,1.9105730056762695,0.13168109953403473,9.82640266418457,6.195068359375,29.693603515625,-26.397705078125
2.2424999000000003,1.4724340438842773,-0.12210428714752197,9.846753120422363,1.678466796875,29.35791015625,-38.87939453125
2.2474999,0.8457517623901367,-0.181959331035614,9.807249069213867,-3.84521484375,17.02880859375,-47.332763671875
2.2524999,-0.02693476900458336,0.10773907601833344,9.966463088989258,-17.852783203125,4.08935546875,-49.163818359375
2.2574999,-1.6699557304382324,-0.04429273307323456,9.901819229125977,-23.193359375,-8.11767578125,-26.458740234375
2.2624999000000003,-2.0937294960021973,-0.15741875767707825,9.962871551513672,-7.99560546875,-19.805908203125,14.95361328125
2.2674999000000002,-1.8555063009262085,-0.5973533391952515,9.734824180603027,-13.763427734375,-32.5927734375,28.228759765625
2.2724999,-1.2084733247756958,-0.8547300100326538,9.741408348083496,-9.27734375,-28.3203125,27.587890625
2.2774999,-0.29149407148361206,-1.2779051065444946,9.628880500793457,-1.312255859375,-24.139404296875,32.53173828125
2.2824999000000004,0.5285200476646423,-1.6831238269805908,9.61212158203125,15.716552734375,-24.0478515625,42.78564453125
2.2874999000000003,1.0660183429718018,-1.964442491531372,9.52114200592041,24.90234375,-12.20703125,42.3583984375
2.2924999,1.2653355598449707,-1.7764976024627686,9.585186958312988,21.514892578125,5.462646484375,36.19384765625
2.2974999,1.3072341680526733,-1.128267526626587,9.748590469360352,15.07568359375,9.33837890625,26.397705078125
2.3024999000000004,1.3856441974639893,-0.1951274424791336,9.886856079101562,7.598876953125,6.317138671875,12.603759765625
2.3074999000000003,1.6262614727020264,0.4884171485900879,9.961075782775879,0.518798828125,5.7373046875,-10.223388671875
2.3124999,0.788889467716217,-0.10295066982507706,9.814431190490723,-4.852294921875,16.29638671875,-47.119140625
2.3174999,-0.1107318252325058,0.1215057373046875,9.978434562683105,-16.448974609375,4.0283203125,-47.18017578125
2.3224999,-1.0223240852355957,0.2388216257095337,10.023324966430664,-16.876220703125,-2.288818359375,-37.78076171875
2.3274999000000003,-1.6915035247802734,-0.09816227108240128,9.903017044067383,-23.25439453125,-8.209228515625,-24.71923828125
2.3324999,-2.079962730407715,-0.24839842319488525,9.913191795349121,-6.683349609375,-19.866943359375,17.578125
2.3374999,-1.7968484163284302,-0.6997054219245911,9.697115898132324,-12.542724609375,-31.951904296875,27.40478515625
2.3424999,-1.1408370733261108,-0.8960300087928772,9.700108528137207,-7.843017578125,-26.947021484375,25.634765625
2.3474999000000003,-0.2232593148946762,-1.2306196689605713,9.61212158203125,-0.396728515625,-23.040771484375,31.219482421875
2.3524999,0.5734112858772278,-1.5825673341751099,9.617507934570312,14.6484375,-22.430419921875,40.435791015625
2.3574999,1.3425486087799072,-0.152031809091568,9.8784761428833,6.622314453125,5.31005859375,11.3525390625
2.3624999,1.547252893447876,0.4345476031303406,9.934141159057617,0.823974609375,4.82177734375,-9.552001953125
2.3674999000000003,1.7621324062347412,0.6027402877807617,9.928754806518555,-0.48828125,15.472412109375,-22.4609375
2.3724999,1.832162857055664,0.42676645517349243,9.8784761428833,3.23486328125,23.8037109375,-18.798828125
2.3774999,1.7178397178649902,0.0736217051744461,9.828198432922363,4.547119140625,26.702880859375,-22.796630859375
2.3824999,1.2970588207244873,-0.10654197633266449,9.841365814208984,1.190185546875,27.130126953125,-33.416748046875
2.3874999000000003,0.7098808288574219,-0.24121582508087158,9.829395294189453,-3.662109375,18.157958984375,-38.6962890625
2.3924999000000002,-0.060453593730926514,0.07781155407428741,9.93593692779541,-12.8173828125,5.645751953125,-40.252685546875
2.3974999,-0.9115923047065735,0.1454477459192276,10.035296440124512,-15.380859375,-1.251220703125,-32.928466796875
2.4024999,-1.4850035905838013,0.013168109580874443,9.892242431640625,-23.0712890625,-6.927490234375,-23.162841796875
2.4074999000000004,-1.0115501880645752,-0.8822633028030396,9.70429801940918,-8.331298828125,-25.665283203125,22.4609375
2.4124999000000003,-0.18734627962112427,-1.2725181579589844,9.637260437011719,-1.89208984375,-22.125244140625,28.472900390625
2.4174999,0.547075092792511,-1.5717934370040894,9.623494148254395,11.505126953125,-22.5830078125,39.36767578125
2.4224999,1.0079588890075684,-1.7980455160140991,9.550470352172852,21.05712890625,-15.44189453125,39.093017578125
2.4274999000000004,1.169567584991455,-1.634641170501709,9.570821762084961,19.95849609375,0.213623046875,32.867431640625
2.4324999000000003,1.1659762859344482,-1.1073182821273804,9.707290649414062,14.16015625,7.14111328125,25.45166015625
2.4374999,1.1785458326339722,-0.333991140127182,9.846753120422363,7.75146484375,4.82177734375,15.93017578125
2.4424999,1.3730746507644653,0.27473464608192444,9.931747436523438,2.5634765625,2.777099609375,-3.326416015625
2.4474999,1.6478092670440674,0.5027823448181152,9.930550575256348,-0.3662109375,11.077880859375,-20.69091796875
2.4524999000000003,1.8183962106704712,0.4016273319721222,9.895833969116211,2.44140625,22.613525390625,-19.073486328125
2.4574999,1.7950527667999268,0.11911153793334961,9.82879638671875,4.791259765625,26.580810546875,-18.73779296875
2.4624999,0.8684966564178467,-0.0933738648891449,9.86889934539795,-1.89208984375,22.735595703125,-36.285400390625
2.4674999,0.1933317929506302,0.023942016065120697,9.901819229125977,-10.43701171875,9.765625,-41.68701171875
2.4724999000000003,-0.690727174282074,0.17956513166427612,10.02811336517334,-15.655517578125,1.495361328125,-35.247802734375
2.4774999,-1.2755109071731567,-0.26096799969673157,9.965864181518555,-18.951416015625,-4.364013671875,-28.3203125
2.4824999,-1.1492167711257935,-0.8044517636299133,9.657610893249512,-9.613037109375,-26.947021484375,23.92578125
2.4874999,-0.4225766062736511,-1.0223240852355957,9.647436141967773,-5.2490234375,-22.796630859375,25.787353515625
2.4924999000000003,0.2867056429386139,-1.2228385210037231,9.639654159545898,7.293701171875,-23.101806640625,37.200927734375
2.4974999,0.2867056429386139,-1.2228385210037231,9.639654159545898,7.293701171875,-23.101806640625,37.200927734375
2.5024999,0.8313865661621094,-1.5364789962768555,9.583989143371582,19.866943359375,-19.561767578125,41.656494140625
2.5074999,1.0480618476867676,-1.5873557329177856,9.563638687133789,21.6064453125,-4.791259765625,37.445068359375
2.5124999000000003,1.0887632369995117,-0.5805938839912415,9.820416450500488,10.894775390625,6.988525390625,22.27783203125
2.5174999000000002,1.27191960811615,0.1454477459192276,9.938331604003906,4.608154296875,3.204345703125,4.7607421875
2.5224999,1.5963339805603027,0.5135562419891357,9.942521095275879,-1.0986328125,6.988525390625,-18.280029296875
2.5274999,1.8932149410247803,0.50876784324646,9.91977596282959,0.885009765625,20.599365234375,-22.27783203125
2.5324999000000004,1.9728221893310547,0.25737667083740234,9.838373184204102,5.37109375,28.076171875,-19.775390625
2.5374999000000003,1.777096152305603,-0.05147533491253853,9.799467086791992,3.204345703125,29.937744140625,-30.70068359375
2.5424999,1.146224021911621,-0.09876082092523575,9.84256362915039,-1.40380859375,25.238037109375,-40.313720703125
2.5474999,0.4297592043876648,0.04369417950510979,9.895236015319824,-10.406494140625,10.345458984375,-47.943115234375
2.5524999000000004,-0.5919663906097412,0.2017114907503128,10.032303810119629,-18.524169921875,2.01416015625,-43.3349609375
2.5574999000000003,-1.3413515090942383,-0.2992752194404602,10.117298126220703,-20.6298828125,-4.364013671875,-34.454345703125
2.5624999,-1.8872294425964355,-0.24241292476654053,9.85034465789795,-17.486572265625,-11.993408203125,-7.01904296875
2.5674999,-1.8926163911819458,-0.8343793153762817,9.86351203918457,-10.650634765625,-28.74755859375,27.89306640625
2.5724999,0.27054479718208313,-1.3084312677383423,9.55825138092041,8.392333984375,-26.458740234375,43.914794921875
2.5774999000000003,0.9002198576927185,-1.7549498081207275,9.55825138092041,26.031494140625,-20.416259765625,51.025390625
2.5824999,1.1198878288269043,-1.7687164545059204,9.498994827270508,25.57373046875,1.312255859375,48.52294921875
2.5874999,1.1198878288269043,-1.3796586990356445,9.68574333190918,19.378662109375,11.627197265625,39.9169921875
2.5924999,1.0947487354278564,-0.5117605924606323,9.865906715393066,11.810302734375,7.843017578125,26.2451171875
2.5974999000000003,1.337161660194397,0.3256114423274994,10.003573417663574,3.0517578125,3.662109375,3.997802734375
2.6024999,1.7663222551345825,0.6811503767967224,9.995792388916016,-2.9296875,9.490966796875,-22.857666015625
2.6074999,2.182913303375244,0.6063315868377686,9.943120002746582,2.227783203125,25.970458984375,-27.77099609375
2.6124999,2.3122003078460693,0.2908954918384552,9.84256362915039,7.232666015625,34.210205078125,-28.839111328125
2.6174999000000003,1.945288896560669,-0.016160860657691956,9.835979461669922,1.52587890625,33.294677734375,-39.9169921875
2.6224999,1.1623848676681519,0.10893617570400238,9.775525093078613,-3.326416015625,20.3857421875,-51.33056640625
2.6274999,-1.1348515748977661,0.3423708379268646,10.017938613891602,-20.93505859375,-1.312255859375,-47.18017578125
2.6324999,-1.1348515748977661,0.3423708379268646,10.017938613891602,-20.93505859375,-1.312255859375,-47.18017578125
2.6374999000000003,-1.9309237003326416,0.04908113554120064,9.928754806518555,-25.45166015625,-10.406494140625,-33.111572265625
2.6424999000000002,-0.15562310814857483,-1.5592238903045654,9.555258750915527,-1.28173828125,-26.91650390625,40.71044921875
2.6474999,0.7410054206848145,-2.0177135467529297,9.567230224609375,22.4609375,-27.740478515625,57.06787109375
2.6524999,1.202487826347351,-2.205059766769409,9.438541412353516,32.5927734375,-7.354736328125,59.6923828125
2.6574999000000004,1.2330138683319092,-1.8656816482543945,9.516951560974121,25.543212890625,13.214111328125,52.703857421875
2.6624999000000003,1.1210849285125732,-1.0187327861785889,9.773730278015137,16.571044921875,11.383056640625,36.62109375
2.6674999,1.217451572418213,0.10175357013940811,9.95209789276123,6.2255859375,5.279541015625,15.869140625
2.6724999,2.1751322746276855,0.8583213090896606,9.979631423950195,-0.8544921875,22.430419921875,-31.158447265625
2.6774999000000004,2.4869771003723145,0.6003460884094238,9.884461402893066,7.171630859375,35.675048828125,-32.684326171875
2.6824999000000003,2.300827741622925,0.1867477297782898,9.856928825378418,3.387451171875,36.865234375,-41.595458984375
2.6874999,1.558625340461731,-0.12030863761901855,9.847949981689453,-2.62451171875,25.238037109375,-53.22265625
2.6924999,0.48961424827575684,0.29149407148361206,10.012551307678223,-15.716552734375,8.209228515625,-64.453125
2.6974999,-0.9127894043922424,0.181959331035614,10.13166332244873,-25.787353515625,-0.91552734375,-57.159423828125
2.7024999000000003,-1.8938134908676147,0.16579847037792206,10.049661636352539,-25.848388671875,-8.636474609375,-42.938232421875
2.7074999,-2.541445016860962,-0.19213469326496124,9.927556991577148,-17.913818359375,-19.805908203125,0.18310546875
2.7124999,-2.3971943855285645,-0.569819986820221,9.723451614379883,-11.199951171875,-37.139892578125,33.87451171875
2.7174999,-1.5861586332321167,-1.0313023328781128,9.647436141967773,-8.270263671875,-33.0810546875,35.552978515625
2.7224999000000003,-0.40701428055763245,-1.4838064908981323,9.49001693725586,-6.103515625,-26.2451171875,38.299560546875
2.7274999,0.6428431272506714,-1.953070044517517,9.455301284790039,18.341064453125,-29.6630859375,57.861328125
2.7324999,1.1803414821624756,-0.10534487664699554,9.93474006652832,7.99560546875,6.256103515625,20.8740234375
2.7374999,1.5400702953338623,0.6967126727104187,10.061633110046387,-2.3193359375,3.47900390625,-9.58251953125
2.7424999000000003,2.140416383743286,0.9457096457481384,10.036493301391602,-1.708984375,19.95849609375,-31.79931640625
2.7474999,2.5707740783691406,0.751779317855835,9.943717956542969,6.77490234375,36.956787109375,-35.308837890625
2.7524999,2.4851813316345215,0.3687070608139038,9.894637107849121,3.936767578125,39.73388671875,-43.701171875
2.7574999,1.7747019529342651,-0.026336219161748886,9.884461402893066,-2.410888671875,28.13720703125,-55.755615234375
2.7624999000000003,0.7128735780715942,0.4339490532875061,9.932944297790527,-12.359619140625,10.833740234375,-67.2607421875
2.7674999000000002,-0.8110358119010925,0.25079262256622314,10.095749855041504,-29.1748046875,-1.953125,-61.614990234375
2.7724999,-1.8746598958969116,0.19033902883529663,10.042478561401367,-24.84130859375,-7.32421875,-49.652099609375
2.7774999,-2.6342203617095947,-0.22445641458034515,9.843161582946777,-21.270751953125,-18.798828125,-9.185791015625
2.7824999000000004,-1.7926585674285889,-1.07379949092865,9.611522674560547,-7.6904296875,-35.491943359375,38.57421875
2.7874999000000003,-0.5781996846199036,-1.511339783668518,9.517550468444824,-7.26318359375,-27.374267578125,37.2314453125
2.7924999,0.5554547905921936,-1.9345149993896484,9.435548782348633,14.190673828125,-29.9072265625,56.488037109375
2.7974999,1.2641384601593018,-2.3361423015594482,9.412205696105957,37.445068359375,-17.822265625,68.267822265625
2.8024999000000004,1.3988122940063477,-2.146401882171631,9.383475303649902,32.928466796875,10.894775390625,63.3544921875
2.8074999000000003,1.215057373046875,-1.4167689085006714,9.641449928283691,19.95849609375,15.9912109375,45.5322265625
2.8124999,1.1534066200256348,-0.19692309200763702,9.925163269042969,9.613037109375,6.927490234375,24.59716796875
2.8174999,1.4640543460845947,0.6805518269538879,10.08078670501709,-1.251220703125,2.8076171875,-5.37109375
2.8224999,2.0620062351226807,0.9888052940368652,10.04846477508545,-2.50244140625,16.845703125,-30.792236328125
2.8274999000000003,2.5498247146606445,0.812831461429596,9.94970417022705,5.523681640625,36.102294921875,-35.675048828125
2.8324999,2.53725528717041,0.4489128291606903,9.891045570373535,4.119873046875,40.069580078125,-43.15185546875
2.8374999,1.8692729473114014,0.01975216343998909,9.880271911621094,-1.708984375,29.876708984375,-54.19921875
2.8424999,-0.6985083222389221,0.26396074891090393,10.08198356628418,-30.33447265625,-1.617431640625,-63.232421875
2.8474999000000003,-1.7956513166427612,0.2106897532939911,10.059837341308594,-24.90234375,-6.195068359375,-52.337646484375
2.8524999,-2.606088638305664,-0.28131869435310364,9.861717224121094,-23.37646484375,-17.578125,-15.838623046875
2.8574999,-2.580350875854492,-0.6673837304115295,9.761159896850586,-14.862060546875,-35.369873046875,29.72412109375
2.8624999,-1.867477297782898,-1.1228805780410767,9.567230224609375,-9.002685546875,-37.53662109375,41.412353515625
2.8674999000000003,-0.6482301354408264,-1.5131354331970215,9.461885452270508,-5.7373046875,-27.83203125,39.154052734375
2.8724999,0.5063736438751221,-1.900996208190918,9.333795547485352,12.39013671875,-28.656005859375,55.267333984375
2.8774999,1.2515689134597778,-2.2834699153900146,9.351752281188965,37.109375,-20.538330078125,69.488525390625
2.8824999,1.40180504322052,0.702099621295929,10.126276016235352,-1.03759765625,2.532958984375,-4.608154296875
2.8874999000000003,2.5677812099456787,0.8349778652191162,9.992799758911133,5.584716796875,36.865234375,-37.078857421875
2.8924999000000002,2.6024973392486572,0.46627077460289,9.914389610290527,4.302978515625,41.6259765625,-45.2880859375
2.8974999,1.9482816457748413,0.03232172131538391,9.9000244140625,-1.617431640625,31.158447265625,-56.09130859375
2.9024999,0.8984242081642151,0.35015198588371277,9.970054626464844,-8.819580078125,13.214111328125,-68.572998046875
2.9074999000000004,-0.6643909811973572,0.284311443567276,10.146626472473145,-31.43310546875,-1.953125,-65.73486328125
2.9124999000000003,-1.823184609413147,0.21547815203666687,10.162787437438965,-25.360107421875,-6.500244140625,-53.8330078125
2.9174999,-2.6773159503936768,-0.24121582508087158,9.932345390319824,-24.90234375,-17.39501953125,-18.157958984375
2.9224999,-2.6803088188171387,-0.6554127335548401,9.837176322937012,-15.716552734375,-36.346435546875,29.144287109375
2.9274999000000004,-1.9524714946746826,-1.127070426940918,9.569623947143555,-9.521484375,-38.26904296875,42.1142578125
2.9324999000000003,-0.6673837304115295,-1.5658079385757446,9.479243278503418,-4.608154296875,-28.778076171875,39.886474609375
2.9374999,0.5704185366630554,-1.98958158493042,9.294290542602539,12.298583984375,-28.167724609375,55.72509765625
2.9424999,1.358709454536438,-2.3726539611816406,9.32421875,38.116455078125,-20.1416015625,70.953369140625
2.9474999,1.114500880241394,-0.2106897532939911,9.947309494018555,10.7421875,8.36181640625,25.115966796875
2.9524999000000003,1.3844470977783203,0.7457938194274902,10.161590576171875,-0.91552734375,2.3193359375,-5.645751953125
2.9574999,2.006340980529785,1.0720038414001465,10.105925559997559,-2.899169921875,17.4560546875,-31.25
2.9624999,2.5677812099456787,0.889445960521698,10.005369186401367,6.04248046875,37.90283203125,-37.994384765625
2.9674999,2.6204538345336914,0.4908113479614258,9.922170639038086,4.425048828125,42.6025390625,-47.027587890625
2.9724999000000003,1.977012038230896,0.02454056777060032,9.88745403289795,-1.220703125,30.70068359375,-57.769775390625
2.9774999,0.9217676520347595,0.345363587141037,9.934141159057617,-8.97216796875,13.36669921875,-70.831298828125
2.9824999,-0.6500257849693298,0.25019407272338867,10.104728698730469,-32.073974609375,-2.38037109375,-68.267822265625
2.9874999,-1.832162857055664,0.1975216418504715,10.092158317565918,-25.69580078125,-6.7138671875,-55.816650390625
2.9924999000000003,-2.699462413787842,-0.3100491166114807,9.864709854125977,-24.749755859375,-17.39501953125,-18.24951171875
2.9974999,-2.722805976867676,-0.707486629486084,9.759963035583496,-15.13671875,-36.62109375,30.6396484375
3.0024999,0.5159504413604736,-1.9907786846160889,9.291297912597656,12.939453125,-27.923583984375,54.901123046875
3.0074999,1.314416766166687,-2.3558945655822754,9.351752281188965,38.787841796875,-18.798828125,69.610595703125
3.0124999000000003,1.482010841369629,-2.187103271484375,9.357138633728027,36.2548828125,9.1552734375,65.91796875
3.0174999000000002,1.280897855758667,-1.40180504322052,9.639654159545898,20.81298828125,16.6015625,46.93603515625
3.0224999,1.1701661348342896,-0.1412578970193863,9.950302124023438,9.857177734375,7.568359375,22.918701171875
3.0274999,1.4514847993850708,0.7924807667732239,10.144232749938965,-1.64794921875,2.349853515625,-8.087158203125
3.0324999000000004,2.0673930644989014,1.1013327836990356,10.08318042755127,-2.5634765625,18.98193359375,-31.92138671875
3.0374999000000003,2.5779566764831543,0.9169792532920837,9.989806175231934,6.195068359375,38.26904296875,-39.031982421875
3.0424999,2.5725696086883545,0.4967968463897705,9.927556991577148,3.5400390625,41.900634765625,-48.858642578125
3.0474999,1.8818424940109253,0.02214636653661728,9.88386344909668,-1.739501953125,29.296875,-58.807373046875
3.0524999000000004,-0.8331822156906128,0.21188685297966003,10.062829971313477,-33.14208984375,-3.11279296875,-65.216064453125
3.0574999000000003,-1.9841946363449097,0.20051439106464386,9.99100399017334,-26.55029296875,-7.415771484375,-51.422119140625
3.0624999,-2.8185739517211914,-0.2819172441959381,9.776124000549316,-23.98681640625,-20.782470703125,-9.490966796875
3.0674999,-2.7252001762390137,-0.7457938194274902,9.701305389404297,-16.143798828125,-40.46630859375,33.782958984375
3.0724999000000004,-1.8555063009262085,-1.2599486112594604,9.478046417236328,-9.552001953125,-37.53662109375,42.999267578125
3.0774999000000003,-0.4854243993759155,-1.7489643096923828,9.41759204864502,-1.434326171875,-28.62548828125,42.66357421875
3.0824999,0.7571662664413452,-2.1715409755706787,9.26795482635498,16.998291015625,-28.350830078125,60.333251953125
3.0874999,1.4766238927841187,-2.456450939178467,9.330802917480469,39.947509765625,-15.7470703125,74.0966796875
3.0924999,1.5275006294250488,-2.1505916118621826,9.348160743713379,34.820556640625,12.5732421875,68.29833984375
3.0974999000000003,1.2419921159744263,-1.247977614402771,9.676166534423828,20.263671875,16.693115234375,47.119140625
3.1024999,1.1366472244262695,0.004189853090792894,9.989208221435547,8.636474609375,7.2021484375,20.751953125
3.1074999,1.4598644971847534,0.8523358106613159,10.158597946166992,-2.8076171875,2.38037109375,-12.14599609375
3.1124999,0.5434837937355042,0.4058171808719635,10.016142845153809,-16.11328125,8.392333984375,-71.929931640625
3.1174999000000003,0.5434837937355042,0.4058171808719635,10.016142845153809,-16.11328125,8.392333984375,-71.929931640625
3.1224999,-1.0594342947006226,0.19692309200763702,10.126276016235352,-31.494140625,-4.0283203125,-65.460205078125
3.1274999,-2.1547815799713135,0.31603461503982544,10.050858497619629,-27.7099609375,-9.033203125,-50.10986328125
3.1324999,-2.84790301322937,-0.14484919607639313,9.874286651611328,-22.613525390625,-23.345947265625,-2.288818359375
3.1374999000000003,-2.5761611461639404,-0.6572083830833435,9.676166534423828,-15.56396484375,-41.229248046875,37.200927734375
3.1424999000000002,-1.6023194789886475,-1.2814964056015015,9.467870712280273,-8.148193359375,-35.7666015625,44.586181640625
3.1474999,-0.22385786473751068,-1.8668787479400635,9.346364974975586,2.593994140625,-27.801513671875,45.196533203125
3.1524999,0.9301473498344421,-2.31758713722229,9.247005462646484,22.186279296875,-26.763916015625,62.164306640625
3.1574999000000004,1.467047095298767,-2.0638017654418945,9.406818389892578,31.829833984375,14.2822265625,64.483642578125
3.1624999000000003,1.1749545335769653,-1.0348936319351196,9.757569313049316,18.463134765625,15.350341796875,42.3583984375
3.1674999,1.1378443241119385,0.20111294090747833,10.044873237609863,6.561279296875,5.37109375,14.862060546875
3.1724999,1.5532383918762207,0.9457096457481384,10.160991668701172,-3.662109375,4.150390625,-18.157958984375
3.1774999000000004,2.234987258911133,1.0396820306777954,10.084976196289062,-0.1220703125,27.313232421875,-36.07177734375
3.1824999000000003,2.671929121017456,0.750582218170166,9.971850395202637,7.38525390625,42.327880859375,-42.938232421875
3.1874999,2.4618380069732666,0.28730419278144836,9.930550575256348,2.3193359375,39.581298828125,-52.67333984375
3.1924999,1.6735470294952393,-0.12270283699035645,9.828198432922363,-2.62451171875,23.834228515625,-64.51416015625
3.1974999000000004,0.3196259140968323,0.2759317457675934,10.046070098876953,-21.759033203125,4.57763671875,-72.75390625
3.2024999000000003,-0.06703764945268631,-1.8142063617706299,9.307458877563477,4.425048828125,-27.28271484375,47.7294921875
3.2074999,1.0313023328781128,-2.2385785579681396,9.260771751403809,26.275634765625,-26.30615234375,65.185546875
3.2124999,1.5173252820968628,-2.3582887649536133,9.327211380004883,40.22216796875,-6.89697265625,71.563720703125
3.2174999,1.426345705986023,-1.8668787479400635,9.454702377319336,29.083251953125,16.66259765625,60.1806640625
3.2224999000000003,1.1761516332626343,-0.7972691655158997,9.813234329223633,16.90673828125,14.46533203125,37.567138671875
3.2274999,1.2324153184890747,0.3627215623855591,10.089165687561035,4.08935546875,4.669189453125,9.09423828125
3.2324999,1.7004817724227905,0.9894038438796997,10.149619102478027,-4.241943359375,7.293701171875,-23.193359375
3.2374999,2.3499090671539307,1.0031704902648926,10.072406768798828,1.556396484375,31.646728515625,-37.811279296875
3.2424999000000003,2.654571056365967,0.6697779297828674,9.965266227722168,6.805419921875,43.548583984375,-45.10498046875
3.2474999,2.2858641147613525,0.20111294090747833,9.938331604003906,1.312255859375,37.322998046875,-54.38232421875
3.2524999,1.3557167053222656,0.3645172119140625,9.622296333312988,-3.509521484375,20.1416015625,-66.95556640625
3.2574999,-1.5119383335113525,0.4818331003189087,9.84615421295166,-27.83203125,-4.94384765625,-60.394287109375
3.2624999000000003,-2.519298791885376,0.10295066982507706,9.913790702819824,-27.862548828125,-12.51220703125,-36.407470703125
3.2674999000000002,-2.8568811416625977,-0.5069721937179565,9.966463088989258,-18.524169921875,-31.524658203125,17.51708984375
3.2724999,-2.3080103397369385,-1.0384849309921265,9.739612579345703,-14.129638671875,-41.8701171875,41.839599609375
3.2774999,-1.1174936294555664,-1.6765397787094116,9.644442558288574,-5.767822265625,-32.196044921875,43.51806640625
3.2824999000000004,1.237802267074585,-2.4839842319488525,9.343372344970703,31.890869140625,-23.4375,68.115234375
3.2874999000000003,1.567603588104248,-2.3756465911865234,9.346364974975586,38.51318359375,-1.251220703125,71.044921875
3.2924999,1.367687702178955,-1.677138328552246,9.498994827270508,25.543212890625,17.15087890625,55.877685546875
3.2974999,1.1204863786697388,-0.4920084476470947,9.852738380432129,14.46533203125,11.993408203125,32.71484375
3.3024999000000004,1.2270283699035645,0.595557689666748,10.087369918823242,1.953125,2.838134765625,3.692626953125
3.3074999000000003,1.7483657598495483,1.0767922401428223,10.097545623779297,-3.936767578125,10.406494140625,-26.4892578125
3.3124999,2.3768436908721924,0.9768342971801758,10.043676376342773,3.0517578125,34.027099609375,-37.9638671875
3.3174999,2.585139274597168,0.5931634902954102,9.944316864013672,6.195068359375,42.8466796875,-44.525146484375
3.3224999000000004,2.122459888458252,0.11372458189725876,9.943717956542969,0.885009765625,34.393310546875,-53.77197265625
3.3274999000000003,1.1815385818481445,0.32620999217033386,9.833584785461426,-4.486083984375,17.547607421875,-67.169189453125
3.3324999,-0.3058592677116394,0.3429693877696991,10.073603630065918,-30.3955078125,-0.54931640625,-69.732666015625
3.3374999,-1.569997787475586,0.41120412945747375,9.946112632751465,-26.123046875,-4.82177734375,-57.6171875
3.3424999,-2.501342296600342,0.07541735470294952,9.810839653015137,-27.52685546875,-14.2822265625,-29.815673828125
3.3474999000000003,-2.6868927478790283,-0.4950011968612671,9.786299705505371,-17.974853515625,-32.501220703125,22.0947265625
3.3524999,-2.0482394695281982,-1.028908133506775,9.53849983215332,-14.068603515625,-39.6728515625,41.534423828125
3.3574999,-0.8523358106613159,-1.6789339780807495,9.502586364746094,-5.43212890625,-30.303955078125,42.78564453125
3.3624999,0.43275195360183716,-2.1775264739990234,9.350554466247559,12.115478515625,-26.092529296875,53.314208984375
3.3674999000000003,1.2910733222961426,-2.5121161937713623,9.333196640014648,33.843994140625,-21.91162109375,67.047119140625
3.3724999,1.5047557353973389,-2.33913516998291,9.371503829956055,36.80419921875,0.274658203125,66.7724609375
3.3774999,1.2671312093734741,-1.6190788745880127,9.592967987060547,24.169921875,15.31982421875,50.78125
3.3824999,1.058835744857788,-0.42616790533065796,9.93354320526123,13.763427734375,10.25390625,28.076171875
3.3874999000000003,1.2342109680175781,0.6200982332229614,10.150816917419434,1.46484375,2.899169921875,0
3.3924999000000002,1.801636815071106,1.0594342947006226,10.138845443725586,-3.60107421875,13.397216796875,-28.4423828125
3.3974999,2.403778553009033,0.9289502501487732,10.058639526367188,4.150390625,36.163330078125,-37.689208984375
3.4024999,2.542043685913086,0.5542576909065247,9.951498985290527,6.2255859375,42.41943359375,-44.25048828125
3.4074999000000004,2.011728048324585,0.06584054976701736,9.921571731567383,0.640869140625,33.050537109375,-54.779052734375
3.4124999000000003,1.0342950820922852,0.2902969419956207,9.9371337890625,-5.9814453125,16.326904296875,-69.183349609375
3.4174999,-0.46088382601737976,0.2783259451389313,10.107122421264648,-31.494140625,-1.5869140625,-69.51904296875
3.4224999,-1.6711528301239014,0.3471592366695404,10.04307746887207,-25.2685546875,-5.7373046875,-55.72509765625
3.4274999000000004,-2.541445016860962,0.04010287672281265,9.801861763000488,-26.79443359375,-15.5029296875,-24.749755859375
3.4324999000000003,-2.6581623554229736,-0.5303156971931458,9.743204116821289,-17.2119140625,-34.515380859375,25.7568359375
3.4374999,-0.729034423828125,-1.6938977241516113,9.440337181091309,-3.814697265625,-29.205322265625,41.9921875
3.4424999,0.5404910445213318,-2.1697452068328857,9.29189682006836,13.97705078125,-25.2685546875,53.314208984375
3.4474999000000004,1.3389573097229004,-2.475006103515625,9.323619842529297,34.698486328125,-20.355224609375,67.108154296875
3.4524999000000003,1.499967336654663,-2.253542423248291,9.374496459960938,35.186767578125,2.532958984375,65.97900390625
3.4574999,1.2336124181747437,-1.4850035905838013,9.634865760803223,22.552490234375,15.0146484375,48.76708984375
3.4624999,1.036689281463623,-0.29149407148361206,9.968857765197754,12.3291015625,9.307861328125,25.2685546875
3.4674999,1.2395979166030884,0.6955155730247498,10.162189483642578,0.640869140625,2.685546875,-3.2958984375
3.4724999000000003,1.8291701078414917,1.0654197931289673,10.136451721191406,-3.265380859375,15.44189453125,-29.84619140625
3.4774999,2.3924059867858887,0.8978256583213806,10.04846477508545,4.82177734375,37.017822265625,-36.773681640625
3.4824999,2.4666264057159424,0.5159504413604736,9.959280967712402,5.767822265625,41.229248046875,-43.304443359375
3.4874999,1.8926163911819458,0.03711012750864029,9.916184425354004,0.42724609375,31.707763671875,-54.656982421875
3.4924999000000003,0.8756792545318604,0.3387795388698578,9.9371337890625,-7.598876953125,14.801025390625,-69.64111328125
3.4974999,-1.725022315979004,0.32022446393966675,10.075399398803711,-25.787353515625,-5.859375,-54.87060546875
3.5024999,-2.542043685913086,-0.0017956512747332454,9.808445930480957,-27.28271484375,-16.754150390625,-20.355224609375
3.5074999,-2.5534160137176514,-0.619499683380127,9.790489196777344,-18.37158203125,-36.07177734375,28.778076171875
3.5124999000000003,-1.8034324645996094,-1.1049240827560425,9.475052833557129,-13.214111328125,-38.238525390625,42.999267578125
3.5174999000000002,-0.5578489899635315,-1.754351258277893,9.376891136169434,-2.899169921875,-28.839111328125,42.90771484375
3.5224999,1.48081374168396,-2.2230162620544434,9.333795547485352,35.09521484375,4.730224609375,67.596435546875
3.5274999,1.1713632345199585,-1.4131776094436646,9.643844604492188,22.4609375,15.716552734375,48.492431640625
3.5324999000000004,0.9870096445083618,-0.18136078119277954,9.999382972717285,11.77978515625,8.575439453125,23.5595703125
3.5374999000000003,1.247977614402771,0.7823054194450378,10.190919876098633,-0.762939453125,2.532958984375,-6.591796875
3.5424999,1.9129672050476074,1.106719732284546,10.159794807434082,-3.173828125,18.61572265625,-32.623291015625
3.5474999,2.5234885215759277,0.5147533416748047,9.984419822692871,5.18798828125,42.205810546875,-46.875
3.5524999000000004,1.8477251529693604,0,9.898826599121094,-0.335693359375,29.998779296875,-59.051513671875
3.5574999000000003,0.7344213724136353,0.4537012279033661,9.965266227722168,-11.932373046875,11.474609375,-73.3642578125
3.5624999,-0.8355764150619507,0.2849099934101105,10.106523513793945,-32.958984375,-3.90625,-69.061279296875
3.5674999,-1.9518729448318481,0.3519476354122162,10.101137161254883,-27.4658203125,-7.598876953125,-53.314208984375
3.5724999000000004,-2.738368272781372,-0.05746084079146385,9.895236015319824,-26.702880859375,-20.599365234375,-11.77978515625
3.5774999000000003,-2.58274507522583,-0.7194576263427734,9.822811126708984,-18.280029296875,-40.71044921875,34.423828125
3.5824999,-1.679532527923584,-1.291671872138977,9.510367393493652,-11.29150390625,-37.9638671875,44.25048828125
3.5874999,-0.314238965511322,-1.9267338514328003,9.31045150756836,0.274658203125,-27.740478515625,44.525146484375
3.5924999,0.9373299479484558,-2.4025814533233643,9.141660690307617,22.0947265625,-24.658203125,61.004638671875
3.5974999000000003,1.5735890865325928,-2.5947160720825195,9.165602684020996,40.924072265625,-14.58740234375,73.577880859375
3.6024999,1.5412673950195312,-2.184110403060913,9.279925346374512,33.966064453125,10.101318359375,67.169189453125
3.6074999,1.0223240852355957,0.07661445438861847,10.0580415725708,8.9111328125,6.28662109375,17.669677734375
3.6124999,1.3640964031219482,0.9498994946479797,10.219650268554688,-2.655029296875,3.2958984375,-14.312744140625
3.6174999000000003,2.054823637008667,1.138442873954773,10.181343078613281,-1.77001953125,24.871826171875,-36.224365234375
3.6224999,2.558803081512451,0.8834604024887085,10.043676376342773,7.32421875,42.3583984375,-41.748046875
3.6274999,2.455253839492798,0.4016273319721222,9.989806175231934,4.180908203125,40.740966796875,-50.262451171875
3.6324999,1.6915035247802734,-0.09636662155389786,9.852738380432129,-1.46484375,26.214599609375,-63.995361328125
3.6374999000000003,0.4315548539161682,0.30047231912612915,10.019135475158691,-18.798828125,6.500244140625,-75.13427734375
3.6424999000000002,-1.1127052307128906,0.13946224749088287,10.061633110046387,-30.914306640625,-5.035400390625,-65.73486328125
3.6474999,-2.1721394062042236,0.20111294090747833,9.947309494018555,-28.289794921875,-9.185791015625,-47.7294921875
3.6524999,-2.80899715423584,-0.14006079733371735,9.786897659301758,-22.03369140625,-24.658203125,3.0517578125
3.6574999000000004,-2.469619035720825,-0.7368155717849731,9.576208114624023,-16.143798828125,-42.8466796875,39.73388671875
3.6624999000000003,-1.4413094520568848,-1.3048399686813354,9.385869026184082,-7.32421875,-34.942626953125,43.27392578125
3.6674999,1.0809820890426636,-2.364274263381958,9.218873977661133,24.96337890625,-23.37646484375,62.5
3.6724999,1.6035165786743164,-2.4690206050872803,9.304466247558594,38.970947265625,-8.97216796875,71.35009765625
3.6774999000000004,1.492186188697815,-1.9482816457748413,9.431957244873047,29.9072265625,14.312744140625,60.394287109375
3.6824999000000003,1.5430630445480347,1.0402805805206299,10.180145263671875,-3.7841796875,7.080078125,-22.94921875
3.6874999,2.162562608718872,1.0863690376281738,10.121487617492676,0.946044921875,30.8837890625,-37.109375
3.6924999,2.477400302886963,0.7589619159698486,10.013150215148926,7.354736328125,41.80908203125,-41.656494140625
3.6974999000000004,2.169146776199341,0.24779987335205078,9.960477828979492,2.685546875,36.376953125,-51.6357421875
3.7024999000000003,1.3012486696243286,0.23403321206569672,9.64923095703125,-3.021240234375,20.416259765625,-66.0400390625
3.7074999,-0.02454056777060032,0.3208230137825012,9.939528465270996,-26.0009765625,0.9765625,-71.380615234375
3.7124999,-1.413776159286499,0.33997663855552673,9.86111831665039,-27.03857421875,-4.94384765625,-58.258056640625
3.7174999,-2.346317768096924,0.03531447425484657,9.84376049041748,-28.74755859375,-11.749267578125,-38.238525390625
3.7224999000000003,-2.7335798740386963,-0.6440402865409851,9.916783332824707,-19.47021484375,-30.059814453125,15.838623046875
3.7274999,-2.208651065826416,-1.0091559886932373,9.619902610778809,-15.31982421875,-42.510986328125,41.717529296875
3.7324999,-2.208651065826416,-1.0091559886932373,9.619902610778809,-15.31982421875,-42.510986328125,41.717529296875
3.7374999,-1.0672154426574707,-1.6502034664154053,9.552865028381348,-3.753662109375,-31.55517578125,41.50390625
3.7424999000000003,0.2819172441959381,-1.944091796875,9.348160743713379,6.439208984375,-23.62060546875,46.630859375
3.7474999,1.2551602125167847,-2.2242133617401123,9.294290542602539,27.099609375,-23.590087890625,65.704345703125
3.7524999,1.5867571830749512,-2.2020668983459473,9.348160743713379,37.384033203125,-4.364013671875,70.98388671875
3.7574999,1.380257248878479,-1.6496049165725708,9.477447509765625,26.85546875,15.19775390625,56.427001953125
3.7624999000000003,1.083974838256836,-0.6476315855979919,9.831789016723633,15.594482421875,11.29150390625,31.06689453125
3.7674999000000002,1.1516109704971313,0.44352585077285767,10.095151901245117,3.265380859375,2.86865234375,3.90625
3.7724999,1.6424223184585571,0.9786299467086792,10.139444351196289,-3.90625,9.857177734375,-25.2685546875
3.7774999,2.255936622619629,0.9403226971626282,10.077195167541504,2.044677734375,32.989501953125,-36.773681640625
3.7824999000000004,2.050633668899536,0.12270283699035645,9.942521095275879,2.288818359375,35.491943359375,-51.7578125
3.7874999000000003,2.050633668899536,0.12270283699035645,9.942521095275879,2.288818359375,35.491943359375,-51.7578125
3.7924999,1.1402385234832764,0.2663549482822418,9.851541519165039,-3.84521484375,18.73779296875,-66.10107421875
3.7974999,-0.2753331959247589,0.30286651849746704,10.072406768798828,-28.99169921875,-0.762939453125,-68.939208984375
3.8024999000000004,-1.5101426839828491,0.4339490532875061,10.006566047668457,-25.2685546875,-4.364013671875,-55.511474609375
3.8074999000000003,-2.4139537811279297,0.025737667456269264,9.892242431640625,-29.510498046875,-13.824462890625,-31.463623046875
3.8124999,-2.5749640464782715,-0.4836287498474121,9.86351203918457,-18.280029296875,-32.958984375,23.651123046875
3.8174999,-1.9512743949890137,-1.082777738571167,9.57441234588623,-15.106201171875,-41.107177734375,42.755126953125
3.8224999000000004,-0.727837324142456,-1.7184382677078247,9.485827445983887,-3.448486328125,-29.266357421875,41.68701171875
3.8274999000000003,0.5518634915351868,-2.166752576828003,9.282918930053711,12.054443359375,-23.406982421875,51.8798828125
3.8324999,1.3964180946350098,-2.4672248363494873,9.260771751403809,33.050537109375,-20.5078125,68.511962890625
3.8374999,1.5616180896759033,-2.2900538444519043,9.318831443786621,36.651611328125,0.79345703125,69.27490234375
3.8424999,1.1558008193969727,0.6434416770935059,10.162189483642578,1.15966796875,2.410888671875,-2.5634765625
3.8474999000000003,1.1558008193969727,0.6434416770935059,10.162189483642578,1.15966796875,2.410888671875,-2.5634765625
3.8524999,1.7274165153503418,1.0761936902999878,10.180145263671875,-3.570556640625,15.106201171875,-30.303955078125
3.8574999,2.3313539028167725,0.9241618514060974,10.087968826293945,4.45556640625,37.17041015625,-38.14697265625
3.8624999,2.472013235092163,0.558447539806366,9.999981880187988,7.171630859375,42.266845703125,-44.43359375
3.8674999000000003,1.9117701053619385,0.03531447425484657,9.931747436523438,1.0986328125,32.1044921875,-56.21337890625
3.8724999,0.9085995554924011,0.20889410376548767,9.909002304077148,-7.537841796875,13.7939453125,-70.831298828125
3.8774999,-0.5961562395095825,0.26396074891090393,10.064026832580566,-32.16552734375,-3.7841796875,-68.389892578125
3.8824999,-1.7729063034057617,0.3148375153541565,9.971251487731934,-25.115966796875,-5.92041015625,-54.229736328125
3.8874999000000003,-2.580949544906616,0.023343466222286224,9.747393608093262,-28.594970703125,-17.02880859375,-25.115966796875
3.8924999000000002,-2.5911247730255127,-0.5913678407669067,9.683348655700684,-17.333984375,-36.62109375,30.2734375
3.8974999,-1.8034324645996094,-1.0630255937576294,9.363123893737793,-12.39013671875,-39.947509765625,44.891357421875
3.9024999,1.4389152526855469,-2.3576900959014893,9.350554466247559,33.355712890625,-19.1650390625,69.488525390625
3.9074999000000004,1.5245078802108765,-2.1122844219207764,9.41519832611084,34.3017578125,3.96728515625,68.42041015625
3.9124999000000003,1.2168530225753784,-1.371279001235962,9.677363395690918,23.040771484375,16.143798828125,48.88916015625
3.9174999,1.0247182846069336,-0.21667525172233582,9.979032516479492,11.23046875,8.026123046875,22.064208984375
3.9224999,1.7537527084350586,-0.03770867735147476,9.889848709106445,-0.3662109375,29.022216796875,-59.326171875
3.9274999000000004,0.6272808313369751,0.38486793637275696,9.95329475402832,-13.519287109375,9.490966796875,-71.868896484375
3.9324999000000003,-0.9487023949623108,0.28550854325294495,10.093356132507324,-31.097412109375,-4.119873046875,-64.63623046875
3.9374999,-2.7269957065582275,-0.0628477931022644,9.839570045471191,-27.099609375,-20.660400390625,-11.993408203125
3.9424999,-2.456450939178467,-0.7781155705451965,9.77672290802002,-17.120361328125,-41.046142578125,37.689208984375
3.9474999000000004,-1.5406688451766968,-1.2826935052871704,9.39784049987793,-9.307861328125,-36.895751953125,45.0439453125
3.9524999000000003,-0.1711854189634323,-1.8997989892959595,9.312846183776855,4.638671875,-25.146484375,43.487548828125
3.9574999,0.973242998123169,-2.2415714263916016,9.179967880249023,18.707275390625,-22.94921875,58.563232421875
3.9624999,1.5352818965911865,-2.3930046558380127,9.26675796508789,36.102294921875,-15.472412109375,70.953369140625
3.9674999000000004,1.4616601467132568,-2.011129379272461,9.37509536743164,32.440185546875,8.819580078125,65.338134765625
3.9724999000000003,1.1073182821273804,-1.1605892181396484,9.718064308166504,20.81298828125,15.19775390625,42.78564453125
3.9774999,0.9744400978088379,0.04189852997660637,10.013748168945312,8.48388671875,5.828857421875,16.11328125
3.9824999,1.335964560508728,0.8637082576751709,10.182539939880371,-2.288818359375,3.570556640625,-14.7705078125
3.9874999,1.9949685335159302,1.0414776802062988,10.14782428741455,-1.739501953125,24.139404296875,-35.186767578125
3.9924999000000003,2.471414804458618,0.8152256608009338,10.042478561401367,6.622314453125,40.557861328125,-39.154052734375
3.9974999,-1.2862848043441772,-1.2761094570159912,9.384672164916992,-7.50732421875,-34.698486328125,44.647216796875
4.0024999,0.0628477931022644,-1.9434932470321655,9.246406555175781,6.744384765625,-23.712158203125,45.562744140625
4.0074999,1.1354501247406006,-2.322375535964966,9.125499725341797,23.468017578125,-23.284912109375,62.01171875
4.0124999,1.5735890865325928,-2.433107376098633,9.203909873962402,37.9638671875,-11.41357421875,72.021484375
4.0174999,1.4101848602294922,-1.9764134883880615,9.366715431213379,31.6162109375,12.481689453125,63.385009765625
4.022499900000001,1.0384849309921265,-1.0199298858642578,9.752182006835938,19.34814453125,14.129638671875,39.093017578125
4.0274999000000005,1.4257471561431885,0.13706804811954498,9.805453300476074,-2.8076171875,21.54541015625,-65.582275390625
4.0324999,0.08200141042470932,0.3357867896556854,10.08318042755127,-24.688720703125,2.5634765625,-73.1201171875
4.0374999,-1.3844470977783203,0.37229835987091064,10.066421508789062,-27.587890625,-4.608154296875,-60.36376953125
4.0424999,-2.3301568031311035,0.1843535304069519,10.02811336517334,-29.937744140625,-12.0849609375,-43.0908203125
4.0474999,-2.7461493015289307,-0.2346317619085312,9.93593692779541,-21.942138671875,-27.252197265625,10.7421875
4.0524999,-2.1799206733703613,-0.8720879554748535,9.650428771972656,-16.571044921875,-44.0673828125,43.792724609375
4.0574999,-1.0396820306777954,-1.470638394355774,9.422979354858398,-3.997802734375,-31.6162109375,43.51806640625
4.062499900000001,0.34416648745536804,-2.0865468978881836,9.291297912597656,9.6435546875,-22.4609375,47.36328125
4.0674999000000005,1.3401544094085693,-1.845929503440857,9.451709747314453,29.4189453125,15.7470703125,59.967041015625
4.0724999,0.9846154451370239,-0.7769184708595276,9.819818496704102,16.6015625,12.237548828125,33.905029296875
4.0774999,1.0241197347640991,0.41120412945747375,10.11550235748291,3.60107421875,2.593994140625,5.096435546875
4.0824999,1.5376760959625244,1.0324994325637817,10.201094627380371,-3.7841796875,8.697509765625,-25.5126953125
4.0874999,2.206256866455078,1.025316834449768,10.129867553710938,1.5869140625,32.77587890625,-37.139892578125
4.0924999,2.52109432220459,0.7110779285430908,10.025120735168457,7.26318359375,42.877197265625,-42.144775390625
4.0974999,2.1104888916015625,0.19452889263629913,9.96945571899414,2.044677734375,35.7666015625,-53.436279296875
4.1024999,1.1917139291763306,0.3387795388698578,9.730035781860352,-4.547119140625,17.4560546875,-68.511962890625
4.1074999000000005,-0.2579752206802368,0.3974374830722809,9.992799758911133,-29.754638671875,-0.3662109375,-71.22802734375
4.1124999,-1.5837644338607788,0.45908817648887634,9.939528465270996,-25.970458984375,-4.913330078125,-56.7626953125
4.1174999,-2.454655408859253,0.07422025501728058,9.836577415466309,-31.707763671875,-14.892578125,-34.210205078125
4.1224999,0.5716156363487244,-2.1745336055755615,9.254786491394043,12.664794921875,-22.52197265625,51.483154296875
4.1274999,1.41257905960083,-2.3983914852142334,9.226056098937988,30.45654296875,-22.003173828125,70.037841796875
4.1324999,1.5682021379470825,-2.251148223876953,9.294290542602539,37.994384765625,0.18310546875,73.333740234375
4.1374999,1.2503718137741089,-1.578976035118103,9.515754699707031,26.885986328125,17.578125,56.060791015625
4.1424999,0.9463081955909729,-0.444722980260849,9.894637107849121,13.73291015625,9.70458984375,28.3203125
4.147499900000001,1.1150994300842285,0.6380547285079956,10.166977882385254,1.03759765625,1.678466796875,-2.38037109375
4.1524999000000005,1.7028759717941284,1.095347285270691,10.198101997375488,-3.96728515625,14.2822265625,-30.487060546875
4.1574999,2.3570916652679443,0.9882067441940308,10.114903450012207,3.509521484375,37.109375,-37.841796875
4.1624999,2.5019407272338867,0.606930136680603,10.011354446411133,6.53076171875,42.938232421875,-45.0439453125
4.1674999,0.8774749040603638,0.21847090125083923,9.923966407775879,-8.60595703125,12.847900390625,-72.69287109375
4.1724999,-0.6584054827690125,0.2651578485965729,10.079588890075684,-32.196044921875,-2.44140625,-69.427490234375
4.1774999,-1.824381709098816,0.3166331648826599,9.9772367477417,-26.123046875,-6.866455078125,-53.52783203125
4.1824999,-2.5959131717681885,0.02992752194404602,9.711481094360352,-30.975341796875,-18.524169921875,-21.881103515625
4.187499900000001,-2.539649486541748,-0.6242880821228027,9.709685325622559,-16.754150390625,-38.26904296875,33.75244140625
4.1924999000000005,-1.680729627609253,-1.1378443241119385,9.317035675048828,-12.603759765625,-39.459228515625,44.189453125
4.1974999,-0.3734954595565796,-1.8800468444824219,9.389460563659668,3.204345703125,-26.336669921875,42.877197265625
4.2024999,0.8661024570465088,-2.253542423248291,9.25059700012207,16.754150390625,-23.040771484375,57.31201171875
4.2074999,1.547252893447876,-2.4594438076019287,9.312247276306152,34.48486328125,-18.707275390625,73.333740234375
4.2124999,1.5466543436050415,-2.1739351749420166,9.40023422241211,36.07177734375,7.01904296875,71.685791015625
4.2174999,1.1623848676681519,-1.3706804513931274,9.694721221923828,23.651123046875,17.27294921875,50.10986328125
4.2224999,0.945111095905304,-0.1538274586200714,10.00836181640625,10.3759765625,6.622314453125,21.05712890625
4.2274999,2.431311845779419,0.47584760189056396,9.983222961425781,4.913330078125,41.717529296875,-48.248291015625
4.2324999000000005,1.6968904733657837,-0.05746084079146385,9.880271911621094,-0.762939453125,26.885986328125,-62.07275390625
4.2374999,0.5321113467216492,0.34416648745536804,9.93474006652832,-15.5029296875,8.392333984375,-74.737548828125
4.2424999,-2.0422539710998535,0.25019407272338867,10.023324966430664,-27.862548828125,-9.1552734375,-50.23193359375
4.2474999,-2.697068214416504,-0.1041477769613266,9.795876502990723,-26.885986328125,-21.8505859375,-7.781982421875
4.2524999,-2.3714568614959717,-0.8032546639442444,9.745597839355469,-16.265869140625,-42.17529296875,40.435791015625
4.2574999,-1.4119805097579956,-1.3365631103515625,9.360730171203613,-8.148193359375,-35.82763671875,44.677734375
4.2624999,-0.04369417950510979,-1.954267144203186,9.271546363830566,6.744384765625,-25.0244140625,45.562744140625
4.2674999,1.0696096420288086,-2.321178436279297,9.150040626525879,22.674560546875,-23.92578125,62.5
4.272499900000001,1.4538789987564087,-2.006939649581909,9.379284858703613,32.958984375,13.61083984375,67.68798828125
4.2774999000000005,1.092953085899353,-1.0456676483154297,9.755773544311523,19.927978515625,15.716552734375,43.121337890625
4.2824999,1.0187327861785889,0.2148796021938324,10.053253173828125,6.317138671875,4.486083984375,13.336181640625
4.2874999,1.4311341047286987,0.9894038438796997,10.208277702331543,-3.631591796875,4.852294921875,-19.8974609375
4.2924999,2.123058319091797,1.1037269830703735,10.134655952453613,-0.701904296875,27.77099609375,-36.590576171875
4.2974999,2.5546131134033203,0.8409633636474609,10.034697532653809,7.50732421875,42.66357421875,-41.07666015625
4.3024999,2.5546131134033203,0.8409633636474609,10.034697532653809,7.50732421875,42.66357421875,-41.07666015625
4.3074999,2.300827741622925,0.33039984107017517,9.978434562683105,3.021240234375,38.360595703125,-52.337646484375
4.312499900000001,1.456871747970581,0.04967968538403511,9.843161582946777,-3.265380859375,20.843505859375,-67.0166015625
4.3174999000000005,0.08259996026754379,0.33099839091300964,10.081384658813477,-24.71923828125,2.593994140625,-74.188232421875
4.3224999,-2.3959972858428955,0.20231004059314728,9.94970417022705,-30.21240234375,-12.3291015625,-42.266845703125
4.3274999,-2.3959972858428955,0.20231004059314728,9.94970417022705,-30.21240234375,-12.3291015625,-42.266845703125
4.3324999,-1.0492589473724365,-1.4742296934127808,9.336788177490234,-6.011962890625,-32.28759765625,44.5556640625
4.3374999,-1.0492589473724365,-1.4742296934127808,9.336788177490234,-6.011962890625,-32.28759765625,44.5556640625
4.3424999,0.3387795388698578,-2.103306293487549,9.206902503967285,10.772705078125,-25.32958984375,52.764892578125
4.3474999,1.3263877630233765,-2.497152328491211,9.149441719055176,31.6162109375,-24.017333984375,71.136474609375
4.352499900000001,1.6035165786743164,-2.451063871383667,9.220070838928223,39.1845703125,-2.74658203125,77.972412109375
4.3574999000000005,1.3227964639663696,-1.8363527059555054,9.463082313537598,28.656005859375,18.096923828125,64.300537109375
4.3624999,0.9726444482803345,-0.6901286244392395,9.876082420349121,16.05224609375,11.8408203125,37.4755859375
4.3674999,1.0642226934432983,0.5039794445037842,10.156203269958496,2.471923828125,2.01416015625,5.584716796875
4.3724999,1.625662922859192,1.0696096420288086,10.214262962341309,-4.57763671875,9.58251953125,-27.679443359375
4.3774999,2.3732523918151855,1.0534487962722778,10.113706588745117,2.38037109375,34.7900390625,-39.24560546875
4.3824999,2.647388458251953,0.6973112225532532,10.00716495513916,6.500244140625,45.196533203125,-45.654296875
4.3874999,2.1553800106048584,0.1628057211637497,9.95329475402832,1.373291015625,34.881591796875,-56.304931640625
4.3924999,-0.4878185987472534,0.3172317147254944,10.063427925109863,-32.40966796875,-2.288818359375,-71.990966796875
4.397499900000001,-1.778891921043396,0.3148375153541565,9.91738224029541,-28.01513671875,-6.072998046875,-57.2509765625
4.4024999000000005,-2.6623523235321045,-0.013766659423708916,9.701904296875,-29.754638671875,-17.486572265625,-26.397705078125
4.4074999,-2.667739152908325,-0.6739677786827087,9.690531730651855,-16.998291015625,-36.0107421875,26.153564453125
4.4124999,-1.8465280532836914,-1.2342109680175781,9.431957244873047,-11.199951171875,-39.031982421875,41.9921875
4.4174999,-0.48602294921875,-1.9057846069335938,9.372700691223145,-2.25830078125,-27.740478515625,43.51806640625
4.4224999,0.8271966576576233,-2.3307554721832275,9.290101051330566,17.242431640625,-24.505615234375,59.02099609375
4.4274999,1.5849615335464478,-2.5342624187469482,9.267355918884277,36.468505859375,-18.768310546875,73.760986328125
4.4324999,1.6202759742736816,-2.207453966140747,9.342175483703613,35.430908203125,5.79833984375,72.540283203125
4.437499900000001,1.216254472732544,-1.3880383968353271,9.657610893249512,22.857666015625,16.54052734375,52.398681640625
4.4424999000000005,0.9289502501487732,-0.1454477459192276,9.988609313964844,11.29150390625,6.988525390625,25.115966796875
4.4474999,1.1426327228546143,0.823006808757782,10.202890396118164,-0.6103515625,1.8310546875,-6.988525390625
4.4524999,2.390610456466675,0.933738648891449,10.066421508789062,5.462646484375,38.63525390625,-36.651611328125
4.4574999,2.390610456466675,0.933738648891449,10.066421508789062,5.462646484375,38.63525390625,-36.651611328125
4.4624999,2.433107376098633,0.4884171485900879,9.96945571899414,5.584716796875,41.32080078125,-44.097900390625
4.4674999,1.7423802614212036,-0.02753331884741783,9.898228645324707,-0.274658203125,28.50341796875,-56.182861328125
4.4724999,0.6063315868377686,0.4207809567451477,9.916783332824707,-9.979248046875,9.735107421875,-69.64111328125
4.477499900000001,-0.9289502501487732,0.25677812099456787,10.047865867614746,-31.463623046875,-4.08935546875,-67.19970703125
4.4824999000000005,-1.9734207391738892,0.3010708689689636,9.977835655212402,-26.092529296875,-7.110595703125,-50.811767578125
4.4874999,-2.607285737991333,-0.07122749835252762,9.762955665588379,-23.8037109375,-19.744873046875,-10.55908203125
4.4924999,-2.3523032665252686,-0.7835025191307068,9.70310115814209,-15.838623046875,-37.59765625,30.57861328125
4.4974999,-1.4173674583435059,-1.3000515699386597,9.457695007324219,-9.490966796875,-33.905029296875,39.0625
4.5024999,-0.1173158809542656,-1.8854337930679321,9.307458877563477,0.06103515625,-24.993896484375,42.877197265625
4.5074999,1.0007762908935547,-2.29484224319458,9.282918930053711,20.965576171875,-24.59716796875,60.699462890625
4.5124999,1.5292962789535522,-2.3780407905578613,9.284713745117188,35.308837890625,-14.892578125,71.71630859375
4.5174999,1.0450690984725952,-1.0791864395141602,9.739612579345703,18.73779296875,12.939453125,45.59326171875
4.522499900000001,1.0450690984725952,-1.0791864395141602,9.739612579345703,18.73779296875,12.939453125,45.59326171875
4.5274999000000005,0.9074024558067322,0.08738835901021957,10.007762908935547,9.002685546875,5.4931640625,20.355224609375
4.5324999,1.2641384601593018,0.8379706144332886,10.155006408691406,-1.0986328125,3.173828125,-11.566162109375
4.5374999,1.9626468420028687,0.9702502489089966,10.108918190002441,-1.983642578125,21.514892578125,-33.0810546875
4.5424999,2.4594438076019287,0.739209771156311,10.01075553894043,6.7138671875,38.848876953125,-34.85107421875
4.5474999,2.3546974658966064,0.3298012912273407,9.94970417022705,4.45556640625,38.75732421875,-43.02978515625
4.5524999,1.5406688451766968,-0.1107318252325058,9.88625717163086,-1.28173828125,25.20751953125,-55.145263671875
4.5574999,0.3669114112854004,0.5219359993934631,9.953893661499023,-12.6953125,7.14111328125,-67.474365234375
4.562499900000001,-1.113303780555725,0.27653029561042786,10.067618370056152,-31.06689453125,-4.21142578125,-63.201904296875
4.5674999000000005,-2.0703859329223633,0.39384618401527405,10.013150215148926,-26.214599609375,-6.927490234375,-46.142578125
4.5724999,-2.5468320846557617,-0.0628477931022644,9.79408073425293,-22.857666015625,-20.56884765625,-7.4462890625
4.5774999,-2.18770170211792,-0.8355764150619507,9.712677955627441,-15.869140625,-37.872314453125,31.73828125
4.5824999,0.1346738487482071,-2.0428526401519775,9.252392768859863,3.23486328125,-23.834228515625,45.562744140625
4.5874999,1.1480196714401245,-2.453458309173584,9.260771751403809,24.810791015625,-24.078369140625,63.446044921875
4.5924999,1.4969745874404907,-2.412158250808716,9.282918930053711,35.82763671875,-12.237548828125,72.113037109375
4.5974999,1.2868833541870117,-1.8926163911819458,9.43255615234375,27.2216796875,8.85009765625,63.3544921875
4.602499900000001,0.8870517015457153,-0.9014169573783875,9.80904483795166,17.303466796875,10.92529296875,42.572021484375
4.6074999000000005,0.8505401611328125,0.28131869435310364,10.037092208862305,8.087158203125,4.69970703125,17.974853515625
4.6124999,1.3138182163238525,0.9469067454338074,10.145429611206055,-2.50244140625,4.486083984375,-15.19775390625
4.6174999,2.0602104663848877,1.0372878313064575,10.118494987487793,-1.190185546875,24.90234375,-34.0576171875
4.6224999,2.515707492828369,0.7182605266571045,9.990405082702637,6.8359375,40.252685546875,-36.102294921875
4.6274999,2.318185806274414,0.2908954918384552,9.96945571899414,3.997802734375,37.811279296875,-45.41015625
4.6324999,1.4562731981277466,-0.17657238245010376,9.856329917907715,-1.312255859375,22.64404296875,-58.258056640625
4.6374999,-1.2407950162887573,0.20231004059314728,10.084976196289062,-32.1044921875,-3.875732421875,-62.98828125
4.6424999,-2.188300371170044,0.47824180126190186,10.019734382629395,-26.9775390625,-7.87353515625,-46.051025390625
4.647499900000001,-2.5755624771118164,-0.033518824726343155,9.806650161743164,-23.25439453125,-22.552490234375,-6.378173828125
4.6524999000000005,-2.1266496181488037,-0.7248445749282837,9.652822494506836,-15.68603515625,-37.90283203125,34.576416015625
4.6574999,-0.9558850526809692,-1.534683346748352,9.311050415039062,-10.528564453125,-32.257080078125,43.548583984375
4.6624999,0.35434186458587646,-2.184110403060913,9.154829025268555,8.1787109375,-23.284912109375,51.239013671875
4.6674999,1.2850877046585083,-2.627037763595581,9.167996406555176,30.21240234375,-22.216796875,66.22314453125
4.6724999,1.5340847969055176,-2.5504233837127686,9.223063468933105,36.468505859375,-9.8876953125,70.953369140625
4.6774999,1.191115379333496,-1.8872294425964355,9.50857162475586,27.9541015625,10.68115234375,64.39208984375
4.6824999,0.8020575642585754,-0.7966706156730652,9.915586471557617,17.63916015625,11.77978515625,43.609619140625
4.687499900000001,0.829590916633606,0.46088382601737976,10.157401084899902,5.18798828125,4.180908203125,14.5263671875
4.6924999000000005,1.3952209949493408,1.1198878288269043,10.216058731079102,-3.875732421875,5.859375,-19.95849609375
4.6974999,0.038307227194309235,0.3082534670829773,10.152612686157227,-23.98681640625,0.9765625,-74.27978515625
4.7024999,-1.4496891498565674,0.10534487664699554,10.108918190002441,-33.8134765625,-5.615234375,-64.14794921875
4.7074999,-2.4839842319488525,0.18375498056411743,10.086173057556152,-28.80859375,-11.04736328125,-44.097900390625
4.7124999,-2.7940332889556885,-0.34596213698387146,9.853935241699219,-22.76611328125,-28.045654296875,2.62451171875
4.7174999,-2.1559786796569824,-1.0372878313064575,9.618705749511719,-15.56396484375,-40.313720703125,39.459228515625
4.7224999,-0.7984662652015686,-1.8124107122421265,9.223662376403809,-7.232666015625,-31.06689453125,47.2412109375
4.727499900000001,0.5919663906097412,-2.4241292476654053,9.090784072875977,14.7705078125,-22.979736328125,57.647705078125
4.7324999000000005,1.482010841369629,-2.783858060836792,9.08719253540039,35.888671875,-20.599365234375,70.12939453125
4.7374999,1.5723919868469238,-2.5085248947143555,9.220669746398926,37.29248046875,-3.814697265625,72.8759765625
4.7424999,1.544858694076538,1.3341689109802246,10.225635528564453,-4.547119140625,10.650634765625,-27.2216796875
4.7474999,2.3283610343933105,1.1552022695541382,10.09934139251709,3.23486328125,35.21728515625,-38.4521484375
4.7524999,2.625242233276367,0.6955155730247498,9.999981880187988,6.8359375,42.8466796875,-44.189453125
4.7574999,2.1523873805999756,0.10893617570400238,9.93593692779541,2.685546875,32.71484375,-54.229736328125
4.7624999,1.1450269222259521,0.3968389332294464,9.745597839355469,-5.0048828125,15.289306640625,-69.244384765625
4.7674999,-0.3944447338581085,0.34416648745536804,10.056844711303711,-32.073974609375,-3.23486328125,-73.79150390625
4.772499900000001,-1.755548357963562,0.4471171796321869,9.931148529052734,-31.829833984375,-5.55419921875,-61.09619140625
4.7774999000000005,-2.6372132301330566,-0.011971008032560349,9.86111831665039,-28.289794921875,-14.923095703125,-33.599853515625
4.7824999,-2.6886885166168213,-0.790086567401886,9.815030097961426,-20.3857421875,-34.271240234375,17.2119140625
4.7874999,-1.8183962106704712,-1.544858694076538,9.558850288391113,-13.946533203125,-39.36767578125,43.8232421875
4.7924999,1.6053122282028198,-2.844910144805908,9.135675430297852,39.0625,-17.608642578125,73.516845703125
4.7974999,1.5017629861831665,-2.3145945072174072,9.294889450073242,35.33935546875,2.9296875,73.1201171875
4.8024999,0.7715315222740173,0.0011971008498221636,10.093356132507324,11.260986328125,8.23974609375,29.1748046875
4.8074999,1.0720038414001465,1.0205284357070923,10.244789123535156,-1.800537109375,1.861572265625,-5.79833984375
4.812499900000001,1.8543092012405396,1.358709454536438,10.210073471069336,-3.265380859375,18.646240234375,-33.75244140625
4.8174999000000005,2.539050817489624,1.0504560470581055,10.06043529510498,6.2255859375,40.8935546875,-40.771484375
4.8224999,2.6150667667388916,0.5428852438926697,9.988011360168457,5.615234375,42.1142578125,-48.7060546875
4.8274999,1.8896236419677734,-0.05506663769483566,9.874884605407715,0.396728515625,27.099609375,-60.272216796875
4.8324999,0.6829460263252258,0.40282443165779114,10.036493301391602,-11.566162109375,8.97216796875,-74.64599609375
4.8374999,-0.983418345451355,0.20231004059314728,10.126276016235352,-37.4755859375,-6.378173828125,-71.47216796875
4.8424999,-2.8413188457489014,-0.1843535304069519,9.780912399291992,-26.2451171875,-20.93505859375,-17.852783203125
4.8474999,-2.5522189140319824,-0.9301473498344421,9.715670585632324,-15.80810546875,-40.10009765625,31.92138671875
4.852499900000001,-1.3856441974639893,-1.6867151260375977,9.300276756286621,-11.962890625,-35.94970703125,45.440673828125
4.8574999000000005,0.0975637212395668,-2.382829189300537,9.165003776550293,3.814697265625,-24.932861328125,51.116943359375
4.8624999,1.2659341096878052,-2.699462413787842,9.097966194152832,29.052734375,-22.308349609375,67.56591796875
4.8674999,1.6747441291809082,-2.690484046936035,9.196128845214844,41.3818359375,-11.77978515625,76.873779296875
4.8724999,1.3934253454208374,-2.0183119773864746,9.396044731140137,30.09033203125,10.101318359375,67.87109375
4.8774999,0.8930372595787048,-0.8774749040603638,9.862914085388184,19.22607421875,13.916015625,47.637939453125
4.8824999,0.8206126093864441,0.4124012291431427,10.16637897491455,6.561279296875,4.852294921875,17.120361328125
4.8874999,1.2856862545013428,1.1456254720687866,10.24538803100586,-4.364013671875,4.669189453125,-18.524169921875
4.8924999,2.1128830909729004,1.2258312702178955,10.16637897491455,-0.030517578125,28.594970703125,-37.078857421875
4.897499900000001,2.6216509342193604,0.862511157989502,10.034697532653809,8.209228515625,43.51806640625,-42.694091796875
4.9024999000000005,2.390610456466675,0.3387795388698578,9.983222961425781,3.021240234375,37.59765625,-51.727294921875
4.9074999,1.534683346748352,-0.0454898327589035,9.844358444213867,-2.99072265625,20.721435546875,-65.643310546875
4.9124999,0.06763619929552078,0.33937808871269226,10.126874923706055,-23.773193359375,1.46484375,-75.86669921875
4.9174999,-1.4437036514282227,0.10534487664699554,10.077195167541504,-34.210205078125,-6.378173828125,-66.192626953125
4.9224999,-2.491166830062866,0.07841010391712189,9.970054626464844,-28.6865234375,-10.8642578125,-46.0205078125
4.9274999,-2.8161797523498535,-0.3932476341724396,9.761159896850586,-20.843505859375,-28.656005859375,4.21142578125
4.9324999,-2.1787235736846924,-1.1192892789840698,9.526528358459473,-14.34326171875,-41.44287109375,40.679931640625
4.937499900000001,-0.8224082589149475,-1.7764976024627686,9.211690902709961,-7.110595703125,-29.84619140625,45.34912109375
4.9424999000000005,0.6015431880950928,-2.4444799423217773,9.144054412841797,12.664794921875,-22.857666015625,54.6875
4.9474999,1.5269020795822144,-2.652176856994629,9.125499725341797,34.942626953125,-20.1416015625,70.831298828125
4.9524999,1.5269020795822144,-2.652176856994629,9.125499725341797,34.942626953125,-20.1416015625,70.831298828125
4.9574999,1.6675615310668945,-2.4648306369781494,9.276932716369629,38.360595703125,-3.448486328125,73.91357421875
4.9624999,1.2384008169174194,-1.6328455209732056,9.566631317138672,24.505615234375,13.427734375,58.9599609375
4.9674999,0.9493009448051453,0.7356184720993042,10.216058731079102,2.288818359375,2.9296875,2.960205078125
4.9724999,0.9493009448051453,0.7356184720993042,10.216058731079102,2.288818359375,2.9296875,2.960205078125
4.977499900000001,1.5747861862182617,1.2120646238327026,10.205883026123047,-4.180908203125,11.90185546875,-28.167724609375
4.9824999000000005,2.3295583724975586,1.0678139925003052,10.107122421264648,4.058837890625,36.590576171875,-37.139892578125
4.9874999,2.587533473968506,0.6482301354408264,9.993996620178223,7.62939453125,42.48046875,-43.304443359375
4.9924999,2.077568531036377,0.11192893236875534,9.9401273727417,1.190185546875,31.646728515625,-54.443359375
4.9974999,1.0450690984725952,0.5273229479789734,9.801262855529785,-5.645751953125,14.617919921875,-70.281982421875
5.0024999,-0.5117605924606323,0.4531026780605316,10.071807861328125,-32.073974609375,-4.302978515625,-73.822021484375
5.0074999,-1.8171991109848022,0.5907692909240723,9.979631423950195,-29.6630859375,-5.9814453125,-60.36376953125
5.0124999,-2.632424831390381,0.040701430290937424,9.850942611694336,-26.2451171875,-14.5263671875,-32.012939453125
5.0174999,-2.6665420532226562,-0.702099621295929,9.847949981689453,-16.204833984375,-34.60693359375,21.087646484375
5.022499900000001,-1.7920600175857544,-1.4053963422775269,9.534309387207031,-13.12255859375,-38.421630859375,42.6025390625
5.0274999000000005,1.557428240776062,-2.5905263423919678,9.252392768859863,35.7666015625,-17.730712890625,71.136474609375
5.0324999,1.5167267322540283,-2.1972784996032715,9.363123893737793,33.660888671875,1.922607421875,69.4580078125
5.0374999,1.082777738571167,-1.315613865852356,9.68933391571045,20.263671875,12.39013671875,51.08642578125
5.0424999,0.821809709072113,-0.05386953800916672,10.023324966430664,11.444091796875,6.988525390625,26.18408203125
5.0474999,1.0767922401428223,0.8631097078323364,10.179547309875488,-0.335693359375,2.838134765625,-5.43212890625
5.0524999,1.7747019529342651,1.1516109704971313,10.142436981201172,-2.99072265625,17.4560546875,-31.005859375
5.0574999,2.3971943855285645,0.9181763529777527,10.029909133911133,6.011962890625,38.2080078125,-37.078857421875
5.062499900000001,2.446275472640991,0.5135562419891357,9.960477828979492,5.645751953125,40.22216796875,-44.525146484375
5.0674999000000005,1.7501614093780518,-0.010773907415568829,9.886856079101562,-0.48828125,27.923583984375,-55.23681640625
5.0724999,0.606930136680603,0.5536591410636902,10.026318550109863,-9.613037109375,10.467529296875,-69.854736328125
5.0774999,-0.9295487999916077,0.36152446269989014,10.1382474899292,-34.423828125,-5.615234375,-68.328857421875
5.0824999,-2.6186580657958984,0.004189853090792894,9.850942611694336,-25.45166015625,-19.378662109375,-15.838623046875
5.0874999,-2.342127799987793,-0.7751228213310242,9.743204116821289,-16.78466796875,-38.421630859375,30.94482421875
5.0924999,-1.2844891548156738,-1.5065513849258423,9.391854286193848,-12.0849609375,-34.942626953125,43.9453125
5.0974999,0.07422025501728058,-2.2194249629974365,9.248801231384277,1.739501953125,-24.4140625,48.187255859375
5.102499900000001,1.1863269805908203,-2.6563668251037598,9.141061782836914,24.871826171875,-22.125244140625,63.629150390625
5.1074999000000005,1.5849615335464478,-2.647987127304077,9.185355186462402,39.85595703125,-12.908935546875,74.249267578125
5.1124999,1.3581109046936035,-2.100912094116211,9.358335494995117,30.8837890625,7.99560546875,66.22314453125
5.1174999,0.8864531517028809,-1.0169371366500854,9.771934509277344,18.585205078125,12.725830078125,44.769287109375
5.1224999,0.7906851172447205,0.2777273952960968,10.091560363769531,8.4228515625,5.706787109375,18.00537109375
5.1274999,1.2312182188034058,1.0372878313064575,10.232817649841309,-3.0517578125,4.241943359375,-16.265869140625
5.1324999,2.0272903442382812,1.146224021911621,10.162787437438965,-0.91552734375,26.7333984375,-35.491943359375
5.1374999,2.5492262840270996,0.8373720645904541,10.071209907531738,7.965087890625,42.236328125,-40.313720703125
5.1424999,-1.3569138050079346,0.181959331035614,10.09814453125,-34.454345703125,-6.65283203125,-65.826416015625
5.147499900000001,-2.3505074977874756,0.3010708689689636,9.991601943969727,-28.38134765625,-9.09423828125,-46.600341796875
5.1524999000000005,-2.759317398071289,-0.14784196019172668,9.806051254272461,-19.866943359375,-26.947021484375,2.593994140625
5.1574999,-2.189497470855713,-0.8918401598930359,9.55705451965332,-15.19775390625,-41.015625,38.9404296875
5.1624999,-0.9181763529777527,-1.578976035118103,9.280524253845215,-7.659912109375,-30.6396484375,43.975830078125
5.1674999,0.4578910768032074,-2.2643163204193115,9.177573204040527,9.21630859375,-22.857666015625,51.055908203125
5.1724999,1.4317326545715332,-2.6198551654815674,9.133879661560059,31.585693359375,-20.5078125,67.779541015625
5.1774999,1.6316484212875366,-2.5043349266052246,9.256582260131836,38.177490234375,-5.55419921875,73.211669921875
5.1824999,1.2731167078018188,-1.768117904663086,9.503783226013184,25.7568359375,12.176513671875,60.150146484375
