# Time (seconds),Accel_X,Accel_Y,Accel_Z,Gyro_X,Gyro_Y,Gyro_Z
0.0024999,0.20530278980731964,-0.021547814831137657,9.748590469360352,0.06103515625,-0.030517578125,-0.091552734375
0.0074999,0.20470423996448517,-0.020949264988303185,9.751583099365234,-0.1220703125,-0.091552734375,-0.244140625
0.012499900000000001,0.20350714027881622,-0.021547814831137657,9.749788284301758,-0.030517578125,0.06103515625,0
0.0174999,0.20350714027881622,-0.01975216343998909,9.748590469360352,0,0.030517578125,-0.030517578125
0.0224999,0.2041056901216507,-0.021547814831137657,9.743204116821289,-0.06103515625,-0.091552734375,-0.213623046875
0.0274999,0.20709845423698425,-0.021547814831137657,9.741408348083496,-0.152587890625,0.030517578125,-0.274658203125
0.0324999,0.20949265360832214,-0.021547814831137657,9.739612579345703,-0.091552734375,0.091552734375,-0.3662109375
0.0374999,0.21009120345115662,-0.020350715145468712,9.740809440612793,-0.030517578125,0.030517578125,-0.152587890625
0.0424999,0.2106897532939911,-0.01975216343998909,9.744400978088379,-0.030517578125,0.091552734375,-0.152587890625
0.0474999,0.2082955539226532,-0.01975216343998909,9.747992515563965,-0.030517578125,0,-0.18310546875
0.0524999,0.20889410376548767,-0.020350715145468712,9.750386238098145,-0.091552734375,0,-0.18310546875
0.0574999,0.2082955539226532,-0.02214636653661728,9.752182006835938,-0.030517578125,0,-0.030517578125
0.0624999,0.2082955539226532,-0.02214636653661728,9.749189376831055,-0.030517578125,0.030517578125,-0.18310546875
0.0674999,0.20769700407981873,-0.019153613597154617,9.743204116821289,-0.18310546875,0.030517578125,-0.213623046875
0.0724999,0.2064998894929886,-0.01735796220600605,9.742605209350586,-0.030517578125,0.091552734375,-0.091552734375
0.0774999,0.2064998894929886,-0.014365210197865963,9.739013671875,0,0,-0.152587890625
0.0824999,0.2059013396501541,-0.013766659423708916,9.740809440612793,-0.091552734375,0.030517578125,-0.213623046875
0.0874999,0.20350714027881622,-0.013766659423708916,9.742006301879883,-0.213623046875,0.06103515625,-0.18310546875
0.0924999,0.20111294090747833,-0.013766659423708916,9.740809440612793,-0.152587890625,-0.06103515625,-0.1220703125
0.0974999,0.1999158412218094,-0.013168109580874443,9.740809440612793,-0.1220703125,-0.18310546875,-0.152587890625
0.1024999,0.19931729137897491,-0.009576806798577309,9.740809440612793,-0.244140625,-0.030517578125,-0.06103515625
0.1074999,0.20350714027881622,-0.008978256024420261,9.739013671875,-0.06103515625,-0.091552734375,-0.06103515625
0.1124999,0.2059013396501541,-0.010175357572734356,9.744400978088379,0.030517578125,-0.030517578125,-0.1220703125
0.1174999,0.2059013396501541,-0.011971008032560349,9.743802070617676,-0.06103515625,-0.030517578125,-0.213623046875
0.1224999,0.20530278980731964,-0.01735796220600605,9.748590469360352,-0.030517578125,-0.06103515625,-0.1220703125
0.1274999,0.20051439106464386,-0.021547814831137657,9.749189376831055,-0.091552734375,-0.06103515625,-0.091552734375
0.1324999,0.19692309200763702,-0.023343466222286224,9.747393608093262,-0.06103515625,0,-0.152587890625
0.1374999,0.1951274424791336,-0.025737667456269264,9.747393608093262,-0.091552734375,-0.091552734375,-0.244140625
0.1424999,0.1951274424791336,-0.026336219161748886,9.744400978088379,-0.091552734375,-0.06103515625,-0.1220703125
0.1474999,0.1975216418504715,-0.02274491637945175,9.747393608093262,0,0.030517578125,-0.152587890625
0.1524999,0.1999158412218094,-0.020949264988303185,9.746794700622559,0.06103515625,0.030517578125,-0.18310546875
0.1574999,0.20470423996448517,-0.020949264988303185,9.747992515563965,-0.1220703125,-0.030517578125,-0.152587890625
0.1624999,0.20709845423698425,-0.019153613597154617,9.744999885559082,0,-0.030517578125,-0.06103515625
0.1674999,0.20949265360832214,-0.02214636653661728,9.742605209350586,0.091552734375,-0.06103515625,-0.152587890625
0.1724999,0.21009120345115662,-0.02274491637945175,9.738415718078613,0.091552734375,-0.030517578125,-0.06103515625
0.17749990000000002,0.20769700407981873,-0.02274491637945175,9.738415718078613,-0.030517578125,0,-0.091552734375
0.1824999,0.20290859043598175,-0.02274491637945175,9.737217903137207,0.030517578125,0,-0.18310546875
0.1874999,0.1999158412218094,-0.023942016065120697,9.741408348083496,0.030517578125,0,-0.06103515625
0.1924999,0.1951274424791336,-0.02513911761343479,9.745597839355469,-0.091552734375,0,-0.06103515625
0.1974999,0.19572599232196808,-0.02753331884741783,9.749788284301758,0.06103515625,0.030517578125,-0.06103515625
0.2024999,0.19692309200763702,-0.028131870552897453,9.749189376831055,0.06103515625,0,-0.091552734375
0.20749990000000001,0.20290859043598175,-0.0293289702385664,9.748590469360352,0,0.030517578125,-0.1220703125
0.2124999,0.21128830313682556,-0.028131870552897453,9.744999885559082,0,-0.030517578125,-0.213623046875
0.2174999,0.2148796021938324,-0.02454056777060032,9.740809440612793,0.06103515625,-0.030517578125,-0.06103515625
0.2224999,0.21847090125083923,-0.020350715145468712,9.738415718078613,0.06103515625,0.06103515625,-0.06103515625
0.2274999,0.21667525172233582,-0.01496376097202301,9.736021041870117,0.06103515625,0,-0.06103515625
0.2324999,0.21368250250816345,-0.011372458189725876,9.738415718078613,-0.18310546875,-0.1220703125,-0.213623046875
0.2374999,0.21128830313682556,-0.011971008032560349,9.740211486816406,-0.091552734375,0,-0.18310546875
0.2424999,0.21128830313682556,-0.012569558806717396,9.749189376831055,0.030517578125,-0.091552734375,-0.091552734375
0.2474999,0.2041056901216507,-0.014365210197865963,9.75397777557373,-0.030517578125,-0.030517578125,-0.213623046875
0.2524999,0.20231004059314728,-0.012569558806717396,9.756970405578613,-0.030517578125,0.1220703125,-0.3662109375
0.2574999,0.19812019169330597,-0.012569558806717396,9.75637149810791,-0.06103515625,0.030517578125,-0.244140625
0.2624999,0.1975216418504715,-0.013168109580874443,9.748590469360352,-0.18310546875,0,-0.244140625
0.2674999,0.19931729137897491,-0.013168109580874443,9.742605209350586,0.091552734375,-0.152587890625,-0.091552734375
0.2724999,0.20231004059314728,-0.014365210197865963,9.734824180603027,-0.030517578125,-0.091552734375,0
0.2774999,0.2041056901216507,-0.013168109580874443,9.733627319335938,-0.06103515625,0.091552734375,-0.030517578125
0.2824999,0.20709845423698425,-0.015562310814857483,9.732429504394531,-0.1220703125,-0.06103515625,-0.091552734375
0.28749990000000003,0.20769700407981873,-0.016160860657691956,9.732429504394531,-0.18310546875,-0.030517578125,-0.244140625
0.2924999,0.2082955539226532,-0.020949264988303185,9.736021041870117,-0.091552734375,0.030517578125,-0.1220703125
0.2974999,0.20769700407981873,-0.020949264988303185,9.739013671875,0.152587890625,0,-0.030517578125
0.3024999,0.20949265360832214,-0.020949264988303185,9.743204116821289,0,0,-0.152587890625
0.3074999,0.20949265360832214,-0.020949264988303185,9.743204116821289,0,0,-0.152587890625
0.3124999,0.20769700407981873,-0.021547814831137657,9.748590469360352,-0.091552734375,-0.06103515625,-0.091552734375
0.3174999,0.2059013396501541,-0.02274491637945175,9.748590469360352,0,-0.030517578125,-0.152587890625
0.3224999,0.20231004059314728,-0.02454056777060032,9.744999885559082,-0.152587890625,-0.213623046875,-0.152587890625
0.3274999,0.19871874153614044,-0.02693476900458336,9.739612579345703,-0.091552734375,-0.1220703125,-0.244140625
0.3324999,0.19393034279346466,-0.02454056777060032,9.736021041870117,-0.030517578125,0,-0.213623046875
0.3374999,0.19572599232196808,-0.023343466222286224,9.732429504394531,-0.030517578125,0,-0.091552734375
0.3424999,0.19572599232196808,-0.020949264988303185,9.736021041870117,-0.030517578125,0,-0.1220703125
0.34749990000000003,0.19871874153614044,-0.017956512048840523,9.740809440612793,-0.1220703125,0,-0.06103515625
0.35249990000000003,0.20051439106464386,-0.019153613597154617,9.743802070617676,-0.06103515625,-0.18310546875,0
0.3574999,0.20111294090747833,-0.016759412363171577,9.743802070617676,0.06103515625,0.030517578125,0.06103515625
0.3624999,0.20290859043598175,-0.016160860657691956,9.743802070617676,0.091552734375,0,-0.06103515625
0.3674999,0.20350714027881622,-0.016759412363171577,9.741408348083496,0.06103515625,0,-0.1220703125
0.3724999,0.20470423996448517,-0.013168109580874443,9.743802070617676,0,-0.030517578125,-0.213623046875
0.3774999,0.20350714027881622,-0.013766659423708916,9.743204116821289,0.1220703125,-0.1220703125,-0.30517578125
0.3824999,0.19931729137897491,-0.013168109580874443,9.748590469360352,-0.030517578125,0.06103515625,-0.18310546875
0.3874999,0.19632454216480255,-0.014365210197865963,9.750985145568848,0,0.244140625,-0.152587890625
0.3924999,0.19393034279346466,-0.01975216343998909,9.754576683044434,0.030517578125,0.06103515625,-0.244140625
0.3974999,0.19632454216480255,-0.02214636653661728,9.75397777557373,-0.091552734375,-0.091552734375,-0.06103515625
0.4024999,0.2017114907503128,-0.02274491637945175,9.75517463684082,-0.152587890625,0,-0.1220703125
0.4074999,0.2041056901216507,-0.02214636653661728,9.751583099365234,-0.030517578125,-0.06103515625,-0.152587890625
0.41249990000000003,0.20769700407981873,-0.016160860657691956,9.749788284301758,0,-0.030517578125,-0.091552734375
0.41749990000000003,0.20709845423698425,-0.013168109580874443,9.749788284301758,-0.18310546875,0.1220703125,-0.18310546875
0.4224999,0.20470423996448517,-0.008379706181585789,9.75278091430664,-0.030517578125,-0.06103515625,-0.18310546875
0.4274999,0.20470423996448517,-0.005985504016280174,9.754576683044434,0,-0.091552734375,-0.091552734375
0.4324999,0.20350714027881622,-0.005985504016280174,9.759963035583496,0.06103515625,-0.030517578125,-0.091552734375
0.4374999,0.20530278980731964,-0.0077811554074287415,9.761159896850586,0.06103515625,-0.1220703125,0
0.4424999,0.20470423996448517,-0.008978256024420261,9.759963035583496,-0.030517578125,-0.06103515625,-0.06103515625
0.4474999,0.2059013396501541,-0.008978256024420261,9.757569313049316,0.06103515625,0.091552734375,-0.18310546875
0.4524999,0.2059013396501541,-0.010773907415568829,9.75637149810791,-0.06103515625,-0.06103515625,-0.213623046875
0.4574999,0.20889410376548767,-0.010773907415568829,9.75397777557373,-0.1220703125,-0.030517578125,-0.18310546875
0.4624999,0.2106897532939911,-0.015562310814857483,9.75278091430664,-0.152587890625,-0.06103515625,-0.091552734375
0.4674999,0.2124854028224945,-0.01975216343998909,9.750985145568848,-0.091552734375,-0.06103515625,-0.06103515625
0.47249990000000003,0.21428105235099792,-0.023343466222286224,9.747992515563965,-0.06103515625,-0.091552734375,-0.274658203125
0.47749990000000003,0.21188685297966003,-0.02693476900458336,9.744400978088379,-0.091552734375,0.030517578125,-0.244140625
0.4824999,0.21368250250816345,-0.02513911761343479,9.743204116821289,-0.091552734375,0,-0.1220703125
0.4874999,0.21308395266532898,-0.02513911761343479,9.744400978088379,-0.06103515625,-0.06103515625,-0.152587890625
0.4924999,0.21368250250816345,-0.020949264988303185,9.743204116821289,-0.06103515625,-0.091552734375,-0.091552734375
0.4974999,0.21009120345115662,-0.016759412363171577,9.744999885559082,0.1220703125,-0.030517578125,0.06103515625
0.5024999,0.20769700407981873,-0.01496376097202301,9.739612579345703,-0.030517578125,0,-0.18310546875
0.5074999,0.20231004059314728,-0.013168109580874443,9.73781681060791,-0.06103515625,-0.06103515625,-0.18310546875
0.5124999,0.19931729137897491,-0.013168109580874443,9.737217903137207,-0.030517578125,-0.030517578125,-0.213623046875
0.5174999,0.1951274424791336,-0.013168109580874443,9.739612579345703,-0.1220703125,-0.091552734375,-0.091552734375
0.5224999,0.19393034279346466,-0.011971008032560349,9.742605209350586,0.1220703125,-0.091552734375,-0.152587890625
0.5274999,0.19273324310779572,-0.01496376097202301,9.747992515563965,0,-0.06103515625,-0.030517578125
0.5324999,0.1951274424791336,-0.013766659423708916,9.747393608093262,0,-0.091552734375,-0.1220703125
0.5374999,0.19812019169330597,-0.018555063754320145,9.749788284301758,0,-0.091552734375,-0.213623046875
0.5424999,0.20111294090747833,-0.021547814831137657,9.750386238098145,0.030517578125,0,-0.213623046875
0.5474999,0.20530278980731964,-0.026336219161748886,9.753378868103027,-0.030517578125,0.244140625,-0.30517578125
0.5524999,0.2059013396501541,-0.028730420395731926,9.75397777557373,0.030517578125,0.091552734375,-0.18310546875
0.5574999,0.2064998894929886,-0.031124621629714966,9.753378868103027,0.030517578125,0,-0.244140625
0.5624999,0.2059013396501541,-0.03172317147254944,9.752182006835938,-0.091552734375,0.030517578125,-0.213623046875
0.5674999000000001,0.20709845423698425,-0.028730420395731926,9.750386238098145,-0.1220703125,0.030517578125,-0.152587890625
0.5724999000000001,0.20769700407981873,-0.02753331884741783,9.750985145568848,-0.152587890625,0,-0.18310546875
0.5774999000000001,0.2106897532939911,-0.023343466222286224,9.75278091430664,-0.030517578125,0,-0.18310546875
0.5824999,0.2106897532939911,-0.018555063754320145,9.75397777557373,0.1220703125,0.091552734375,-0.30517578125
0.5874999,0.21009120345115662,-0.016759412363171577,9.752182006835938,-0.06103515625,0.06103515625,-0.18310546875
0.5924999,0.20949265360832214,-0.013766659423708916,9.752182006835938,0.06103515625,-0.1220703125,-0.030517578125
0.5974999,0.20889410376548767,-0.013766659423708916,9.750985145568848,0,-0.1220703125,-0.030517578125
0.6024999,0.2082955539226532,-0.015562310814857483,9.752182006835938,0.030517578125,0.06103515625,-0.1220703125
0.6074999,0.20889410376548767,-0.01735796220600605,9.75517463684082,-0.030517578125,-0.030517578125,-0.1220703125
0.6124999,0.20889410376548767,-0.020350715145468712,9.754576683044434,-0.1220703125,0.091552734375,-0.152587890625
0.6174999,0.2106897532939911,-0.023942016065120697,9.75637149810791,-0.1220703125,0.1220703125,-0.18310546875
0.6224999,0.20949265360832214,-0.028131870552897453,9.751583099365234,0,-0.06103515625,-0.274658203125
0.6274999,0.20889410376548767,-0.028131870552897453,9.749788284301758,-0.06103515625,-0.152587890625,-0.244140625
0.6324999,0.20889410376548767,-0.030526071786880493,9.747992515563965,-0.152587890625,0.06103515625,-0.152587890625
0.6374999,0.2082955539226532,-0.028131870552897453,9.745597839355469,-0.152587890625,0.030517578125,-0.091552734375
0.6424999,0.20949265360832214,-0.02753331884741783,9.742605209350586,-0.213623046875,-0.030517578125,-0.091552734375
0.6474999,0.2106897532939911,-0.02693476900458336,9.739612579345703,-0.030517578125,0,-0.1220703125
0.6524999,0.21308395266532898,-0.023942016065120697,9.73542308807373,-0.091552734375,0,-0.091552734375
0.6574999,0.2148796021938324,-0.02214636653661728,9.736021041870117,-0.06103515625,-0.06103515625,-0.18310546875
0.6624999,0.21308395266532898,-0.01735796220600605,9.739013671875,0.030517578125,-0.091552734375,-0.1220703125
0.6674999,0.20949265360832214,-0.016759412363171577,9.741408348083496,0.1220703125,0,-0.030517578125
0.6724999,0.20949265360832214,-0.016759412363171577,9.741408348083496,0.1220703125,0,-0.030517578125
0.6774999,0.20111294090747833,-0.01735796220600605,9.744400978088379,0.1220703125,0.030517578125,-0.1220703125
0.6824999,0.19572599232196808,-0.01975216343998909,9.744999885559082,-0.030517578125,0,-0.213623046875
0.6874999,0.19273324310779572,-0.020949264988303185,9.743802070617676,0,-0.152587890625,-0.091552734375
0.6924999000000001,0.19452889263629913,-0.02274491637945175,9.743204116821289,0.030517578125,-0.213623046875,-0.06103515625
0.6974999000000001,0.19871874153614044,-0.023343466222286224,9.739013671875,-0.06103515625,-0.06103515625,-0.18310546875
0.7024999000000001,0.2017114907503128,-0.02513911761343479,9.736021041870117,0.030517578125,0,-0.1220703125
0.7074999,0.20769700407981873,-0.023343466222286224,9.733627319335938,-0.030517578125,-0.030517578125,-0.18310546875
0.7124999,0.20949265360832214,-0.021547814831137657,9.731232643127441,-0.091552734375,-0.030517578125,-0.213623046875
0.7174999,0.21368250250816345,-0.017956512048840523,9.733627319335938,-0.213623046875,-0.091552734375,-0.18310546875
0.7224999,0.21428105235099792,-0.018555063754320145,9.736021041870117,-0.213623046875,-0.06103515625,-0.152587890625
0.7274999,0.21368250250816345,-0.01975216343998909,9.743802070617676,0.030517578125,-0.091552734375,-0.213623046875
0.7324999,0.21188685297966003,-0.023343466222286224,9.747992515563965,-0.152587890625,-0.030517578125,-0.18310546875
0.7374999,0.20709845423698425,-0.02454056777060032,9.750386238098145,-0.091552734375,-0.091552734375,-0.091552734375
0.7424999,0.20470423996448517,-0.02214636653661728,9.750985145568848,0,-0.1220703125,-0.152587890625
0.7474999,0.20111294090747833,-0.02214636653661728,9.746794700622559,-0.1220703125,0.06103515625,-0.18310546875
0.7524999,0.19692309200763702,-0.020350715145468712,9.748590469360352,-0.030517578125,0.06103515625,-0.152587890625
0.7574999,0.1975216418504715,-0.02214636653661728,9.749788284301758,-0.030517578125,-0.1220703125,-0.030517578125
0.7624999,0.19812019169330597,-0.02214636653661728,9.749788284301758,0.030517578125,-0.1220703125,-0.1220703125
0.7674999,0.20111294090747833,-0.020350715145468712,9.75278091430664,-0.1220703125,-0.06103515625,-0.06103515625
0.7724999,0.20530278980731964,-0.019153613597154617,9.749189376831055,-0.06103515625,-0.030517578125,-0.06103515625
0.7774999,0.20889410376548767,-0.016759412363171577,9.750386238098145,-0.06103515625,0.030517578125,-0.244140625
0.7824999,0.20949265360832214,-0.017956512048840523,9.749189376831055,-0.030517578125,0.091552734375,-0.244140625
0.7874999,0.21009120345115662,-0.020949264988303185,9.750985145568848,0.030517578125,-0.06103515625,-0.213623046875
0.7924999,0.20709845423698425,-0.020350715145468712,9.752182006835938,-0.06103515625,-0.1220703125,-0.18310546875
0.7974999,0.2059013396501541,-0.023343466222286224,9.747992515563965,0,-0.06103515625,-0.152587890625
0.8024999,0.20111294090747833,-0.020949264988303185,9.745597839355469,0.030517578125,0.030517578125,-0.18310546875
0.8074999,0.19931729137897491,-0.021547814831137657,9.742605209350586,0.06103515625,-0.091552734375,-0.152587890625
0.8124999,0.1975216418504715,-0.01975216343998909,9.742006301879883,-0.030517578125,0.030517578125,-0.1220703125
0.8174999000000001,0.19572599232196808,-0.020350715145468712,9.744999885559082,-0.091552734375,-0.030517578125,-0.18310546875
0.8224999000000001,0.1975216418504715,-0.021547814831137657,9.747393608093262,0,-0.06103515625,-0.30517578125
0.8274999000000001,0.19812019169330597,-0.023942016065120697,9.748590469360352,0,-0.030517578125,-0.152587890625
0.8324999000000001,0.20290859043598175,-0.025737667456269264,9.747393608093262,0,-0.152587890625,0
0.8374999,0.20470423996448517,-0.023343466222286224,9.747992515563965,-0.091552734375,-0.06103515625,-0.06103515625
0.8424999,0.20709845423698425,-0.021547814831137657,9.745597839355469,-0.152587890625,0,-0.244140625
0.8474999,0.20769700407981873,-0.017956512048840523,9.744400978088379,-0.1220703125,0,-0.152587890625
0.8524999,0.2064998894929886,-0.01735796220600605,9.746794700622559,0.06103515625,0,0
0.8574999,0.2059013396501541,-0.017956512048840523,9.747393608093262,-0.030517578125,-0.152587890625,-0.152587890625
0.8624999,0.2064998894929886,-0.017956512048840523,9.751583099365234,-0.06103515625,-0.030517578125,-0.091552734375
0.8674999,0.2059013396501541,-0.018555063754320145,9.752182006835938,-0.091552734375,-0.030517578125,-0.091552734375
0.8724999,0.20530278980731964,-0.020949264988303185,9.752182006835938,-0.18310546875,0.030517578125,-0.213623046875
0.8774999,0.20111294090747833,-0.02214636653661728,9.749788284301758,-0.06103515625,-0.06103515625,-0.18310546875
0.8824999,0.19931729137897491,-0.023343466222286224,9.747992515563965,-0.06103515625,-0.030517578125,-0.18310546875
0.8874999,0.19393034279346466,-0.023942016065120697,9.744999885559082,0,0.030517578125,-0.1220703125
0.8924999,0.1933317929506302,-0.021547814831137657,9.743802070617676,0.091552734375,-0.091552734375,-0.213623046875
0.8974999,0.19273324310779572,-0.01735796220600605,9.740809440612793,0.030517578125,-0.091552734375,-0.091552734375
0.9024999,0.1951274424791336,-0.01496376097202301,9.739013671875,-0.1220703125,-0.030517578125,-0.091552734375
0.9074999,0.19871874153614044,-0.009576806798577309,9.741408348083496,-0.06103515625,0.030517578125,-0.030517578125
0.9124999,0.20530278980731964,-0.010175357572734356,9.744999885559082,-0.091552734375,0.06103515625,-0.213623046875
0.9174999,0.2106897532939911,-0.010175357572734356,9.75278091430664,-0.152587890625,0,-0.213623046875
0.9224999,0.2148796021938324,-0.014365210197865963,9.757569313049316,0,-0.030517578125,-0.152587890625
0.9274999,0.2148796021938324,-0.017956512048840523,9.759963035583496,-0.030517578125,-0.030517578125,-0.244140625
0.9324999,0.21428105235099792,-0.020350715145468712,9.75936508178711,-0.030517578125,-0.18310546875,-0.18310546875
0.9374999,0.21009120345115662,-0.021547814831137657,9.758167266845703,0,-0.06103515625,-0.1220703125
0.9424999000000001,0.20530278980731964,-0.023343466222286224,9.753378868103027,-0.06103515625,0.1220703125,-0.1220703125
0.9474999000000001,0.2017114907503128,-0.02274491637945175,9.747992515563965,0.06103515625,0.030517578125,-0.244140625
0.9524999000000001,0.1975216418504715,-0.02274491637945175,9.742605209350586,0,-0.091552734375,-0.152587890625
0.9574999000000001,0.1951274424791336,-0.01975216343998909,9.739612579345703,-0.152587890625,-0.06103515625,-0.213623046875
0.9624999,0.19632454216480255,-0.01735796220600605,9.741408348083496,-0.213623046875,-0.091552734375,-0.244140625
0.9674999,0.1999158412218094,-0.01496376097202301,9.742006301879883,-0.18310546875,-0.030517578125,-0.06103515625
0.9724999,0.2041056901216507,-0.014365210197865963,9.743802070617676,-0.06103515625,0.1220703125,-0.18310546875
0.9774999,0.20709845423698425,-0.013766659423708916,9.744400978088379,-0.06103515625,0,-0.213623046875
0.9824999,0.2064998894929886,-0.012569558806717396,9.744400978088379,-0.152587890625,0.06103515625,-0.152587890625
0.9874999,0.20470423996448517,-0.015562310814857483,9.747393608093262,-0.1220703125,0.06103515625,-0.06103515625
0.9924999,0.20051439106464386,-0.01735796220600605,9.748590469360352,-0.091552734375,0,-0.213623046875
0.9974999,0.19931729137897491,-0.02454056777060032,9.751583099365234,0,-0.091552734375,-0.152587890625
1.0024999,0.19812019169330597,-0.028730420395731926,9.753378868103027,0.091552734375,0.06103515625,-0.152587890625
1.0074999000000002,0.1999158412218094,-0.03232172131538391,9.75397777557373,-0.06103515625,-0.030517578125,-0.1220703125
1.0124999000000001,0.20290859043598175,-0.03232172131538391,9.754576683044434,-0.06103515625,-0.06103515625,-0.213623046875
1.0174999000000002,0.2064998894929886,-0.028730420395731926,9.749788284301758,0.030517578125,-0.06103515625,-0.152587890625
1.0224999000000001,0.2106897532939911,-0.026336219161748886,9.745597839355469,0.091552734375,-0.091552734375,-0.091552734375
1.0274999,0.2124854028224945,-0.02214636653661728,9.739013671875,-0.091552734375,0.06103515625,-0.06103515625
1.0324999000000001,0.21308395266532898,-0.015562310814857483,9.73781681060791,-0.091552734375,0.06103515625,-0.244140625
1.0374999,0.21308395266532898,-0.015562310814857483,9.73781681060791,-0.091552734375,0.06103515625,-0.244140625
1.0424999000000001,0.2148796021938324,-0.016759412363171577,9.73781681060791,0.1220703125,-0.18310546875,-0.152587890625
1.0474999,0.21188685297966003,-0.012569558806717396,9.740809440612793,-0.030517578125,-0.244140625,-0.152587890625
1.0524999000000002,0.21188685297966003,-0.015562310814857483,9.746196746826172,-0.06103515625,0.06103515625,-0.030517578125
1.0574999,0.2064998894929886,-0.016759412363171577,9.749788284301758,-0.06103515625,0.091552734375,-0.152587890625
1.0624999000000002,0.20290859043598175,-0.018555063754320145,9.75278091430664,-0.091552734375,-0.06103515625,-0.152587890625
1.0674999,0.19812019169330597,-0.020350715145468712,9.752182006835938,-0.091552734375,-0.06103515625,-0.091552734375
1.0724999000000002,0.1951274424791336,-0.020350715145468712,9.749189376831055,-0.1220703125,-0.1220703125,-0.091552734375
1.0774999,0.19452889263629913,-0.01975216343998909,9.747992515563965,0,-0.091552734375,0.06103515625
1.0824999000000002,0.19692309200763702,-0.01975216343998909,9.746196746826172,-0.213623046875,0.030517578125,-0.1220703125
1.0874999,0.20231004059314728,-0.017956512048840523,9.746794700622559,-0.030517578125,0.091552734375,-0.091552734375
1.0924999000000002,0.20709845423698425,-0.017956512048840523,9.747393608093262,-0.091552734375,0,-0.06103515625
1.0974999,0.21009120345115662,-0.016759412363171577,9.746794700622559,-0.091552734375,0.030517578125,-0.1220703125
1.1024999000000002,0.20889410376548767,-0.014365210197865963,9.744400978088379,-0.06103515625,0.030517578125,-0.213623046875
1.1074999,0.20530278980731964,-0.012569558806717396,9.742006301879883,-0.091552734375,0.091552734375,-0.06103515625
1.1124999000000002,0.20231004059314728,-0.013766659423708916,9.739013671875,-0.030517578125,0.06103515625,-0.030517578125
1.1174999,0.20051439106464386,-0.013766659423708916,9.73781681060791,-0.030517578125,0.030517578125,-0.1220703125
1.1224999000000002,0.20111294090747833,-0.017956512048840523,9.740211486816406,-0.06103515625,0,-0.244140625
1.1274999,0.20051439106464386,-0.020949264988303185,9.743802070617676,0,0.06103515625,-0.213623046875
1.1324999000000002,0.20470423996448517,-0.02274491637945175,9.747992515563965,0.030517578125,0.1220703125,-0.213623046875
1.1374999000000001,0.20530278980731964,-0.02454056777060032,9.750386238098145,-0.030517578125,0,-0.091552734375
1.1424999000000002,0.21188685297966003,-0.02454056777060032,9.750386238098145,0.030517578125,0.091552734375,-0.1220703125
1.1474999000000001,0.21308395266532898,-0.026336219161748886,9.749189376831055,0,-0.030517578125,-0.06103515625
1.1524999000000002,0.21428105235099792,-0.026336219161748886,9.743802070617676,0,-0.152587890625,-0.06103515625
1.1574999000000001,0.21308395266532898,-0.023942016065120697,9.741408348083496,-0.030517578125,-0.1220703125,-0.213623046875
1.1624999,0.21009120345115662,-0.020949264988303185,9.739612579345703,0,-0.1220703125,-0.1220703125
1.1674999000000001,0.21009120345115662,-0.016759412363171577,9.737217903137207,-0.030517578125,0.030517578125,-0.18310546875
1.1724999,0.20769700407981873,-0.01496376097202301,9.739612579345703,-0.06103515625,0,-0.213623046875
1.1774999000000002,0.20530278980731964,-0.017956512048840523,9.739013671875,0,-0.06103515625,-0.1220703125
1.1824999,0.20290859043598175,-0.020350715145468712,9.739013671875,0,-0.030517578125,-0.152587890625
1.1874999000000002,0.19871874153614044,-0.02214636653661728,9.740211486816406,-0.091552734375,-0.091552734375,-0.091552734375
1.1924999,0.1951274424791336,-0.023942016065120697,9.740809440612793,-0.091552734375,-0.091552734375,-0.030517578125
1.1974999000000002,0.19273324310779572,-0.023942016065120697,9.743802070617676,-0.091552734375,0.091552734375,-0.244140625
1.2024999,0.1933317929506302,-0.023343466222286224,9.743802070617676,-0.091552734375,0.091552734375,-0.213623046875
1.2074999000000002,0.19572599232196808,-0.020350715145468712,9.745597839355469,0.091552734375,-0.030517578125,-0.152587890625
1.2124999,0.19931729137897491,-0.019153613597154617,9.742006301879883,-0.091552734375,-0.06103515625,-0.1220703125
1.2174999000000002,0.20231004059314728,-0.015562310814857483,9.742605209350586,-0.213623046875,-0.06103515625,-0.030517578125
1.2224999,0.2041056901216507,-0.01496376097202301,9.740809440612793,-0.091552734375,0,-0.091552734375
1.2274999000000002,0.2059013396501541,-0.017956512048840523,9.740809440612793,-0.091552734375,-0.091552734375,-0.152587890625
1.2324999,0.2059013396501541,-0.02214636653661728,9.739612579345703,-0.1220703125,-0.1220703125,-0.030517578125
1.2374999000000002,0.2082955539226532,-0.025737667456269264,9.739013671875,-0.091552734375,0.030517578125,-0.18310546875
1.2424999,0.20889410376548767,-0.025737667456269264,9.739013671875,0.030517578125,-0.091552734375,-0.213623046875
1.2474999000000002,0.20889410376548767,-0.02513911761343479,9.736021041870117,0,-0.030517578125,-0.18310546875
1.2524999,0.2064998894929886,-0.02274491637945175,9.73661994934082,-0.152587890625,0.06103515625,-0.1220703125
1.2574999000000002,0.20350714027881622,-0.020350715145468712,9.738415718078613,-0.06103515625,0.030517578125,-0.335693359375
1.2624999000000001,0.20111294090747833,-0.020350715145468712,9.740809440612793,0,-0.030517578125,-0.152587890625
1.2674999000000002,0.20290859043598175,-0.01975216343998909,9.743204116821289,-0.091552734375,-0.030517578125,0.030517578125
1.2724999000000001,0.2041056901216507,-0.021547814831137657,9.745597839355469,0.030517578125,-0.06103515625,-0.18310546875
1.2774999000000002,0.2106897532939911,-0.023942016065120697,9.743204116821289,-0.030517578125,0,-0.030517578125
1.2824999000000001,0.21188685297966003,-0.02753331884741783,9.742006301879883,-0.1220703125,-0.06103515625,-0.152587890625
1.2874999,0.2148796021938324,-0.030526071786880493,9.739612579345703,-0.091552734375,0.030517578125,-0.244140625
1.2924999000000001,0.21308395266532898,-0.031124621629714966,9.738415718078613,-0.091552734375,0.1220703125,-0.18310546875
1.2974999,0.20949265360832214,-0.02992752194404602,9.73661994934082,0.06103515625,-0.030517578125,-0.1220703125
1.3024999000000002,0.20949265360832214,-0.0293289702385664,9.73542308807373,0.06103515625,0.06103515625,-0.030517578125
1.3074999,0.20769700407981873,-0.026336219161748886,9.73542308807373,-0.091552734375,0.030517578125,-0.18310546875
1.3124999000000002,0.2064998894929886,-0.025737667456269264,9.73781681060791,-0.213623046875,-0.1220703125,-0.213623046875
1.3174999,0.2064998894929886,-0.02513911761343479,9.740211486816406,0.030517578125,-0.06103515625,-0.1220703125
1.3224999000000002,0.20470423996448517,-0.02454056777060032,9.743204116821289,0,-0.06103515625,-0.1220703125
1.3274999,0.2041056901216507,-0.026336219161748886,9.747992515563965,0,-0.1220703125,-0.030517578125
1.3324999000000002,0.20530278980731964,-0.02693476900458336,9.750386238098145,0.091552734375,-0.091552734375,0.030517578125
1.3374999,0.20470423996448517,-0.02753331884741783,9.75397777557373,-0.091552734375,-0.030517578125,-0.18310546875
1.3424999000000002,0.20530278980731964,-0.030526071786880493,9.756970405578613,-0.091552734375,-0.06103515625,-0.18310546875
1.3474999,0.2064998894929886,-0.028730420395731926,9.758167266845703,0.030517578125,-0.1220703125,-0.06103515625
1.3524999000000002,0.2064998894929886,-0.030526071786880493,9.759963035583496,-0.06103515625,-0.030517578125,-0.06103515625
1.3574999,0.2082955539226532,-0.02753331884741783,9.75637149810791,-0.06103515625,0.030517578125,-0.274658203125
1.3624999000000002,0.20769700407981873,-0.02513911761343479,9.752182006835938,-0.030517578125,0.091552734375,-0.213623046875
1.3674999,0.20889410376548767,-0.023343466222286224,9.743204116821289,0,-0.06103515625,-0.1220703125
1.3724999000000002,0.2082955539226532,-0.020350715145468712,9.734225273132324,-0.030517578125,-0.1220703125,-0.213623046875
1.3774999,0.20769700407981873,-0.021547814831137657,9.730634689331055,-0.06103515625,-0.06103515625,-0.18310546875
1.3824999000000002,0.2064998894929886,-0.01975216343998909,9.730035781860352,0,0,-0.152587890625
1.3874999000000001,0.20470423996448517,-0.020949264988303185,9.736021041870117,-0.030517578125,-0.1220703125,0
1.3924999000000002,0.2041056901216507,-0.016160860657691956,9.743204116821289,-0.1220703125,0.030517578125,-0.152587890625
1.3974999000000001,0.20530278980731964,-0.014365210197865963,9.750985145568848,-0.06103515625,0,-0.18310546875
1.4024999000000002,0.20530278980731964,-0.014365210197865963,9.750985145568848,-0.06103515625,0,-0.18310546875
1.4074999000000001,0.2041056901216507,-0.010175357572734356,9.758167266845703,0.030517578125,0,-0.18310546875
1.4124999,0.2041056901216507,-0.008379706181585789,9.756970405578613,-0.030517578125,-0.1220703125,-0.152587890625
1.4174999000000001,0.20530278980731964,-0.008379706181585789,9.75397777557373,-0.091552734375,-0.18310546875,-0.152587890625
1.4224999,0.2041056901216507,-0.011971008032560349,9.748590469360352,0,-0.030517578125,-0.18310546875
1.4274999000000002,0.20769700407981873,-0.011372458189725876,9.742006301879883,-0.030517578125,0,-0.18310546875
1.4324999,0.20530278980731964,-0.016759412363171577,9.738415718078613,-0.152587890625,0.06103515625,-0.213623046875
1.4374999000000002,0.2059013396501541,-0.01496376097202301,9.73661994934082,-0.030517578125,0.06103515625,-0.152587890625
1.4424999,0.20231004059314728,-0.018555063754320145,9.734225273132324,0.1220703125,-0.030517578125,-0.06103515625
1.4474999000000002,0.1999158412218094,-0.019153613597154617,9.734824180603027,-0.091552734375,0,-0.335693359375
1.4524999,0.20051439106464386,-0.020350715145468712,9.73781681060791,0.030517578125,-0.030517578125,-0.274658203125
1.4574999000000002,0.2017114907503128,-0.021547814831137657,9.743802070617676,-0.030517578125,-0.091552734375,-0.091552734375
1.4624999,0.20709845423698425,-0.020949264988303185,9.750386238098145,-0.18310546875,-0.06103515625,-0.152587890625
1.4674999000000002,0.20949265360832214,-0.02214636653661728,9.755773544311523,-0.030517578125,-0.030517578125,-0.152587890625
1.4724999,0.2106897532939911,-0.020350715145468712,9.759963035583496,-0.18310546875,0,-0.213623046875
1.4774999000000002,0.2082955539226532,-0.01975216343998909,9.759963035583496,-0.152587890625,-0.091552734375,-0.18310546875
1.4824999,0.2017114907503128,-0.018555063754320145,9.758167266845703,-0.1220703125,-0.030517578125,-0.06103515625
1.4874999000000002,0.19812019169330597,-0.018555063754320145,9.757569313049316,0,0.06103515625,-0.1220703125
1.4924999,0.19572599232196808,-0.01975216343998909,9.754576683044434,-0.152587890625,0.06103515625,-0.274658203125
1.4974999000000002,0.19931729137897491,-0.020350715145468712,9.75278091430664,-0.06103515625,-0.152587890625,-0.274658203125
1.5024999,0.20530278980731964,-0.020350715145468712,9.749788284301758,0.030517578125,-0.18310546875,-0.18310546875
1.5074999000000002,0.2106897532939911,-0.016759412363171577,9.747393608093262,-0.06103515625,0.030517578125,-0.06103515625
1.5124999000000001,0.20949265360832214,-0.016759412363171577,9.746196746826172,-0.06103515625,-0.030517578125,-0.06103515625
1.5174999000000002,0.20769700407981873,-0.016759412363171577,9.745597839355469,-0.06103515625,-0.030517578125,-0.152587890625
1.5224999000000001,0.19931729137897491,-0.017956512048840523,9.749189376831055,0.06103515625,0.06103515625,-0.18310546875
1.5274999000000002,0.19572599232196808,-0.018555063754320145,9.749788284301758,-0.152587890625,-0.030517578125,-0.152587890625
1.5324999000000001,0.19213469326496124,-0.018555063754320145,9.751583099365234,0.030517578125,-0.1220703125,-0.06103515625
1.5374999000000003,0.1885433793067932,-0.017956512048840523,9.750985145568848,0.1220703125,-0.030517578125,-0.091552734375
1.5424999000000001,0.18914192914962769,-0.018555063754320145,9.749788284301758,-0.06103515625,0,-0.213623046875
1.5474999,0.19033902883529663,-0.018555063754320145,9.744999885559082,-0.1220703125,0.091552734375,-0.213623046875
1.5524999000000002,0.19452889263629913,-0.01975216343998909,9.740809440612793,0,-0.091552734375,-0.152587890625
1.5574999,0.20350714027881622,-0.018555063754320145,9.734824180603027,-0.06103515625,-0.091552734375,-0.274658203125
1.5624999000000002,0.21009120345115662,-0.020350715145468712,9.732429504394531,-0.06103515625,0.030517578125,-0.18310546875
1.5674999,0.2148796021938324,-0.019153613597154617,9.731232643127441,-0.06103515625,0.06103515625,-0.213623046875
1.5724999000000002,0.21847090125083923,-0.02214636653661728,9.732429504394531,-0.091552734375,0,-0.274658203125
1.5774999,0.21667525172233582,-0.02454056777060032,9.734824180603027,-0.1220703125,0,-0.091552734375
1.5824999000000002,0.2124854028224945,-0.02454056777060032,9.73661994934082,-0.06103515625,0.030517578125,-0.06103515625
1.5874999,0.20889410376548767,-0.02513911761343479,9.739013671875,0.06103515625,-0.1220703125,-0.091552734375
1.5924999000000002,0.2041056901216507,-0.020949264988303185,9.743204116821289,-0.06103515625,-0.152587890625,-0.091552734375
1.5974999,0.20350714027881622,-0.019153613597154617,9.745597839355469,-0.18310546875,-0.030517578125,-0.18310546875
1.6024999000000002,0.20350714027881622,-0.017956512048840523,9.746196746826172,-0.091552734375,0.06103515625,-0.030517578125
1.6074999,0.2059013396501541,-0.01975216343998909,9.747393608093262,0.152587890625,0.030517578125,-0.030517578125
1.6124999000000002,0.2059013396501541,-0.019153613597154617,9.744400978088379,-0.1220703125,0,-0.244140625
1.6174999,0.20530278980731964,-0.01975216343998909,9.746196746826172,-0.06103515625,-0.030517578125,-0.1220703125
1.6224999000000002,0.2059013396501541,-0.015562310814857483,9.747992515563965,-0.091552734375,-0.091552734375,-0.18310546875
1.6274999,0.2059013396501541,-0.011971008032560349,9.749788284301758,0.030517578125,-0.1220703125,-0.152587890625
1.6324999000000002,0.20709845423698425,-0.011372458189725876,9.751583099365234,0.030517578125,0.06103515625,-0.30517578125
1.6374999000000001,0.2059013396501541,-0.009576806798577309,9.751583099365234,-0.091552734375,-0.030517578125,-0.18310546875
1.6424999000000002,0.20530278980731964,-0.013168109580874443,9.750386238098145,0.091552734375,-0.06103515625,-0.1220703125
1.6474999000000001,0.20350714027881622,-0.016160860657691956,9.751583099365234,0.1220703125,-0.06103515625,-0.1220703125
1.6524999000000002,0.20231004059314728,-0.020949264988303185,9.753378868103027,0.152587890625,-0.030517578125,-0.213623046875
1.6574999000000001,0.1999158412218094,-0.02753331884741783,9.75278091430664,-0.091552734375,0,-0.213623046875
1.6624999000000003,0.1975216418504715,-0.030526071786880493,9.753378868103027,0.091552734375,-0.06103515625,-0.244140625
1.6674999000000001,0.19931729137897491,-0.03232172131538391,9.755773544311523,0.030517578125,-0.091552734375,-0.06103515625
1.6724999,0.20051439106464386,-0.02992752194404602,9.75397777557373,-0.030517578125,-0.18310546875,0.030517578125
1.6774999000000002,0.20530278980731964,-0.02513911761343479,9.758766174316406,-0.030517578125,-0.1220703125,0
1.6824999,0.20709845423698425,-0.023942016065120697,9.759963035583496,-0.213623046875,-0.06103515625,-0.152587890625
1.6874999000000002,0.20889410376548767,-0.02214636653661728,9.756970405578613,-0.030517578125,-0.152587890625,-0.152587890625
1.6924999,0.2082955539226532,-0.023343466222286224,9.755773544311523,0,-0.1220703125,-0.18310546875
1.6974999000000002,0.20889410376548767,-0.02513911761343479,9.748590469360352,0,-0.091552734375,-0.244140625
1.7024999,0.20530278980731964,-0.021547814831137657,9.744400978088379,0.06103515625,0.030517578125,-0.152587890625
1.7074999000000002,0.20290859043598175,-0.018555063754320145,9.743802070617676,0.1220703125,-0.1220703125,0
1.7124999,0.19931729137897491,-0.010773907415568829,9.747992515563965,0.030517578125,-0.1220703125,-0.1220703125
1.7174999000000002,0.1999158412218094,-0.009576806798577309,9.75278091430664,0,0.06103515625,-0.335693359375
1.7224999,0.19931729137897491,-0.008379706181585789,9.75517463684082,0,0.06103515625,-0.152587890625
1.7274999000000002,0.19871874153614044,-0.013168109580874443,9.75397777557373,-0.030517578125,-0.06103515625,-0.213623046875
1.7324999,0.20051439106464386,-0.017956512048840523,9.747393608093262,-0.213623046875,-0.1220703125,-0.244140625
1.7374999000000002,0.1975216418504715,-0.020949264988303185,9.740211486816406,-0.1220703125,-0.030517578125,-0.18310546875
1.7424999,0.19931729137897491,-0.02753331884741783,9.734824180603027,-0.06103515625,-0.091552734375,-0.1220703125
1.7474999000000002,0.2017114907503128,-0.02274491637945175,9.733627319335938,-0.091552734375,0,-0.091552734375
1.7524999,0.20290859043598175,-0.02454056777060032,9.73661994934082,-0.1220703125,0,-0.18310546875
1.7574999000000002,0.2082955539226532,-0.01735796220600605,9.743204116821289,-0.1220703125,-0.244140625,-0.06103515625
1.7624999000000001,0.21009120345115662,-0.013766659423708916,9.750985145568848,0.030517578125,-0.30517578125,-0.213623046875
1.7674999000000002,0.21009120345115662,-0.013766659423708916,9.750985145568848,0.030517578125,-0.30517578125,-0.213623046875
1.7724999000000001,0.21128830313682556,-0.013168109580874443,9.75517463684082,-0.091552734375,0,-0.274658203125
1.7774999000000002,0.20889410376548767,-0.011372458189725876,9.756970405578613,0.152587890625,-0.152587890625,-0.152587890625
1.7824999000000001,0.2082955539226532,-0.016160860657691956,9.756970405578613,0.030517578125,-0.06103515625,-0.091552734375
1.7874999000000003,0.20350714027881622,-0.018555063754320145,9.75278091430664,-0.091552734375,-0.091552734375,-0.244140625
1.7924999000000001,0.20051439106464386,-0.021547814831137657,9.747393608093262,-0.1220703125,0.030517578125,-0.30517578125
1.7974999,0.1999158412218094,-0.02454056777060032,9.741408348083496,-0.06103515625,-0.030517578125,-0.06103515625
1.8024999000000002,0.19812019169330597,-0.020949264988303185,9.73781681060791,-0.06103515625,-0.06103515625,-0.030517578125
1.8074999,0.1999158412218094,-0.023343466222286224,9.73542308807373,-0.091552734375,-0.091552734375,-0.30517578125
1.8124999000000002,0.20231004059314728,-0.019153613597154617,9.736021041870117,-0.030517578125,-0.18310546875,-0.091552734375
1.8174999,0.2059013396501541,-0.021547814831137657,9.740211486816406,0,0,-0.152587890625
1.8224999000000002,0.2082955539226532,-0.01975216343998909,9.743802070617676,-0.06103515625,-0.030517578125,-0.274658203125
1.8274999,0.20949265360832214,-0.020350715145468712,9.750985145568848,-0.091552734375,-0.152587890625,-0.18310546875
1.8324999000000002,0.21009120345115662,-0.02274491637945175,9.757569313049316,0.030517578125,-0.030517578125,0
1.8374999,0.20769700407981873,-0.025737667456269264,9.763554573059082,0,-0.030517578125,0
1.8424999000000002,0.2059013396501541,-0.0293289702385664,9.768342971801758,-0.06103515625,0.1220703125,-0.152587890625
1.8474999,0.20231004059314728,-0.02992752194404602,9.767146110534668,0,-0.030517578125,-0.213623046875
1.8524999000000002,0.19812019169330597,-0.028131870552897453,9.761758804321289,-0.06103515625,0.030517578125,-0.18310546875
1.8574999,0.19632454216480255,-0.02454056777060032,9.754576683044434,-0.1220703125,0.06103515625,-0.030517578125
1.8624999000000002,0.1933317929506302,-0.020350715145468712,9.746196746826172,-0.091552734375,-0.213623046875,0
1.8674999,0.19393034279346466,-0.016160860657691956,9.740809440612793,-0.1220703125,-0.091552734375,-0.152587890625
1.8724999000000002,0.1951274424791336,-0.01496376097202301,9.739612579345703,-0.091552734375,-0.030517578125,-0.274658203125
1.8774999,0.19572599232196808,-0.011971008032560349,9.739612579345703,-0.06103515625,0,-0.244140625
1.8824999000000002,0.19812019169330597,-0.012569558806717396,9.744400978088379,-0.091552734375,0.18310546875,0.030517578125
1.8874999000000001,0.20051439106464386,-0.011372458189725876,9.749788284301758,-0.091552734375,0.06103515625,-0.1220703125
1.8924999000000002,0.20290859043598175,-0.011372458189725876,9.75637149810791,-0.030517578125,-0.06103515625,-0.213623046875
1.8974999000000001,0.2041056901216507,-0.010175357572734356,9.75637149810791,-0.091552734375,-0.06103515625,-0.091552734375
1.9024999000000002,0.20350714027881622,-0.010175357572734356,9.754576683044434,-0.06103515625,0,-0.152587890625
1.9074999000000001,0.1999158412218094,-0.010175357572734356,9.747992515563965,0.1220703125,-0.152587890625,-0.152587890625
1.9124999000000003,0.19812019169330597,-0.013766659423708916,9.740809440612793,-0.06103515625,-0.06103515625,-0.1220703125
1.9174999000000001,0.19572599232196808,-0.016759412363171577,9.734225273132324,-0.091552734375,0.091552734375,-0.152587890625
1.9224999,0.19871874153614044,-0.020350715145468712,9.734824180603027,-0.091552734375,0.091552734375,-0.335693359375
1.9274999000000002,0.2017114907503128,-0.021547814831137657,9.733627319335938,-0.091552734375,-0.030517578125,-0.1220703125
1.9324999,0.20769700407981873,-0.02214636653661728,9.740211486816406,-0.1220703125,-0.030517578125,-0.244140625
1.9374999000000002,0.21128830313682556,-0.02274491637945175,9.744400978088379,-0.1220703125,-0.030517578125,-0.274658203125
1.9424999,0.2124854028224945,-0.02214636653661728,9.749189376831055,-0.244140625,0.06103515625,-0.274658203125
1.9474999000000002,0.2124854028224945,-0.01975216343998909,9.75517463684082,-0.18310546875,0.06103515625,-0.213623046875
1.9524999,0.21009120345115662,-0.020350715145468712,9.755773544311523,-0.091552734375,0,-0.213623046875
1.9574999000000002,0.20769700407981873,-0.019153613597154617,9.75397777557373,-0.06103515625,-0.06103515625,-0.18310546875
1.9624999,0.2059013396501541,-0.023942016065120697,9.749788284301758,-0.18310546875,-0.06103515625,-0.30517578125
1.9674999000000002,0.20290859043598175,-0.026336219161748886,9.742006301879883,-0.152587890625,-0.06103515625,-0.244140625
1.9724999,0.20231004059314728,-0.030526071786880493,9.739013671875,0,-0.06103515625,-0.1220703125
1.9774999000000002,0.20231004059314728,-0.03232172131538391,9.73781681060791,0.06103515625,-0.091552734375,-0.1220703125
1.9824999,0.20470423996448517,-0.02992752194404602,9.738415718078613,-0.152587890625,-0.152587890625,0
1.9874999000000002,0.20709845423698425,-0.02693476900458336,9.742006301879883,0,0,-0.152587890625
1.9924999,0.21009120345115662,-0.02454056777060032,9.741408348083496,-0.030517578125,0.06103515625,-0.1220703125
1.9974999000000002,0.2106897532939911,-0.02214636653661728,9.739612579345703,0.030517578125,-0.18310546875,-0.091552734375
2.0024999,0.21308395266532898,-0.02513911761343479,9.739612579345703,0.06103515625,0.030517578125,-0.213623046875
2.0074999,0.21308395266532898,-0.025737667456269264,9.740211486816406,0.030517578125,0,-0.18310546875
2.0124999000000003,0.21607670187950134,-0.02693476900458336,9.742605209350586,-0.030517578125,0,-0.244140625
2.0174999000000002,0.21308395266532898,-0.02693476900458336,9.748590469360352,-0.091552734375,-0.18310546875,-0.030517578125
2.0224999,0.20949265360832214,-0.0293289702385664,9.750386238098145,-0.1220703125,-0.030517578125,0
2.0274999,0.20470423996448517,-0.03172317147254944,9.75517463684082,0.06103515625,0,-0.06103515625
2.0324999000000004,0.19692309200763702,-0.0347159244120121,9.755773544311523,-0.06103515625,0.030517578125,-0.244140625
2.0374999000000003,0.19572599232196808,-0.03531447425484657,9.754576683044434,0.091552734375,0,-0.244140625
2.0424999,0.19393034279346466,-0.0347159244120121,9.749189376831055,0.030517578125,0,-0.1220703125
2.0474999,0.19812019169330597,-0.03232172131538391,9.742006301879883,-0.06103515625,-0.06103515625,-0.18310546875
2.0524999,0.20231004059314728,-0.028131870552897453,9.73781681060791,-0.1220703125,-0.030517578125,-0.18310546875
2.0574999000000003,0.20709845423698425,-0.023343466222286224,9.73661994934082,0,0.091552734375,-0.213623046875
2.0624999,0.21188685297966003,-0.01735796220600605,9.740809440612793,0.030517578125,0.1220703125,-0.213623046875
2.0674999,0.2106897532939911,-0.014365210197865963,9.743204116821289,-0.1220703125,0,-0.244140625
2.0724999,0.20709845423698425,-0.012569558806717396,9.744999885559082,0.030517578125,0,-0.152587890625
2.0774999000000003,0.20111294090747833,-0.012569558806717396,9.747393608093262,0.091552734375,0.091552734375,-0.091552734375
2.0824999,0.19452889263629913,-0.015562310814857483,9.750386238098145,-0.030517578125,0.091552734375,-0.152587890625
2.0874999,0.18974047899246216,-0.013766659423708916,9.754576683044434,0,-0.06103515625,-0.091552734375
2.0924999,0.18974047899246216,-0.01496376097202301,9.761159896850586,-0.1220703125,-0.06103515625,-0.213623046875
2.0974999000000003,0.19033902883529663,-0.012569558806717396,9.761758804321289,-0.030517578125,0.030517578125,-0.244140625
2.1024999,0.19452889263629913,-0.01496376097202301,9.7605619430542,0,0.030517578125,-0.213623046875
2.1074999,0.1975216418504715,-0.017956512048840523,9.75637149810791,-0.1220703125,0.06103515625,-0.18310546875
2.1124999,0.20111294090747833,-0.021547814831137657,9.749189376831055,-0.091552734375,0.1220703125,-0.244140625
2.1174999000000003,0.20231004059314728,-0.02513911761343479,9.742006301879883,-0.06103515625,0.030517578125,-0.091552734375
2.1224999,0.20470423996448517,-0.023343466222286224,9.73781681060791,-0.030517578125,0.06103515625,-0.213623046875
2.1274999,0.2064998894929886,-0.020350715145468712,9.736021041870117,-0.06103515625,-0.030517578125,-0.213623046875
2.1324999,0.2064998894929886,-0.020350715145468712,9.736021041870117,-0.06103515625,-0.030517578125,-0.213623046875
2.1374999000000003,0.20709845423698425,-0.017956512048840523,9.73542308807373,-0.091552734375,0.1220703125,-0.213623046875
2.1424999000000002,0.20709845423698425,-0.015562310814857483,9.740211486816406,-0.030517578125,0.06103515625,-0.18310546875
2.1474999,0.2059013396501541,-0.016759412363171577,9.746196746826172,-0.06103515625,0.091552734375,-0.244140625
2.1524999,0.2059013396501541,-0.020949264988303185,9.75278091430664,0,0.152587890625,-0.152587890625
2.1574999000000004,0.20769700407981873,-0.023942016065120697,9.7605619430542,-0.091552734375,0.213623046875,-0.152587890625
2.1624999000000003,0.21188685297966003,-0.02753331884741783,9.761758804321289,-0.091552734375,0.06103515625,-0.152587890625
2.1674999,0.21428105235099792,-0.023343466222286224,9.759963035583496,0,0.1220703125,-0.091552734375
2.1724999,0.21308395266532898,-0.018555063754320145,9.75517463684082,-0.06103515625,0.06103515625,-0.18310546875
2.1774999000000004,0.20949265360832214,-0.011971008032560349,9.746196746826172,-0.091552734375,0.18310546875,-0.274658203125
2.1824999000000003,0.20231004059314728,-0.009576806798577309,9.741408348083496,0.18310546875,0.152587890625,0.06103515625
2.1874999,0.1975216418504715,-0.0071826050989329815,9.73542308807373,-0.030517578125,0.091552734375,0.1220703125
2.1924999,0.1951274424791336,-0.009576806798577309,9.73661994934082,0,0.18310546875,0.1220703125
2.1974999,0.19632454216480255,-0.010175357572734356,9.742006301879883,0.030517578125,0.30517578125,0.06103515625
2.2024999000000003,0.19572599232196808,-0.013766659423708916,9.750985145568848,-0.091552734375,0.213623046875,0.152587890625
2.2074999,0.19812019169330597,-0.018555063754320145,9.762955665588379,-0.030517578125,0.335693359375,-0.030517578125
2.2124999,0.19871874153614044,-0.020949264988303185,9.770736694335938,0.091552734375,0.396728515625,-0.091552734375
2.2174999,0.19812019169330597,-0.02214636653661728,9.774328231811523,0.1220703125,0.335693359375,0.030517578125
2.2224999000000003,0.19572599232196808,-0.019153613597154617,9.77253246307373,0.030517578125,0.42724609375,0.091552734375
2.2274999,0.19572599232196808,-0.016759412363171577,9.766547203063965,-0.18310546875,0.3662109375,-0.06103515625
2.2324999,0.19393034279346466,-0.016759412363171577,9.758167266845703,-0.213623046875,0.3662109375,-0.1220703125
2.2374999,0.19572599232196808,-0.016759412363171577,9.750985145568848,-0.1220703125,0.213623046875,-0.244140625
2.2424999000000003,0.19393034279346466,-0.017956512048840523,9.740809440612793,-0.06103515625,0.30517578125,-0.091552734375
2.2474999,0.19273324310779572,-0.020949264988303185,9.73781681060791,-0.091552734375,0.42724609375,-0.1220703125
2.2524999,0.19213469326496124,-0.023343466222286224,9.733028411865234,-0.152587890625,0.244140625,-0.152587890625
2.2574999,0.19393034279346466,-0.02693476900458336,9.740809440612793,-0.1220703125,0.274658203125,-0.152587890625
2.2624999000000003,0.19572599232196808,-0.02992752194404602,9.745597839355469,0,0.335693359375,-0.18310546875
2.2674999000000002,0.1999158412218094,-0.028730420395731926,9.75517463684082,-0.091552734375,0.396728515625,-0.244140625
2.2724999,0.19572599232196808,-0.02693476900458336,9.757569313049316,-0.091552734375,0.30517578125,-0.1220703125
2.2774999,0.19213469326496124,-0.021547814831137657,9.755773544311523,-0.030517578125,0.335693359375,-0.213623046875
2.2824999000000004,0.18794482946395874,-0.01735796220600605,9.749189376831055,0.06103515625,0.244140625,-0.213623046875
2.2874999000000003,0.1825578808784485,-0.015562310814857483,9.742605209350586,-0.030517578125,0.1220703125,-0.06103515625
2.2924999,0.181959331035614,-0.015562310814857483,9.737217903137207,-0.030517578125,0.06103515625,-0.244140625
2.2974999,0.181959331035614,-0.016759412363171577,9.733627319335938,-0.030517578125,0.06103515625,-0.274658203125
2.3024999000000004,0.1801636815071106,-0.018555063754320145,9.73542308807373,-0.091552734375,0.213623046875,-0.30517578125
2.3074999000000003,0.18375498056411743,-0.01735796220600605,9.73661994934082,-0.152587890625,0.030517578125,-0.30517578125
2.3124999,0.1843535304069519,-0.019153613597154617,9.741408348083496,0,-0.030517578125,-0.213623046875
2.3174999,0.18734627962112427,-0.01735796220600605,9.746196746826172,-0.244140625,0.091552734375,-0.30517578125
2.3224999,0.18794482946395874,-0.017956512048840523,9.750386238098145,-0.335693359375,0.1220703125,-0.335693359375
2.3274999000000003,0.18555063009262085,-0.013766659423708916,9.752182006835938,-0.091552734375,0.06103515625,-0.244140625
2.3324999,0.18734627962112427,-0.012569558806717396,9.75517463684082,-0.030517578125,0,0.030517578125
2.3374999,0.1885433793067932,-0.010773907415568829,9.756970405578613,-0.244140625,0.06103515625,0.091552734375
2.3424999,0.19393034279346466,-0.013168109580874443,9.762357711791992,-0.18310546875,0.030517578125,-0.030517578125
2.3474999000000003,0.20051439106464386,-0.013168109580874443,9.765948295593262,-0.030517578125,0.030517578125,-0.030517578125
2.3524999,0.2017114907503128,-0.011372458189725876,9.766547203063965,-0.18310546875,0.030517578125,0.06103515625
2.3574999,0.20709845423698425,-0.011971008032560349,9.7605619430542,-0.152587890625,0.091552734375,0
2.3624999,0.20769700407981873,-0.009576806798577309,9.75397777557373,-0.1220703125,0.18310546875,0.030517578125
2.3674999000000003,0.20949265360832214,-0.016160860657691956,9.749189376831055,-0.244140625,0.274658203125,0
2.3724999,0.21428105235099792,-0.021547814831137657,9.751583099365234,-0.213623046875,0.18310546875,0.030517578125
2.3774999,0.19931729137897491,-0.03531447425484657,9.788095474243164,-0.030517578125,0.18310546875,-0.18310546875
2.3824999,0.1759738177061081,-0.015562310814857483,9.767146110534668,0.091552734375,0.762939453125,0.8544921875
2.3874999000000003,0.23942017555236816,-0.040701430290937424,9.783307075500488,-0.06103515625,-0.213623046875,0.518798828125
2.3924999000000002,0.16879121959209442,-0.008379706181585789,9.742006301879883,-0.030517578125,1.03759765625,-0.823974609375
2.3974999,0.26396074891090393,-0.026336219161748886,9.733028411865234,-0.152587890625,0.06103515625,0.091552734375
2.4024999,0.20889410376548767,-0.02753331884741783,9.721057891845703,-0.18310546875,0.3662109375,-0.152587890625
2.4074999000000004,0.21607670187950134,-0.021547814831137657,9.731831550598145,-0.091552734375,0.6103515625,-0.244140625
2.4124999000000003,0.20470423996448517,-0.04429273307323456,9.73661994934082,-0.030517578125,0.152587890625,-0.030517578125
2.4174999,0.17657238245010376,-0.030526071786880493,9.737217903137207,-0.091552734375,0.396728515625,-0.335693359375
2.4224999,0.17836803197860718,-0.0454898327589035,9.740809440612793,-0.1220703125,0.06103515625,0.1220703125
2.4274999000000004,0.15562310814857483,-0.040701430290937424,9.742006301879883,-0.030517578125,0.1220703125,-0.1220703125
2.4324999000000003,0.16400282084941864,-0.03711012750864029,9.742006301879883,-0.030517578125,0.244140625,-0.213623046875
2.4374999,0.1693897694349289,-0.03711012750864029,9.739612579345703,-0.06103515625,0.213623046875,-0.1220703125
2.4424999,0.17477671802043915,-0.026336219161748886,9.734824180603027,-0.152587890625,0.091552734375,-0.274658203125
2.4474999,0.19033902883529663,-0.02992752194404602,9.731831550598145,-0.030517578125,-0.091552734375,-0.1220703125
2.4524999000000003,0.19033902883529663,-0.026336219161748886,9.734225273132324,0.1220703125,0.091552734375,-0.18310546875
2.4574999,0.19393034279346466,-0.0293289702385664,9.741408348083496,0.030517578125,0.213623046875,-0.335693359375
2.4624999,0.19452889263629913,-0.02454056777060032,9.748590469360352,0.091552734375,0,-0.091552734375
2.4674999,0.19213469326496124,-0.021547814831137657,9.754576683044434,-0.06103515625,0.030517578125,-0.1220703125
2.4724999000000003,0.1933317929506302,-0.01735796220600605,9.757569313049316,-0.091552734375,0.1220703125,0
2.4774999,0.19213469326496124,-0.014365210197865963,9.758766174316406,-0.152587890625,0.152587890625,-0.244140625
2.4824999,0.19393034279346466,-0.01496376097202301,9.759963035583496,-0.06103515625,0.1220703125,-0.1220703125
2.4874999,0.19632454216480255,-0.01496376097202301,9.758167266845703,-0.030517578125,0.091552734375,-0.030517578125
2.4924999000000003,0.19632454216480255,-0.01496376097202301,9.758167266845703,-0.030517578125,0.091552734375,-0.030517578125
2.4974999,0.19812019169330597,-0.015562310814857483,9.75397777557373,-0.091552734375,0.091552734375,-0.18310546875
2.5024999,0.2059013396501541,-0.016160860657691956,9.749788284301758,-0.18310546875,0.18310546875,-0.30517578125
2.5074999,0.2059013396501541,-0.013766659423708916,9.745597839355469,-0.274658203125,0.244140625,-0.42724609375
2.5124999000000003,0.21128830313682556,-0.013168109580874443,9.743802070617676,-0.213623046875,0.213623046875,-0.244140625
2.5174999000000002,0.20470423996448517,-0.013168109580874443,9.743204116821289,-0.244140625,0.244140625,-0.335693359375
2.5224999,0.19871874153614044,-0.015562310814857483,9.743802070617676,-0.18310546875,0.244140625,-0.244140625
2.5274999,0.19153612852096558,-0.020949264988303185,9.743802070617676,-0.244140625,0.1220703125,-0.213623046875
2.5324999000000004,0.1825578808784485,-0.02214636653661728,9.743204116821289,-0.06103515625,0.18310546875,-0.3662109375
2.5374999000000003,0.1777694821357727,-0.017956512048840523,9.742006301879883,-0.06103515625,0.030517578125,-0.274658203125
2.5424999,0.17477671802043915,-0.018555063754320145,9.739013671875,-0.030517578125,0.091552734375,-0.335693359375
2.5474999,0.17537526786327362,-0.013766659423708916,9.734824180603027,-0.18310546875,0,-0.30517578125
2.5524999000000004,0.17836803197860718,-0.017956512048840523,9.734824180603027,-0.244140625,0.213623046875,-0.42724609375
2.5574999000000003,0.18495208024978638,-0.020949264988303185,9.734824180603027,-0.030517578125,0.091552734375,-0.3662109375
2.5624999,0.18794482946395874,-0.023343466222286224,9.739013671875,0.091552734375,0.030517578125,-0.213623046875
2.5674999,0.1909375786781311,-0.026336219161748886,9.743802070617676,-0.06103515625,0.213623046875,-0.18310546875
2.5724999,0.19153612852096558,-0.02274491637945175,9.747393608093262,-0.06103515625,0.213623046875,-0.1220703125
2.5774999000000003,0.19033902883529663,-0.021547814831137657,9.750386238098145,0,0.1220703125,-0.1220703125
2.5824999,0.18974047899246216,-0.015562310814857483,9.751583099365234,-0.030517578125,0,-0.18310546875
2.5874999,0.18734627962112427,-0.01496376097202301,9.75397777557373,0.06103515625,0.091552734375,-0.152587890625
2.5924999,0.18974047899246216,-0.018555063754320145,9.755773544311523,-0.152587890625,0.030517578125,-0.1220703125
2.5974999000000003,0.1909375786781311,-0.023343466222286224,9.757569313049316,-0.18310546875,0,0.06103515625
2.6024999,0.1933317929506302,-0.03232172131538391,9.75936508178711,-0.1220703125,0.152587890625,-0.030517578125
2.6074999,0.19572599232196808,-0.031124621629714966,9.757569313049316,-0.030517578125,0.06103515625,-0.152587890625
2.6124999,0.19393034279346466,-0.03292027488350868,9.755773544311523,-0.06103515625,0.091552734375,-0.152587890625
2.6174999000000003,0.19153612852096558,-0.02753331884741783,9.752182006835938,-0.091552734375,0.1220703125,-0.18310546875
2.6224999,0.18555063009262085,-0.02454056777060032,9.750386238098145,0,0.06103515625,-0.152587890625
2.6274999,0.181959331035614,-0.01975216343998909,9.748590469360352,-0.030517578125,0.030517578125,-0.30517578125
2.6324999,0.17717093229293823,-0.015562310814857483,9.747393608093262,-0.06103515625,0.030517578125,-0.30517578125
2.6374999000000003,0.1801636815071106,-0.014365210197865963,9.749189376831055,0.030517578125,-0.030517578125,-0.244140625
2.6424999000000002,0.181959331035614,-0.01496376097202301,9.748590469360352,0.091552734375,0.091552734375,-0.274658203125
2.6474999,0.19033902883529663,-0.01735796220600605,9.749788284301758,0,-0.06103515625,-0.06103515625
2.6524999,0.19153612852096558,-0.01975216343998909,9.749189376831055,0,0.030517578125,-0.18310546875
2.6574999000000004,0.19273324310779572,-0.020350715145468712,9.748590469360352,0.06103515625,0.213623046875,-0.274658203125
2.6624999000000003,0.18555063009262085,-0.021547814831137657,9.748590469360352,0,0.213623046875,-0.213623046875
2.6674999,0.16879121959209442,-0.03651157766580582,9.743802070617676,-0.1220703125,0.274658203125,-0.67138671875
2.6724999,0.1711854189634323,-0.010773907415568829,9.75397777557373,-0.030517578125,-0.213623046875,-1.068115234375
2.6774999000000004,0.16340427100658417,-0.04189852997660637,9.747393608093262,0,0.152587890625,-0.274658203125
2.6824999000000003,0.18076223134994507,0.002992752008140087,9.755773544311523,-0.1220703125,0.152587890625,-0.18310546875
2.6874999,0.18495208024978638,-0.031124621629714966,9.753378868103027,-0.091552734375,0.091552734375,-0.1220703125
2.6924999,0.2017114907503128,-0.0077811554074287415,9.750386238098145,-0.030517578125,0.1220703125,-0.244140625
2.6974999,0.20290859043598175,-0.031124621629714966,9.750386238098145,0,0,-0.152587890625
2.7024999000000003,0.2059013396501541,-0.01975216343998909,9.750386238098145,-0.030517578125,0,-0.30517578125
2.7074999,0.20949265360832214,-0.017956512048840523,9.749788284301758,0.030517578125,0.030517578125,-0.1220703125
2.7124999,0.20350714027881622,-0.012569558806717396,9.750386238098145,-0.244140625,0.18310546875,0.030517578125
2.7174999,0.20470423996448517,-0.002992752008140087,9.746794700622559,-0.1220703125,0.244140625,-0.091552734375
2.7224999000000003,0.20111294090747833,-0.010175357572734356,9.746794700622559,-0.3662109375,0.274658203125,-0.244140625
2.7274999,0.1999158412218094,-0.010773907415568829,9.747393608093262,-0.335693359375,0.30517578125,-0.335693359375
2.7324999,0.1885433793067932,-0.016759412363171577,9.750386238098145,-0.244140625,0.3662109375,-0.54931640625
2.7374999,0.18794482946395874,-0.019153613597154617,9.757569313049316,-0.244140625,0.30517578125,-0.48828125
2.7424999000000003,0.17956513166427612,-0.01735796220600605,9.75936508178711,0.06103515625,0.30517578125,-0.18310546875
2.7474999,0.17956513166427612,-0.01735796220600605,9.758766174316406,-0.091552734375,0.274658203125,-0.30517578125
2.7524999,0.1843535304069519,-0.013168109580874443,9.75278091430664,-0.091552734375,0.274658203125,-0.274658203125
2.7574999,0.18555063009262085,-0.01496376097202301,9.747992515563965,-0.030517578125,0.213623046875,-0.18310546875
2.7624999000000003,0.18614917993545532,-0.012569558806717396,9.742605209350586,0.091552734375,0.18310546875,-0.213623046875
2.7674999000000002,0.18495208024978638,-0.020350715145468712,9.742605209350586,-0.091552734375,0.42724609375,-0.274658203125
2.7724999,0.17956513166427612,-0.02513911761343479,9.743802070617676,-0.091552734375,0.030517578125,-0.18310546875
2.7774999,0.1735796183347702,-0.0347159244120121,9.747992515563965,0,0.091552734375,-0.274658203125
2.7824999000000004,0.16639702022075653,-0.040701430290937424,9.751583099365234,0,0.213623046875,-0.457763671875
2.7874999000000003,0.15921440720558167,-0.04489128291606903,9.757569313049316,0.030517578125,0,-0.48828125
2.7924999,0.15682020783424377,-0.04967968538403511,9.758766174316406,0.06103515625,-0.18310546875,-0.274658203125
2.7974999,0.15981295704841614,-0.08259996026754379,9.78869342803955,0.091552734375,-0.18310546875,-0.48828125
2.8024999000000004,0.5991489887237549,0.05386953800916672,9.75278091430664,1.983642578125,-1.708984375,-3.204345703125
2.8074999000000003,-0.5093663930892944,-0.07661445438861847,9.533711433410645,-2.74658203125,5.9814453125,-8.544921875
2.8124999,0.48901569843292236,-0.15741875767707825,9.536704063415527,0.823974609375,-5.9814453125,0.42724609375
2.8174999,-0.7218518257141113,-0.02214636653661728,9.355342864990234,1.03759765625,-0.6103515625,3.173828125
2.8224999,-0.05506663769483566,-0.2687491476535797,9.413402557373047,-0.946044921875,1.251220703125,-0.762939453125
2.8274999000000003,0.017956512048840523,0.058059390634298325,9.536105155944824,-0.3662109375,-2.227783203125,1.89208984375
2.8324999,0.08978256583213806,0.021547814831137657,9.601346969604492,0.1220703125,1.3427734375,-1.495361328125
2.8374999,0.32860419154167175,0.1215057373046875,9.707889556884766,0.1220703125,-0.8544921875,0.8544921875
2.8424999,0.22505496442317963,0.06344634294509888,9.751583099365234,0.030517578125,0.30517578125,-0.67138671875
2.8474999000000003,0.2968810200691223,0.07302315533161163,9.79527759552002,0.030517578125,-0.244140625,0.42724609375
2.8524999,0.21368250250816345,-0.016759412363171577,9.797073364257812,-0.152587890625,-0.42724609375,0.42724609375
2.8574999,0.21368250250816345,-0.016759412363171577,9.797073364257812,-0.152587890625,-0.42724609375,0.42724609375
2.8624999,0.20889410376548767,0.0071826050989329815,9.786897659301758,-0.06103515625,-0.152587890625,-0.030517578125
2.8674999000000003,0.20051439106464386,-0.0520738884806633,9.77791976928711,0.091552734375,-0.396728515625,0.213623046875
2.8724999,0.1909375786781311,-0.019153613597154617,9.769539833068848,0.1220703125,-0.091552734375,-0.091552734375
2.8774999,0.1933317929506302,-0.03531447425484657,9.757569313049316,0.1220703125,0.030517578125,-0.213623046875
2.8824999,0.19033902883529663,-0.02454056777060032,9.75397777557373,0.1220703125,-0.1220703125,-0.30517578125
2.8874999000000003,0.18315643072128296,-0.02274491637945175,9.747992515563965,0.030517578125,-0.213623046875,-0.3662109375
2.8924999000000002,0.18076223134994507,-0.02992752194404602,9.743204116821289,0.1220703125,-0.3662109375,-0.091552734375
2.8974999,0.17417816817760468,-0.025737667456269264,9.737217903137207,0.1220703125,-0.335693359375,-0.30517578125
2.9024999,0.1693897694349289,-0.0347159244120121,9.736021041870117,0.18310546875,-0.30517578125,-0.457763671875
2.9074999000000004,0.1693897694349289,-0.0293289702385664,9.734824180603027,0.274658203125,-0.518798828125,-0.152587890625
2.9124999000000003,0.16759411990642548,-0.05686229094862938,9.765350341796875,0.274658203125,-0.518798828125,-0.1220703125
2.9174999,0.1604115068912506,-0.031124621629714966,9.75397777557373,0.274658203125,-0.30517578125,0.640869140625
2.9224999,0.1825578808784485,-0.043095629662275314,9.77253246307373,0.1220703125,-0.48828125,0.3662109375
2.9274999000000004,0.17477671802043915,-0.018555063754320145,9.745597839355469,0.06103515625,-0.244140625,-0.396728515625
2.9324999000000003,0.2041056901216507,0.004189853090792894,9.736021041870117,0.06103515625,-0.54931640625,-0.091552734375
2.9374999,0.19452889263629913,-0.0071826050989329815,9.722254753112793,0.1220703125,-0.48828125,-0.18310546875
2.9424999,0.21607670187950134,0.023343466222286224,9.727043151855469,0.091552734375,-0.3662109375,-0.30517578125
2.9474999,0.20709845423698425,0.004788403399288654,9.733028411865234,0.091552734375,-0.152587890625,-0.06103515625
2.9524999000000003,0.21787235140800476,0.02753331884741783,9.742605209350586,0.06103515625,-0.244140625,-0.091552734375
2.9574999,0.22086510062217712,0.01735796220600605,9.750386238098145,0.152587890625,-0.213623046875,-0.06103515625
2.9624999,0.21308395266532898,0.009576806798577309,9.758766174316406,0.244140625,-0.18310546875,-0.030517578125
2.9674999,0.20949265360832214,0,9.764751434326172,0.1220703125,-0.244140625,-0.152587890625
2.9724999000000003,0.19812019169330597,-0.017956512048840523,9.767744064331055,0.06103515625,0,-0.030517578125
2.9774999,0.19213469326496124,-0.021547814831137657,9.766547203063965,0.30517578125,-0.213623046875,0.06103515625
2.9824999,0.1867477297782898,-0.033518824726343155,9.761758804321289,0.244140625,-0.274658203125,0
2.9874999,0.19273324310779572,-0.030526071786880493,9.755773544311523,0.091552734375,-0.30517578125,0.18310546875
2.9924999000000003,0.19812019169330597,-0.03292027488350868,9.751583099365234,-0.06103515625,-0.1220703125,0.091552734375
2.9974999,0.2059013396501541,-0.026336219161748886,9.749189376831055,0.244140625,-0.1220703125,0.152587890625
3.0024999,0.2082955539226532,-0.02513911761343479,9.747992515563965,0.213623046875,-0.1220703125,0.244140625
3.0074999,0.20530278980731964,-0.02274491637945175,9.746794700622559,0.030517578125,-0.030517578125,0.244140625
3.0124999000000003,0.19871874153614044,-0.023942016065120697,9.745597839355469,0.152587890625,-0.091552734375,0.1220703125
3.0174999000000002,0.19213469326496124,-0.028131870552897453,9.744400978088379,0.152587890625,0.030517578125,0
3.0224999,0.18794482946395874,-0.031124621629714966,9.744999885559082,0.244140625,-0.152587890625,-0.030517578125
3.0274999,0.21128830313682556,0.0011971008498221636,9.754576683044434,0.274658203125,-0.244140625,0.1220703125
3.0324999000000004,0.22266076505184174,-0.020350715145468712,9.75278091430664,0.18310546875,-0.152587890625,-1.251220703125
3.0374999000000003,0.1975216418504715,-0.009576806798577309,9.75397777557373,0.18310546875,0.244140625,-1.0986328125
3.0424999,0.2017114907503128,-0.03531447425484657,9.748590469360352,0.30517578125,-0.244140625,0.152587890625
3.0474999,0.15322890877723694,-0.05925649031996727,9.740211486816406,0.30517578125,-0.152587890625,-0.030517578125
3.0524999000000004,0.14185644686222076,-0.05386953800916672,9.733627319335938,0.18310546875,0,-0.152587890625
3.0574999000000003,0.13766659796237946,-0.05267243832349777,9.731232643127441,0.1220703125,-0.213623046875,0.244140625
3.0624999,0.13168109953403473,-0.043095629662275314,9.727641105651855,-0.1220703125,-0.396728515625,0.42724609375
3.0674999,0.06823474913835526,-0.043095629662275314,9.717466354370117,-0.18310546875,-0.396728515625,0.48828125
3.0724999000000004,0.1364694982767105,-0.02693476900458336,9.729436874389648,-0.3662109375,-1.28173828125,2.410888671875
3.0774999000000003,0.1867477297782898,-0.03172317147254944,9.744999885559082,-0.18310546875,-0.79345703125,0.762939453125
3.0824999,0.18734627962112427,-0.002992752008140087,9.744400978088379,0.1220703125,1.52587890625,-1.068115234375
3.0874999,0.3274070918560028,-0.0017956512747332454,9.767744064331055,-0.18310546875,-0.91552734375,0.6103515625
3.0924999,0.2890998423099518,-0.0347159244120121,9.764751434326172,-0.244140625,-0.579833984375,1.068115234375
3.0974999000000003,0.24660277366638184,-0.014365210197865963,9.758766174316406,-0.091552734375,0.823974609375,1.15966796875
3.1024999,0.25498247146606445,-0.019153613597154617,9.764751434326172,-0.274658203125,-0.457763671875,1.312255859375
3.1074999,0.1867477297782898,-0.026336219161748886,9.758167266845703,-0.30517578125,-0.518798828125,-0.091552734375
3.1124999,0.16759411990642548,0.009576806798577309,9.746794700622559,-0.1220703125,0.6103515625,-0.335693359375
3.1174999000000003,0.16579847037792206,-0.02992752194404602,9.754576683044434,-0.3662109375,-0.274658203125,1.0986328125
3.1224999,0.18495208024978638,-0.008978256024420261,9.747393608093262,-0.18310546875,-0.396728515625,0.885009765625
3.1274999,0.15981295704841614,-0.03172317147254944,9.750386238098145,-0.18310546875,0.1220703125,0.152587890625
3.1324999,0.1777694821357727,0.004189853090792894,9.747992515563965,-0.1220703125,-0.30517578125,0.274658203125
3.1374999000000003,0.16879121959209442,0.005386953707784414,9.742006301879883,-0.091552734375,-0.274658203125,0
3.1424999000000002,0.1711854189634323,0.008978256024420261,9.741408348083496,-0.091552734375,-0.152587890625,-0.3662109375
3.1474999,0.1867477297782898,0.020350715145468712,9.741408348083496,-0.091552734375,-0.091552734375,-0.244140625
3.1524999,0.19033902883529663,-0.0005985504249110818,9.743802070617676,0,-0.213623046875,-0.152587890625
3.1574999000000004,0.19931729137897491,0.004788403399288654,9.747393608093262,-0.091552734375,-0.335693359375,-0.274658203125
3.1624999000000003,0.20051439106464386,-0.011971008032560349,9.745597839355469,-0.030517578125,-0.518798828125,-0.30517578125
3.1674999,0.19871874153614044,-0.015562310814857483,9.746794700622559,-0.18310546875,-0.457763671875,-0.244140625
3.1724999,0.19812019169330597,-0.020949264988303185,9.744999885559082,-0.244140625,-0.48828125,-0.091552734375
3.1774999000000004,0.19692309200763702,-0.02693476900458336,9.748590469360352,-0.3662109375,-0.274658203125,-0.18310546875
3.1824999000000003,0.1975216418504715,-0.02214636653661728,9.751583099365234,-0.18310546875,-0.335693359375,-0.213623046875
3.1874999,0.19812019169330597,-0.025737667456269264,9.75397777557373,-0.18310546875,-0.335693359375,-0.30517578125
3.1924999,0.19931729137897491,-0.021547814831137657,9.756970405578613,-0.274658203125,-0.48828125,-0.18310546875
3.1974999000000004,0.20051439106464386,-0.021547814831137657,9.75517463684082,-0.244140625,-0.42724609375,-0.06103515625
3.2024999000000003,0.20111294090747833,-0.023942016065120697,9.750985145568848,-0.091552734375,-0.18310546875,-0.213623046875
3.2074999,0.2017114907503128,-0.015562310814857483,9.745597839355469,-0.18310546875,-0.213623046875,-0.335693359375
3.2124999,0.18375498056411743,0.013766659423708916,9.736021041870117,-0.152587890625,-0.244140625,-0.335693359375
3.2174999,0.19393034279346466,-0.011372458189725876,9.734824180603027,-0.213623046875,-0.48828125,-0.396728515625
3.2224999000000003,0.19393034279346466,-0.011372458189725876,9.734824180603027,-0.213623046875,-0.48828125,-0.396728515625
3.2274999,0.20949265360832214,-0.005386953707784414,9.737217903137207,-0.18310546875,-0.701904296875,0.091552734375
3.2324999,0.20290859043598175,-0.013766659423708916,9.746196746826172,0.30517578125,0.274658203125,-0.274658203125
3.2374999,0.22385786473751068,-0.06763619929552078,9.752182006835938,-0.06103515625,0,-0.030517578125
3.2424999000000003,0.22685061395168304,-0.02753331884741783,9.7605619430542,-0.152587890625,-0.67138671875,0.06103515625
3.2474999,0.19572599232196808,-0.0586579404771328,9.75278091430664,0,0.335693359375,-0.396728515625
3.2524999,0.21009120345115662,-0.03890577703714371,9.75278091430664,-0.213623046875,0.152587890625,-0.213623046875
3.2574999,0.2017114907503128,-0.0293289702385664,9.747393608093262,-0.06103515625,-0.457763671875,-0.030517578125
3.2624999000000003,0.18974047899246216,-0.03890577703714371,9.742006301879883,0,0.18310546875,-0.30517578125
3.2674999000000002,0.19931729137897491,-0.010175357572734356,9.741408348083496,-0.030517578125,0.1220703125,-0.30517578125
3.2724999,0.20051439106464386,-0.031124621629714966,9.739612579345703,0.06103515625,-0.18310546875,-0.213623046875
3.2774999,0.2017114907503128,-0.015562310814857483,9.739013671875,0.06103515625,0.030517578125,-0.274658203125
3.2824999000000004,0.20530278980731964,-0.01735796220600605,9.743204116821289,-0.091552734375,0,-0.1220703125
3.2874999000000003,0.20769700407981873,-0.02753331884741783,9.743802070617676,-0.152587890625,-0.18310546875,0.030517578125
3.2924999,0.2059013396501541,-0.013766659423708916,9.746794700622559,0.030517578125,-0.091552734375,0.030517578125
3.2974999,0.19871874153614044,-0.02992752194404602,9.745597839355469,0.06103515625,-0.1220703125,-0.213623046875
3.3024999000000004,0.20290859043598175,-0.023343466222286224,9.748590469360352,-0.030517578125,-0.1220703125,-0.18310546875
3.3074999000000003,0.1933317929506302,-0.025737667456269264,9.746794700622559,-0.06103515625,-0.091552734375,-0.06103515625
3.3124999,0.1951274424791336,-0.026336219161748886,9.747992515563965,-0.091552734375,0,-0.213623046875
3.3174999,0.19871874153614044,-0.017956512048840523,9.746196746826172,-0.091552734375,-0.1220703125,-0.1220703125
3.3224999000000004,0.1975216418504715,-0.020949264988303185,9.743802070617676,-0.1220703125,-0.152587890625,-0.152587890625
3.3274999000000003,0.2064998894929886,-0.016160860657691956,9.743204116821289,-0.030517578125,-0.1220703125,-0.030517578125
3.3324999,0.21188685297966003,-0.01975216343998909,9.742006301879883,-0.091552734375,-0.1220703125,-0.06103515625
3.3374999,0.2148796021938324,-0.020350715145468712,9.741408348083496,-0.030517578125,0.030517578125,-0.152587890625
3.3424999,0.21787235140800476,-0.016160860657691956,9.739612579345703,-0.030517578125,-0.1220703125,-0.152587890625
3.3474999000000003,0.21368250250816345,-0.01975216343998909,9.740211486816406,-0.152587890625,-0.152587890625,-0.091552734375
3.3524999,0.20709845423698425,-0.015562310814857483,9.740211486816406,-0.1220703125,0.030517578125,-0.1220703125
3.3574999,0.20111294090747833,-0.018555063754320145,9.743204116821289,-0.1220703125,0.030517578125,-0.1220703125
3.3624999,0.19632454216480255,-0.020350715145468712,9.742605209350586,-0.1220703125,0.030517578125,-0.091552734375
3.3674999000000003,0.1951274424791336,-0.017956512048840523,9.739013671875,0,-0.213623046875,-0.1220703125
3.3724999,0.19572599232196808,-0.01975216343998909,9.734225273132324,-0.030517578125,-0.152587890625,-0.1220703125
3.3774999,0.2017114907503128,-0.013766659423708916,9.731232643127441,0.030517578125,0,-0.18310546875
3.3824999,0.20231004059314728,-0.011971008032560349,9.730035781860352,0.091552734375,0.06103515625,-0.244140625
3.3874999000000003,0.2064998894929886,-0.010175357572734356,9.73542308807373,-0.091552734375,0.1220703125,-0.152587890625
3.3924999000000002,0.20769700407981873,-0.008379706181585789,9.739013671875,-0.091552734375,0.030517578125,-0.1220703125
3.3974999,0.20949265360832214,-0.013766659423708916,9.746196746826172,0.030517578125,0,-0.244140625
3.4024999,0.21188685297966003,-0.013168109580874443,9.749189376831055,-0.213623046875,0.030517578125,-0.244140625
3.4074999000000004,0.2124854028224945,-0.019153613597154617,9.75278091430664,-0.152587890625,-0.030517578125,-0.1220703125
3.4124999000000003,0.2124854028224945,-0.020350715145468712,9.754576683044434,-0.091552734375,-0.274658203125,-0.18310546875
3.4174999,0.20769700407981873,-0.020350715145468712,9.75278091430664,-0.06103515625,-0.1220703125,-0.152587890625
3.4224999,0.20530278980731964,-0.02454056777060032,9.75278091430664,-0.030517578125,0.030517578125,-0.152587890625
3.4274999000000004,0.20111294090747833,-0.02454056777060032,9.750985145568848,0.030517578125,-0.091552734375,-0.152587890625
3.4324999000000003,0.19871874153614044,-0.025737667456269264,9.751583099365234,0.06103515625,-0.091552734375,-0.152587890625
3.4374999,0.19692309200763702,-0.02513911761343479,9.75278091430664,0,0.1220703125,-0.152587890625
3.4424999,0.19452889263629913,-0.02274491637945175,9.75278091430664,-0.091552734375,0.1220703125,-0.091552734375
3.4474999000000004,0.19213469326496124,-0.023343466222286224,9.750985145568848,-0.091552734375,0,-0.30517578125
3.4524999000000003,0.19393034279346466,-0.02214636653661728,9.747992515563965,-0.030517578125,-0.06103515625,-0.335693359375
3.4574999,0.19632454216480255,-0.01975216343998909,9.746196746826172,0.030517578125,-0.152587890625,-0.213623046875
3.4624999,0.20051439106464386,-0.017956512048840523,9.750386238098145,0,0,-0.1220703125
3.4674999,0.20470423996448517,-0.016160860657691956,9.750386238098145,-0.06103515625,-0.030517578125,-0.06103515625
3.4724999000000003,0.20290859043598175,-0.016759412363171577,9.757569313049316,-0.06103515625,-0.06103515625,0
3.4774999,0.20470423996448517,-0.02214636653661728,9.75637149810791,-0.1220703125,0.030517578125,-0.091552734375
3.4824999,0.20290859043598175,-0.02513911761343479,9.75517463684082,-0.152587890625,-0.030517578125,-0.152587890625
3.4874999,0.20231004059314728,-0.028131870552897453,9.752182006835938,-0.030517578125,-0.1220703125,-0.091552734375
3.4924999000000003,0.20290859043598175,-0.0293289702385664,9.750386238098145,0,0,-0.1220703125
3.4974999,0.20111294090747833,-0.02513911761343479,9.749788284301758,-0.030517578125,0,-0.1220703125
3.5024999,0.20051439106464386,-0.02454056777060032,9.750985145568848,-0.06103515625,-0.152587890625,-0.06103515625
3.5074999,0.19931729137897491,-0.020949264988303185,9.752182006835938,-0.030517578125,-0.030517578125,-0.06103515625
3.5124999000000003,0.20051439106464386,-0.020350715145468712,9.753378868103027,-0.091552734375,-0.06103515625,-0.152587890625
3.5174999000000002,0.1999158412218094,-0.020350715145468712,9.75397777557373,-0.030517578125,-0.091552734375,-0.06103515625
3.5224999,0.20290859043598175,-0.01975216343998909,9.752182006835938,-0.06103515625,-0.06103515625,-0.1220703125
3.5274999,0.2041056901216507,-0.019153613597154617,9.749788284301758,-0.030517578125,0.091552734375,-0.152587890625
3.5324999000000004,0.20530278980731964,-0.015562310814857483,9.747393608093262,0,-0.06103515625,-0.213623046875
3.5374999000000003,0.2064998894929886,-0.013168109580874443,9.747992515563965,-0.1220703125,-0.030517578125,-0.244140625
3.5424999,0.2064998894929886,-0.012569558806717396,9.751583099365234,-0.06103515625,-0.06103515625,-0.18310546875
3.5474999,0.20709845423698425,-0.016160860657691956,9.758766174316406,-0.18310546875,0.1220703125,-0.213623046875
3.5524999000000004,0.21009120345115662,-0.020949264988303185,9.767146110534668,-0.091552734375,0.091552734375,-0.091552734375
3.5574999000000003,0.21009120345115662,-0.025737667456269264,9.77133560180664,0.030517578125,-0.06103515625,-0.152587890625
3.5624999,0.21188685297966003,-0.02454056777060032,9.77253246307373,0.06103515625,0.030517578125,-0.18310546875
3.5674999,0.21188685297966003,-0.02454056777060032,9.766547203063965,0.030517578125,0.030517578125,-0.1220703125
3.5724999000000004,0.21009120345115662,-0.017956512048840523,9.758766174316406,-0.030517578125,-0.030517578125,-0.06103515625
3.5774999000000003,0.20949265360832214,-0.015562310814857483,9.750386238098145,0,-0.06103515625,-0.030517578125
3.5824999,0.20949265360832214,-0.015562310814857483,9.750386238098145,0,-0.06103515625,-0.030517578125
3.5874999,0.20889410376548767,-0.013766659423708916,9.743802070617676,-0.091552734375,0,-0.1220703125
3.5924999,0.20889410376548767,-0.013766659423708916,9.740211486816406,-0.030517578125,-0.091552734375,-0.335693359375
3.5974999000000003,0.20769700407981873,-0.016759412363171577,9.740809440612793,0.091552734375,-0.1220703125,-0.274658203125
3.6024999,0.2064998894929886,-0.01735796220600605,9.744999885559082,-0.091552734375,-0.06103515625,-0.1220703125
3.6074999,0.2064998894929886,-0.01735796220600605,9.747393608093262,-0.06103515625,-0.06103515625,-0.091552734375
3.6124999,0.20470423996448517,-0.016160860657691956,9.752182006835938,-0.1220703125,0.030517578125,-0.152587890625
3.6174999000000003,0.20350714027881622,-0.016160860657691956,9.750386238098145,-0.06103515625,0.1220703125,-0.30517578125
3.6224999,0.20290859043598175,-0.01496376097202301,9.748590469360352,-0.06103515625,0,-0.274658203125
3.6274999,0.1999158412218094,-0.016160860657691956,9.746794700622559,-0.1220703125,0.06103515625,-0.18310546875
3.6324999,0.20051439106464386,-0.013766659423708916,9.744400978088379,-0.091552734375,0,-0.18310546875
3.6374999000000003,0.19871874153614044,-0.012569558806717396,9.745597839355469,-0.091552734375,-0.06103515625,-0.1220703125
3.6424999000000002,0.19871874153614044,-0.012569558806717396,9.747393608093262,-0.06103515625,-0.18310546875,-0.213623046875
3.6474999,0.1975216418504715,-0.014365210197865963,9.747992515563965,-0.06103515625,-0.030517578125,-0.30517578125
3.6524999,0.19572599232196808,-0.021547814831137657,9.747992515563965,-0.06103515625,0.030517578125,-0.213623046875
3.6574999000000004,0.1951274424791336,-0.023942016065120697,9.744999885559082,0.030517578125,-0.06103515625,-0.244140625
3.6624999000000003,0.1951274424791336,-0.028131870552897453,9.743802070617676,-0.091552734375,-0.091552734375,-0.091552734375
3.6674999,0.1999158412218094,-0.02693476900458336,9.743204116821289,-0.091552734375,0.1220703125,-0.1220703125
3.6724999,0.2041056901216507,-0.02454056777060032,9.748590469360352,-0.091552734375,-0.030517578125,-0.18310546875
3.6774999000000004,0.20769700407981873,-0.01975216343998909,9.750386238098145,-0.030517578125,-0.06103515625,-0.030517578125
3.6824999000000003,0.2106897532939911,-0.015562310814857483,9.75397777557373,-0.1220703125,0,-0.152587890625
3.6874999,0.20889410376548767,-0.012569558806717396,9.75278091430664,0.030517578125,-0.030517578125,-0.18310546875
3.6924999,0.2082955539226532,-0.010773907415568829,9.752182006835938,-0.091552734375,-0.152587890625,-0.030517578125
3.6974999000000004,0.20949265360832214,-0.011372458189725876,9.749788284301758,-0.06103515625,0,-0.1220703125
3.7024999000000003,0.20949265360832214,-0.013766659423708916,9.749189376831055,-0.030517578125,0.030517578125,-0.1220703125
3.7074999,0.20949265360832214,-0.013766659423708916,9.752182006835938,-0.030517578125,-0.030517578125,-0.244140625
3.7124999,0.20709845423698425,-0.016160860657691956,9.751583099365234,-0.030517578125,-0.06103515625,-0.30517578125
3.7174999,0.20111294090747833,-0.016160860657691956,9.75517463684082,0,-0.030517578125,-0.1220703125
3.7224999000000003,0.19812019169330597,-0.016759412363171577,9.754576683044434,-0.091552734375,0.06103515625,-0.213623046875
3.7274999,0.19273324310779572,-0.017956512048840523,9.753378868103027,-0.152587890625,0.030517578125,-0.18310546875
3.7324999,0.19393034279346466,-0.018555063754320145,9.75278091430664,0,0.091552734375,-0.152587890625
3.7374999,0.19213469326496124,-0.021547814831137657,9.751583099365234,0.1220703125,0.030517578125,-0.152587890625
3.7424999000000003,0.19273324310779572,-0.02513911761343479,9.751583099365234,-0.030517578125,0.06103515625,-0.1220703125
3.7474999,0.19213469326496124,-0.02753331884741783,9.75397777557373,-0.06103515625,0,-0.18310546875
3.7524999,0.19033902883529663,-0.030526071786880493,9.75397777557373,-0.06103515625,-0.06103515625,-0.06103515625
3.7574999,0.19033902883529663,-0.028730420395731926,9.75517463684082,-0.152587890625,0,-0.213623046875
3.7624999000000003,0.18914192914962769,-0.028131870552897453,9.754576683044434,0,0.030517578125,-0.213623046875
3.7674999000000002,0.19033902883529663,-0.021547814831137657,9.751583099365234,0.091552734375,-0.030517578125,-0.152587890625
3.7724999,0.19452889263629913,-0.019153613597154617,9.747393608093262,-0.06103515625,0.030517578125,-0.1220703125
3.7774999,0.20231004059314728,-0.016759412363171577,9.742006301879883,-0.06103515625,0.091552734375,-0.06103515625
3.7824999000000004,0.2064998894929886,-0.015562310814857483,9.73781681060791,-0.091552734375,0.030517578125,-0.213623046875
3.7874999000000003,0.2106897532939911,-0.017956512048840523,9.73542308807373,-0.18310546875,-0.030517578125,-0.152587890625
3.7924999,0.21009120345115662,-0.02214636653661728,9.73542308807373,-0.091552734375,-0.06103515625,-0.1220703125
3.7974999,0.2106897532939911,-0.025737667456269264,9.740211486816406,-0.213623046875,0,-0.152587890625
3.8024999000000004,0.21128830313682556,-0.02513911761343479,9.743204116821289,-0.1220703125,-0.030517578125,-0.274658203125
3.8074999000000003,0.2106897532939911,-0.02693476900458336,9.750386238098145,-0.091552734375,0.030517578125,-0.091552734375
3.8124999,0.20889410376548767,-0.023343466222286224,9.751583099365234,0.06103515625,-0.030517578125,-0.18310546875
3.8174999,0.2041056901216507,-0.02454056777060032,9.75397777557373,0.030517578125,-0.1220703125,-0.1220703125
3.8224999000000004,0.1999158412218094,-0.020949264988303185,9.75397777557373,-0.030517578125,0,-0.244140625
3.8274999000000003,0.19692309200763702,-0.020350715145468712,9.751583099365234,-0.091552734375,0.030517578125,-0.18310546875
3.8324999,0.19692309200763702,-0.016759412363171577,9.749788284301758,-0.030517578125,-0.06103515625,-0.18310546875
3.8374999,0.20231004059314728,-0.013766659423708916,9.746196746826172,-0.152587890625,-0.030517578125,-0.091552734375
3.8424999,0.2059013396501541,-0.012569558806717396,9.743204116821289,-0.1220703125,-0.030517578125,-0.18310546875
3.8474999000000003,0.21009120345115662,-0.012569558806717396,9.740211486816406,-0.030517578125,-0.030517578125,-0.213623046875
3.8524999,0.21128830313682556,-0.013766659423708916,9.742605209350586,0.030517578125,0.091552734375,-0.152587890625
3.8574999,0.20709845423698425,-0.01735796220600605,9.743802070617676,0.030517578125,0.1220703125,-0.06103515625
3.8624999,0.2059013396501541,-0.02274491637945175,9.747992515563965,-0.030517578125,0.091552734375,-0.091552734375
3.8674999000000003,0.20111294090747833,-0.026336219161748886,9.751583099365234,-0.091552734375,-0.06103515625,-0.1220703125
3.8724999,0.20051439106464386,-0.02992752194404602,9.754576683044434,-0.091552734375,-0.152587890625,-0.1220703125
3.8774999,0.1999158412218094,-0.028131870552897453,9.758766174316406,-0.06103515625,-0.06103515625,-0.030517578125
3.8824999,0.19931729137897491,-0.02992752194404602,9.7605619430542,-0.091552734375,0,-0.18310546875
3.8874999000000003,0.20111294090747833,-0.025737667456269264,9.756970405578613,0,-0.030517578125,-0.18310546875
3.8924999000000002,0.20231004059314728,-0.023942016065120697,9.751583099365234,-0.030517578125,-0.1220703125,-0.152587890625
3.8974999,0.20290859043598175,-0.020350715145468712,9.743802070617676,-0.030517578125,0.030517578125,-0.152587890625
3.9024999,0.20290859043598175,-0.019153613597154617,9.739013671875,-0.06103515625,-0.06103515625,-0.1220703125
3.9074999000000004,0.20470423996448517,-0.017956512048840523,9.739013671875,0.030517578125,-0.030517578125,-0.06103515625
3.9124999000000003,0.20470423996448517,-0.016759412363171577,9.741408348083496,0.030517578125,-0.06103515625,-0.152587890625
3.9174999,0.2059013396501541,-0.017956512048840523,9.743802070617676,0.06103515625,-0.091552734375,-0.1220703125
3.9224999,0.2041056901216507,-0.018555063754320145,9.745597839355469,-0.091552734375,0.1220703125,-0.244140625
3.9274999000000004,0.20231004059314728,-0.020949264988303185,9.744400978088379,-0.06103515625,0,-0.06103515625
3.9324999000000003,0.19931729137897491,-0.02454056777060032,9.744400978088379,0,-0.030517578125,-0.06103515625
3.9374999,0.20051439106464386,-0.02513911761343479,9.742605209350586,-0.030517578125,0.06103515625,-0.1220703125
3.9424999,0.20290859043598175,-0.023942016065120697,9.744999885559082,-0.06103515625,0.06103515625,-0.152587890625
3.9474999000000004,0.20290859043598175,-0.023942016065120697,9.744999885559082,-0.06103515625,0.06103515625,-0.152587890625
3.9524999000000003,0.20530278980731964,-0.02214636653661728,9.748590469360352,0.152587890625,0.030517578125,-0.213623046875
3.9574999,0.20769700407981873,-0.01975216343998909,9.750985145568848,0,-0.06103515625,-0.152587890625
3.9624999,0.2082955539226532,-0.017956512048840523,9.749788284301758,-0.030517578125,-0.1220703125,-0.1220703125
3.9674999000000004,0.20949265360832214,-0.01735796220600605,9.749189376831055,0,-0.1220703125,-0.091552734375
3.9724999000000003,0.21009120345115662,-0.019153613597154617,9.743802070617676,0,-0.1220703125,-0.030517578125
3.9774999,0.2106897532939911,-0.020949264988303185,9.742006301879883,-0.030517578125,0.091552734375,-0.244140625
3.9824999,0.2106897532939911,-0.021547814831137657,9.742006301879883,-0.030517578125,-0.06103515625,-0.335693359375
3.9874999,0.21009120345115662,-0.02274491637945175,9.742006301879883,-0.18310546875,0,-0.152587890625
3.9924999000000003,0.2106897532939911,-0.016160860657691956,9.744999885559082,-0.1220703125,-0.06103515625,-0.030517578125
3.9974999,0.20949265360832214,-0.011372458189725876,9.748590469360352,0.091552734375,-0.18310546875,-0.06103515625
4.0024999,0.2082955539226532,-0.0065840547904372215,9.753378868103027,0,-0.152587890625,-0.213623046875
4.0074999,0.20470423996448517,-0.005985504016280174,9.75397777557373,-0.06103515625,0.1220703125,-0.152587890625
4.0124999,0.20051439106464386,-0.0065840547904372215,9.753378868103027,-0.091552734375,-0.06103515625,-0.18310546875
4.0174999,0.19812019169330597,-0.016160860657691956,9.748590469360352,0,-0.06103515625,-0.274658203125
4.022499900000001,0.19692309200763702,-0.020350715145468712,9.744999885559082,0.06103515625,0,-0.1220703125
4.0274999000000005,0.1951274424791336,-0.025737667456269264,9.743204116821289,-0.1220703125,-0.030517578125,-0.18310546875
4.0324999,0.19393034279346466,-0.02693476900458336,9.743802070617676,-0.213623046875,0,-0.213623046875
4.0374999,0.19452889263629913,-0.02693476900458336,9.745597839355469,-0.152587890625,0.030517578125,-0.1220703125
4.0424999,0.1975216418504715,-0.02753331884741783,9.745597839355469,-0.06103515625,0.06103515625,-0.18310546875
4.0474999,0.19812019169330597,-0.0293289702385664,9.749189376831055,-0.06103515625,-0.030517578125,-0.030517578125
4.0524999,0.19871874153614044,-0.030526071786880493,9.75397777557373,-0.091552734375,-0.06103515625,-0.213623046875
4.0574999,0.19572599232196808,-0.0293289702385664,9.756970405578613,-0.06103515625,0.1220703125,-0.1220703125
4.062499900000001,0.1933317929506302,-0.02693476900458336,9.762955665588379,0.030517578125,0.18310546875,-0.244140625
4.0674999000000005,0.19153612852096558,-0.023942016065120697,9.761159896850586,0.06103515625,0.06103515625,-0.1220703125
4.0724999,0.19033902883529663,-0.020949264988303185,9.758167266845703,0,0.06103515625,-0.18310546875
4.0774999,0.18734627962112427,-0.018555063754320145,9.755773544311523,-0.030517578125,0.030517578125,-0.1220703125
4.0824999,0.18974047899246216,-0.01975216343998909,9.750386238098145,-0.18310546875,0.06103515625,-0.213623046875
4.0874999,0.19153612852096558,-0.015562310814857483,9.745597839355469,-0.06103515625,0,-0.1220703125
4.0924999,0.20051439106464386,-0.02274491637945175,9.740809440612793,-0.030517578125,0.030517578125,-0.030517578125
4.0974999,0.20709845423698425,-0.017956512048840523,9.734824180603027,-0.06103515625,0.06103515625,0.030517578125
4.1024999,0.21847090125083923,-0.03172317147254944,9.731232643127441,-0.06103515625,0.152587890625,0.030517578125
4.1074999000000005,0.23044191300868988,-0.03531447425484657,9.733028411865234,-0.091552734375,0.457763671875,-0.335693359375
4.1124999,0.21308395266532898,-0.02693476900458336,9.736021041870117,0.213623046875,0.67138671875,-0.396728515625
4.1174999,0.21428105235099792,-0.03411737456917763,9.742605209350586,0.030517578125,0.1220703125,-0.030517578125
4.1224999,0.20470423996448517,-0.015562310814857483,9.750386238098145,-0.030517578125,-0.152587890625,0.091552734375
4.1274999,0.1843535304069519,-0.018555063754320145,9.751583099365234,0.1220703125,0.396728515625,-0.30517578125
4.1324999,0.19632454216480255,-0.01975216343998909,9.75637149810791,0,0.30517578125,-0.274658203125
4.1374999,0.1933317929506302,-0.01975216343998909,9.755773544311523,-0.091552734375,0.06103515625,-0.244140625
4.1424999,0.18794482946395874,-0.025737667456269264,9.753378868103027,-0.06103515625,0.274658203125,-0.3662109375
4.147499900000001,0.19931729137897491,-0.020949264988303185,9.750386238098145,0.06103515625,0.1220703125,-0.244140625
4.1524999000000005,0.1999158412218094,-0.02513911761343479,9.745597839355469,0.06103515625,0.1220703125,-0.30517578125
4.1574999,0.20051439106464386,-0.017956512048840523,9.743802070617676,0,0.244140625,-0.213623046875
4.1624999,0.20530278980731964,-0.016759412363171577,9.743802070617676,0,0.213623046875,-0.213623046875
4.1674999,0.20111294090747833,-0.013168109580874443,9.743802070617676,0.152587890625,0.091552734375,-0.274658203125
4.1724999,0.20290859043598175,-0.008379706181585789,9.746196746826172,0.1220703125,0.06103515625,-0.152587890625
4.1774999,0.20889410376548767,-0.0071826050989329815,9.752182006835938,0.030517578125,0.1220703125,-0.213623046875
4.1824999,0.2124854028224945,-0.0017956512747332454,9.756970405578613,0.030517578125,0.244140625,-0.152587890625
4.187499900000001,0.2148796021938324,0,9.761159896850586,0,0.396728515625,-0.091552734375
4.1924999000000005,0.21308395266532898,0,9.761758804321289,0.030517578125,0.244140625,-0.213623046875
4.1974999,0.20769700407981873,-0.0035913025494664907,9.755773544311523,0.06103515625,0.091552734375,-0.274658203125
4.2024999,0.20290859043598175,-0.011971008032560349,9.749189376831055,0.18310546875,0.06103515625,-0.06103515625
4.2074999,0.20051439106464386,-0.01975216343998909,9.745597839355469,0,0.06103515625,-0.244140625
4.2124999,0.19871874153614044,-0.026336219161748886,9.742605209350586,-0.06103515625,0.030517578125,-0.030517578125
4.2174999,0.19632454216480255,-0.02513911761343479,9.747393608093262,0.274658203125,0.06103515625,0.030517578125
4.2224999,0.1951274424791336,-0.02214636653661728,9.749189376831055,0.06103515625,0.18310546875,-0.18310546875
4.2274999,0.19572599232196808,-0.013766659423708916,9.75397777557373,0.091552734375,0.06103515625,-0.1220703125
4.2324999000000005,0.19393034279346466,-0.0077811554074287415,9.75637149810791,-0.030517578125,0.152587890625,-0.06103515625
4.2374999,0.19572599232196808,-0.008379706181585789,9.754576683044434,0.091552734375,0.1220703125,-0.213623046875
4.2424999,0.1951274424791336,-0.008379706181585789,9.75278091430664,0.06103515625,0.152587890625,-0.213623046875
4.2474999,0.19033902883529663,-0.014365210197865963,9.750386238098145,0,0.244140625,-0.213623046875
4.2524999,0.18974047899246216,-0.01975216343998909,9.746794700622559,0.030517578125,0.1220703125,-0.335693359375
4.2574999,0.18495208024978638,-0.025737667456269264,9.743802070617676,-0.06103515625,0.152587890625,-0.3662109375
4.2624999,0.1825578808784485,-0.03172317147254944,9.740809440612793,-0.1220703125,0.18310546875,-0.274658203125
4.2674999,0.18734627962112427,-0.03651157766580582,9.739612579345703,-0.06103515625,0.1220703125,-0.18310546875
4.272499900000001,0.19452889263629913,-0.043095629662275314,9.739013671875,0,0.3662109375,-0.3662109375
4.2774999000000005,0.20350714027881622,-0.04429273307323456,9.739013671875,-0.06103515625,0.457763671875,-0.48828125
4.2824999,0.21428105235099792,-0.04429273307323456,9.743204116821289,-0.1220703125,0.579833984375,-0.335693359375
4.2874999,0.22266076505184174,-0.03411737456917763,9.747393608093262,-0.06103515625,0.518798828125,-0.54931640625
4.2924999,0.17417816817760468,-0.05985504388809204,9.742006301879883,0,0.579833984375,-0.67138671875
4.2974999,0.22206220030784607,-0.03292027488350868,9.738415718078613,-0.30517578125,0,-0.885009765625
4.3024999,0.18974047899246216,-0.0347159244120121,9.747992515563965,-0.213623046875,0.30517578125,0.274658203125
4.3074999,0.20051439106464386,-0.06344634294509888,9.694721221923828,0.06103515625,0.701904296875,-1.068115234375
4.312499900000001,0.20051439106464386,-0.06344634294509888,9.694721221923828,0.06103515625,0.701904296875,-1.068115234375
4.3174999000000005,0.2519897222518921,-0.3381809890270233,9.75278091430664,-0.6103515625,0.1220703125,-4.33349609375
4.3224999,0.27473464608192444,-0.6063315868377686,9.750386238098145,-0.457763671875,-0.091552734375,-12.75634765625
4.3274999,0.3531447649002075,-0.9307458996772766,9.765350341796875,-0.030517578125,-0.030517578125,-17.547607421875
4.3324999,0.44412440061569214,-0.9923965930938721,9.813833236694336,0,0.152587890625,-19.012451171875
4.3374999,0.4554968774318695,-0.6859387755393982,9.783307075500488,-0.091552734375,0.30517578125,-18.035888671875
4.3424999,0.35434186458587646,-0.1933317929506302,9.775525093078613,-0.30517578125,0.091552734375,-13.00048828125
4.3474999,0.16519992053508759,0.39145198464393616,9.75278091430664,-0.152587890625,0.1220703125,-7.537841796875
4.352499900000001,-0.04489128291606903,0.8738836050033569,9.718663215637207,-0.213623046875,0.06103515625,-1.922607421875
4.3574999000000005,-0.12629413604736328,0.9840168952941895,9.712079048156738,-0.762939453125,-0.518798828125,0.8544921875
4.3624999,-0.1430535465478897,0.9528923034667969,9.700108528137207,-0.396728515625,0.244140625,-0.30517578125
4.3674999,-0.011971008032560349,0.6440402865409851,9.720458984375,-0.06103515625,0.396728515625,-0.396728515625
4.3724999,0.10055647045373917,0.3130418658256531,9.742605209350586,-0.396728515625,0.18310546875,0.06103515625
4.3774999,0.1711854189634323,0.08858546614646912,9.75517463684082,-0.244140625,0.54931640625,-0.213623046875
4.3824999,0.23582886159420013,-0.10115502029657364,9.769539833068848,-0.18310546875,0.213623046875,-0.06103515625
4.3874999,0.24660277366638184,-0.14844051003456116,9.768941879272461,-0.30517578125,0.30517578125,0
4.3924999,0.23942017555236816,-0.16819266974925995,9.764751434326172,-0.091552734375,0.3662109375,-0.274658203125
4.397499900000001,0.23403321206569672,-0.13108254969120026,9.759963035583496,-0.18310546875,0.30517578125,-0.091552734375
4.4024999000000005,0.20889410376548767,-0.09457096457481384,9.751583099365234,-0.152587890625,0.335693359375,0.091552734375
4.4074999,0.20350714027881622,-0.06224924325942993,9.745597839355469,-0.152587890625,0.48828125,0.030517578125
4.4124999,0.19632454216480255,-0.04668693244457245,9.739612579345703,-0.274658203125,0.457763671875,-0.030517578125
4.4174999,0.18734627962112427,-0.03770867735147476,9.736021041870117,-0.152587890625,0.42724609375,-0.274658203125
4.4224999,0.17956513166427612,-0.038307227194309235,9.726444244384766,-0.18310546875,0.30517578125,-0.335693359375
4.4274999,0.17836803197860718,-0.04369417950510979,9.733028411865234,-0.18310546875,0.1220703125,-0.152587890625
4.4324999,0.17896658182144165,-0.025737667456269264,9.73661994934082,-0.152587890625,0.06103515625,0
4.437499900000001,0.1843535304069519,-0.03411737456917763,9.752182006835938,-0.213623046875,0.335693359375,-0.3662109375
4.4424999000000005,0.19931729137897491,-0.0077811554074287415,9.763554573059082,-0.152587890625,0.18310546875,-0.1220703125
4.4474999,0.19213469326496124,-0.019153613597154617,9.774927139282227,-0.06103515625,0.274658203125,0.18310546875
4.4524999,0.19812019169330597,-0.005386953707784414,9.77133560180664,-0.06103515625,0.335693359375,0.54931640625
4.4574999,0.19871874153614044,-0.0005985504249110818,9.766547203063965,-0.091552734375,0.274658203125,0.335693359375
4.4624999,0.19871874153614044,0.0017956512747332454,9.757569313049316,-0.18310546875,0.396728515625,-0.06103515625
4.4674999,0.2059013396501541,0.0077811554074287415,9.749189376831055,-0.213623046875,0.335693359375,0.030517578125
4.4724999,0.1999158412218094,0.002992752008140087,9.746794700622559,-0.152587890625,0.244140625,-0.152587890625
4.477499900000001,0.1951274424791336,-0.005985504016280174,9.743802070617676,-0.244140625,0.244140625,-0.30517578125
4.4824999000000005,0.1843535304069519,-0.011971008032560349,9.745597839355469,-0.06103515625,0.06103515625,-0.18310546875
4.4874999,0.17657238245010376,-0.016160860657691956,9.747393608093262,0.06103515625,0.1220703125,-0.091552734375
4.4924999,0.17238251864910126,-0.016160860657691956,9.750386238098145,-0.244140625,0.244140625,-0.18310546875
4.4974999,0.16819266974925995,-0.018555063754320145,9.75397777557373,-0.244140625,0.335693359375,-0.18310546875
4.5024999,0.1735796183347702,-0.014365210197865963,9.75936508178711,-0.1220703125,0.091552734375,-0.152587890625
4.5074999,0.17477671802043915,-0.016160860657691956,9.758167266845703,-0.06103515625,-0.091552734375,-0.213623046875
4.5124999,0.18076223134994507,-0.016759412363171577,9.75637149810791,-0.1220703125,0,-0.06103515625
4.5174999,0.18495208024978638,-0.02693476900458336,9.75278091430664,0.1220703125,0.152587890625,0
4.522499900000001,0.19033902883529663,-0.03411737456917763,9.746794700622559,0,0.18310546875,-0.1220703125
4.5274999000000005,0.19153612852096558,-0.04728548228740692,9.746196746826172,-0.1220703125,0.335693359375,-0.335693359375
4.5324999,0.19273324310779572,-0.05027823522686958,9.743204116821289,-0.244140625,0.30517578125,-0.152587890625
4.5374999,0.19033902883529663,-0.04728548228740692,9.742006301879883,-0.091552734375,0.152587890625,-0.18310546875
4.5424999,0.18914192914962769,-0.03890577703714371,9.740211486816406,-0.030517578125,0.152587890625,-0.18310546875
4.5474999,0.1885433793067932,-0.031124621629714966,9.739612579345703,-0.152587890625,0.213623046875,-0.30517578125
4.5524999,0.18614917993545532,-0.021547814831137657,9.740809440612793,-0.030517578125,0.244140625,-0.244140625
4.5574999,0.18136078119277954,-0.01975216343998909,9.742006301879883,-0.1220703125,0.244140625,-0.274658203125
4.562499900000001,0.17657238245010376,-0.02214636653661728,9.742006301879883,-0.213623046875,0.152587890625,-0.213623046875
4.5674999000000005,0.1735796183347702,-0.026336219161748886,9.742605209350586,-0.152587890625,0.091552734375,-0.1220703125
4.5724999,0.17657238245010376,-0.03172317147254944,9.745597839355469,-0.152587890625,0.18310546875,-0.274658203125
4.5774999,0.1801636815071106,-0.033518824726343155,9.749189376831055,-0.091552734375,0.1220703125,-0.274658203125
4.5824999,0.18136078119277954,-0.023343466222286224,9.752182006835938,-0.1220703125,0.18310546875,-0.42724609375
4.5874999,0.1867477297782898,-0.014365210197865963,9.754576683044434,-0.18310546875,0.213623046875,-0.213623046875
4.5924999,0.19153612852096558,0,9.75278091430664,-0.030517578125,0.244140625,-0.152587890625
4.5974999,0.1975216418504715,0.005985504016280174,9.751583099365234,0.030517578125,0.213623046875,-0.091552734375
4.602499900000001,0.2041056901216507,0.009576806798577309,9.750985145568848,-0.18310546875,0.152587890625,0.030517578125
4.6074999000000005,0.19931729137897491,0.008379706181585789,9.749788284301758,-0.152587890625,0.3662109375,0.030517578125
4.6124999,0.19153612852096558,0.004788403399288654,9.747992515563965,-0.1220703125,0.335693359375,-0.030517578125
4.6174999,0.18315643072128296,-0.008379706181585789,9.747393608093262,-0.06103515625,0.152587890625,-0.06103515625
4.6224999,0.1777694821357727,-0.016759412363171577,9.746196746826172,-0.1220703125,0.3662109375,-0.091552734375
4.6274999,0.17657238245010376,-0.02693476900458336,9.747393608093262,-0.06103515625,0.274658203125,0
4.6324999,0.1777694821357727,-0.03292027488350868,9.744999885559082,-0.1220703125,0.18310546875,-0.06103515625
4.6374999,0.17896658182144165,-0.002992752008140087,9.737217903137207,-0.274658203125,0.3662109375,-0.06103515625
4.6424999,0.17178396880626678,0.020949264988303185,9.727043151855469,-0.48828125,0.54931640625,1.007080078125
4.647499900000001,0.166995570063591,-0.02274491637945175,9.727043151855469,-0.152587890625,0.3662109375,-0.91552734375
4.6524999000000005,0.17058686912059784,-0.010175357572734356,9.730035781860352,-0.244140625,0.3662109375,-0.396728515625
4.6574999,0.166995570063591,-0.08499415963888168,9.745597839355469,-0.457763671875,0.1220703125,0
4.6624999,0.1735796183347702,-0.08259996026754379,9.756970405578613,-0.152587890625,0.1220703125,-0.274658203125
4.6674999,0.18375498056411743,-0.0694318488240242,9.767146110534668,-0.030517578125,-0.091552734375,0.06103515625
4.6724999,0.1867477297782898,-0.04429273307323456,9.767744064331055,0.030517578125,0.1220703125,-0.1220703125
4.6774999,0.1867477297782898,-0.04429273307323456,9.767744064331055,0.030517578125,0.1220703125,-0.1220703125
4.6824999,0.2041056901216507,-0.016160860657691956,9.770736694335938,0,0.1220703125,0
4.687499900000001,0.21308395266532898,-0.0035913025494664907,9.765948295593262,0,0.152587890625,0.030517578125
4.6924999000000005,0.19393034279346466,0.0077811554074287415,9.756970405578613,0,0.42724609375,-0.030517578125
4.6974999,0.1628057211637497,-0.04967968538403511,9.747992515563965,-0.3662109375,0.1220703125,-0.91552734375
4.7024999,0.15741875767707825,-0.04369417950510979,9.744999885559082,-0.3662109375,-0.244140625,0.091552734375
4.7074999,0.13766659796237946,-0.06524199992418289,9.750386238098145,-0.18310546875,0.18310546875,-0.274658203125
4.7124999,0.31124621629714966,0.1412578970193863,9.795876502990723,0.42724609375,-0.244140625,0.79345703125
4.7174999,0.12030863761901855,0.5135562419891357,9.743204116821289,-3.631591796875,4.2724609375,3.7841796875
4.7224999,0.08978256583213806,-0.04189852997660637,9.612719535827637,-7.843017578125,7.232666015625,-7.4462890625
4.727499900000001,-0.016160860657691956,-0.12449848651885986,9.410409927368164,1.708984375,-5.889892578125,-2.99072265625
4.7324999000000005,-0.058059390634298325,-0.628477931022644,9.226056098937988,-1.28173828125,0,8.23974609375
4.7374999,-0.011971008032560349,-0.8738836050033569,9.138668060302734,-1.434326171875,2.288818359375,-3.84521484375
4.7424999,0.2645592987537384,-0.4554968774318695,9.268553733825684,-0.3662109375,-1.77001953125,1.220703125
4.7474999,0.19812019169330597,-0.16639702022075653,9.407417297363281,-0.30517578125,1.068115234375,-1.40380859375
4.7524999,0.35434186458587646,0.033518824726343155,9.61571216583252,0.06103515625,0.640869140625,-0.457763671875
4.7574999,0.3106476664543152,0.1454477459192276,9.731232643127441,-0.091552734375,0.274658203125,-0.54931640625
4.7624999,0.2885012924671173,0.14365209639072418,9.804255485534668,-0.213623046875,0.67138671875,-0.457763671875
4.7674999,0.22924481332302094,0.10893617570400238,9.840168952941895,-0.091552734375,0.457763671875,-0.091552734375
4.772499900000001,0.1801636815071106,0.0628477931022644,9.840767860412598,-0.06103515625,0.1220703125,-0.06103515625
4.7774999000000005,0.1562216579914093,0.019153613597154617,9.827000617980957,-0.18310546875,0.030517578125,0.030517578125
4.7824999,0.1472434103488922,0.002992752008140087,9.806650161743164,-0.06103515625,0.030517578125,-0.030517578125
4.7874999,0.14903905987739563,-0.010175357572734356,9.782708168029785,0.06103515625,0.18310546875,0.152587890625
4.7924999,0.15322890877723694,-0.013168109580874443,9.767146110534668,0.152587890625,0.091552734375,0.42724609375
4.7974999,0.18076223134994507,-0.002992752008140087,9.764751434326172,0.091552734375,0.030517578125,0.48828125
4.8024999,0.17836803197860718,-0.018555063754320145,9.757569313049316,0.213623046875,0,0.946044921875
4.8074999,0.20111294090747833,-0.008978256024420261,9.756970405578613,0.3662109375,-0.152587890625,0.9765625
4.812499900000001,0.2041056901216507,-0.0071826050989329815,9.762955665588379,0.3662109375,-0.274658203125,1.220703125
4.8174999000000005,0.20290859043598175,-0.002992752008140087,9.767744064331055,0.6103515625,0.18310546875,1.373291015625
4.8224999,0.21966800093650818,0.07541735470294952,9.727043151855469,0.79345703125,0.274658203125,1.46484375
4.8274999,0.2454056739807129,0.12389993667602539,9.767744064331055,0.8544921875,-0.518798828125,-0.244140625
4.8324999,0.23762452602386475,0.10115502029657364,9.740211486816406,1.068115234375,0.457763671875,-3.082275390625
4.8374999,0.383670836687088,0.3998316824436188,9.6803560256958,2.410888671875,-0.946044921875,-0.030517578125
4.8424999,0.4710591733455658,1.0468647480010986,9.77791976928711,6.744384765625,-7.476806640625,15.350341796875
4.8474999,0.6637924313545227,1.9273324012756348,9.668983459472656,1.953125,-3.021240234375,25.787353515625
4.852499900000001,0.7876923680305481,3.0771477222442627,9.718064308166504,0.946044921875,-1.678466796875,32.318115234375
4.8574999000000005,0.5303156971931458,3.315370798110962,9.646238327026367,-1.373291015625,3.265380859375,42.1142578125
4.8624999,0.29568392038345337,2.6180596351623535,9.718663215637207,-0.1220703125,-2.471923828125,35.0341796875
4.8674999,-0.08619125932455063,1.1013327836990356,9.68933391571045,2.25830078125,-3.72314453125,24.383544921875
4.8724999,-0.3208230137825012,-0.6919242739677429,9.788095474243164,1.251220703125,-0.640869140625,24.810791015625
4.8774999,-0.30705636739730835,-2.0027496814727783,9.82640266418457,1.220703125,-1.373291015625,24.505615234375
4.8824999,-0.19393034279346466,-2.562992811203003,9.818621635437012,0.762939453125,-0.457763671875,19.04296875
4.8874999,-0.12330138683319092,-2.470816135406494,9.807847023010254,0.579833984375,0.946044921875,15.56396484375
4.8924999,-0.07062894850969315,-2.163161277770996,9.783905029296875,0.244140625,-0.1220703125,13.73291015625
4.897499900000001,-0.07182604819536209,-1.8201918601989746,9.75637149810791,0.457763671875,-1.251220703125,8.209228515625
4.9024999000000005,-0.04967968538403511,-1.4963760375976562,9.749189376831055,0.335693359375,-0.885009765625,1.77001953125
4.9074999,-0.03172317147254944,-1.1049240827560425,9.733627319335938,0.213623046875,-0.274658203125,-1.03759765625
4.9124999,0.055665191262960434,-0.811634361743927,9.744400978088379,-0.091552734375,-0.6103515625,-0.1220703125
4.9174999,0.09935937076807022,-0.3106476664543152,9.739013671875,0.030517578125,-0.91552734375,-0.152587890625
4.9224999,0.13766659796237946,-0.10714052617549896,9.747393608093262,-0.030517578125,-0.6103515625,-0.48828125
4.9274999,0.18375498056411743,0.08798690885305405,9.755773544311523,0.06103515625,-0.6103515625,-0.30517578125
4.9324999,0.18914192914962769,0.08379705995321274,9.765350341796875,0.213623046875,-0.518798828125,-0.54931640625
4.937499900000001,0.1496376097202301,-0.014365210197865963,9.837176322937012,0.518798828125,-0.396728515625,0.42724609375
4.9424999000000005,0.06703764945268631,-0.2645592987537384,9.818621635437012,1.03759765625,-0.54931640625,2.471923828125
4.9474999,-0.08439560979604721,-0.4908113479614258,9.84615421295166,1.373291015625,-1.251220703125,8.7890625
4.9524999,-0.24241292476654053,-0.6506243348121643,9.791088104248047,1.373291015625,-1.739501953125,16.754150390625
4.9574999,-0.3250128924846649,-0.6242880821228027,9.73781681060791,1.251220703125,-2.13623046875,21.759033203125
4.9624999,-0.33099839091300964,-0.4207809567451477,9.690531730651855,1.64794921875,-1.28173828125,23.62060546875
4.9674999,-0.2172738015651703,-0.15801730751991272,9.673172950744629,1.46484375,-0.762939453125,24.84130859375
4.9724999,-0.02992752194404602,0.07661445438861847,9.667187690734863,0.6103515625,-0.8544921875,24.96337890625
4.977499900000001,0.181959331035614,0.23403321206569672,9.677363395690918,0.30517578125,-0.54931640625,22.705078125
4.9824999000000005,0.3603273630142212,0.21787235140800476,9.716269493103027,0.091552734375,0.42724609375,18.768310546875
4.9874999,0.5261258482933044,0.20470423996448517,9.743802070617676,0.06103515625,0.457763671875,11.8408203125
4.9924999,0.618302583694458,0.19033902883529663,9.77672290802002,0.335693359375,0.335693359375,8.36181640625
4.9974999,0.6877344250679016,0.322618693113327,9.764751434326172,0.1220703125,0.030517578125,6.439208984375
5.0024999,0.7344213724136353,0.47165772318840027,9.758766174316406,-0.152587890625,-0.091552734375,3.082275390625
5.0074999,0.6721721291542053,0.5452794432640076,9.731232643127441,-0.274658203125,0.30517578125,-1.03759765625
5.0124999,0.5925649404525757,0.5285200476646423,9.724648475646973,-0.3662109375,0.91552734375,-0.6103515625
5.0174999,0.4537012279033661,0.31364041566848755,9.734824180603027,-0.732421875,0.457763671875,0.244140625
5.022499900000001,0.2974795699119568,0.13587094843387604,9.746794700622559,0.091552734375,-0.091552734375,-0.79345703125
5.0274999000000005,0.19572599232196808,-0.004189853090792894,9.757569313049316,0.457763671875,0.152587890625,-0.823974609375
5.0324999,0.14065934717655182,-0.10594342648983002,9.771934509277344,0.3662109375,-0.213623046875,-0.335693359375
5.0374999,0.1412578970193863,-0.09636662155389786,9.762955665588379,0.274658203125,-0.091552734375,-0.8544921875
5.0424999,0.1412578970193863,-0.09636662155389786,9.762955665588379,0.274658203125,-0.091552734375,-0.8544921875
5.0474999,0.2041056901216507,-0.07242459803819656,9.75397777557373,-0.030517578125,-0.54931640625,-2.960205078125
5.0524999,0.32860419154167175,0.031124621629714966,9.739013671875,0.244140625,-0.823974609375,-5.767822265625
5.0574999,0.4537012279033661,0.11671733111143112,9.730634689331055,0.640869140625,-0.67138671875,-9.6435546875
5.062499900000001,0.5153518915176392,0.1586158573627472,9.743802070617676,0.67138671875,-0.732421875,-14.434814453125
5.0674999000000005,0.49799394607543945,0.1646013706922531,9.75278091430664,0.885009765625,-0.518798828125,-15.350341796875
5.0724999,0.3321954905986786,0.07182604819536209,9.758167266845703,0.762939453125,-0.457763671875,-13.7939453125
5.0774999,0.048482585698366165,-0.08439560979604721,9.747992515563965,0.518798828125,-0.67138671875,-9.70458984375
5.0824999,-0.20111294090747833,-0.2148796021938324,9.727641105651855,-0.213623046875,-1.129150390625,-1.64794921875
5.0874999,-0.33039984107017517,-0.2795230448246002,9.728838920593262,-0.396728515625,-1.251220703125,4.669189453125
5.0924999,-0.2819172441959381,-0.24420857429504395,9.710882186889648,0.335693359375,0.091552734375,3.509521484375
5.0974999,-0.06763619929552078,-0.14365209639072418,9.744400978088379,-0.3662109375,-0.1220703125,-0.3662109375
5.102499900000001,0.12749123573303223,-0.03890577703714371,9.734225273132324,-0.06103515625,0,-1.434326171875
5.1074999000000005,0.27712884545326233,0.03890577703714371,9.740809440612793,-0.18310546875,-0.3662109375,-0.06103515625
5.1124999,0.3232172429561615,0.038307227194309235,9.749788284301758,-0.67138671875,-0.732421875,0.18310546875
5.1174999,0.31364041566848755,0.050876785069704056,9.740211486816406,-0.3662109375,-0.1220703125,-0.274658203125
5.1224999,0.29388827085494995,0.03890577703714371,9.743204116821289,-0.06103515625,-0.152587890625,0.06103515625
5.1274999,0.25258827209472656,0.008978256024420261,9.751583099365234,-0.42724609375,-0.335693359375,0.030517578125
5.1324999,0.21308395266532898,0.0035913025494664907,9.746794700622559,-0.42724609375,-0.335693359375,-0.18310546875
5.1374999,0.1843535304069519,-0.011971008032560349,9.751583099365234,-0.244140625,-0.396728515625,-0.18310546875
5.1424999,0.17657238245010376,-0.020949264988303185,9.75517463684082,-0.3662109375,-0.244140625,-0.06103515625
5.147499900000001,0.16879121959209442,-0.01496376097202301,9.75397777557373,-0.396728515625,-0.335693359375,-0.091552734375
5.1524999000000005,0.17417816817760468,-0.015562310814857483,9.75637149810791,-0.213623046875,-0.335693359375,-0.152587890625
5.1574999,0.181959331035614,-0.010773907415568829,9.75517463684082,-0.274658203125,-0.30517578125,-0.1220703125
5.1624999,0.1885433793067932,-0.010175357572734356,9.750985145568848,-0.213623046875,-0.396728515625,-0.244140625
5.1674999,0.19572599232196808,-0.011971008032560349,9.749189376831055,-0.1220703125,-0.244140625,-0.18310546875
5.1724999,0.20350714027881622,-0.014365210197865963,9.744999885559082,-0.274658203125,-0.30517578125,-0.030517578125
5.1774999,0.16998831927776337,-0.026336219161748886,9.728838920593262,-0.18310546875,-0.396728515625,-0.244140625
5.1824999,0.0035913025494664907,-0.10594342648983002,9.767146110534668,-0.8544921875,0.457763671875,-2.838134765625
5.187499900000001,-0.21787235140800476,-0.14484919607639313,9.739612579345703,-0.518798828125,1.129150390625,-12.14599609375
5.1924999000000005,-0.406415730714798,-0.2885012924671173,9.784503936767578,-0.67138671875,-0.457763671875,-20.1416015625
5.1974999,-0.4836287498474121,-0.38307225704193115,9.773730278015137,-0.6103515625,-0.518798828125,-21.3623046875
5.2024999,-0.3106476664543152,-0.4578910768032074,9.774927139282227,-0.91552734375,-0.640869140625,-18.61572265625
5.2074999,0.03770867735147476,-0.39863458275794983,9.764751434326172,-1.068115234375,-0.30517578125,-15.19775390625
5.2124999,0.4321534037590027,-0.17717093229293823,9.751583099365234,-0.79345703125,0.274658203125,-10.68115234375
5.2174999,0.7823054194450378,0.1999158412218094,9.730035781860352,-0.518798828125,0.091552734375,-5.157470703125
5.2224999,0.8858546018600464,0.4189853072166443,9.719860076904297,-0.67138671875,0.091552734375,0.396728515625
5.227499900000001,0.8762778043746948,0.568622887134552,9.720458984375,-0.6103515625,-0.701904296875,0.244140625
5.2324999000000005,0.6709750294685364,0.4944026470184326,9.724050521850586,0,-0.54931640625,0.152587890625
5.2374999,0.42616790533065796,0.2519897222518921,9.73542308807373,-0.48828125,0,-0.274658203125
5.2424999,0.28311434388160706,0.15562310814857483,9.742605209350586,-0.274658203125,-0.518798828125,0
5.2474999,0.13587094843387604,-0.02992752194404602,9.745597839355469,-0.274658203125,-0.30517578125,-0.18310546875
5.2524999,0.09516951441764832,-0.07841010391712189,9.748590469360352,-0.518798828125,-0.18310546875,-0.3662109375
5.2574999,0.10115502029657364,-0.09277531504631042,9.751583099365234,-0.30517578125,-0.701904296875,-0.152587890625
5.2624999,0.11312603205442429,-0.11671733111143112,9.752182006835938,-0.42724609375,-0.396728515625,-0.335693359375
