# Time (seconds),Accel_X,Accel_Y,Accel_Z,Gyro_X,Gyro_Y,Gyro_Z
0.0024999,0.21188685297966003,-0.03711012750864029,9.740809440612793,0.213623046875,0.3662109375,-0.274658203125
0.0074999,0.2059013396501541,-0.041299980133771896,9.743204116821289,0.18310546875,0.396728515625,0
0.012499900000000001,0.20350714027881622,-0.04668693244457245,9.744999885559082,0.06103515625,0.54931640625,-0.1220703125
0.0174999,0.19871874153614044,-0.048482585698366165,9.749189376831055,0.1220703125,0.335693359375,-0.1220703125
0.0224999,0.19632454216480255,-0.04668693244457245,9.749788284301758,0.152587890625,0.213623046875,-0.091552734375
0.0274999,0.19871874153614044,-0.04369417950510979,9.746196746826172,0.030517578125,0.06103515625,-0.1220703125
0.0324999,0.20111294090747833,-0.04369417950510979,9.743204116821289,-0.091552734375,0.06103515625,-0.1220703125
0.0374999,0.2106897532939911,-0.04429273307323456,9.73542308807373,-0.06103515625,0.06103515625,-0.091552734375
0.0424999,0.21428105235099792,-0.046088382601737976,9.73781681060791,0.030517578125,0.1220703125,-0.1220703125
0.0474999,0.21607670187950134,-0.04668693244457245,9.73661994934082,-0.1220703125,0.030517578125,-0.091552734375
0.0524999,0.21667525172233582,-0.047884032130241394,9.739013671875,-0.091552734375,0,-0.06103515625
0.0574999,0.21428105235099792,-0.043095629662275314,9.739612579345703,-0.06103515625,0.1220703125,-0.091552734375
0.0624999,0.21308395266532898,-0.04249707981944084,9.73661994934082,-0.091552734375,0.30517578125,-0.1220703125
0.0674999,0.20889410376548767,-0.03950432687997818,9.734824180603027,-0.18310546875,0.18310546875,-0.1220703125
0.0724999,0.2059013396501541,-0.03890577703714371,9.736021041870117,-0.244140625,0.335693359375,0
0.0774999,0.20111294090747833,-0.040701430290937424,9.73661994934082,-0.06103515625,0.244140625,-0.030517578125
0.0824999,0.1999158412218094,-0.04189852997660637,9.739013671875,-0.06103515625,0.152587890625,-0.091552734375
0.0874999,0.20231004059314728,-0.04728548228740692,9.743204116821289,-0.244140625,0.18310546875,-0.091552734375
0.0924999,0.20530278980731964,-0.047884032130241394,9.745597839355469,-0.091552734375,0.274658203125,-0.091552734375
0.0974999,0.1711854189634323,-0.048482585698366165,9.739612579345703,0.274658203125,1.0986328125,0.42724609375
0.1024999,0.23283611238002777,-0.048482585698366165,9.750985145568848,0.1220703125,-0.091552734375,0.67138671875
0.1074999,0.1777694821357727,-0.060453593730926514,9.744999885559082,0.091552734375,0.396728515625,-0.274658203125
0.1124999,0.23582886159420013,-0.04369417950510979,9.75278091430664,0.213623046875,0.457763671875,-0.030517578125
0.1174999,0.2232593148946762,-0.07122749835252762,9.75517463684082,0.091552734375,0.091552734375,-0.213623046875
0.1224999,0.22206220030784607,-0.04369417950510979,9.752182006835938,0.18310546875,0.518798828125,-0.1220703125
0.1274999,0.22026655077934265,-0.058059390634298325,9.746794700622559,0.091552734375,0.30517578125,-0.244140625
0.1324999,0.22625206410884857,-0.03950432687997818,9.743802070617676,0.030517578125,0,-0.152587890625
0.1374999,0.21128830313682556,-0.04010287672281265,9.73781681060791,0.1220703125,0.1220703125,-0.274658203125
0.1424999,0.21428105235099792,-0.031124621629714966,9.73542308807373,-0.1220703125,0.152587890625,-0.274658203125
0.1474999,0.20709845423698425,-0.0347159244120121,9.738415718078613,-0.1220703125,0.091552734375,-0.030517578125
0.1524999,0.2041056901216507,-0.031124621629714966,9.739612579345703,0.030517578125,0.244140625,-0.274658203125
0.1574999,0.20350714027881622,-0.033518824726343155,9.743204116821289,0.091552734375,0.30517578125,-0.152587890625
0.1624999,0.1999158412218094,-0.03292027488350868,9.743802070617676,0,0.152587890625,0
0.1674999,0.20111294090747833,-0.02753331884741783,9.746196746826172,-0.1220703125,0.091552734375,-0.030517578125
0.1724999,0.19871874153614044,-0.028131870552897453,9.747393608093262,-0.152587890625,-0.06103515625,-0.06103515625
0.17749990000000002,0.20290859043598175,-0.028131870552897453,9.746794700622559,-0.06103515625,0.030517578125,-0.030517578125
0.1824999,0.20350714027881622,-0.03411737456917763,9.743802070617676,-0.06103515625,0.1220703125,0
0.1874999,0.2082955539226532,-0.043095629662275314,9.741408348083496,0.030517578125,0.06103515625,0.06103515625
0.1924999,0.21368250250816345,-0.053270988166332245,9.742006301879883,0.091552734375,0.1220703125,-0.030517578125
0.1974999,0.22026655077934265,-0.06584054976701736,9.745597839355469,-0.091552734375,0.3662109375,-0.152587890625
0.2024999,0.22864626348018646,-0.07422025501728058,9.747992515563965,0,0.457763671875,-0.213623046875
0.20749990000000001,0.23283611238002777,-0.07900865375995636,9.751583099365234,0.30517578125,0.67138671875,-0.274658203125
0.2124999,0.23044191300868988,-0.07661445438861847,9.748590469360352,0.213623046875,0.732421875,-0.30517578125
0.2174999,0.22206220030784607,-0.06823474913835526,9.750386238098145,0.18310546875,0.6103515625,-0.396728515625
0.2224999,0.2124854028224945,-0.05686229094862938,9.747992515563965,0.274658203125,0.42724609375,-0.213623046875
0.2274999,0.20111294090747833,-0.04967968538403511,9.747393608093262,0.244140625,0.457763671875,-0.3662109375
0.2324999,0.20111294090747833,-0.04967968538403511,9.747393608093262,0.244140625,0.457763671875,-0.3662109375
0.2374999,0.19393034279346466,-0.04189852997660637,9.747393608093262,0.213623046875,0.579833984375,-0.396728515625
0.2424999,0.18914192914962769,-0.04010287672281265,9.747393608093262,0.244140625,0.3662109375,-0.244140625
0.2474999,0.18734627962112427,-0.03232172131538391,9.747992515563965,0.152587890625,0.244140625,-0.274658203125
0.2524999,0.18375498056411743,-0.028730420395731926,9.748590469360352,0.1220703125,0.30517578125,-0.152587890625
0.2574999,0.18315643072128296,-0.02214636653661728,9.744999885559082,0.091552734375,0.091552734375,-0.1220703125
0.2624999,0.17956513166427612,-0.018555063754320145,9.743204116821289,-0.091552734375,0,-0.1220703125
0.2674999,0.17717093229293823,-0.013766659423708916,9.739013671875,-0.152587890625,0.152587890625,0.030517578125
0.2724999,0.1777694821357727,-0.014365210197865963,9.737217903137207,-0.091552734375,-0.030517578125,0.06103515625
0.2774999,0.17058686912059784,-0.013168109580874443,9.732429504394531,-0.091552734375,-0.152587890625,0.457763671875
0.2824999,0.1951274424791336,-0.023343466222286224,9.738415718078613,-0.244140625,-0.457763671875,0.396728515625
0.28749990000000003,0.1933317929506302,-0.03292027488350868,9.740211486816406,-0.1220703125,0.030517578125,0.1220703125
0.2924999,0.21128830313682556,-0.0454898327589035,9.749189376831055,-0.06103515625,-0.030517578125,0.1220703125
0.2974999,0.21188685297966003,-0.055665191262960434,9.756970405578613,-0.1220703125,-0.213623046875,-0.030517578125
0.3024999,0.2059013396501541,-0.05446808785200119,9.75936508178711,-0.06103515625,0.030517578125,0.06103515625
0.3074999,0.19931729137897491,-0.05626374110579491,9.758766174316406,-0.030517578125,0.030517578125,0
0.3124999,0.19871874153614044,-0.04728548228740692,9.756970405578613,-0.030517578125,0.030517578125,-0.030517578125
0.3174999,0.19572599232196808,-0.048482585698366165,9.75637149810791,0.06103515625,0.18310546875,-0.18310546875
0.3224999,0.20231004059314728,-0.04249707981944084,9.754576683044434,0.091552734375,0.06103515625,-0.213623046875
0.3274999,0.20709845423698425,-0.040701430290937424,9.753378868103027,-0.091552734375,0.213623046875,-0.244140625
0.3324999,0.2106897532939911,-0.03531447425484657,9.750985145568848,-0.06103515625,0.244140625,-0.152587890625
0.3374999,0.21667525172233582,-0.035913024097681046,9.743802070617676,0.030517578125,0.152587890625,-0.091552734375
0.3424999,0.21607670187950134,-0.03531447425484657,9.738415718078613,0.06103515625,0.06103515625,-0.091552734375
0.34749990000000003,0.21607670187950134,-0.03890577703714371,9.73661994934082,-0.030517578125,0.213623046875,-0.274658203125
0.35249990000000003,0.2106897532939911,-0.041299980133771896,9.73542308807373,0,0.30517578125,-0.1220703125
0.3574999,0.20470423996448517,-0.03770867735147476,9.743204116821289,-0.091552734375,0.18310546875,-0.18310546875
0.3624999,0.1975216418504715,-0.03890577703714371,9.749788284301758,0,0.213623046875,-0.213623046875
0.3674999,0.18974047899246216,-0.033518824726343155,9.758167266845703,-0.030517578125,0.274658203125,-0.213623046875
0.3724999,0.1885433793067932,-0.03531447425484657,9.758766174316406,-0.030517578125,-0.06103515625,-0.030517578125
0.3774999,0.1843535304069519,-0.03292027488350868,9.755773544311523,-0.06103515625,0.1220703125,-0.06103515625
0.3824999,0.18495208024978638,-0.03711012750864029,9.749189376831055,-0.1220703125,0.030517578125,-0.091552734375
0.3874999,0.18794482946395874,-0.028131870552897453,9.740809440612793,-0.152587890625,0.091552734375,0
0.3924999,0.1256955862045288,0.0011971008498221636,9.73781681060791,0.06103515625,1.434326171875,1.708984375
0.3974999,0.16101007163524628,-0.005985504016280174,9.749788284301758,-0.244140625,0.885009765625,4.82177734375
0.4024999,0.13826514780521393,-0.0065840547904372215,9.739013671875,-0.244140625,-0.213623046875,1.800537109375
0.4074999,0.20231004059314728,-0.04189852997660637,9.75278091430664,0.030517578125,0.30517578125,-0.030517578125
0.41249990000000003,0.25677812099456787,-0.07841010391712189,9.741408348083496,0,0.396728515625,0.030517578125
0.41749990000000003,0.2783259451389313,-0.09397241473197937,9.740211486816406,-0.1220703125,0.30517578125,-0.1220703125
0.4224999,0.2711433470249176,-0.08738835901021957,9.740211486816406,0.06103515625,0.48828125,-0.06103515625
0.4274999,0.25498247146606445,-0.07841010391712189,9.740211486816406,0.06103515625,0.396728515625,-0.244140625
0.4324999,0.22266076505184174,-0.06524199992418289,9.743204116821289,0.06103515625,0.396728515625,-0.244140625
0.4374999,0.21128830313682556,-0.06404489278793335,9.744400978088379,0.091552734375,0.457763671875,-0.48828125
0.4424999,0.19931729137897491,-0.05985504388809204,9.746794700622559,0.152587890625,0.518798828125,-0.457763671875
0.4474999,0.18974047899246216,-0.050876785069704056,9.743802070617676,0.06103515625,0.6103515625,-0.48828125
0.4524999,0.18794482946395874,-0.04908113554120064,9.739013671875,0,0.518798828125,-0.3662109375
0.4574999,0.1825578808784485,-0.03531447425484657,9.734824180603027,0.091552734375,0.3662109375,-0.335693359375
0.4624999,0.1777694821357727,-0.03232172131538391,9.731831550598145,0.091552734375,0.518798828125,-0.335693359375
0.4674999,0.17717093229293823,-0.030526071786880493,9.731831550598145,-0.091552734375,0.30517578125,-0.18310546875
0.47249990000000003,0.1711854189634323,-0.02693476900458336,9.733627319335938,-0.1220703125,0.274658203125,-0.213623046875
0.47749990000000003,0.16998831927776337,-0.02693476900458336,9.731232643127441,-0.1220703125,0,-0.06103515625
0.4824999,0.16998831927776337,-0.025737667456269264,9.730035781860352,-0.06103515625,-0.06103515625,-0.030517578125
0.4874999,0.17298106849193573,-0.03232172131538391,9.729436874389648,-0.18310546875,-0.1220703125,-0.030517578125
0.4924999,0.1777694821357727,-0.04189852997660637,9.734225273132324,0.030517578125,-0.18310546875,0.091552734375
0.4974999,0.1843535304069519,-0.060453593730926514,9.741408348083496,0.030517578125,0,0.06103515625
0.5024999,0.19153612852096558,-0.07422025501728058,9.747393608093262,-0.18310546875,0.06103515625,-0.335693359375
0.5074999,0.19931729137897491,-0.08379705995321274,9.755773544311523,-0.06103515625,0.152587890625,-0.152587890625
0.5124999,0.20530278980731964,-0.07900865375995636,9.757569313049316,0,0.213623046875,-0.1220703125
0.5174999,0.1280897855758667,-0.12090718746185303,9.737217903137207,-0.06103515625,0.30517578125,-0.396728515625
0.5224999,0.1801636815071106,-0.06584054976701736,9.743802070617676,-0.18310546875,0.06103515625,-1.068115234375
0.5274999,0.15741875767707825,-0.09876082092523575,9.734824180603027,-0.091552734375,0.244140625,1.068115234375
0.5324999,0.19931729137897491,-0.035913024097681046,9.751583099365234,0.06103515625,0.30517578125,-0.823974609375
0.5374999,0.26096799969673157,-0.04189852997660637,9.773131370544434,0.244140625,0.274658203125,-0.701904296875
0.5424999,0.22385786473751068,-0.1538274586200714,9.802460670471191,0.30517578125,0.213623046875,-0.8544921875
0.5474999,0.18495208024978638,-0.9894038438796997,9.593565940856934,2.471923828125,-1.0986328125,-6.9580078125
0.5524999,-0.11312603205442429,-1.0420763492584229,9.646238327026367,1.40380859375,11.16943359375,-27.923583984375
0.5574999,-0.30226796865463257,-0.9840168952941895,9.419387817382812,-0.030517578125,2.593994140625,12.87841796875
0.5624999,-0.23403321206569672,0.16101007163524628,9.527725219726562,-3.753662109375,-6.683349609375,23.01025390625
0.5674999000000001,-0.08080431073904037,1.0749965906143188,9.604340553283691,-0.1220703125,-0.54931640625,-7.049560546875
0.5724999000000001,0.3172317147254944,1.854907751083374,9.736021041870117,0.42724609375,1.007080078125,-5.126953125
0.5774999000000001,0.6332663297653198,1.5831658840179443,9.84615421295166,-0.030517578125,0.18310546875,1.373291015625
0.5824999,0.5770025849342346,0.9720458984375,9.869498252868652,-0.06103515625,0.67138671875,-0.213623046875
0.5874999,0.47884035110473633,0.46567222476005554,9.852140426635742,-0.3662109375,-0.213623046875,0.30517578125
0.5924999,0.31603461503982544,0.017956512048840523,9.81024169921875,-0.396728515625,-1.312255859375,0.54931640625
0.5974999,0.31603461503982544,0.017956512048840523,9.81024169921875,-0.396728515625,-1.312255859375,0.54931640625
0.6024999,0.1975216418504715,-0.21368250250816345,9.783307075500488,0.030517578125,-1.007080078125,0.640869140625
0.6074999,0.16639702022075653,-0.3016694188117981,9.783307075500488,0,-0.396728515625,0.213623046875
0.6124999,0.166995570063591,-0.32022446393966675,9.780313491821289,0,0.1220703125,-0.274658203125
0.6174999,0.1825578808784485,-0.2232593148946762,9.773131370544434,0.274658203125,0.091552734375,-0.42724609375
0.6224999,0.18555063009262085,-0.1693897694349289,9.744999885559082,0.18310546875,-0.335693359375,-0.42724609375
0.6274999,0.181959331035614,-0.0933738648891449,9.724648475646973,0.213623046875,-0.30517578125,-0.152587890625
0.6324999,0.17238251864910126,-0.03651157766580582,9.706692695617676,0.274658203125,-0.335693359375,0
0.6374999,0.15981295704841614,-0.02454056777060032,9.711481094360352,0.152587890625,-0.579833984375,0.06103515625
0.6424999,0.15981295704841614,-0.005985504016280174,9.709685325622559,0.06103515625,-1.068115234375,0.274658203125
0.6474999,0.16639702022075653,-0.018555063754320145,9.731831550598145,0.18310546875,-1.068115234375,0.06103515625
0.6524999,0.1867477297782898,-0.02214636653661728,9.746794700622559,0.3662109375,-0.732421875,-0.030517578125
0.6574999,0.19153612852096558,-0.025737667456269264,9.765948295593262,0.244140625,-0.54931640625,-0.396728515625
0.6624999,0.23403321206569672,-0.03531447425484657,9.783905029296875,0.244140625,-0.640869140625,-0.79345703125
0.6674999,0.23702596127986908,-0.03890577703714371,9.797672271728516,0.396728515625,-0.152587890625,-0.42724609375
0.6724999,0.2561795711517334,-0.04967968538403511,9.78869342803955,0.396728515625,0.244140625,-0.518798828125
0.6774999,0.2687491476535797,-0.047884032130241394,9.794678688049316,0.42724609375,0.213623046875,-0.732421875
0.6824999,0.2561795711517334,-0.055665191262960434,9.773131370544434,0.640869140625,0.67138671875,-0.823974609375
0.6874999,0.2472013235092163,-0.03172317147254944,9.763554573059082,0.42724609375,0.579833984375,-0.6103515625
0.6924999000000001,0.2406172752380371,-0.035913024097681046,9.767146110534668,0.48828125,0.335693359375,-0.8544921875
0.6974999000000001,0.21428105235099792,0.002992752008140087,9.750985145568848,0.48828125,0.762939453125,-0.9765625
0.7024999000000001,0.19871874153614044,-0.008379706181585789,9.753378868103027,0.3662109375,0.42724609375,-1.434326171875
0.7074999,0.16160862147808075,0.0071826050989329815,9.744400978088379,0.518798828125,0.3662109375,-0.48828125
0.7124999,0.13826514780521393,-0.0011971008498221636,9.731232643127441,0.274658203125,-0.091552734375,-0.335693359375
0.7174999,0.10833762586116791,-0.015562310814857483,9.733627319335938,0.152587890625,-0.3662109375,-0.152587890625
0.7224999,0.0867898091673851,-0.01975216343998909,9.728838920593262,-0.091552734375,-0.885009765625,-0.030517578125
0.7274999,0.07841010391712189,0.0005985504249110818,9.741408348083496,-0.18310546875,-1.28173828125,0.396728515625
0.7324999,0.0802057534456253,0.04369417950510979,9.731232643127441,0,-1.40380859375,0.91552734375
0.7374999,0.08918401598930359,0.043095629662275314,9.755773544311523,-0.030517578125,-1.495361328125,0.213623046875
0.7424999,0.1346738487482071,0.031124621629714966,9.742006301879883,-0.213623046875,-1.922607421875,-0.1220703125
0.7474999,0.15801730751991272,-0.020949264988303185,9.761758804321289,-0.06103515625,-1.373291015625,0.640869140625
0.7524999,0.19393034279346466,-0.09457096457481384,9.75637149810791,0.18310546875,-1.007080078125,0.30517578125
0.7574999,0.22505496442317963,-0.1173158809542656,9.75637149810791,-0.030517578125,-1.220703125,-0.091552734375
0.7624999,0.23044191300868988,-0.13766659796237946,9.764153480529785,0.030517578125,-1.129150390625,-0.1220703125
0.7674999,0.23403321206569672,-0.11671733111143112,9.749788284301758,0.06103515625,-1.15966796875,-0.06103515625
0.7724999,0.24241292476654053,-0.1215057373046875,9.75397777557373,0,-1.129150390625,-0.3662109375
0.7774999,0.24779987335205078,-0.10235211998224258,9.774328231811523,0.030517578125,-0.79345703125,-0.30517578125
0.7824999,0.2555810213088989,-0.090979665517807,9.750386238098145,0.213623046875,-0.30517578125,-0.244140625
0.7874999,0.25917232036590576,-0.08319851011037827,9.766547203063965,0.3662109375,0.1220703125,-0.54931640625
0.7924999,0.26994624733924866,-0.07242459803819656,9.731831550598145,0.274658203125,0.091552734375,-0.152587890625
0.7974999,0.24241292476654053,-0.06883329898118973,9.723451614379883,0.396728515625,0.762939453125,-0.30517578125
0.8024999,0.25498247146606445,-0.015562310814857483,9.713874816894531,0.457763671875,0.3662109375,-0.54931640625
0.8074999,0.2298433631658554,-0.050876785069704056,9.725247383117676,0.396728515625,-0.213623046875,-1.495361328125
0.8124999,0.19632454216480255,-0.0071826050989329815,9.744400978088379,0.67138671875,0.640869140625,-0.640869140625
0.8174999000000001,0.18734627962112427,-0.02693476900458336,9.749189376831055,0.335693359375,-0.244140625,-0.091552734375
0.8224999000000001,0.16819266974925995,-0.07003039866685867,9.767744064331055,0.152587890625,-0.274658203125,-0.1220703125
0.8274999000000001,0.17238251864910126,-0.047884032130241394,9.757569313049316,0.42724609375,0.457763671875,-0.274658203125
0.8324999000000001,0.18136078119277954,-0.08499415963888168,9.755773544311523,0.640869140625,0.54931640625,-0.030517578125
0.8374999,0.08738835901021957,0.0694318488240242,9.721057891845703,0.18310546875,-0.48828125,-0.457763671875
0.8424999,0.013168109580874443,0.10354922711849213,9.774328231811523,-1.800537109375,-4.150390625,0.335693359375
0.8474999,0.033518824726343155,0.1586158573627472,9.737217903137207,-3.143310546875,-8.392333984375,2.13623046875
0.8524999,0.11013327538967133,0.04668693244457245,9.781511306762695,-0.518798828125,-2.44140625,-1.03759765625
0.8574999,0.2364274114370346,-0.04489128291606903,9.761159896850586,1.007080078125,1.495361328125,0.244140625
0.8624999,0.35733461380004883,-0.1759738177061081,9.768941879272461,-0.030517578125,-0.18310546875,-0.335693359375
0.8674999,0.345363587141037,-0.1933317929506302,9.733627319335938,-0.1220703125,-1.068115234375,-0.335693359375
0.8724999,0.2825157940387726,-0.10115502029657364,9.764153480529785,0.06103515625,-0.54931640625,-0.579833984375
0.8774999,0.27653029561042786,-0.1280897855758667,9.728240013122559,-0.091552734375,-0.79345703125,-0.640869140625
0.8824999,0.23942017555236816,-0.03711012750864029,9.741408348083496,-0.152587890625,0.091552734375,-0.274658203125
0.8874999,0.23343466222286224,-0.03531447425484657,9.739013671875,0,0.885009765625,-0.06103515625
0.8924999,0.2555810213088989,-0.04728548228740692,9.757569313049316,-0.030517578125,-0.030517578125,0.244140625
0.8974999,0.2232593148946762,-0.033518824726343155,9.767146110534668,0.30517578125,0.42724609375,-0.1220703125
0.9024999,0.20111294090747833,-0.03172317147254944,9.764153480529785,0.244140625,0.701904296875,-0.518798828125
0.9074999,0.1867477297782898,-0.047884032130241394,9.762357711791992,-0.3662109375,-0.67138671875,-0.244140625
0.9124999,0.16879121959209442,-0.017956512048840523,9.75278091430664,-0.213623046875,-0.9765625,-0.152587890625
0.9174999,0.1951274424791336,-0.05746084079146385,9.73542308807373,-0.1220703125,-0.48828125,-0.06103515625
0.9224999,0.25258827209472656,-0.04249707981944084,9.731232643127441,0.213623046875,0.30517578125,0.213623046875
0.9274999,0.24361002445220947,-0.07841010391712189,9.713874816894531,0.274658203125,1.190185546875,-0.518798828125
0.9324999,0.2364274114370346,-0.04429273307323456,9.716269493103027,0.213623046875,0.30517578125,-0.42724609375
0.9374999,0.1975216418504715,-0.03172317147254944,9.718663215637207,-0.42724609375,-1.373291015625,-0.18310546875
0.9424999000000001,0.17956513166427612,-0.04489128291606903,9.741408348083496,-0.335693359375,-1.0986328125,0.30517578125
0.9474999000000001,0.2298433631658554,-0.02214636653661728,9.75517463684082,0.244140625,0.152587890625,0.396728515625
0.9524999000000001,0.23822307586669922,-0.06344634294509888,9.792284965515137,0.701904296875,1.77001953125,-0.06103515625
0.9574999000000001,0.21847090125083923,-0.011971008032560349,9.765948295593262,0.274658203125,1.007080078125,-0.54931640625
0.9624999,0.20769700407981873,-0.008379706181585789,9.804854393005371,-0.579833984375,-1.64794921875,-0.091552734375
0.9674999,0.20769700407981873,-0.008379706181585789,9.804854393005371,-0.579833984375,-1.64794921875,-0.091552734375
0.9724999,0.1628057211637497,-0.0011971008498221636,9.77013874053955,-0.6103515625,-1.40380859375,0.18310546875
0.9774999,0.22505496442317963,-0.0077811554074287415,9.770736694335938,0.091552734375,0.152587890625,0.18310546875
0.9824999,0.2495955228805542,-0.08559270948171616,9.794678688049316,0.640869140625,1.8310546875,-0.06103515625
0.9874999,0.2124854028224945,-0.05686229094862938,9.730035781860352,0.274658203125,1.28173828125,-0.79345703125
0.9924999,0.21607670187950134,-0.06823474913835526,9.77791976928711,-0.457763671875,-1.922607421875,-0.335693359375
0.9974999,0.16879121959209442,-0.05267243832349777,9.723451614379883,-0.54931640625,-1.739501953125,0.244140625
1.0024999,0.23582886159420013,-0.05386953800916672,9.750985145568848,0.1220703125,0.457763671875,0.244140625
1.0074999000000002,0.2579752206802368,-0.041299980133771896,9.734824180603027,1.007080078125,2.38037109375,-0.457763671875
1.0124999000000001,0.20769700407981873,-0.0347159244120121,9.75397777557373,0.335693359375,1.068115234375,-0.823974609375
1.0174999000000002,0.2064998894929886,-0.004788403399288654,9.732429504394531,-0.946044921875,-2.9296875,-0.1220703125
1.0224999000000001,0.1586158573627472,-0.041299980133771896,9.714473724365234,-0.701904296875,-1.861572265625,0.42724609375
1.0274999,0.23403321206569672,-0.06584054976701736,9.709086418151855,0.48828125,1.77001953125,0.152587890625
1.0324999000000001,0.21667525172233582,-0.08319851011037827,9.689932823181152,1.129150390625,2.99072265625,-0.91552734375
1.0374999,0.20051439106464386,-0.050876785069704056,9.727641105651855,-0.518798828125,-0.885009765625,-0.48828125
1.0424999000000001,0.17896658182144165,-0.0347159244120121,9.730634689331055,-1.190185546875,-3.60107421875,0.3662109375
1.0474999,0.22625206410884857,-0.040701430290937424,9.743204116821289,-0.1220703125,-0.6103515625,0.579833984375
1.0524999000000002,0.23702596127986908,-0.019153613597154617,9.774927139282227,1.190185546875,3.2958984375,-0.48828125
1.0574999,0.21966800093650818,-0.04967968538403511,9.757569313049316,0.457763671875,1.556396484375,-0.885009765625
1.0624999000000002,0.1867477297782898,0,9.77672290802002,-1.190185546875,-3.448486328125,0.335693359375
1.0674999,0.15921440720558167,-0.07302315533161163,9.790489196777344,-0.823974609375,-2.38037109375,0.6103515625
1.0724999000000002,0.2172738015651703,-0.0694318488240242,9.767146110534668,1.03759765625,2.62451171875,-0.274658203125
1.0774999,0.19153612852096558,-0.09876082092523575,9.750985145568848,0.91552734375,3.2958984375,-1.373291015625
1.0824999000000002,0.22385786473751068,-0.053270988166332245,9.7605619430542,-0.885009765625,-2.685546875,0.18310546875
1.0874999,0.19153612852096558,-0.0586579404771328,9.727641105651855,-1.15966796875,-3.47900390625,0.946044921875
1.0924999000000002,0.23762452602386475,-0.028730420395731926,9.736021041870117,0.91552734375,2.25830078125,-0.213623046875
1.0974999,0.19033902883529663,-0.03531447425484657,9.723451614379883,1.40380859375,3.875732421875,-1.312255859375
1.1024999000000002,0.21847090125083923,-0.004189853090792894,9.749788284301758,-1.007080078125,-2.105712890625,-0.06103515625
1.1074999,0.2214636504650116,-0.01735796220600605,9.733028411865234,-1.495361328125,-3.7841796875,0.8544921875
1.1124999000000002,0.2406172752380371,0.018555063754320145,9.790489196777344,0.823974609375,2.166748046875,-0.244140625
1.1174999,0.21547815203666687,-0.013766659423708916,9.756970405578613,1.46484375,4.33349609375,-1.434326171875
1.1224999000000002,0.21787235140800476,-0.002992752008140087,9.776124000549316,-1.007080078125,-2.86865234375,0.18310546875
1.1274999,0.23283611238002777,-0.08499415963888168,9.749189376831055,-1.617431640625,-4.608154296875,1.007080078125
1.1324999000000002,0.22385786473751068,-0.06524199992418289,9.734824180603027,1.15966796875,3.204345703125,-0.3662109375
1.1374999000000001,0.21009120345115662,-0.07960720360279083,9.719860076904297,1.77001953125,4.69970703125,-1.678466796875
1.1424999000000002,0.21547815203666687,-0.06224924325942993,9.728838920593262,-1.40380859375,-4.302978515625,0.213623046875
1.1474999000000001,0.2561795711517334,-0.060453593730926514,9.695320129394531,-1.5869140625,-4.791259765625,1.190185546875
1.1524999000000002,0.2017114907503128,0.009576806798577309,9.75517463684082,1.556396484375,4.791259765625,-0.79345703125
1.1574999000000001,0.22445641458034515,-0.033518824726343155,9.731831550598145,1.373291015625,3.84521484375,-1.52587890625
1.1624999,0.25438392162323,0.0005985504249110818,9.767146110534668,-1.89208984375,-5.584716796875,1.312255859375
1.1674999000000001,0.25917232036590576,-0.03950432687997818,9.743204116821289,-1.0986328125,-3.082275390625,0.457763671875
1.1724999,0.17537526786327362,-0.004788403399288654,9.727043151855469,2.166748046875,6.8359375,-1.373291015625
1.1774999000000002,0.22445641458034515,-0.05267243832349777,9.7605619430542,0.274658203125,0.885009765625,-1.373291015625
1.1824999,0.24779987335205078,-0.08559270948171616,9.731831550598145,-2.25830078125,-6.7138671875,2.166748046875
1.1874999000000002,0.2256535142660141,-0.04249707981944084,9.783307075500488,0.30517578125,0.30517578125,0.1220703125
1.1924999,0.15442600846290588,-0.03770867735147476,9.728240013122559,2.3193359375,6.744384765625,-2.105712890625
1.1974999000000002,0.22086510062217712,-0.046088382601737976,9.745597839355469,-1.068115234375,-3.204345703125,0.152587890625
1.2024999,0.2687491476535797,-0.0628477931022644,9.696516990661621,-1.64794921875,-5.462646484375,2.38037109375
1.2074999000000002,0.12449848651885986,0.012569558806717396,9.753378868103027,1.64794921875,5.31005859375,-1.739501953125
1.2124999,0.20470423996448517,-0.04249707981944084,9.779715538024902,1.03759765625,3.082275390625,-2.227783203125
1.2174999000000002,0.26096799969673157,-0.04728548228740692,9.782109260559082,-2.13623046875,-6.2255859375,2.716064453125
1.2224999,0.262763649225235,-0.02992752194404602,9.79408073425293,-0.152587890625,-0.67138671875,-0.1220703125
1.2274999000000002,0.1496376097202301,-0.013168109580874443,9.709685325622559,2.105712890625,7.110595703125,-2.716064453125
1.2324999,0.24001872539520264,-0.04429273307323456,9.70549488067627,-1.129150390625,-3.0517578125,0.18310546875
1.2374999000000002,0.3148375153541565,-0.08559270948171616,9.658807754516602,-1.434326171875,-5.55419921875,2.86865234375
1.2424999,0.11671733111143112,0.016759412363171577,9.724648475646973,2.01416015625,5.889892578125,-2.13623046875
1.2474999000000002,0.19692309200763702,-0.076015904545784,9.75397777557373,0.396728515625,2.0751953125,-2.044677734375
1.2524999,0.2932897210121155,-0.08559270948171616,9.757569313049316,-2.288818359375,-7.080078125,3.11279296875
1.2574999000000002,0.18794482946395874,-0.009576806798577309,9.824007987976074,0.762939453125,1.89208984375,-0.8544921875
1.2624999000000001,0.12210428714752197,-0.06703764945268631,9.79288387298584,1.64794921875,6.134033203125,-2.655029296875
1.2674999000000002,0.27653029561042786,-0.06584054976701736,9.785101890563965,-2.01416015625,-5.615234375,1.708984375
1.2724999000000001,0.28072014451026917,-0.0586579404771328,9.767146110534668,-0.54931640625,-2.50244140625,0.946044921875
1.2774999000000002,0.09516951441764832,0.0017956512747332454,9.68274974822998,2.471923828125,7.32421875,-2.532958984375
1.2824999000000001,0.2645592987537384,-0.04010287672281265,9.679159164428711,-1.0986328125,-2.44140625,0.152587890625
1.2874999,0.33039984107017517,-0.06344634294509888,9.66419506072998,-1.556396484375,-5.401611328125,2.44140625
1.2924999000000001,0.11252748221158981,0.04728548228740692,9.699509620666504,2.197265625,6.103515625,-2.593994140625
1.2974999,0.2124854028224945,-0.06224924325942993,9.746196746826172,-0.06103515625,0.885009765625,-1.03759765625
1.3024999000000002,0.3315969407558441,-0.07661445438861847,9.734225273132324,-2.044677734375,-6.65283203125,2.99072265625
1.3074999,0.12689268589019775,0.01975216343998909,9.791686058044434,1.617431640625,4.058837890625,-2.105712890625
1.3124999000000002,0.15322890877723694,-0.07661445438861847,9.771934509277344,0.8544921875,3.5400390625,-1.434326171875
1.3174999,0.33518823981285095,-0.090979665517807,9.761159896850586,-2.349853515625,-6.744384765625,3.11279296875
1.3224999000000002,0.17298106849193573,-0.016160860657691956,9.81263542175293,0.9765625,2.227783203125,-1.708984375
1.3274999,0.11671733111143112,-0.05506663769483566,9.75637149810791,1.434326171875,5.126953125,-2.0751953125
1.3324999000000002,0.11671733111143112,-0.05506663769483566,9.75637149810791,1.434326171875,5.126953125,-2.0751953125
1.3374999,0.3166331648826599,-0.08439560979604721,9.752182006835938,-2.13623046875,-6.28662109375,2.838134765625
1.3424999000000002,0.1735796183347702,-0.02274491637945175,9.79408073425293,0.579833984375,0.396728515625,-1.03759765625
1.3474999,0.0736217051744461,-0.012569558806717396,9.723451614379883,1.556396484375,5.67626953125,-2.105712890625
1.3524999000000002,0.3064578175544739,-0.09217676520347595,9.738415718078613,-1.861572265625,-5.645751953125,2.9296875
1.3574999,0.2124854028224945,-0.02454056777060032,9.769539833068848,0.244140625,-0.6103515625,-1.0986328125
1.3624999000000002,0.10295066982507706,-0.005985504016280174,9.710882186889648,1.64794921875,6.103515625,-2.288818359375
1.3674999,0.33758243918418884,-0.1041477769613266,9.729436874389648,-1.8310546875,-5.035400390625,2.899169921875
1.3724999000000002,0.24779987335205078,-0.01735796220600605,9.771934509277344,0.152587890625,-1.0986328125,-1.15966796875
1.3774999,0.10534487664699554,-0.005985504016280174,9.72165584564209,1.739501953125,5.950927734375,-2.25830078125
1.3824999000000002,0.3495534360408783,-0.10654197633266449,9.751583099365234,-1.5869140625,-4.852294921875,3.021240234375
1.3874999000000001,0.24660277366638184,0.005985504016280174,9.797073364257812,0.18310546875,-0.762939453125,-1.190185546875
1.3924999000000002,0.11013327538967133,-0.005386953707784414,9.73661994934082,1.617431640625,5.43212890625,-1.922607421875
1.3974999000000001,0.3621230125427246,-0.09636662155389786,9.755773544311523,-1.77001953125,-5.035400390625,3.11279296875
1.4024999000000002,0.23523031175136566,0.018555063754320145,9.786897659301758,0.48828125,-0.06103515625,-1.800537109375
1.4074999000000001,0.11671733111143112,-0.033518824726343155,9.712079048156738,1.373291015625,4.7607421875,-1.708984375
1.4124999,0.3776853084564209,-0.10773907601833344,9.733028411865234,-1.800537109375,-5.584716796875,3.173828125
1.4174999000000001,0.1801636815071106,0.018555063754320145,9.747393608093262,0.79345703125,1.03759765625,-2.38037109375
1.4224999,0.10295066982507706,-0.047884032130241394,9.695320129394531,0.885009765625,4.150390625,-0.8544921875
1.4274999000000002,0.3585317134857178,-0.10235211998224258,9.721057891845703,-1.89208984375,-5.9814453125,3.021240234375
1.4324999,0.09696517139673233,0.03172317147254944,9.73661994934082,1.312255859375,2.532958984375,-3.2958984375
1.4374999000000002,0.14185644686222076,-0.07661445438861847,9.715071678161621,0.6103515625,2.99072265625,0.42724609375
1.4424999,0.3687070608139038,-0.09277531504631042,9.728240013122559,-1.739501953125,-6.317138671875,2.349853515625
1.4474999000000002,0.07781155407428741,0.03232172131538391,9.748590469360352,1.77001953125,4.2724609375,-3.662109375
1.4524999,0.22086510062217712,-0.10534487664699554,9.754576683044434,-0.152587890625,1.495361328125,1.64794921875
1.4574999000000002,0.3561375141143799,-0.06344634294509888,9.764153480529785,-1.495361328125,-5.462646484375,1.007080078125
1.4624999,0.04908113554120064,0.013168109580874443,9.81024169921875,1.861572265625,5.462646484375,-3.41796875
1.4674999000000002,0.28969839215278625,-0.11552023142576218,9.764153480529785,-0.67138671875,-1.312255859375,3.0517578125
1.4724999,0.2759317457675934,-0.040701430290937424,9.813234329223633,-0.6103515625,-3.47900390625,-0.91552734375
1.4774999000000002,0.040701430290937424,0.005386953707784414,9.747992515563965,1.708984375,5.767822265625,-2.5634765625
1.4824999,0.3345896899700165,-0.13946224749088287,9.730634689331055,-1.556396484375,-3.753662109375,3.662109375
1.4874999000000002,0.21547815203666687,0.025737667456269264,9.759963035583496,0.244140625,-0.701904296875,-2.655029296875
1.4924999,0.1215057373046875,-0.023942016065120697,9.697115898132324,1.251220703125,4.57763671875,-0.48828125
1.4974999000000002,0.41958385705947876,-0.10295066982507706,9.726444244384766,-1.861572265625,-5.462646484375,3.11279296875
1.5024999,0.11911153793334961,0.0520738884806633,9.73781681060791,1.28173828125,2.44140625,-4.0283203125
1.5074999000000002,0.19572599232196808,-0.12090718746185303,9.713275909423828,0.06103515625,1.8310546875,1.89208984375
1.5124999000000001,0.3411737382411957,-0.0802057534456253,9.75397777557373,-1.40380859375,-5.035400390625,1.129150390625
1.5174999000000002,0.0347159244120121,0.018555063754320145,9.77672290802002,1.8310546875,4.94384765625,-3.570556640625
1.5224999000000001,0.2890998423099518,-0.13946224749088287,9.747992515563965,-1.068115234375,-1.708984375,3.662109375
1.5274999000000002,0.25977087020874023,0.011372458189725876,9.825204849243164,-0.3662109375,-2.349853515625,-1.922607421875
1.5324999000000001,0.05626374110579491,-0.011372458189725876,9.745597839355469,1.52587890625,4.82177734375,-1.434326171875
1.5374999000000003,0.375291109085083,-0.1412578970193863,9.767146110534668,-1.77001953125,-4.425048828125,3.692626953125
1.5424999000000001,0.10654197633266449,0.05746084079146385,9.763554573059082,1.15966796875,1.556396484375,-4.0283203125
1.5474999,0.16819266974925995,-0.10295066982507706,9.711481094360352,0.42724609375,2.227783203125,1.708984375
1.5524999000000002,0.34596213698387146,-0.0520738884806633,9.756970405578613,-1.434326171875,-4.547119140625,1.0986328125
1.5574999,0.07003039866685867,0.08080431073904037,9.75517463684082,1.800537109375,4.486083984375,-3.7841796875
1.5624999000000002,0.34656068682670593,-0.10055647045373917,9.727043151855469,-1.0986328125,-1.800537109375,3.96728515625
1.5674999,0.26096799969673157,0.06404489278793335,9.79288387298584,-0.335693359375,-1.46484375,-2.685546875
1.5724999000000002,0.1322796493768692,0.028730420395731926,9.726444244384766,1.40380859375,3.84521484375,-0.54931640625
1.5774999,0.3878606855869293,-0.10055647045373917,9.768941879272461,-1.617431640625,-4.45556640625,3.173828125
1.5824999000000002,0.08319851011037827,0.09038111567497253,9.785101890563965,1.220703125,2.685546875,-4.5166015625
1.5874999,0.23044191300868988,-0.10953472554683685,9.734824180603027,-0.030517578125,0.274658203125,3.143310546875
1.5924999000000002,0.2495955228805542,-0.0628477931022644,9.82640266418457,-0.79345703125,-3.021240234375,-0.9765625
1.5974999,0.048482585698366165,0.0005985504249110818,9.739612579345703,1.46484375,4.21142578125,-2.471923828125
1.6024999000000002,0.34416648745536804,-0.1885433793067932,9.749788284301758,-1.434326171875,-3.631591796875,4.119873046875
1.6074999,0.11312603205442429,0.021547814831137657,9.736021041870117,0.701904296875,1.312255859375,-4.2724609375
1.6124999000000002,0.21009120345115662,-0.10295066982507706,9.699509620666504,0.457763671875,1.46484375,2.01416015625
1.6174999,0.29568392038345337,-0.08200141042470932,9.762955665588379,-1.220703125,-3.72314453125,0.48828125
1.6224999000000002,0.06823474913835526,0.04489128291606903,9.73661994934082,1.52587890625,4.241943359375,-3.23486328125
1.6274999,0.3411737382411957,-0.13826514780521393,9.73781681060791,-1.068115234375,-2.899169921875,4.5166015625
1.6324999000000002,0.15741875767707825,0.05267243832349777,9.766547203063965,0.54931640625,0.48828125,-4.33349609375
1.6374999000000001,0.20051439106464386,-0.050876785069704056,9.713275909423828,0.579833984375,2.166748046875,1.64794921875
1.6424999000000002,0.3345896899700165,-0.07541735470294952,9.771934509277344,-1.251220703125,-3.7841796875,1.190185546875
1.6474999000000001,0.06823474913835526,0.050876785069704056,9.733627319335938,1.434326171875,4.058837890625,-3.84521484375
1.6524999000000002,0.3411737382411957,-0.14245499670505524,9.719860076904297,-1.129150390625,-2.593994140625,4.69970703125
1.6574999000000001,0.15143325924873352,0.030526071786880493,9.756970405578613,0.213623046875,0.42724609375,-4.241943359375
1.6624999000000003,0.19632454216480255,-0.07422025501728058,9.709685325622559,0.54931640625,1.922607421875,1.617431640625
1.6674999000000001,0.3148375153541565,-0.08259996026754379,9.785700798034668,-1.129150390625,-3.7841796875,1.0986328125
1.6724999,0.05985504388809204,0.02992752194404602,9.742605209350586,1.434326171875,4.08935546875,-3.90625
1.6774999000000002,0.3477577865123749,-0.13766659796237946,9.737217903137207,-1.129150390625,-2.9296875,4.852294921875
1.6824999,0.11851298063993454,0.04369417950510979,9.763554573059082,0.48828125,1.03759765625,-4.913330078125
1.6874999000000002,0.23822307586669922,-0.07541735470294952,9.725846290588379,0.396728515625,1.434326171875,2.044677734375
1.6924999,0.30466216802597046,-0.06165069341659546,9.809642791748047,-1.007080078125,-3.47900390625,1.068115234375
1.6974999000000002,0.30466216802597046,-0.06165069341659546,9.809642791748047,-1.007080078125,-3.47900390625,1.068115234375
1.7024999,0.0975637212395668,0.0071826050989329815,9.739612579345703,1.46484375,4.608154296875,-4.2724609375
1.7074999000000002,0.3878606855869293,-0.1256955862045288,9.757569313049316,-1.220703125,-4.119873046875,5.859375
1.7124999,0.09457096457481384,0.031124621629714966,9.751583099365234,0.9765625,2.410888671875,-5.37109375
1.7174999000000002,0.2825157940387726,-0.08439560979604721,9.691728591918945,-0.213623046875,-0.091552734375,2.44140625
1.7224999,0.2298433631658554,0.010773907415568829,9.791686058044434,-0.3662109375,-2.166748046875,0.701904296875
1.7274999000000002,0.12509703636169434,-0.002394201699644327,9.700706481933594,0.91552734375,3.7841796875,-3.936767578125
1.7324999,0.35673606395721436,-0.0586579404771328,9.770736694335938,-1.15966796875,-4.08935546875,5.279541015625
1.7374999000000002,0.07841010391712189,0.055665191262960434,9.734824180603027,1.129150390625,3.204345703125,-5.340576171875
1.7424999,0.333991140127182,-0.10773907601833344,9.683348655700684,-0.91552734375,-1.953125,3.35693359375
1.7474999000000002,0.1430535465478897,0.041299980133771896,9.779715538024902,0.48828125,0.030517578125,-0.640869140625
1.7524999,0.22206220030784607,-0.09157821536064148,9.671976089477539,0.244140625,2.01416015625,-3.0517578125
1.7574999000000002,0.24600422382354736,-0.041299980133771896,9.822811126708984,-0.6103515625,-3.173828125,5.4931640625
1.7624999000000001,0.10295066982507706,-0.026336219161748886,9.732429504394531,1.0986328125,3.875732421875,-6.8359375
1.7674999000000002,0.3064578175544739,-0.12509703636169434,9.79288387298584,-1.190185546875,-3.23486328125,5.706787109375
1.7724999000000001,0.08080431073904037,0.035913024097681046,9.77791976928711,1.0986328125,1.922607421875,-3.5400390625
1.7774999000000002,0.29628247022628784,-0.12270283699035645,9.689932823181152,-0.54931640625,-0.30517578125,-0.42724609375
1.7824999000000001,0.1909375786781311,0.04429273307323456,9.797073364257812,0,-1.40380859375,3.692626953125
1.7874999000000003,0.21547815203666687,-0.05686229094862938,9.659406661987305,0.54931640625,2.777099609375,-6.28662109375
1.7924999000000001,0.29867666959762573,-0.02513911761343479,9.785101890563965,-0.91552734375,-3.387451171875,7.110595703125
1.7974999,0.11791443079710007,0.013766659423708916,9.700706481933594,1.129150390625,3.387451171875,-6.805419921875
1.8024999000000002,0.32441434264183044,-0.13587094843387604,9.737217903137207,-1.15966796875,-2.5634765625,4.33349609375
1.8074999,0.10594342648983002,0.01975216343998909,9.785700798034668,0.8544921875,1.495361328125,-1.5869140625
1.8124999000000002,0.28550854325294495,-0.16639702022075653,9.691129684448242,-0.54931640625,0.274658203125,-2.50244140625
1.8174999,0.19812019169330597,0.0077811554074287415,9.834781646728516,0.06103515625,-1.708984375,5.0048828125
1.8224999000000002,0.22086510062217712,-0.08798690885305405,9.6989107131958,0.67138671875,2.777099609375,-7.171630859375
1.8274999,0.292691171169281,-0.02454056777060032,9.825803756713867,-0.946044921875,-3.082275390625,7.4462890625
1.8324999000000002,0.1215057373046875,0.014365210197865963,9.713874816894531,1.15966796875,2.899169921875,-6.561279296875
1.8374999,0.3082534670829773,-0.11851298063993454,9.758766174316406,-1.03759765625,-2.410888671875,4.180908203125
1.8424999000000002,0.08798690885305405,0.04728548228740692,9.780912399291992,0.8544921875,1.495361328125,-1.52587890625
1.8474999,0.2974795699119568,-0.14844051003456116,9.679159164428711,-0.579833984375,-0.06103515625,-1.922607421875
1.8524999000000002,0.1454477459192276,0.03531447425484657,9.792284965515137,0.244140625,-0.946044921875,4.57763671875
1.8574999,0.26575639843940735,-0.11791443079710007,9.660005569458008,0.213623046875,2.227783203125,-6.988525390625
1.8624999000000002,0.2519897222518921,-0.02992752194404602,9.813234329223633,-0.8544921875,-2.8076171875,7.598876953125
1.8674999,0.1628057211637497,-0.038307227194309235,9.695320129394531,0.9765625,2.8076171875,-7.537841796875
1.8724999000000002,0.31364041566848755,-0.10235211998224258,9.839570045471191,-1.129150390625,-2.716064453125,5.645751953125
1.8774999,0.09277531504631042,0.07182604819536209,9.774328231811523,1.129150390625,2.01416015625,-3.448486328125
1.8824999000000002,0.3100491166114807,-0.11611878126859665,9.734824180603027,-0.8544921875,-1.068115234375,0.244140625
1.8874999000000001,0.1107318252325058,0.08619125932455063,9.81024169921875,0.6103515625,0.152587890625,2.197265625
1.8924999000000002,0.2992752194404602,-0.12449848651885986,9.65222454071045,-0.213623046875,0.67138671875,-5.096435546875
1.8974999000000001,0.19572599232196808,0.03711012750864029,9.789292335510254,-0.244140625,-1.64794921875,6.40869140625
1.9024999000000002,0.24121582508087158,-0.1041477769613266,9.640253067016602,0.518798828125,2.197265625,-7.8125
1.9074999000000001,0.2717418968677521,-0.041299980133771896,9.804255485534668,-0.762939453125,-2.50244140625,7.26318359375
1.9124999000000003,0.1412578970193863,-0.03651157766580582,9.682151794433594,1.03759765625,2.593994140625,-6.591796875
1.9174999000000001,0.29867666959762573,-0.16220717132091522,9.782708168029785,-1.007080078125,-2.288818359375,4.39453125
1.9224999,0.09576806426048279,0.004788403399288654,9.748590469360352,1.0986328125,1.556396484375,-2.105712890625
1.9274999000000002,0.3292027413845062,-0.21547815203666687,9.674370765686035,-0.732421875,-1.068115234375,-0.885009765625
1.9324999,0.13108254969120026,0.011971008032560349,9.776124000549316,0.54931640625,0.335693359375,2.838134765625
1.9374999000000002,0.333991140127182,-0.1867477297782898,9.616311073303223,-0.213623046875,0.701904296875,-5.55419921875
1.9424999,0.181959331035614,0.028131870552897453,9.790489196777344,-0.1220703125,-1.312255859375,6.591796875
1.9474999000000002,0.2651578485965729,-0.09696517139673233,9.638457298278809,0.48828125,1.922607421875,-7.781982421875
1.9524999,0.26396074891090393,0.0011971008498221636,9.849146842956543,-0.701904296875,-2.197265625,7.14111328125
1.9574999000000002,0.1604115068912506,0.009576806798577309,9.684545516967773,0.91552734375,2.288818359375,-6.927490234375
1.9624999,0.3010708689689636,-0.07122749835252762,9.86889934539795,-0.9765625,-2.227783203125,4.974365234375
1.9674999000000002,0.09277531504631042,0.07182604819536209,9.761159896850586,1.007080078125,1.983642578125,-3.265380859375
1.9724999,0.29388827085494995,-0.13946224749088287,9.75936508178711,-1.03759765625,-1.373291015625,0.9765625
1.9774999000000002,0.09038111567497253,0.076015904545784,9.790489196777344,0.8544921875,0.823974609375,0.91552734375
1.9824999,0.3292027413845062,-0.18136078119277954,9.640253067016602,-0.42724609375,-0.335693359375,-3.326416015625
1.9874999000000002,0.12389993667602539,0.04728548228740692,9.773730278015137,0.335693359375,-0.18310546875,5.035400390625
1.9924999,0.32202014327049255,-0.16340427100658417,9.618705749511719,0,1.007080078125,-6.65283203125
1.9974999000000002,0.18734627962112427,0.03770867735147476,9.805453300476074,-0.18310546875,-1.251220703125,7.110595703125
2.0024999,0.25019407272338867,-0.09277531504631042,9.657012939453125,0.457763671875,1.77001953125,-7.568359375
2.0074999,0.25258827209472656,-0.015562310814857483,9.871891975402832,-0.79345703125,-2.01416015625,7.01904296875
2.0124999000000003,0.15921440720558167,-0.015562310814857483,9.692327499389648,0.91552734375,1.983642578125,-6.622314453125
2.0174999000000002,0.2687491476535797,-0.09277531504631042,9.875483512878418,-0.885009765625,-2.166748046875,4.852294921875
2.0224999,0.0999579206109047,0.04728548228740692,9.743204116821289,0.9765625,1.708984375,-3.570556640625
2.0274999,0.2890998423099518,-0.1346738487482071,9.79288387298584,-0.8544921875,-1.64794921875,1.434326171875
2.0324999000000004,0.09696517139673233,0.07960720360279083,9.791088104248047,0.79345703125,1.220703125,0.18310546875
2.0374999000000003,0.34596213698387146,-0.16819266974925995,9.6989107131958,-0.67138671875,-0.885009765625,-2.25830078125
2.0424999,0.12868833541870117,0.06703764945268631,9.807847023010254,0.640869140625,0.335693359375,3.60107421875
2.0474999,0.3705027103424072,-0.17657238245010376,9.64564037322998,-0.457763671875,0.18310546875,-5.340576171875
2.0524999,0.14844051003456116,0.05686229094862938,9.809642791748047,0.18310546875,-0.518798828125,6.072998046875
2.0574999000000003,0.31543606519699097,-0.1412578970193863,9.633668899536133,0.091552734375,1.007080078125,-7.14111328125
2.0624999,0.31543606519699097,-0.1412578970193863,9.633668899536133,0.091552734375,1.007080078125,-7.14111328125
2.0674999,0.18076223134994507,0.055665191262960434,9.825803756713867,-0.396728515625,-1.495361328125,7.049560546875
2.0724999,0.23343466222286224,-0.08200141042470932,9.647436141967773,0.518798828125,1.5869140625,-7.4462890625
2.0774999000000003,0.2472013235092163,-0.002394201699644327,9.877279281616211,-0.732421875,-1.708984375,6.53076171875
2.0824999,0.16400282084941864,-0.023942016065120697,9.671976089477539,0.8544921875,1.800537109375,-6.256103515625
2.0874999,0.25079262256622314,-0.08439560979604721,9.875483512878418,-0.79345703125,-1.953125,4.913330078125
2.0924999,0.10714052617549896,0.023942016065120697,9.717466354370117,0.9765625,1.922607421875,-4.119873046875
2.0974999000000003,0.2561795711517334,-0.1346738487482071,9.810839653015137,-0.885009765625,-1.77001953125,2.349853515625
2.1024999,0.0999579206109047,0.04429273307323456,9.765350341796875,0.823974609375,1.434326171875,-1.3427734375
2.1074999,0.3190273642539978,-0.18614917993545532,9.728240013122559,-0.946044921875,-1.3427734375,-0.518798828125
2.1124999,0.11192893236875534,0.04668693244457245,9.762357711791992,0.762939453125,1.007080078125,1.495361328125
2.1174999000000003,0.36152446269989014,-0.20530278980731964,9.65222454071045,-0.579833984375,-0.6103515625,-3.082275390625
2.1224999,0.11911153793334961,0.05506663769483566,9.777320861816406,0.640869140625,0.274658203125,3.936767578125
2.1274999,0.365115761756897,-0.18315643072128296,9.622895240783691,-0.3662109375,-0.1220703125,-5.2490234375
2.1324999,0.11851298063993454,0.05446808785200119,9.814431190490723,0.213623046875,-0.396728515625,5.859375
2.1374999000000003,0.3172317147254944,-0.16220717132091522,9.619303703308105,-0.06103515625,0.6103515625,-6.683349609375
2.1424999000000002,0.11252748221158981,0.04728548228740692,9.814431190490723,-0.06103515625,-0.823974609375,6.744384765625
2.1474999,0.26096799969673157,-0.13587094843387604,9.61571216583252,0.244140625,1.03759765625,-7.049560546875
2.1524999,0.17896658182144165,0.03172317147254944,9.840767860412598,-0.3662109375,-1.312255859375,6.744384765625
2.1574999000000004,0.23942017555236816,-0.09277531504631042,9.637260437011719,0.518798828125,1.46484375,-6.8359375
2.1624999000000003,0.2645592987537384,-0.031124621629714966,9.896432876586914,-0.701904296875,-1.556396484375,6.195068359375
2.1674999,0.19572599232196808,-0.05147533491253853,9.66958236694336,0.701904296875,1.800537109375,-5.767822265625
2.1724999,0.24001872539520264,-0.08798690885305405,9.899425506591797,-0.885009765625,-1.617431640625,4.82177734375
2.1774999000000004,0.11372458189725876,0.002394201699644327,9.688735961914062,0.732421875,1.64794921875,-4.45556640625
2.1824999000000003,0.2041056901216507,-0.09157821536064148,9.856329917907715,-0.885009765625,-1.64794921875,3.173828125
2.1874999,0.08798690885305405,0.05686229094862938,9.723451614379883,0.946044921875,1.678466796875,-2.62451171875
2.1924999,0.26336219906806946,-0.0999579206109047,9.802460670471191,-0.823974609375,-1.46484375,1.40380859375
2.1974999,0.12330138683319092,0.07721300423145294,9.750386238098145,0.79345703125,1.434326171875,-0.701904296875
2.2024999000000003,0.3357867896556854,-0.14365209639072418,9.739612579345703,-0.8544921875,-1.28173828125,-0.6103515625
2.2074999,0.13048399984836578,0.07661445438861847,9.743204116821289,0.8544921875,1.220703125,1.251220703125
2.2124999,0.3728969097137451,-0.18375498056411743,9.66958236694336,-0.79345703125,-1.007080078125,-2.197265625
2.2174999,0.1173158809542656,0.07661445438861847,9.75517463684082,0.732421875,0.8544921875,2.5634765625
2.2224999000000003,0.3878606855869293,-0.1759738177061081,9.64803409576416,-0.640869140625,-0.579833984375,-3.631591796875
2.2274999,0.11971008777618408,0.07960720360279083,9.804854393005371,0.579833984375,0.54931640625,3.96728515625
2.2324999,0.38067805767059326,-0.17657238245010376,9.649829864501953,-0.518798828125,-0.3662109375,-4.94384765625
2.2374999,0.12210428714752197,0.06703764945268631,9.847949981689453,0.3662109375,0.091552734375,4.8828125
2.2424999000000003,0.3627215623855591,-0.18794482946395874,9.634865760803223,-0.244140625,0.030517578125,-5.79833984375
2.2474999,0.1041477769613266,0.053270988166332245,9.852140426635742,0.42724609375,-0.152587890625,5.889892578125
2.2524999,0.32620999217033386,-0.18315643072128296,9.630077362060547,-0.213623046875,0.396728515625,-6.40869140625
2.2574999,0.08798690885305405,0.06404489278793335,9.841365814208984,0.030517578125,-0.732421875,6.2255859375
2.2624999000000003,0.28371289372444153,-0.16519992053508759,9.624691009521484,0.030517578125,0.54931640625,-6.561279296875
2.2674999000000002,0.09876082092523575,0.07900865375995636,9.852140426635742,-0.152587890625,-0.6103515625,6.34765625
2.2724999,0.27473464608192444,-0.13587094843387604,9.620500564575195,0,0.8544921875,-6.683349609375
2.2774999,0.1604115068912506,0.08798690885305405,9.876082420349121,-0.1220703125,-1.068115234375,6.317138671875
2.2824999000000004,0.28072014451026917,-0.1107318252325058,9.633668899536133,0.457763671875,1.0986328125,-6.622314453125
2.2874999000000003,0.22505496442317963,0.0802057534456253,9.88506031036377,-0.18310546875,-1.129150390625,6.16455078125
2.2924999,0.2603694200515747,-0.08499415963888168,9.640851974487305,0.3662109375,1.251220703125,-6.28662109375
2.2974999,0.22924481332302094,0.04249707981944084,9.892841339111328,-0.457763671875,-1.312255859375,5.67626953125
2.3024999000000004,0.20769700407981873,-0.07960720360279083,9.634865760803223,0.518798828125,1.312255859375,-5.7373046875
2.3074999000000003,0.21188685297966003,-0.016759412363171577,9.916783332824707,-0.579833984375,-1.556396484375,4.974365234375
2.3124999,0.15981295704841614,-0.08559270948171616,9.64564037322998,0.518798828125,1.495361328125,-5.2490234375
2.3174999,0.20051439106464386,-0.055665191262960434,9.920374870300293,-0.579833984375,-1.373291015625,4.5166015625
2.3224999,0.13108254969120026,-0.05985504388809204,9.651026725769043,0.640869140625,1.46484375,-4.608154296875
2.3274999000000003,0.19153612852096558,-0.05746084079146385,9.895833969116211,-0.640869140625,-1.495361328125,3.96728515625
2.3324999,0.1280897855758667,-0.02513911761343479,9.644442558288574,0.67138671875,1.495361328125,-4.0283203125
2.3374999,0.20530278980731964,-0.05506663769483566,9.8599214553833,-0.8544921875,-1.495361328125,3.448486328125
2.3424999,0.1472434103488922,-0.013766659423708916,9.639056205749512,0.8544921875,1.46484375,-3.47900390625
2.3474999000000003,0.2364274114370346,-0.06344634294509888,9.836577415466309,-0.762939453125,-1.46484375,2.777099609375
2.3524999,0.16160862147808075,-0.005386953707784414,9.654618263244629,0.732421875,1.495361328125,-2.838134765625
2.3574999,0.2621650993824005,-0.07422025501728058,9.830592155456543,-0.701904296875,-1.739501953125,2.38037109375
2.3624999,0.16340427100658417,0.008379706181585789,9.684545516967773,0.885009765625,1.5869140625,-2.288818359375
2.3674999000000003,0.27413609623908997,-0.09157821536064148,9.82879638671875,-0.67138671875,-1.3427734375,1.8310546875
2.3724999,0.166995570063591,0.004189853090792894,9.707290649414062,1.007080078125,1.556396484375,-2.044677734375
2.3774999,0.28550854325294495,-0.11911153793334961,9.818022727966309,-0.732421875,-1.5869140625,1.434326171875
2.3824999,0.1711854189634323,-0.008379706181585789,9.713874816894531,1.03759765625,1.40380859375,-1.617431640625
2.3874999000000003,0.2974795699119568,-0.13347674906253815,9.795876502990723,-0.732421875,-1.373291015625,0.946044921875
2.3924999000000002,0.166995570063591,-0.0005985504249110818,9.710283279418945,0.79345703125,1.40380859375,-1.190185546875
2.3974999,0.30286651849746704,-0.12629413604736328,9.782708168029785,-0.885009765625,-1.40380859375,0.732421875
2.4024999,0.1604115068912506,0.02214636653661728,9.712677955627441,0.91552734375,1.52587890625,-0.946044921875
2.4074999000000004,0.3058592677116394,-0.10953472554683685,9.782708168029785,-0.79345703125,-1.495361328125,0.396728515625
2.4124999000000003,0.15083470940589905,0.041299980133771896,9.717466354370117,0.885009765625,1.46484375,-0.67138671875
2.4174999,0.29807811975479126,-0.09397241473197937,9.780313491821289,-0.9765625,-1.556396484375,0.30517578125
2.4224999,0.1322796493768692,0.046088382601737976,9.718663215637207,0.8544921875,1.46484375,-0.579833984375
2.4274999000000004,0.28730419278144836,-0.09636662155389786,9.774328231811523,-0.8544921875,-1.434326171875,0.18310546875
2.4324999000000003,0.28730419278144836,-0.09636662155389786,9.774328231811523,-0.8544921875,-1.434326171875,0.18310546875
2.4374999,0.11971008777618408,0.047884032130241394,9.712677955627441,0.885009765625,1.40380859375,-0.396728515625
2.4424999,0.2849099934101105,-0.10175357013940811,9.762357711791992,-0.8544921875,-1.3427734375,0.06103515625
2.4474999,0.1215057373046875,0.04908113554120064,9.704896926879883,0.79345703125,1.495361328125,-0.42724609375
2.4524999000000003,0.29149407148361206,-0.09816227108240128,9.761159896850586,-0.885009765625,-1.617431640625,0.152587890625
2.4574999,0.12928688526153564,0.04967968538403511,9.706093788146973,0.8544921875,1.40380859375,-0.3662109375
2.4624999,0.29807811975479126,-0.09217676520347595,9.777320861816406,-0.79345703125,-1.373291015625,0.06103515625
2.4674999,0.1388636976480484,0.050876785069704056,9.715670585632324,0.823974609375,1.52587890625,-0.54931640625
2.4724999000000003,0.2968810200691223,-0.090979665517807,9.791088104248047,-0.9765625,-1.40380859375,0.30517578125
2.4774999,0.1454477459192276,0.04249707981944084,9.723451614379883,0.762939453125,1.434326171875,-0.762939453125
2.4824999,0.2867056429386139,-0.09516951441764832,9.799467086791992,-0.762939453125,-1.46484375,0.48828125
2.4874999,0.14604631066322327,0.03292027488350868,9.725247383117676,0.885009765625,1.46484375,-0.732421875
2.4924999000000003,0.27413609623908997,-0.08619125932455063,9.805453300476074,-0.885009765625,-1.28173828125,0.6103515625
2.4974999,0.15083470940589905,0.03651157766580582,9.718064308166504,0.732421875,1.52587890625,-1.0986328125
2.5024999,0.27653029561042786,-0.07541735470294952,9.801262855529785,-0.823974609375,-1.556396484375,1.068115234375
2.5074999,0.1646013706922531,0.03292027488350868,9.694122314453125,0.8544921875,1.495361328125,-1.312255859375
2.5124999000000003,0.27712884545326233,-0.08200141042470932,9.79647445678711,-0.823974609375,-1.556396484375,1.068115234375
2.5174999000000002,0.166995570063591,0.0071826050989329815,9.663596153259277,0.8544921875,1.312255859375,-1.64794921875
2.5224999,0.2651578485965729,-0.0933738648891449,9.802460670471191,-0.701904296875,-1.5869140625,1.77001953125
2.5274999,0.16639702022075653,-0.02274491637945175,9.639654159545898,0.79345703125,1.3427734375,-1.8310546875
2.5324999000000004,0.25438392162323,-0.0867898091673851,9.819818496704102,-0.701904296875,-1.40380859375,1.861572265625
2.5374999000000003,0.17537526786327362,-0.03890577703714371,9.625887870788574,0.732421875,1.5869140625,-2.410888671875
2.5424999,0.25019407272338867,-0.06224924325942993,9.848548889160156,-0.885009765625,-1.3427734375,2.410888671875
2.5474999,0.1825578808784485,-0.03890577703714371,9.628880500793457,0.701904296875,1.312255859375,-2.777099609375
2.5524999000000004,0.25977087020874023,-0.03651157766580582,9.88506031036377,-0.579833984375,-1.40380859375,2.74658203125
2.5574999000000003,0.19213469326496124,-0.04489128291606903,9.638457298278809,0.640869140625,1.434326171875,-3.41796875
2.5624999,0.27413609623908997,-0.008978256024420261,9.907206535339355,-0.54931640625,-1.373291015625,3.204345703125
2.5674999,0.21188685297966003,-0.07781155407428741,9.612719535827637,0.54931640625,1.28173828125,-3.662109375
2.5724999,0.27413609623908997,0.020350715145468712,9.893440246582031,-0.518798828125,-1.190185546875,3.662109375
2.5774999000000003,0.2346317619085312,-0.11911153793334961,9.560047149658203,0.640869140625,1.28173828125,-3.936767578125
2.5824999,0.26156654953956604,0.06344634294509888,9.865906715393066,-0.42724609375,-1.068115234375,3.90625
2.5874999,0.2555810213088989,-0.12749123573303223,9.532513618469238,0.396728515625,1.0986328125,-4.5166015625
2.5924999,0.2519897222518921,0.1107318252325058,9.841365814208984,-0.518798828125,-0.946044921875,4.39453125
2.5974999000000003,0.26815059781074524,-0.14365209639072418,9.529520988464355,0.244140625,0.91552734375,-4.69970703125
2.6024999,0.2298433631658554,0.12330138683319092,9.847949981689453,-0.396728515625,-0.91552734375,4.547119140625
2.6074999,0.2651578485965729,-0.1843535304069519,9.5408935546875,0.335693359375,0.732421875,-4.730224609375
2.6124999,0.1693897694349289,0.11133038252592087,9.882665634155273,-0.152587890625,-0.6103515625,4.82177734375
2.6174999000000003,0.2555810213088989,-0.20470423996448517,9.560047149658203,0.335693359375,0.3662109375,-4.94384765625
2.6224999,0.10953472554683685,0.10654197633266449,9.90241813659668,-0.152587890625,-0.3662109375,4.7607421875
2.6274999,0.2687491476535797,-0.24420857429504395,9.581595420837402,-0.030517578125,0.152587890625,-5.0048828125
2.6324999,0.10115502029657364,0.1215057373046875,9.90361499786377,0,0.1220703125,4.94384765625
2.6374999000000003,0.3106476664543152,-0.2950853705406189,9.588777542114258,-0.18310546875,0.1220703125,-5.279541015625
2.6424999000000002,0.10833762586116791,0.14365209639072418,9.90122127532959,0.30517578125,0.244140625,4.913330078125
2.6474999,0.35075053572654724,-0.31603461503982544,9.59476375579834,-0.396728515625,-0.18310546875,-5.2490234375
2.6524999,0.11552023142576218,0.17417816817760468,9.919178009033203,0.701904296875,0.396728515625,4.82177734375
2.6574999000000004,0.37229835987091064,-0.3208230137825012,9.607333183288574,-0.518798828125,-0.640869140625,-5.0048828125
2.6624999000000003,0.1173158809542656,0.20350714027881622,9.930550575256348,0.67138671875,0.579833984375,4.33349609375
2.6674999,0.3818751573562622,-0.314238965511322,9.624691009521484,-0.8544921875,-0.67138671875,-4.638671875
2.6724999,0.09038111567497253,0.22685061395168304,9.898826599121094,0.823974609375,0.9765625,4.180908203125
2.6774999000000004,0.36571431159973145,-0.31124621629714966,9.64683723449707,-0.91552734375,-1.15966796875,-3.936767578125
2.6824999000000003,0.05626374110579491,0.24241292476654053,9.854534149169922,1.0986328125,1.03759765625,3.47900390625
2.6874999,0.3357867896556854,-0.3124433159828186,9.660603523254395,-1.0986328125,-1.312255859375,-3.387451171875
2.6924999,0.04249707981944084,0.23523031175136566,9.824007987976074,1.15966796875,1.40380859375,2.716064453125
2.6974999,0.31603461503982544,-0.31543606519699097,9.715071678161621,-1.0986328125,-1.434326171875,-2.655029296875
2.7024999000000003,0.06883329898118973,0.21847090125083923,9.818621635437012,1.3427734375,1.5869140625,1.46484375
2.7074999,0.30885201692581177,-0.29568392038345337,9.78989028930664,-1.190185546875,-1.495361328125,-1.46484375
2.7124999,0.10594342648983002,0.15442600846290588,9.800664901733398,1.40380859375,1.556396484375,0.91552734375
2.7174999,0.29807811975479126,-0.2651578485965729,9.838972091674805,-1.0986328125,-1.556396484375,-0.640869140625
2.7224999000000003,0.1388636976480484,0.1041477769613266,9.765948295593262,1.220703125,1.64794921875,-0.48828125
2.7274999,0.27234044671058655,-0.19273324310779572,9.869498252868652,-1.0986328125,-1.5869140625,0.823974609375
2.7324999,0.16759411990642548,0.07182604819536209,9.687539100646973,1.03759765625,1.3427734375,-1.373291015625
2.7374999,0.26575639843940735,-0.11611878126859665,9.872490882873535,-0.8544921875,-1.28173828125,1.5869140625
2.7424999000000003,0.1933317929506302,0.02274491637945175,9.59177017211914,0.885009765625,1.46484375,-2.471923828125
2.7474999,0.26755204796791077,-0.03292027488350868,9.855731010437012,-0.885009765625,-1.46484375,2.777099609375
2.7524999,0.24600422382354736,-0.018555063754320145,9.517550468444824,0.79345703125,1.068115234375,-3.60107421875
2.7574999,0.2585737705230713,0.061052143573760986,9.814431190490723,-0.42724609375,-0.8544921875,3.387451171875
2.7624999000000003,0.2885012924671173,-0.09816227108240128,9.458892822265625,0.457763671875,0.79345703125,-4.180908203125
2.7674999000000002,0.20709845423698425,0.10474632680416107,9.804255485534668,-0.457763671875,-0.67138671875,4.302978515625
2.7724999,0.29209262132644653,-0.18375498056411743,9.470264434814453,0.152587890625,0.396728515625,-4.730224609375
2.7774999,0.13108254969120026,0.14903905987739563,9.854534149169922,0.18310546875,-0.18310546875,4.45556640625
2.7824999000000004,0.2932897210121155,-0.27653029561042786,9.525331497192383,-0.244140625,-0.06103515625,-4.94384765625
2.7874999000000003,0.08559270948171616,0.13826514780521393,9.90361499786377,0.3662109375,0,4.852294921875
2.7924999,0.32620999217033386,-0.3345896899700165,9.592369079589844,-0.3662109375,-0.54931640625,-4.913330078125
2.7974999,0.32620999217033386,-0.3345896899700165,9.592369079589844,-0.3662109375,-0.54931640625,-4.913330078125
2.8024999000000004,0.0933738648891449,0.16101007163524628,9.941922187805176,0.823974609375,0.732421875,4.425048828125
2.8074999000000003,0.37469255924224854,-0.3076549172401428,9.651625633239746,-0.701904296875,-0.762939453125,-4.39453125
2.8124999,0.09935937076807022,0.20111294090747833,9.924564361572266,0.762939453125,1.007080078125,3.814697265625
2.8174999,0.3842693865299225,-0.2777273952960968,9.679159164428711,-0.91552734375,-1.3427734375,-3.753662109375
2.8224999,0.07182604819536209,0.22864626348018646,9.862914085388184,1.373291015625,1.617431640625,2.62451171875
2.8274999000000003,0.32860419154167175,-0.26096799969673157,9.71926212310791,-1.251220703125,-1.46484375,-2.166748046875
2.8324999,0.061052143573760986,0.20231004059314728,9.815628051757812,1.03759765625,1.251220703125,1.739501953125
2.8374999,0.2849099934101105,-0.24779987335205078,9.792284965515137,-0.885009765625,-1.556396484375,-1.678466796875
2.8424999,0.09157821536064148,0.12210428714752197,9.786897659301758,1.312255859375,1.739501953125,0.244140625
2.8474999000000003,0.2717418968677521,-0.2298433631658554,9.858723640441895,-1.28173828125,-1.8310546875,0.3662109375
2.8524999,0.14903905987739563,0.05446808785200119,9.721057891845703,1.15966796875,1.495361328125,-1.0986328125
2.8574999,0.2555810213088989,-0.1711854189634323,9.888651847839355,-0.885009765625,-1.3427734375,1.40380859375
2.8624999,0.1843535304069519,0.0005985504249110818,9.618705749511719,1.068115234375,1.3427734375,-2.13623046875
2.8674999000000003,0.2472013235092163,-0.03172317147254944,9.880271911621094,-0.9765625,-1.28173828125,2.716064453125
2.8724999,0.2537853717803955,-0.0077811554074287415,9.52353572845459,0.67138671875,0.885009765625,-3.509521484375
2.8774999,0.25258827209472656,0.10055647045373917,9.827000617980957,-0.244140625,-0.701904296875,3.60107421875
2.8824999,0.32381579279899597,-0.07900865375995636,9.439140319824219,0.42724609375,0.579833984375,-4.2724609375
2.8874999000000003,0.19213469326496124,0.12509703636169434,9.797672271728516,-0.274658203125,-0.396728515625,4.33349609375
2.8924999000000002,0.32860419154167175,-0.21966800093650818,9.453505516052246,-0.06103515625,-0.06103515625,-4.669189453125
2.8974999,0.10534487664699554,0.11851298063993454,9.84615421295166,0.457763671875,0.518798828125,4.180908203125
2.9024999,0.32620999217033386,-0.3208230137825012,9.539097785949707,-0.457763671875,-0.244140625,-4.547119140625
2.9074999000000004,0.07900865375995636,0.11611878126859665,9.914389610290527,0.54931640625,0.518798828125,4.39453125
2.9124999000000003,0.35733461380004883,-0.30705636739730835,9.649829864501953,-0.67138671875,-1.220703125,-4.39453125
2.9174999,0.07062894850969315,0.2041056901216507,9.93593692779541,1.068115234375,1.46484375,3.143310546875
2.9224999,0.35733461380004883,-0.2561795711517334,9.731232643127441,-1.190185546875,-1.220703125,-2.99072265625
2.9274999000000004,0.06823474913835526,0.23762452602386475,9.881468772888184,1.03759765625,1.28173828125,2.410888671875
2.9324999000000003,0.31543606519699097,-0.2663549482822418,9.77133560180664,-1.03759765625,-1.617431640625,-2.105712890625
2.9374999,0.08499415963888168,0.17657238245010376,9.808445930480957,1.28173828125,1.953125,0.54931640625
2.9424999,0.25677812099456787,-0.26755204796791077,9.840767860412598,-1.312255859375,-1.77001953125,-0.091552734375
2.9474999,0.11911153793334961,0.09397241473197937,9.723451614379883,1.220703125,1.556396484375,-0.9765625
2.9524999000000003,0.228047713637352,-0.20709845423698425,9.889848709106445,-1.007080078125,-1.46484375,1.03759765625
2.9574999,0.17657238245010376,0.04010287672281265,9.61451530456543,1.129150390625,1.434326171875,-2.38037109375
2.9624999,0.23283611238002777,-0.06584054976701736,9.880870819091797,-0.946044921875,-1.220703125,2.9296875
2.9674999,0.2753331959247589,0.02214636653661728,9.505578994750977,0.54931640625,0.67138671875,-3.631591796875
2.9724999000000003,0.22206220030784607,0.09816227108240128,9.82999324798584,-0.18310546875,-0.579833984375,3.60107421875
2.9774999,0.33279404044151306,-0.07781155407428741,9.445724487304688,0.18310546875,0.54931640625,-4.39453125
2.9824999,0.15981295704841614,0.14065934717655182,9.828198432922363,-0.1220703125,-0.1220703125,4.486083984375
2.9874999,0.3471592366695404,-0.21547815203666687,9.497200012207031,-0.213623046875,-0.6103515625,-4.82177734375
2.9924999000000003,0.09935937076807022,0.14484919607639313,9.88386344909668,0.48828125,0.762939453125,4.08935546875
2.9974999,0.3585317134857178,-0.3196259140968323,9.589975357055664,-0.67138671875,-0.885009765625,-4.08935546875
3.0024999,0.07062894850969315,0.15083470940589905,9.895236015319824,0.885009765625,0.91552734375,3.90625
3.0074999,0.35673606395721436,-0.32680854201316833,9.654618263244629,-0.79345703125,-1.46484375,-3.509521484375
3.0124999000000003,0.05267243832349777,0.19931729137897491,9.847352027893066,1.28173828125,1.8310546875,2.227783203125
3.0174999000000002,0.3106476664543152,-0.2992752194404602,9.728838920593262,-1.28173828125,-1.678466796875,-1.739501953125
3.0224999,0.07541735470294952,0.1628057211637497,9.793481826782227,1.220703125,1.5869140625,1.007080078125
3.0274999,0.25258827209472656,-0.2849099934101105,9.840168952941895,-1.068115234375,-1.708984375,-0.30517578125
3.0324999000000004,0.11911153793334961,0.07781155407428741,9.732429504394531,1.40380859375,1.953125,-0.885009765625
3.0374999000000003,0.22505496442317963,-0.19812019169330597,9.922170639038086,-1.28173828125,-1.495361328125,1.64794921875
3.0424999,0.18974047899246216,0.0347159244120121,9.615114212036133,0.885009765625,1.3427734375,-2.532958984375
3.0474999,0.21966800093650818,-0.03950432687997818,9.88745403289795,-0.6103515625,-0.9765625,2.86865234375
3.0524999000000004,0.2759317457675934,-0.03531447425484657,9.478046417236328,0.457763671875,0.9765625,-3.692626953125
3.0574999000000003,0.1735796183347702,0.09457096457481384,9.824606895446777,-0.396728515625,-0.518798828125,4.150390625
3.0624999,0.3214215636253357,-0.14245499670505524,9.443928718566895,0.030517578125,-0.091552734375,-4.638671875
3.0674999,0.10055647045373917,0.152031809091568,9.84495735168457,0.42724609375,0.518798828125,3.936767578125
3.0724999000000004,0.32860419154167175,-0.2902969419956207,9.513360023498535,-0.54931640625,-0.42724609375,-4.33349609375
3.0774999000000003,0.06703764945268631,0.14784196019172668,9.90361499786377,0.640869140625,0.885009765625,4.058837890625
3.0824999,0.353743314743042,-0.3190273642539978,9.634267807006836,-0.823974609375,-1.190185546875,-3.875732421875
3.0874999,0.05925649031996727,0.22744916379451752,9.912593841552734,1.190185546875,1.800537109375,2.74658203125
3.0924999,0.3256114423274994,-0.2687491476535797,9.762357711791992,-1.190185546875,-1.52587890625,-2.166748046875
3.0974999000000003,0.0628477931022644,0.22864626348018646,9.861717224121094,1.251220703125,1.678466796875,1.3427734375
3.1024999,0.25318682193756104,-0.2454056739807129,9.873687744140625,-1.007080078125,-1.52587890625,-0.79345703125
3.1074999,0.09576806426048279,0.14784196019172668,9.791686058044434,1.373291015625,1.983642578125,-0.6103515625
3.1124999,0.22266076505184174,-0.1843535304069519,9.954492568969727,-1.373291015625,-1.678466796875,1.40380859375
3.1174999000000003,0.18734627962112427,0.07422025501728058,9.64923095703125,0.91552734375,1.15966796875,-2.38037109375
3.1224999,0.22924481332302094,-0.04967968538403511,9.9000244140625,-0.518798828125,-0.9765625,2.62451171875
3.1274999,0.292691171169281,-0.016759412363171577,9.468469619750977,0.42724609375,0.9765625,-3.72314453125
3.1324999,0.18734627962112427,0.0802057534456253,9.808445930480957,-0.48828125,-0.640869140625,4.119873046875
3.1374999000000003,0.34416648745536804,-0.13407529890537262,9.420584678649902,-0.06103515625,-0.213623046875,-4.45556640625
3.1424999000000002,0.1149216815829277,0.12988543510437012,9.82759952545166,0.396728515625,0.701904296875,3.875732421875
3.1474999,0.3471592366695404,-0.2885012924671173,9.507973670959473,-0.48828125,-0.579833984375,-4.21142578125
3.1524999,0.06643909960985184,0.1322796493768692,9.877877235412598,0.640869140625,0.885009765625,3.814697265625
3.1574999000000004,0.3495534360408783,-0.3172317147254944,9.640253067016602,-0.823974609375,-1.556396484375,-3.692626953125
3.1624999000000003,0.04189852997660637,0.181959331035614,9.88625717163086,1.3427734375,1.922607421875,2.288818359375
3.1674999,0.04189852997660637,0.181959331035614,9.88625717163086,1.3427734375,1.922607421875,2.288818359375
3.1724999,0.3100491166114807,-0.2867056429386139,9.786897659301758,-1.3427734375,-1.678466796875,-1.739501953125
3.1774999000000004,0.07422025501728058,0.15083470940589905,9.852140426635742,1.434326171875,1.708984375,0.701904296875
3.1824999000000003,0.2406172752380371,-0.27653029561042786,9.90241813659668,-1.15966796875,-1.5869140625,-0.274658203125
3.1874999,0.12988543510437012,0.07242459803819656,9.734824180603027,1.28173828125,1.556396484375,-1.220703125
3.1924999,0.2124854028224945,-0.15562310814857483,9.926360130310059,-1.068115234375,-1.40380859375,1.64794921875
3.1974999000000004,0.23044191300868988,0.008978256024420261,9.543886184692383,0.640869140625,0.946044921875,-3.0517578125
3.2024999000000003,0.22744916379451752,0.01735796220600605,9.843161582946777,-0.335693359375,-0.823974609375,3.265380859375
3.2074999,0.33698388934135437,-0.0975637212395668,9.405022621154785,0.396728515625,0.640869140625,-3.90625
3.2124999,0.17238251864910126,0.09277531504631042,9.789292335510254,-0.213623046875,-0.030517578125,4.39453125
3.2174999,0.36990416049957275,-0.2214636504650116,9.43375301361084,-0.274658203125,-0.67138671875,-4.547119140625
3.2224999000000003,0.1107318252325058,0.14664486050605774,9.852140426635742,0.91552734375,0.885009765625,3.662109375
3.2274999,0.3705027103424072,-0.29568392038345337,9.595361709594727,-0.946044921875,-1.0986328125,-3.47900390625
3.2324999,0.07900865375995636,0.18734627962112427,9.901819229125977,0.885009765625,1.28173828125,3.143310546875
3.2374999,0.3292027413845062,-0.24779987335205078,9.774927139282227,-0.885009765625,-1.800537109375,-2.655029296875
3.2424999000000003,0.043095629662275314,0.1951274424791336,9.892242431640625,1.190185546875,1.89208984375,1.0986328125
3.2474999,0.24600422382354736,-0.1999158412218094,9.9185791015625,-1.312255859375,-2.01416015625,-0.152587890625
3.2524999,0.09457096457481384,0.12030863761901855,9.803058624267578,1.28173828125,1.64794921875,-0.732421875
3.2574999,0.20949265360832214,-0.17178396880626678,9.961674690246582,-1.068115234375,-1.220703125,1.0986328125
3.2624999000000003,0.19931729137897491,0.02992752194404602,9.609726905822754,1.0986328125,1.15966796875,-2.288818359375
3.2674999000000002,0.20350714027881622,-0.02753331884741783,9.869498252868652,-0.762939453125,-0.91552734375,2.960205078125
3.2724999,0.30705636739730835,-0.0736217051744461,9.414599418640137,0.244140625,0.335693359375,-3.814697265625
3.2774999,0.17477671802043915,0.10534487664699554,9.786299705505371,0.152587890625,-0.1220703125,3.814697265625
3.2824999000000004,0.3663128614425659,-0.23523031175136566,9.393052101135254,-0.18310546875,-0.244140625,-4.364013671875
3.2874999000000003,0.1215057373046875,0.11133038252592087,9.829395294189453,0.48828125,0.6103515625,4.241943359375
3.2924999,0.383670836687088,-0.3130418658256531,9.569623947143555,-0.701904296875,-1.251220703125,-3.997802734375
3.2974999,0.07541735470294952,0.18315643072128296,9.895236015319824,1.15966796875,1.617431640625,2.593994140625
3.3024999000000004,0.34356793761253357,-0.28730419278144836,9.768941879272461,-1.373291015625,-1.64794921875,-2.197265625
3.3074999000000003,0.07062894850969315,0.2148796021938324,9.892242431640625,1.434326171875,1.708984375,1.251220703125
3.3124999,0.25019407272338867,-0.2561795711517334,9.91738224029541,-1.312255859375,-1.678466796875,-0.640869140625
3.3174999,0.10714052617549896,0.15023615956306458,9.78869342803955,1.373291015625,1.678466796875,-0.701904296875
3.3224999000000004,0.2017114907503128,-0.1604115068912506,9.967659950256348,-1.007080078125,-1.3427734375,1.617431640625
3.3274999000000003,0.21607670187950134,0.0454898327589035,9.588179588317871,0.8544921875,1.068115234375,-2.716064453125
3.3324999,0.21607670187950134,-0.008978256024420261,9.874286651611328,-0.3662109375,-0.823974609375,3.021240234375
3.3374999,0.3387795388698578,-0.090979665517807,9.41759204864502,0.3662109375,0.579833984375,-4.08935546875
3.3424999,0.16519992053508759,0.08140286058187485,9.790489196777344,-0.1220703125,0,4.08935546875
3.3474999000000003,0.37888240814208984,-0.2298433631658554,9.425971984863281,-0.244140625,-0.762939453125,-4.486083984375
3.3524999,0.09277531504631042,0.1735796183347702,9.848548889160156,0.732421875,1.220703125,3.326416015625
3.3574999,0.37169981002807617,-0.3232172429561615,9.59177017211914,-1.251220703125,-1.3427734375,-3.387451171875
3.3624999,0.06763619929552078,0.22086510062217712,9.894637107849121,1.312255859375,1.46484375,2.777099609375
3.3674999000000003,0.314238965511322,-0.3190273642539978,9.788095474243164,-1.190185546875,-1.678466796875,-2.13623046875
3.3724999,0.07302315533161163,0.20111294090747833,9.86111831665039,1.40380859375,1.77001953125,0.640869140625
3.3774999,0.22505496442317963,-0.2537853717803955,9.930550575256348,-1.28173828125,-1.861572265625,0.30517578125
3.3824999,0.1364694982767105,0.08978256583213806,9.723451614379883,1.15966796875,1.434326171875,-1.64794921875
3.3874999000000003,0.20949265360832214,-0.076015904545784,9.935338973999023,-0.67138671875,-1.251220703125,2.197265625
3.3924999000000002,0.2651578485965729,-0.04908113554120064,9.493009567260742,0.48828125,1.251220703125,-3.2958984375
3.3974999,0.19692309200763702,0.11372458189725876,9.841964721679688,-0.3662109375,-0.732421875,3.90625
3.4024999,0.3585317134857178,-0.1562216579914093,9.386467933654785,0.030517578125,-0.030517578125,-4.2724609375
3.4074999000000004,0.1322796493768692,0.16579847037792206,9.810839653015137,0.42724609375,0.67138671875,3.60107421875
3.4124999000000003,0.3663128614425659,-0.284311443567276,9.48882007598877,-0.67138671875,-0.9765625,-3.96728515625
3.4174999,0.07242459803819656,0.14065934717655182,9.847352027893066,0.885009765625,1.312255859375,3.11279296875
3.4224999,0.353743314743042,-0.3172317147254944,9.68574333190918,-0.885009765625,-1.861572265625,-2.8076171875
3.4274999000000004,0.06404489278793335,0.1646013706922531,9.869498252868652,1.3427734375,1.861572265625,1.556396484375
3.4324999000000003,0.2801215946674347,-0.2693476974964142,9.882067680358887,-1.556396484375,-1.708984375,-0.79345703125
3.4374999,0.10295066982507706,0.13347674906253815,9.815628051757812,1.312255859375,1.678466796875,-0.396728515625
3.4424999,0.21547815203666687,-0.19931729137897491,9.98681354522705,-1.129150390625,-1.40380859375,1.129150390625
3.4474999000000004,0.20231004059314728,0.06344634294509888,9.637859344482422,1.007080078125,1.251220703125,-2.50244140625
3.4524999000000003,0.19692309200763702,-0.028730420395731926,9.906009674072266,-0.640869140625,-0.823974609375,3.082275390625
3.4574999,0.322618693113327,-0.0586579404771328,9.428964614868164,0.335693359375,0.213623046875,-3.936767578125
3.4624999,0.15981295704841614,0.1430535465478897,9.804255485534668,0.30517578125,0.1220703125,3.814697265625
3.4674999,0.3728969097137451,-0.2717418968677521,9.39365005493164,-0.640869140625,-0.3662109375,-4.21142578125
3.4724999000000003,0.10175357013940811,0.18555063009262085,9.831191062927246,0.91552734375,0.79345703125,3.84521484375
3.4774999,0.3693056106567383,-0.3489548861980438,9.573814392089844,-1.007080078125,-1.52587890625,-3.692626953125
3.4824999,0.07003039866685867,0.21547815203666687,9.871891975402832,1.373291015625,1.708984375,2.13623046875
3.4874999,0.29628247022628784,-0.2908954918384552,9.813833236694336,-1.220703125,-1.64794921875,-1.434326171875
3.4924999000000003,0.08379705995321274,0.15801730751991272,9.835380554199219,1.068115234375,1.861572265625,0.1220703125
3.4974999,0.23582886159420013,-0.19153612852096558,9.970054626464844,-1.03759765625,-1.861572265625,0.54931640625
3.5024999,0.17178396880626678,0.03232172131538391,9.689932823181152,0.91552734375,1.739501953125,-2.13623046875
3.5074999,0.22505496442317963,-0.019153613597154617,9.938331604003906,-0.8544921875,-1.03759765625,2.9296875
3.5124999000000003,0.2974795699119568,-0.04728548228740692,9.462483406066895,0.457763671875,0.48828125,-3.631591796875
3.5174999000000002,0.17058686912059784,0.10115502029657364,9.822811126708984,-0.152587890625,-0.06103515625,3.41796875
3.5224999,0.3561375141143799,-0.18076223134994507,9.386467933654785,0,-0.30517578125,-4.119873046875
3.5274999,0.10115502029657364,0.11611878126859665,9.816825866699219,0.518798828125,0.79345703125,3.570556640625
3.5324999000000004,0.10115502029657364,0.11611878126859665,9.816825866699219,0.518798828125,0.79345703125,3.570556640625
3.5374999000000003,0.37828385829925537,-0.2968810200691223,9.546878814697266,-0.762939453125,-1.46484375,-3.692626953125
3.5424999,0.07841010391712189,0.1759738177061081,9.864709854125977,1.220703125,1.739501953125,2.50244140625
3.5474999,0.33698388934135437,-0.3034650683403015,9.771934509277344,-1.3427734375,-1.8310546875,-1.708984375
3.5524999000000004,0.08559270948171616,0.16639702022075653,9.858723640441895,1.495361328125,1.8310546875,0.732421875
3.5574999000000003,0.23582886159420013,-0.26336219906806946,9.947908401489258,-1.251220703125,-1.5869140625,-0.091552734375
3.5624999,0.14784196019172668,0.09816227108240128,9.736021041870117,1.15966796875,1.617431640625,-1.708984375
3.5674999,0.18734627962112427,-0.11013327538967133,9.955689430236816,-0.8544921875,-1.129150390625,2.410888671875
3.5724999000000004,0.2777273952960968,-0.002394201699644327,9.497797966003418,0.6103515625,0.579833984375,-3.387451171875
3.5774999000000003,0.17058686912059784,0.1041477769613266,9.841365814208984,0.1220703125,-0.152587890625,3.60107421875
3.5824999,0.36571431159973145,-0.20949265360832214,9.372700691223145,-0.244140625,0,-4.150390625
3.5874999,0.13287819921970367,0.16579847037792206,9.80904483795166,0.6103515625,0.48828125,4.119873046875
3.5924999,0.383670836687088,-0.3256114423274994,9.501988410949707,-0.885009765625,-1.251220703125,-3.875732421875
3.5974999000000003,0.0867898091673851,0.19393034279346466,9.849146842956543,1.129150390625,1.708984375,2.593994140625
3.6024999,0.32202014327049255,-0.3082534670829773,9.755773544311523,-1.190185546875,-1.800537109375,-1.861572265625
3.6074999,0.076015904545784,0.15921440720558167,9.861717224121094,1.0986328125,2.01416015625,0.640869140625
3.6124999,0.2388216257095337,-0.22445641458034515,9.965266227722168,-0.9765625,-2.01416015625,0.3662109375
3.6174999000000003,0.1472434103488922,0.033518824726343155,9.749788284301758,1.068115234375,1.800537109375,-1.800537109375
3.6224999,0.2106897532939911,-0.046088382601737976,9.980229377746582,-0.946044921875,-1.220703125,2.655029296875
3.6274999,0.2753331959247589,-0.047884032130241394,9.503185272216797,0.54931640625,0.762939453125,-3.35693359375
3.6324999,0.16400282084941864,0.08918401598930359,9.847352027893066,-0.1220703125,-0.152587890625,3.326416015625
3.6374999000000003,0.35015198588371277,-0.17417816817760468,9.38167953491211,-0.1220703125,-0.274658203125,-4.058837890625
3.6424999000000002,0.09636662155389786,0.10953472554683685,9.802460670471191,0.3662109375,0.732421875,3.814697265625
3.6474999,0.3711012601852417,-0.2944868206977844,9.525930404663086,-0.732421875,-1.64794921875,-3.5400390625
3.6524999,0.07062894850969315,0.16998831927776337,9.852738380432129,1.251220703125,1.739501953125,2.410888671875
3.6574999000000004,0.3280056416988373,-0.3064578175544739,9.771934509277344,-1.434326171875,-1.739501953125,-1.52587890625
3.6624999000000003,0.08738835901021957,0.16220717132091522,9.858125686645508,1.312255859375,1.708984375,0.732421875
3.6674999,0.24001872539520264,-0.25318682193756104,9.964069366455078,-1.251220703125,-1.8310546875,0.1220703125
3.6724999,0.16101007163524628,0.09636662155389786,9.730634689331055,1.15966796875,1.556396484375,-1.556396484375
3.6774999000000004,0.19033902883529663,-0.08439560979604721,9.964069366455078,-0.91552734375,-1.190185546875,2.38037109375
3.6824999000000003,0.2849099934101105,-0.005386953707784414,9.48762321472168,0.42724609375,0.457763671875,-3.662109375
3.6874999,0.15801730751991272,0.12629413604736328,9.845556259155273,0.06103515625,-0.030517578125,3.60107421875
3.6924999,0.3645172119140625,-0.22206220030784607,9.378087997436523,-0.579833984375,-0.152587890625,-4.21142578125
3.6974999000000004,0.11611878126859665,0.18375498056411743,9.824007987976074,0.67138671875,0.732421875,3.753662109375
3.7024999000000003,0.37888240814208984,-0.3363853394985199,9.533711433410645,-0.823974609375,-1.28173828125,-3.631591796875
3.7074999,0.07960720360279083,0.19931729137897491,9.854534149169922,1.28173828125,1.739501953125,2.25830078125
3.7124999,0.3016694188117981,-0.29807811975479126,9.803657531738281,-1.28173828125,-1.77001953125,-1.434326171875
3.7174999,0.08499415963888168,0.14065934717655182,9.832387924194336,1.0986328125,1.922607421875,-0.091552734375
3.7224999000000003,0.2298433631658554,-0.18614917993545532,9.996390342712402,-0.9765625,-1.739501953125,0.762939453125
3.7274999,0.18375498056411743,0.017956512048840523,9.687539100646973,0.8544921875,1.77001953125,-2.410888671875
3.7324999,0.21547815203666687,0.0017956512747332454,9.959280967712402,-0.79345703125,-1.03759765625,3.11279296875
3.7374999,0.31184476613998413,-0.076015904545784,9.456498146057129,0.3662109375,0.3662109375,-3.72314453125
3.7424999000000003,0.15322890877723694,0.11851298063993454,9.823410034179688,0.152587890625,0.213623046875,3.5400390625
3.7474999,0.36092591285705566,-0.2190694510936737,9.404424667358398,-0.3662109375,-0.579833984375,-3.814697265625
3.7524999,0.076015904545784,0.12988543510437012,9.810839653015137,0.54931640625,1.251220703125,3.204345703125
3.7574999,0.3531447649002075,-0.2825157940387726,9.606135368347168,-0.8544921875,-1.617431640625,-3.11279296875
3.7624999000000003,0.060453593730926514,0.1628057211637497,9.864110946655273,1.373291015625,2.105712890625,1.678466796875
3.7674999000000002,0.2890998423099518,-0.23762452602386475,9.879075050354004,-1.46484375,-1.922607421875,-0.79345703125
3.7724999,0.11552023142576218,0.11312603205442429,9.821614265441895,1.0986328125,1.556396484375,-0.396728515625
3.7774999,0.23822307586669922,-0.1322796493768692,10.012551307678223,-0.9765625,-1.46484375,0.946044921875
3.7824999000000004,0.23702596127986908,0.002394201699644327,9.606734275817871,0.640869140625,1.251220703125,-2.532958984375
3.7874999000000003,0.20709845423698425,0.05027823522686958,9.915586471557617,-0.48828125,-0.54931640625,3.143310546875
3.7924999,0.35015198588371277,-0.12509703636169434,9.398438453674316,0.06103515625,0.091552734375,-3.96728515625
3.7974999,0.14065934717655182,0.13347674906253815,9.806051254272461,0.335693359375,0.6103515625,3.5400390625
3.8024999000000004,0.3705027103424072,-0.25677812099456787,9.44871711730957,-0.6103515625,-1.068115234375,-3.692626953125
3.8074999000000003,0.06823474913835526,0.11372458189725876,9.818621635437012,0.823974609375,1.46484375,2.8076171875
3.8124999,0.3292027413845062,-0.2753331959247589,9.688735961914062,-1.007080078125,-1.983642578125,-2.532958984375
3.8174999,0.05985504388809204,0.11791443079710007,9.859322547912598,1.3427734375,2.197265625,0.9765625
3.8224999000000004,0.2555810213088989,-0.21667525172233582,9.931148529052734,-1.251220703125,-1.89208984375,0.091552734375
3.8274999000000003,0.14006079733371735,0.05386953800916672,9.771934509277344,1.15966796875,1.64794921875,-1.373291015625
3.8324999,0.20709845423698425,-0.04668693244457245,9.99459457397461,-0.732421875,-1.0986328125,1.678466796875
3.8374999,0.2669534981250763,-0.06524199992418289,9.515754699707031,0.335693359375,0.701904296875,-3.021240234375
3.8424999,0.17537526786327362,0.14065934717655182,9.870096206665039,0,-0.518798828125,3.692626953125
3.8474999000000003,0.363918662071228,-0.2082955539226532,9.35893440246582,-0.274658203125,-0.30517578125,-4.119873046875
3.8524999,0.12449848651885986,0.17896658182144165,9.797672271728516,0.67138671875,0.91552734375,3.662109375
3.8574999,0.37888240814208984,-0.30885201692581177,9.484031677246094,-0.823974609375,-1.52587890625,-3.662109375
3.8624999,0.06763619929552078,0.16160862147808075,9.828198432922363,1.15966796875,1.617431640625,2.197265625
3.8674999000000003,0.31364041566848755,-0.2687491476535797,9.771934509277344,-1.15966796875,-2.105712890625,-1.678466796875
3.8724999,0.07422025501728058,0.1322796493768692,9.835979461669922,1.220703125,2.0751953125,0.274658203125
3.8774999,0.228047713637352,-0.15562310814857483,10.001777648925781,-1.251220703125,-1.800537109375,0.9765625
3.8824999,0.18136078119277954,0.047884032130241394,9.691728591918945,1.007080078125,1.220703125,-2.01416015625
3.8874999000000003,0.18914192914962769,0.031124621629714966,9.971251487731934,-0.518798828125,-0.823974609375,2.593994140625
3.8924999000000002,0.30286651849746704,-0.11372458189725876,9.442132949829102,0,0.244140625,-3.5400390625
3.8974999,0.30286651849746704,-0.11372458189725876,9.442132949829102,0,0.244140625,-3.5400390625
3.9024999,0.14604631066322327,0.152031809091568,9.831789016723633,0.30517578125,0.18310546875,3.753662109375
3.9074999000000004,0.37169981002807617,-0.2944868206977844,9.391854286193848,-0.640869140625,-0.762939453125,-3.96728515625
3.9124999000000003,0.08439560979604721,0.17238251864910126,9.810839653015137,0.9765625,1.46484375,3.173828125
3.9174999,0.3519476354122162,-0.3381809890270233,9.612719535827637,-1.28173828125,-1.953125,-2.838134765625
3.9224999,0.06344634294509888,0.17238251864910126,9.84615421295166,1.373291015625,1.8310546875,1.46484375
3.9274999000000004,0.2693476974964142,-0.26815059781074524,9.895236015319824,-1.220703125,-2.01416015625,-0.640869140625
3.9324999000000003,0.12030863761901855,0.09397241473197937,9.79527759552002,1.312255859375,1.708984375,-0.823974609375
3.9374999,0.21188685297966003,-0.1149216815829277,10.016741752624512,-0.9765625,-1.3427734375,1.678466796875
3.9424999,0.2579752206802368,-0.016759412363171577,9.563638687133789,0.579833984375,0.8544921875,-2.99072265625
3.9474999000000004,0.17896658182144165,0.09516951441764832,9.895236015319824,-0.274658203125,-0.244140625,3.204345703125
3.9524999000000003,0.36152446269989014,-0.17537526786327362,9.371503829956055,-0.244140625,-0.3662109375,-3.90625
3.9574999,0.13048399984836578,0.17537526786327362,9.786897659301758,0.6103515625,0.762939453125,3.448486328125
3.9624999,0.3818751573562622,-0.3058592677116394,9.460089683532715,-0.91552734375,-1.434326171875,-3.5400390625
3.9674999000000004,0.07900865375995636,0.1843535304069519,9.813234329223633,1.312255859375,1.739501953125,2.5634765625
3.9724999000000003,0.32381579279899597,-0.2944868206977844,9.743802070617676,-1.129150390625,-1.8310546875,-1.800537109375
3.9774999,0.08319851011037827,0.1472434103488922,9.823410034179688,1.40380859375,1.953125,0.335693359375
3.9824999,0.23762452602386475,-0.18375498056411743,9.987412452697754,-1.129150390625,-1.77001953125,0.42724609375
3.9874999,0.18914192914962769,0.03770867735147476,9.677961349487305,0.9765625,1.5869140625,-2.044677734375
3.9924999000000003,0.20470423996448517,0.0065840547904372215,9.96825885772705,-0.6103515625,-0.823974609375,2.716064453125
3.9974999,0.3256114423274994,-0.10714052617549896,9.441534042358398,0.244140625,0.42724609375,-3.662109375
4.0024999,0.1538274586200714,0.1430535465478897,9.837176322937012,0.30517578125,0.274658203125,3.662109375
4.0074999,0.3860650360584259,-0.2735375463962555,9.413402557373047,-0.67138671875,-1.03759765625,-3.96728515625
4.0124999,0.08559270948171616,0.16519992053508759,9.813833236694336,1.007080078125,1.373291015625,2.99072265625
4.0174999,0.3531447649002075,-0.32381579279899597,9.634267807006836,-1.373291015625,-1.89208984375,-2.685546875
4.022499900000001,0.07541735470294952,0.15263035893440247,9.839570045471191,1.251220703125,1.922607421875,1.3427734375
4.0274999000000005,0.2669534981250763,-0.25258827209472656,9.908403396606445,-1.495361328125,-1.739501953125,-0.42724609375
4.0324999,0.1364694982767105,0.08200141042470932,9.769539833068848,1.28173828125,1.77001953125,-0.9765625
4.0374999,0.20231004059314728,-0.07242459803819656,10.001777648925781,-0.823974609375,-1.28173828125,1.89208984375
4.0424999,0.26336219906806946,-0.023942016065120697,9.52353572845459,0.54931640625,0.762939453125,-3.173828125
4.0474999,0.16519992053508759,0.1280897855758667,9.876680374145508,-0.06103515625,-0.152587890625,3.35693359375
4.0524999,0.363918662071228,-0.19033902883529663,9.364919662475586,-0.30517578125,-0.518798828125,-3.84521484375
4.0574999,0.11432313174009323,0.17896658182144165,9.801861763000488,0.79345703125,1.0986328125,3.448486328125
4.062499900000001,0.3776853084564209,-0.3256114423274994,9.50617790222168,-1.0986328125,-1.495361328125,-3.509521484375
4.0674999000000005,0.07841010391712189,0.15682020783424377,9.831191062927246,1.312255859375,1.861572265625,2.13623046875
4.0724999,0.3082534670829773,-0.292691171169281,9.810839653015137,-1.3427734375,-2.01416015625,-1.373291015625
4.0774999,0.10474632680416107,0.1041477769613266,9.81263542175293,1.28173828125,1.983642578125,-0.244140625
4.0824999,0.2322375625371933,-0.15263035893440247,10.019734382629395,-0.946044921875,-1.64794921875,1.0986328125
4.0874999,0.23104046285152435,0.0071826050989329815,9.638457298278809,0.823974609375,1.0986328125,-2.50244140625
4.0924999,0.2017114907503128,0.04489128291606903,9.953893661499023,-0.396728515625,-0.67138671875,2.960205078125
4.0974999,0.35494041442871094,-0.14425064623355865,9.422380447387695,-0.030517578125,0.030517578125,-3.84521484375
4.1024999,0.14484919607639313,0.15682020783424377,9.818621635437012,0.3662109375,0.762939453125,3.5400390625
4.1074999000000005,0.3878606855869293,-0.29149407148361206,9.44752025604248,-0.701904296875,-1.251220703125,-3.662109375
4.1124999,0.08499415963888168,0.17238251864910126,9.809642791748047,1.251220703125,1.64794921875,2.777099609375
4.1174999,0.33039984107017517,-0.3106476664543152,9.707889556884766,-1.220703125,-1.953125,-2.197265625
4.1224999,0.07841010391712189,0.14185644686222076,9.835380554199219,1.373291015625,1.922607421875,0.701904296875
4.1274999,0.24001872539520264,-0.20769700407981873,9.982624053955078,-1.0986328125,-1.739501953125,0.18310546875
4.1324999,0.1693897694349289,0.04369417950510979,9.724648475646973,0.946044921875,1.52587890625,-1.8310546875
4.1374999,0.2041056901216507,-0.004788403399288654,9.999981880187988,-0.701904296875,-0.91552734375,2.50244140625
4.1424999,0.3100491166114807,-0.08439560979604721,9.47265911102295,0.30517578125,0.30517578125,-3.692626953125
4.147499900000001,0.16101007163524628,0.14664486050605774,9.85034465789795,0.18310546875,0.244140625,3.509521484375
4.1524999000000005,0.3818751573562622,-0.2537853717803955,9.406818389892578,-0.67138671875,-0.946044921875,-3.936767578125
4.1574999,0.09157821536064148,0.16879121959209442,9.820416450500488,0.885009765625,1.434326171875,3.082275390625
4.1624999,0.35075053572654724,-0.3100491166114807,9.628880500793457,-1.190185546875,-1.708984375,-2.8076171875
4.1674999,0.07541735470294952,0.15502455830574036,9.851541519165039,1.434326171875,1.953125,1.40380859375
4.1724999,0.26815059781074524,-0.2406172752380371,9.914987564086914,-1.312255859375,-1.89208984375,-0.457763671875
4.1774999,0.14065934717655182,0.07661445438861847,9.770736694335938,0.946044921875,1.77001953125,-1.28173828125
4.1824999,0.20769700407981873,-0.07721300423145294,10.003573417663574,-0.91552734375,-1.251220703125,1.89208984375
4.187499900000001,0.2753331959247589,-0.046088382601737976,9.52353572845459,0.518798828125,0.579833984375,-3.204345703125
4.1924999000000005,0.17058686912059784,0.11432313174009323,9.883264541625977,-0.030517578125,-0.06103515625,3.2958984375
4.1974999,0.37469255924224854,-0.21547815203666687,9.378087997436523,-0.54931640625,-0.640869140625,-3.96728515625
4.2024999,0.12270283699035645,0.16759411990642548,9.820416450500488,0.79345703125,1.068115234375,3.5400390625
4.2074999,0.38486793637275696,-0.3214215636253357,9.53969669342041,-0.946044921875,-1.617431640625,-3.326416015625
4.2124999,0.08798690885305405,0.15502455830574036,9.843161582946777,1.3427734375,1.8310546875,1.678466796875
4.2174999,0.304063618183136,-0.26575639843940735,9.839570045471191,-1.28173828125,-2.13623046875,-1.312255859375
4.2224999,0.11432313174009323,0.0999579206109047,9.800664901733398,1.190185546875,1.800537109375,-0.6103515625
4.2274999,0.22744916379451752,-0.12330138683319092,10.013150215148926,-1.03759765625,-1.46484375,1.312255859375
4.2324999000000005,0.25438392162323,-0.013168109580874443,9.599552154541016,0.79345703125,1.190185546875,-2.8076171875
4.2374999,0.2041056901216507,0.06404489278793335,9.936535835266113,-0.30517578125,-0.42724609375,3.173828125
4.2424999,0.37409400939941406,-0.17657238245010376,9.41400146484375,-0.152587890625,-0.213623046875,-4.058837890625
4.2474999,0.14844051003456116,0.15801730751991272,9.82759952545166,0.48828125,0.823974609375,3.5400390625
4.2524999,0.39205053448677063,-0.3034650683403015,9.491812705993652,-1.007080078125,-1.434326171875,-3.5400390625
4.2574999,0.08559270948171616,0.1693897694349289,9.831789016723633,1.220703125,1.89208984375,2.349853515625
4.2624999,0.3124433159828186,-0.28311434388160706,9.771934509277344,-1.28173828125,-1.89208984375,-1.617431640625
4.2674999,0.3124433159828186,-0.28311434388160706,9.771934509277344,-1.28173828125,-1.89208984375,-1.617431640625
4.272499900000001,0.08080431073904037,0.13168109953403473,9.817423820495605,1.190185546875,1.983642578125,0.18310546875
4.2774999000000005,0.22026655077934265,-0.15741875767707825,10.000580787658691,-0.946044921875,-1.678466796875,0.762939453125
4.2824999,0.20051439106464386,0.030526071786880493,9.652822494506836,0.946044921875,1.28173828125,-2.50244140625
4.2874999,0.19213469326496124,0.03770867735147476,9.958083152770996,-0.518798828125,-0.54931640625,2.838134765625
4.2924999,0.3381809890270233,-0.1280897855758667,9.430161476135254,0.06103515625,0.1220703125,-3.7841796875
4.2974999,0.14664486050605774,0.15921440720558167,9.821614265441895,0.42724609375,0.6103515625,3.692626953125
4.3024999,0.3878606855869293,-0.27712884545326233,9.439739227294922,-0.732421875,-1.068115234375,-3.7841796875
4.3074999,0.09397241473197937,0.1711854189634323,9.799467086791992,1.0986328125,1.800537109375,2.716064453125
4.312499900000001,0.34596213698387146,-0.29807811975479126,9.686341285705566,-1.251220703125,-1.922607421875,-2.044677734375
4.3174999000000005,0.0933738648891449,0.1388636976480484,9.817423820495605,1.312255859375,1.861572265625,0.67138671875
4.3224999,0.25438392162323,-0.20231004059314728,9.962273597717285,-1.190185546875,-1.708984375,0.18310546875
4.3274999,0.17178396880626678,0.04369417950510979,9.709086418151855,0.9765625,1.556396484375,-1.800537109375
4.3324999,0.18974047899246216,-0.0071826050989329815,9.990405082702637,-0.54931640625,-0.9765625,2.50244140625
4.3374999,0.292691171169281,-0.09457096457481384,9.462483406066895,0.213623046875,0.30517578125,-3.662109375
4.3424999,0.12928688526153564,0.1364694982767105,9.85034465789795,0.213623046875,0.396728515625,3.5400390625
4.3474999,0.3669114112854004,-0.2621650993824005,9.409811019897461,-0.396728515625,-1.03759765625,-3.96728515625
4.352499900000001,0.07721300423145294,0.15801730751991272,9.813833236694336,1.15966796875,1.40380859375,3.082275390625
4.3574999000000005,0.35075053572654724,-0.32202014327049255,9.639654159545898,-1.129150390625,-1.89208984375,-2.593994140625
4.3624999,0.08619125932455063,0.14006079733371735,9.835380554199219,1.40380859375,2.0751953125,1.28173828125
4.3674999,0.26994624733924866,-0.2346317619085312,9.920374870300293,-0.9765625,-1.89208984375,-0.244140625
4.3724999,0.16160862147808075,0.06165069341659546,9.741408348083496,1.220703125,1.708984375,-1.312255859375
4.3774999,0.2064998894929886,-0.043095629662275314,9.98681354522705,-0.79345703125,-1.129150390625,2.166748046875
4.3824999,0.292691171169281,-0.060453593730926514,9.48462963104248,0.274658203125,0.579833984375,-3.387451171875
4.3874999,0.15921440720558167,0.1412578970193863,9.86111831665039,-0.06103515625,0.152587890625,3.72314453125
4.3924999,0.37229835987091064,-0.22026655077934265,9.379883766174316,-0.54931640625,-0.8544921875,-4.0283203125
4.397499900000001,0.08619125932455063,0.18614917993545532,9.813833236694336,0.885009765625,1.251220703125,3.2958984375
4.4024999000000005,0.35075053572654724,-0.29867666959762573,9.5809965133667,-1.007080078125,-1.8310546875,-2.99072265625
4.4074999,0.06464344263076782,0.15442600846290588,9.838373184204102,1.495361328125,2.01416015625,1.678466796875
4.4124999,0.2651578485965729,-0.2495955228805542,9.882665634155273,-1.220703125,-1.922607421875,-0.518798828125
4.4174999,0.12449848651885986,0.07661445438861847,9.768342971801758,1.0986328125,1.800537109375,-1.0986328125
4.4224999,0.19572599232196808,-0.08619125932455063,10.004171371459961,-0.8544921875,-1.129150390625,1.922607421875
4.4274999,0.27054479718208313,-0.03651157766580582,9.527127265930176,0.579833984375,0.79345703125,-3.021240234375
4.4324999,0.166995570063591,0.11432313174009323,9.894038200378418,-0.1220703125,-0.213623046875,3.5400390625
4.437499900000001,0.37888240814208984,-0.20470423996448517,9.373299598693848,-0.3662109375,-0.762939453125,-4.0283203125
4.4424999000000005,0.11133038252592087,0.17657238245010376,9.815628051757812,0.762939453125,1.190185546875,3.448486328125
4.4474999,0.3693056106567383,-0.30705636739730835,9.533711433410645,-1.03759765625,-1.5869140625,-3.204345703125
4.4524999,0.07122749835252762,0.15921440720558167,9.835380554199219,1.251220703125,2.01416015625,1.922607421875
4.4574999,0.28072014451026917,-0.2555810213088989,9.84376049041748,-1.373291015625,-2.105712890625,-1.007080078125
4.4624999,0.11252748221158981,0.09696517139673233,9.78869342803955,1.3427734375,1.708984375,-0.6103515625
4.4674999,0.20709845423698425,-0.10773907601833344,10.011354446411133,-0.8544921875,-1.52587890625,1.495361328125
4.4724999,0.25737667083740234,-0.016759412363171577,9.567230224609375,0.640869140625,1.129150390625,-2.86865234375
4.477499900000001,0.17896658182144165,0.0802057534456253,9.911994934082031,-0.244140625,-0.091552734375,3.326416015625
4.4824999000000005,0.3693056106567383,-0.18614917993545532,9.381080627441406,-0.213623046875,-0.244140625,-4.08935546875
4.4874999,0.11971008777618408,0.16998831927776337,9.805453300476074,0.732421875,1.15966796875,3.5400390625
4.4924999,0.3776853084564209,-0.3058592677116394,9.497797966003418,-1.007080078125,-1.708984375,-3.326416015625
4.4974999,0.08259996026754379,0.15921440720558167,9.831191062927246,1.220703125,1.617431640625,2.166748046875
4.5024999,0.3058592677116394,-0.28371289372444153,9.810839653015137,-1.03759765625,-1.922607421875,-1.15966796875
4.5074999,0.10534487664699554,0.09038111567497253,9.815628051757812,1.312255859375,2.13623046875,-0.06103515625
4.5124999,0.21428105235099792,-0.14065934717655182,10.026318550109863,-1.03759765625,-1.434326171875,1.15966796875
4.5174999,0.2232593148946762,-0.005985504016280174,9.617507934570312,0.6103515625,1.007080078125,-2.74658203125
4.522499900000001,0.16879121959209442,0.0694318488240242,9.948506355285645,-0.335693359375,-0.396728515625,3.021240234375
4.5274999000000005,0.3495534360408783,-0.15682020783424377,9.405022621154785,-0.1220703125,-0.244140625,-3.96728515625
4.5324999,0.12689268589019775,0.16998831927776337,9.813833236694336,0.67138671875,0.8544921875,3.631591796875
4.5374999,0.3842693865299225,-0.28730419278144836,9.466673851013184,-0.8544921875,-1.46484375,-3.41796875
4.5424999,0.08080431073904037,0.16998831927776337,9.81143856048584,1.220703125,1.708984375,2.50244140625
4.5474999,0.3130418658256531,-0.2711433470249176,9.7605619430542,-1.28173828125,-2.0751953125,-1.708984375
4.5524999,0.09157821536064148,0.12210428714752197,9.81143856048584,1.3427734375,1.861572265625,0.091552734375
4.5574999,0.23163901269435883,-0.1562216579914093,10.016741752624512,-1.129150390625,-1.708984375,1.007080078125
4.562499900000001,0.228047713637352,0.013168109580874443,9.658807754516602,0.823974609375,1.40380859375,-2.227783203125
4.5674999000000005,0.19632454216480255,0.03651157766580582,9.982025146484375,-0.457763671875,-0.30517578125,3.021240234375
4.5724999,0.353743314743042,-0.1472434103488922,9.440936088562012,-0.030517578125,-0.091552734375,-3.753662109375
4.5774999,0.1412578970193863,0.15801730751991272,9.837176322937012,0.54931640625,0.640869140625,3.72314453125
4.5824999,0.3866635859012604,-0.28730419278144836,9.462483406066895,-0.701904296875,-1.28173828125,-3.60107421875
4.5874999,0.08319851011037827,0.16879121959209442,9.810839653015137,1.0986328125,1.800537109375,2.74658203125
4.5924999,0.3196259140968323,-0.29149407148361206,9.73542308807373,-1.15966796875,-2.105712890625,-1.739501953125
4.5974999,0.08080431073904037,0.12330138683319092,9.80904483795166,1.220703125,1.983642578125,0.335693359375
4.602499900000001,0.2256535142660141,-0.17896658182144165,9.998186111450195,-1.220703125,-1.64794921875,0.579833984375
4.6074999000000005,0.19692309200763702,0.020350715145468712,9.666589736938477,0.8544921875,1.220703125,-2.01416015625
4.6124999,0.181959331035614,0.026336219161748886,9.977835655212402,-0.518798828125,-0.701904296875,2.8076171875
4.6174999,0.3292027413845062,-0.12629413604736328,9.43375301361084,-0.030517578125,0.06103515625,-3.753662109375
4.6224999,0.12868833541870117,0.14844051003456116,9.825803756713867,0.48828125,0.579833984375,3.692626953125
4.6274999,0.3758896589279175,-0.2783259451389313,9.437344551086426,-0.732421875,-1.373291015625,-3.631591796875
4.6324999,0.3758896589279175,-0.2783259451389313,9.437344551086426,-0.732421875,-1.373291015625,-3.631591796875
4.6374999,0.076015904545784,0.1604115068912506,9.804854393005371,1.129150390625,1.617431640625,2.685546875
4.6424999,0.3232172429561615,-0.2998737692832947,9.710882186889648,-1.220703125,-1.89208984375,-2.044677734375
4.647499900000001,0.07960720360279083,0.12749123573303223,9.824606895446777,1.220703125,2.044677734375,0.396728515625
4.6524999000000005,0.24181437492370605,-0.19692309200763702,9.995193481445312,-1.3427734375,-1.800537109375,0.30517578125
4.6574999,0.19273324310779572,0.02454056777060032,9.6989107131958,0.823974609375,1.52587890625,-2.105712890625
4.6624999,0.19452889263629913,0.0077811554074287415,9.995792388916016,-0.48828125,-0.67138671875,2.685546875
4.6674999,0.32680854201316833,-0.1215057373046875,9.455301284790039,0.030517578125,0,-3.631591796875
4.6724999,0.14245499670505524,0.15502455830574036,9.837775230407715,0.457763671875,0.48828125,3.631591796875
4.6774999,0.38486793637275696,-0.2651578485965729,9.429563522338867,-0.67138671875,-1.0986328125,-3.753662109375
4.6824999,0.08439560979604721,0.17956513166427612,9.803058624267578,1.03759765625,1.617431640625,2.86865234375
4.687499900000001,0.3405751883983612,-0.30047231912612915,9.685144424438477,-1.190185546875,-1.8310546875,-2.227783203125
4.6924999000000005,0.08559270948171616,0.13706804811954498,9.817423820495605,1.40380859375,2.01416015625,0.640869140625
4.6974999,0.2555810213088989,-0.20530278980731964,9.971850395202637,-1.251220703125,-1.8310546875,0.30517578125
4.7024999,0.18914192914962769,0.033518824726343155,9.701904296875,1.007080078125,1.28173828125,-1.64794921875
4.7074999,0.2017114907503128,-0.005386953707784414,9.99459457397461,-0.579833984375,-0.91552734375,2.593994140625
4.7124999,0.3208230137825012,-0.11252748221158981,9.460687637329102,0.152587890625,0.213623046875,-3.570556640625
4.7174999,0.1454477459192276,0.1430535465478897,9.85034465789795,0.274658203125,0.42724609375,3.631591796875
4.7224999,0.38486793637275696,-0.26156654953956604,9.429563522338867,-0.701904296875,-1.129150390625,-3.814697265625
4.727499900000001,0.08858546614646912,0.17717093229293823,9.809642791748047,1.0986328125,1.556396484375,2.99072265625
4.7324999000000005,0.35075053572654724,-0.2998737692832947,9.660603523254395,-1.190185546875,-2.01416015625,-2.288818359375
4.7374999,0.09217676520347595,0.1388636976480484,9.818022727966309,1.495361328125,1.983642578125,0.8544921875
4.7424999,0.2645592987537384,-0.21966800093650818,9.943717956542969,-1.190185546875,-1.922607421875,0.213623046875
4.7474999,0.17717093229293823,0.030526071786880493,9.710882186889648,1.007080078125,1.434326171875,-1.708984375
4.7524999,0.19033902883529663,-0.01975216343998909,9.999382972717285,-0.54931640625,-1.0986328125,2.410888671875
4.7574999,0.2998737692832947,-0.10055647045373917,9.475052833557129,0.335693359375,0.335693359375,-3.387451171875
4.7624999,0.13108254969120026,0.14664486050605774,9.864709854125977,0.396728515625,0.3662109375,3.47900390625
4.7674999,0.37409400939941406,-0.24660277366638184,9.428366661071777,-0.54931640625,-0.946044921875,-3.936767578125
4.772499900000001,0.07841010391712189,0.16759411990642548,9.81263542175293,0.9765625,1.64794921875,3.082275390625
4.7774999000000005,0.34177228808403015,-0.3082534670829773,9.653421401977539,-1.15966796875,-1.89208984375,-2.5634765625
4.7824999,0.07721300423145294,0.13706804811954498,9.825204849243164,1.3427734375,1.922607421875,1.068115234375
4.7874999,0.25498247146606445,-0.22206220030784607,9.941324234008789,-1.220703125,-1.861572265625,0
4.7924999,0.16519992053508759,0.04489128291606903,9.72165584564209,0.946044921875,1.5869140625,-1.556396484375
4.7974999,0.19931729137897491,-0.02274491637945175,9.99339771270752,-0.701904296875,-1.068115234375,2.410888671875
4.8024999,0.30286651849746704,-0.09816227108240128,9.472060203552246,0.274658203125,0.42724609375,-3.47900390625
4.8074999,0.15083470940589905,0.1322796493768692,9.864709854125977,0.091552734375,0.335693359375,3.60107421875
4.812499900000001,0.3860650360584259,-0.25258827209472656,9.415796279907227,-0.54931640625,-0.91552734375,-3.96728515625
4.8174999000000005,0.090979665517807,0.16160862147808075,9.818022727966309,0.946044921875,1.5869140625,2.9296875
4.8224999,0.3585317134857178,-0.3076549172401428,9.645041465759277,-1.220703125,-1.800537109375,-2.655029296875
4.8274999,0.08798690885305405,0.1364694982767105,9.835380554199219,1.52587890625,1.983642578125,1.129150390625
4.8324999,0.2711433470249176,-0.22206220030784607,9.942521095275879,-1.251220703125,-1.89208984375,-0.152587890625
4.8374999,0.17178396880626678,0.0520738884806633,9.737217903137207,1.068115234375,1.5869140625,-1.40380859375
4.8424999,0.2082955539226532,-0.02992752194404602,9.999981880187988,-0.6103515625,-0.9765625,2.288818359375
4.8474999,0.304063618183136,-0.07960720360279083,9.475651741027832,0.42724609375,0.244140625,-3.47900390625
4.852499900000001,0.15143325924873352,0.13766659796237946,9.867103576660156,0.30517578125,0.18310546875,3.448486328125
4.8574999000000005,0.37888240814208984,-0.24361002445220947,9.405022621154785,-0.54931640625,-0.885009765625,-3.90625
4.8624999,0.07781155407428741,0.16879121959209442,9.816825866699219,0.946044921875,1.495361328125,3.0517578125
4.8674999,0.3411737382411957,-0.3010708689689636,9.627683639526367,-1.251220703125,-1.739501953125,-2.838134765625
4.8724999,0.061052143573760986,0.14604631066322327,9.825204849243164,1.28173828125,1.953125,1.129150390625
4.8774999,0.2454056739807129,-0.22266076505184174,9.915586471557617,-1.129150390625,-1.89208984375,-0.274658203125
4.8824999,0.14006079733371735,0.05746084079146385,9.724648475646973,1.03759765625,1.556396484375,-1.434326171875
4.8874999,0.1843535304069519,-0.04249707981944084,9.985017776489258,-0.701904296875,-1.0986328125,2.227783203125
4.8924999,0.284311443567276,-0.07661445438861847,9.47146224975586,0.396728515625,0.396728515625,-3.2958984375
4.897499900000001,0.1454477459192276,0.12928688526153564,9.8599214553833,0.091552734375,0.152587890625,3.509521484375
4.9024999000000005,0.3800795078277588,-0.23702596127986908,9.39365005493164,-0.67138671875,-0.8544921875,-3.96728515625
4.9074999,0.09038111567497253,0.16998831927776337,9.810839653015137,0.946044921875,1.40380859375,3.0517578125
4.9124999,0.36092591285705566,-0.30286651849746704,9.621698379516602,-1.312255859375,-1.922607421875,-2.50244140625
4.9174999,0.09038111567497253,0.15442600846290588,9.834781646728516,1.3427734375,1.89208984375,1.373291015625
4.9224999,0.28072014451026917,-0.22206220030784607,9.922768592834473,-1.129150390625,-1.922607421875,-0.42724609375
4.9274999,0.16879121959209442,0.06464344263076782,9.743204116821289,1.15966796875,1.64794921875,-1.40380859375
4.9324999,0.21009120345115662,-0.04249707981944084,9.996390342712402,-0.640869140625,-1.03759765625,2.01416015625
4.937499900000001,0.29209262132644653,-0.07661445438861847,9.492411613464355,0.30517578125,0.579833984375,-3.204345703125
4.9424999000000005,0.1472434103488922,0.12928688526153564,9.880870819091797,0.06103515625,0.244140625,3.692626953125
4.9474999,0.3687070608139038,-0.24181437492370605,9.409213066101074,-0.518798828125,-1.03759765625,-3.936767578125
4.9524999,0.07781155407428741,0.16879121959209442,9.825803756713867,1.0986328125,1.15966796875,3.2958984375
4.9574999,0.34177228808403015,-0.3058592677116394,9.622895240783691,-1.0986328125,-1.739501953125,-2.685546875
4.9624999,0.06763619929552078,0.15023615956306458,9.838373184204102,1.28173828125,2.01416015625,1.251220703125
4.9674999,0.2621650993824005,-0.22744916379451752,9.914987564086914,-1.312255859375,-2.044677734375,-0.396728515625
4.9724999,0.15143325924873352,0.06584054976701736,9.741408348083496,1.007080078125,1.64794921875,-1.28173828125
4.977499900000001,0.19812019169330597,-0.0454898327589035,9.985017776489258,-0.6103515625,-1.129150390625,2.166748046875
4.9824999000000005,0.2885012924671173,-0.06224924325942993,9.473855972290039,0.42724609375,0.457763671875,-3.23486328125
4.9874999,0.152031809091568,0.13048399984836578,9.86231517791748,0.091552734375,0.18310546875,3.2958984375
4.9924999,0.3842693865299225,-0.228047713637352,9.388263702392578,-0.579833984375,-0.823974609375,-3.90625
4.9974999,0.3842693865299225,-0.228047713637352,9.388263702392578,-0.579833984375,-0.823974609375,-3.90625
5.0024999,0.09696517139673233,0.17178396880626678,9.818022727966309,0.885009765625,1.3427734375,3.2958984375
5.0074999,0.3663128614425659,-0.3034650683403015,9.621099472045898,-1.129150390625,-1.983642578125,-2.74658203125
5.0124999,0.08080431073904037,0.152031809091568,9.85034465789795,1.3427734375,1.739501953125,1.40380859375
5.0174999,0.27054479718208313,-0.2298433631658554,9.928155899047852,-1.15966796875,-2.044677734375,-0.274658203125
5.022499900000001,0.14784196019172668,0.0628477931022644,9.765350341796875,1.129150390625,1.708984375,-1.190185546875
5.0274999000000005,0.19632454216480255,-0.04369417950510979,10.010157585144043,-0.701904296875,-1.007080078125,2.166748046875
5.0324999,0.2819172441959381,-0.060453593730926514,9.497200012207031,0.3662109375,0.518798828125,-3.35693359375
5.0374999,0.14903905987739563,0.14065934717655182,9.874884605407715,0.06103515625,0.06103515625,3.47900390625
5.0424999,0.3734954595565796,-0.22864626348018646,9.38048267364502,-0.457763671875,-0.732421875,-4.058837890625
5.0474999,0.08918401598930359,0.1711854189634323,9.798869132995605,1.0986328125,1.434326171875,3.265380859375
5.0524999,0.3555389642715454,-0.3064578175544739,9.594164848327637,-1.0986328125,-1.708984375,-2.716064453125
5.0574999,0.07841010391712189,0.14604631066322327,9.827000617980957,1.28173828125,2.044677734375,1.46484375
5.062499900000001,0.27473464608192444,-0.23582886159420013,9.912593841552734,-1.220703125,-2.044677734375,-0.274658203125
5.0674999000000005,0.1562216579914093,0.0520738884806633,9.762357711791992,1.007080078125,1.8310546875,-1.220703125
5.0724999,0.20769700407981873,-0.06404489278793335,10.010157585144043,-0.8544921875,-1.007080078125,1.983642578125
5.0774999,0.29209262132644653,-0.08200141042470932,9.509170532226562,0.3662109375,0.42724609375,-3.2958984375
5.0824999,0.15562310814857483,0.1215057373046875,9.88745403289795,0.152587890625,-0.030517578125,3.47900390625
5.0874999,0.3818751573562622,-0.23343466222286224,9.398438453674316,-0.518798828125,-0.885009765625,-3.753662109375
5.0924999,0.09217676520347595,0.181959331035614,9.814431190490723,1.007080078125,1.312255859375,3.23486328125
5.0974999,0.3579331636428833,-0.2885012924671173,9.606135368347168,-1.0986328125,-1.64794921875,-2.716064453125
5.102499900000001,0.076015904545784,0.16639702022075653,9.832387924194336,1.190185546875,1.983642578125,1.312255859375
5.1074999000000005,0.2711433470249176,-0.2124854028224945,9.910199165344238,-1.0986328125,-2.105712890625,-0.457763671875
5.1124999,0.15322890877723694,0.06763619929552078,9.752182006835938,1.251220703125,1.556396484375,-0.9765625
5.1174999,0.20769700407981873,-0.05506663769483566,10.001777648925781,-0.823974609375,-1.28173828125,2.044677734375
5.1224999,0.2908954918384552,-0.07422025501728058,9.496002197265625,0.3662109375,0.579833984375,-3.2958984375
5.1274999,0.15263035893440247,0.11971008777618408,9.880271911621094,0.274658203125,0.1220703125,3.41796875
5.1324999,0.3734954595565796,-0.2388216257095337,9.396044731140137,-0.3662109375,-1.068115234375,-3.96728515625
5.1374999,0.08319851011037827,0.17178396880626678,9.814431190490723,0.946044921875,1.28173828125,3.2958984375
5.1424999,0.35015198588371277,-0.30286651849746704,9.608530044555664,-1.0986328125,-1.678466796875,-2.685546875
5.147499900000001,0.07302315533161163,0.15143325924873352,9.834183692932129,1.46484375,2.0751953125,1.434326171875
5.1524999000000005,0.2717418968677521,-0.22744916379451752,9.911994934082031,-1.0986328125,-1.983642578125,-0.457763671875
5.1574999,0.15502455830574036,0.06643909960985184,9.751583099365234,1.129150390625,1.678466796875,-1.28173828125
5.1624999,0.2082955539226532,-0.048482585698366165,10.000580787658691,-0.732421875,-1.068115234375,2.0751953125
5.1674999,0.292691171169281,-0.06344634294509888,9.496002197265625,0.396728515625,0.42724609375,-3.173828125
5.1724999,0.15442600846290588,0.13407529890537262,9.8784761428833,0.06103515625,0.152587890625,3.47900390625
5.1774999,0.3776853084564209,-0.2322375625371933,9.391256332397461,-0.42724609375,-0.9765625,-3.875732421875
5.1824999,0.08319851011037827,0.17477671802043915,9.81263542175293,0.946044921875,1.3427734375,3.23486328125
5.187499900000001,0.3513490855693817,-0.30226796865463257,9.609128952026367,-1.0986328125,-1.800537109375,-2.685546875
5.1924999000000005,0.0694318488240242,0.1538274586200714,9.834183692932129,1.251220703125,1.983642578125,1.373291015625
5.1974999,0.26815059781074524,-0.21847090125083923,9.916184425354004,-1.129150390625,-2.01416015625,-0.457763671875
5.2024999,0.15083470940589905,0.0694318488240242,9.756970405578613,1.03759765625,1.800537109375,-1.190185546875
5.2074999,0.2064998894929886,-0.04249707981944084,10.007762908935547,-0.823974609375,-1.0986328125,2.197265625
5.2124999,0.2908954918384552,-0.06823474913835526,9.503185272216797,0.213623046875,0.396728515625,-3.35693359375
5.2174999,0.15502455830574036,0.12928688526153564,9.891045570373535,0.091552734375,0.18310546875,3.509521484375
5.2224999,0.37888240814208984,-0.23942017555236816,9.399636268615723,-0.457763671875,-0.8544921875,-3.7841796875
5.227499900000001,0.08918401598930359,0.16759411990642548,9.813833236694336,1.03759765625,1.40380859375,3.204345703125
5.2324999000000005,0.3561375141143799,-0.3172317147254944,9.605537414550781,-1.0986328125,-1.89208984375,-2.532958984375
5.2374999,0.07661445438861847,0.14065934717655182,9.822811126708984,1.312255859375,1.983642578125,1.434326171875
5.2424999,0.26755204796791077,-0.2388216257095337,9.901819229125977,-1.220703125,-1.8310546875,-0.42724609375
