# Time (seconds),Accel_X,Accel_Y,Accel_Z,Gyro_X,Gyro_Y,Gyro_Z
0.0024999,0.05746084079146385,-2.297835111618042,9.124900817871094,9.735107421875,-4.0283203125,22.03369140625
0.0074999,0.05746084079146385,-2.297835111618042,9.124900817871094,9.735107421875,-4.0283203125,22.03369140625
0.012499900000000001,0.4686649739742279,-2.2457611560821533,8.644864082336426,11.993408203125,-3.2958984375,19.134521484375
0.0174999,0.6967126727104187,-1.843535304069519,8.881889343261719,14.83154296875,-3.387451171875,20.111083984375
0.0224999,0.7775170207023621,-1.1468225717544556,9.330802917480469,23.5595703125,1.373291015625,10.101318359375
0.0274999,0.6733692288398743,-0.3214215636253357,10.004770278930664,-0.518798828125,5.31005859375,-16.2353515625
0.0324999,0.6847416758537292,-0.6326677799224854,9.904213905334473,10.07080078125,5.859375,-9.613037109375
0.0374999,0.6877344250679016,-0.9277531504631042,9.99220085144043,25.20751953125,13.580322265625,-31.18896484375
0.0424999,0.586579442024231,-0.9026140570640564,9.75278091430664,15.5029296875,13.031005859375,-18.24951171875
0.0474999,0.45250412821769714,-0.17537526786327362,10.095749855041504,-2.349853515625,1.953125,3.72314453125
0.0524999,0.30466216802597046,0.5440823435783386,10.268132209777832,-13.916015625,-5.706787109375,3.0517578125
0.0574999,-0.08080431073904037,0.5889736413955688,10.064026832580566,-45.59326171875,-11.749267578125,4.21142578125
0.0624999,-0.28371289372444153,-0.12629413604736328,9.55825138092041,-33.966064453125,-1.708984375,7.38525390625
0.0674999,-0.4016273319721222,-1.2946646213531494,8.972270965576172,-10.101318359375,-6.561279296875,17.578125
0.0724999,-0.11971008777618408,-2.0177135467529297,8.181585311889648,4.241943359375,-8.209228515625,28.778076171875
0.0774999,0.08978256583213806,-2.3289597034454346,8.307879447937012,11.8408203125,-4.486083984375,27.587890625
0.0824999,0.5111620426177979,-1.9584569931030273,8.341997146606445,20.111083984375,0.91552734375,10.009765625
0.0874999,0.6961141228675842,-0.4908113479614258,9.540295600891113,11.90185546875,-0.213623046875,-7.965087890625
0.0924999,0.6697779297828674,-0.014365210197865963,9.931747436523438,4.45556640625,4.669189453125,-16.7236328125
0.0974999,0.7050924301147461,-0.08379705995321274,10.128670692443848,1.922607421875,5.67626953125,-8.697509765625
0.1024999,0.7870938181877136,-0.6494272351264954,9.823410034179688,12.39013671875,8.056640625,-18.85986328125
0.1074999,0.7667431235313416,-0.9014169573783875,9.93354320526123,26.580810546875,16.2353515625,-31.524658203125
0.1124999,0.5165489912033081,-0.8924387097358704,9.773730278015137,10.528564453125,11.23046875,-9.94873046875
0.1174999,0.36990416049957275,0.061052143573760986,10.04307746887207,-3.631591796875,0.274658203125,0.732421875
0.1224999,0.08140286058187485,0.5626373887062073,10.113107681274414,-21.17919921875,-7.904052734375,7.354736328125
0.1274999,-0.22864626348018646,0.5482721924781799,9.999981880187988,-48.15673828125,-10.894775390625,2.410888671875
0.1324999,-0.33339259028434753,-0.23523031175136566,9.37389850616455,-30.303955078125,-2.13623046875,8.11767578125
0.1374999,-0.27413609623908997,-1.5298948287963867,9.17817211151123,-3.143310546875,-8.11767578125,18.096923828125
0.1424999,0.05925649031996727,-2.0835540294647217,8.261791229248047,6.561279296875,-6.7138671875,31.31103515625
0.1474999,0.6931213736534119,-0.23582886159420013,9.745597839355469,7.6904296875,0.152587890625,-13.3056640625
0.1524999,0.6524199843406677,0.06643909960985184,10.111311912536621,2.349853515625,5.767822265625,-17.578125
0.1574999,0.7146692276000977,-0.023343466222286224,10.110115051269531,4.0283203125,5.43212890625,-5.157470703125
0.1624999,0.760757565498352,-0.7793126702308655,9.97484302520752,14.190673828125,8.30078125,-25.2685546875
0.1674999,0.760757565498352,-0.7793126702308655,9.97484302520752,14.190673828125,8.30078125,-25.2685546875
0.1724999,0.7260416746139526,-0.6931213736534119,9.843161582946777,23.162841796875,15.289306640625,-27.557373046875
0.17749990000000002,0.46567222476005554,-0.6961141228675842,9.864110946655273,5.126953125,7.965087890625,-2.685546875
0.1824999,0.5033808946609497,0.4465186297893524,10.216058731079102,-5.4931640625,-2.62451171875,-2.410888671875
0.1874999,-0.023343466222286224,1.1121066808700562,10.123882293701172,-28.045654296875,-10.7421875,10.43701171875
0.1924999,-0.28969839215278625,0.6320692300796509,10.023324966430664,-45.83740234375,-8.087158203125,-2.227783203125
0.1974999,-0.42377370595932007,-1.833359956741333,8.793902397155762,3.875732421875,-8.636474609375,17.242431640625
0.2024999,-0.008379706181585789,-2.474407434463501,7.722497463226318,6.561279296875,-5.157470703125,34.454345703125
0.20749990000000001,0.304063618183136,-2.83174204826355,8.480262756347656,21.453857421875,-1.495361328125,19.195556640625
0.2124999,0.5770025849342346,-2.120065689086914,8.380903244018555,11.810302734375,-1.068115234375,5.9814453125
0.2174999,0.6811503767967224,-1.1198878288269043,9.324816703796387,9.1552734375,-4.69970703125,7.26318359375
0.2224999,0.6811503767967224,-0.17717093229293823,9.854534149169922,4.791259765625,-0.42724609375,-15.289306640625
0.2274999,0.7410054206848145,0.06404489278793335,10.074202537536621,0.30517578125,4.57763671875,-14.7705078125
0.2324999,0.8577227592468262,-0.11312603205442429,10.061034202575684,5.126953125,4.364013671875,-5.706787109375
0.2374999,0.8924387097358704,-0.9714473485946655,10.015543937683105,16.021728515625,9.1552734375,-28.38134765625
0.2424999,0.7906851172447205,-0.7846996188163757,9.795876502990723,19.500732421875,13.12255859375,-23.223876953125
0.2474999,0.5069721937179565,-0.7398083209991455,9.9772367477417,1.708984375,4.2724609375,0.274658203125
0.2524999,0.4734533727169037,0.8565256595611572,10.16757583618164,-6.072998046875,-4.058837890625,-1.434326171875
0.2574999,-0.3190273642539978,1.138442873954773,10.074800491333008,-41.748046875,-6.439208984375,-4.547119140625
0.2624999,-0.48602294921875,0.1496376097202301,9.507973670959473,-14.09912109375,-5.06591796875,10.55908203125
0.2674999,-0.3705027103424072,-1.7872716188430786,9.020753860473633,8.148193359375,-7.99560546875,18.98193359375
0.2724999,-0.02454056777060032,-2.6007015705108643,8.08162784576416,5.584716796875,-5.06591796875,33.843994140625
0.2774999,0.34356793761253357,-2.826953649520874,8.632892608642578,19.195556640625,-1.922607421875,11.29150390625
0.2824999,0.5213374495506287,-2.0015525817871094,8.59997272491455,6.744384765625,-2.716064453125,7.354736328125
0.28749990000000003,0.6865373253822327,-0.8672995567321777,9.481637001037598,9.58251953125,-3.570556640625,11.383056640625
0.2924999,0.8092401623725891,-0.058059390634298325,9.841365814208984,1.77001953125,-1.190185546875,-5.37109375
0.2974999,0.9115923047065735,-0.08200141042470932,10.116100311279297,-1.89208984375,5.67626953125,-18.768310546875
0.3024999,1.0324994325637817,-0.32680854201316833,9.912593841552734,8.209228515625,7.415771484375,-6.7138671875
0.3074999,1.1210849285125732,-1.2677297592163086,9.979631423950195,16.754150390625,9.368896484375,-26.55029296875
0.3124999,0.8852560520172119,-0.9929951429367065,9.717466354370117,14.46533203125,13.702392578125,-22.4609375
0.3174999,0.2777273952960968,1.0283095836639404,10.334571838378906,-5.0048828125,-2.9296875,-0.823974609375
0.3224999,-0.5099649429321289,1.0911574363708496,9.99459457397461,-38.14697265625,-2.74658203125,-3.082275390625
0.3274999,-0.45190557837486267,-0.17298106849193573,9.284713745117188,-10.07080078125,-4.7607421875,14.58740234375
0.3324999,-0.28730419278144836,-2.058414936065674,8.710704803466797,8.60595703125,-6.622314453125,19.683837890625
0.3374999,0.08259996026754379,-2.761113166809082,8.057086944580078,5.9814453125,-3.72314453125,31.43310546875
0.3424999,0.383670836687088,-2.7952303886413574,8.553285598754883,18.49365234375,0.42724609375,10.1318359375
0.34749990000000003,0.5734112858772278,-2.035670042037964,8.82442855834961,5.889892578125,-1.220703125,8.636474609375
0.35249990000000003,0.7386112213134766,-0.9457096457481384,9.455899238586426,7.080078125,-2.471923828125,0.06103515625
0.3574999,0.7457938194274902,-0.22505496442317963,9.959878921508789,4.39453125,4.180908203125,-18.524169921875
0.3624999,0.8343793153762817,-0.12509703636169434,10.107122421264648,0.244140625,6.683349609375,-10.25390625
0.3674999,0.9744400978088379,-0.3471592366695404,9.931747436523438,7.171630859375,5.706787109375,-9.27734375
0.3724999,0.788889467716217,-0.8858546018600464,9.81263542175293,15.7470703125,14.862060546875,-16.510009765625
0.3774999,0.788889467716217,-0.8858546018600464,9.81263542175293,15.7470703125,14.862060546875,-16.510009765625
0.3824999,0.5770025849342346,-0.7332242727279663,10.018536567687988,-0.213623046875,4.57763671875,0.274658203125
0.3874999,0.12509703636169434,1.159990668296814,10.537480354309082,-7.01904296875,-2.74658203125,-0.946044921875
0.3924999,-0.2214636504650116,1.291671872138977,10.142436981201172,-37.261962890625,-11.993408203125,8.514404296875
0.3974999,-0.557250440120697,1.247977614402771,9.984419822692871,-38.330078125,-2.5634765625,-3.448486328125
0.4024999,-0.42018240690231323,-0.05147533491253853,9.074024200439453,-11.5966796875,-4.8828125,15.106201171875
0.4074999,-0.181959331035614,-1.8507179021835327,8.579621315002441,7.080078125,-5.9814453125,20.5078125
0.41249990000000003,0.26096799969673157,-2.5043349266052246,8.031349182128906,4.974365234375,-3.84521484375,33.599853515625
0.41749990000000003,0.5135562419891357,-2.7299885749816895,8.580220222473145,20.32470703125,1.861572265625,11.04736328125
0.4224999,0.7038952708244324,-2.0458452701568604,8.79928970336914,9.002685546875,0.518798828125,10.223388671875
0.4274999,0.7308300733566284,-1.1456254720687866,9.5007905960083,11.077880859375,-0.396728515625,-1.983642578125
0.4324999,0.8571242094039917,-0.2753331959247589,10.016142845153809,7.904052734375,6.683349609375,-10.711669921875
0.4374999,0.8864531517028809,-0.9097966551780701,10.104728698730469,19.134521484375,14.068603515625,-29.998779296875
0.4424999,0.71766197681427,-0.7703344225883484,9.845556259155273,15.655517578125,16.326904296875,-13.153076171875
0.4474999,0.557250440120697,-0.6165069341659546,10.015543937683105,0.030517578125,5.2490234375,-0.152587890625
0.4524999,-0.08978256583213806,1.048660397529602,10.384251594543457,-6.28662109375,-2.5634765625,1.03759765625
0.4574999,-0.35075053572654724,1.072602391242981,9.699509620666504,-39.093017578125,-16.082763671875,7.14111328125
0.4624999,-0.7038952708244324,0.7984662652015686,9.412205696105957,-38.57421875,-4.913330078125,-1.15966796875
0.4674999,-0.45908817648887634,-0.5333084464073181,8.394669532775879,-7.568359375,-4.57763671875,17.27294921875
0.47249990000000003,-0.08259996026754379,-2.2625205516815186,8.040925979614258,9.918212890625,-4.180908203125,21.8505859375
0.47749990000000003,0.39384618401527405,-2.7461493015289307,7.8092875480651855,4.94384765625,-4.08935546875,36.224365234375
0.4824999,0.5704185366630554,-2.6874914169311523,8.498218536376953,18.4326171875,1.89208984375,11.29150390625
0.4874999,0.6739677786827087,-0.8068459630012512,9.61451530456543,8.85009765625,-1.64794921875,-2.38037109375
0.4924999,0.5764040350914001,-0.18136078119277954,10.073004722595215,5.218505859375,4.852294921875,-18.98193359375
0.4974999,0.6099228858947754,-0.053270988166332245,10.247781753540039,1.495361328125,6.40869140625,-8.23974609375
0.5024999,0.7757213711738586,-0.34596213698387146,10.055048942565918,9.1552734375,5.9814453125,-11.65771484375
0.5074999,0.7817068696022034,-1.0576386451721191,10.144232749938965,18.829345703125,13.336181640625,-29.693603515625
0.5124999,0.6171054840087891,-0.7314286231994629,9.907805442810059,14.495849609375,13.61083984375,-11.16943359375
0.5174999,0.47225627303123474,-0.5901707410812378,10.062231063842773,-1.03759765625,2.13623046875,-0.396728515625
0.5224999,-0.2519897222518921,1.0773907899856567,10.46325969696045,-8.23974609375,-5.859375,1.89208984375
0.5274999,-0.49559974670410156,1.003769040107727,9.819818496704102,-40.22216796875,-19.04296875,6.89697265625
0.5324999,-0.7966706156730652,0.5494692921638489,9.50737476348877,-36.62109375,-7.598876953125,-4.058837890625
0.5374999,-0.4405331015586853,-0.8092401623725891,8.53652572631836,-6.04248046875,-5.4931640625,16.05224609375
0.5424999,0.040701430290937424,-2.4672248363494873,8.00680923461914,10.986328125,-4.82177734375,23.37646484375
0.5474999,0.6967126727104187,-2.5546131134033203,8.477270126342773,16.9677734375,0.06103515625,5.615234375
0.5524999,0.7224503755569458,-1.591545581817627,9.067440032958984,5.67626953125,-1.495361328125,8.97216796875
0.5574999,0.7236474752426147,-0.4800374507904053,9.697115898132324,6.34765625,-3.0517578125,-3.11279296875
0.5624999,0.8403648138046265,-1.0540473461151123,10.098742485046387,17.425537109375,13.427734375,-29.1748046875
0.5674999000000001,0.6817489266395569,-0.6512228846549988,9.86231517791748,11.810302734375,11.688232421875,-10.345458984375
0.5724999000000001,0.5674257874488831,-0.44352585077285767,9.97065258026123,-2.227783203125,0.396728515625,-1.64794921875
0.5774999000000001,-0.0933738648891449,1.1037269830703735,10.23880386352539,-9.613037109375,-5.645751953125,3.60107421875
0.5824999,-0.4082113802433014,0.8774749040603638,9.724050521850586,-39.97802734375,-15.5029296875,3.753662109375
0.5874999,-0.7032967209815979,0.3603273630142212,9.350554466247559,-32.012939453125,-3.570556640625,-4.974365234375
0.5924999,-0.03531447425484657,-2.2697031497955322,8.213309288024902,9.21630859375,-3.7841796875,23.74267578125
0.5974999,0.4118026793003082,-2.4630351066589355,8.274959564208984,7.110595703125,-2.349853515625,33.905029296875
0.6024999,0.6177040338516235,-2.1045033931732178,8.651448249816895,15.838623046875,0.42724609375,2.716064453125
0.6074999,0.6272808313369751,-1.3060370683670044,9.187748908996582,5.67626953125,-1.953125,9.002685546875
0.6124999,0.6667851805686951,-0.3579331636428833,9.70549488067627,7.049560546875,-1.800537109375,-5.0048828125
0.6174999,0.6218938827514648,-0.017956512048840523,10.092757225036621,3.90625,4.45556640625,-19.622802734375
0.6224999,0.707486629486084,-0.0347159244120121,10.184335708618164,0.9765625,5.31005859375,-6.256103515625
0.6274999,0.872686505317688,-0.4836287498474121,9.940725326538086,8.72802734375,6.011962890625,-15.44189453125
0.6324999,0.8313865661621094,-1.0965443849563599,10.007762908935547,18.6767578125,14.739990234375,-27.984619140625
0.6374999,0.6787561774253845,-0.7751228213310242,9.806051254272461,11.505126953125,12.451171875,-9.796142578125
0.6424999,0.5835866928100586,-0.3926490843296051,9.903017044067383,-2.288818359375,1.129150390625,-1.861572265625
0.6474999,-0.07960720360279083,0.9307458996772766,10.162189483642578,-9.033203125,-5.18798828125,4.241943359375
0.6524999,-0.6350619792938232,0.10354922711849213,9.263765335083008,-29.72412109375,-3.570556640625,-4.150390625
0.6574999,-0.39624038338661194,-1.1324573755264282,8.740033149719238,-0.579833984375,-4.7607421875,16.082763671875
0.6624999,-0.013766659423708916,-2.297835111618042,8.26478385925293,8.544921875,-3.7841796875,24.444580078125
0.6674999,0.4016273319721222,-2.3702597618103027,8.419808387756348,5.55419921875,-2.655029296875,31.8603515625
0.6724999,0.5871779918670654,-1.9261353015899658,8.762778282165527,14.404296875,0.67138671875,2.74658203125
0.6774999,0.6308721303939819,-1.1851298809051514,9.277531623840332,5.584716796875,-1.220703125,9.27734375
0.6824999,0.6727706789970398,-0.3298012912273407,9.750386238098145,7.26318359375,-1.15966796875,-5.523681640625
0.6874999,0.6374561786651611,-0.01735796220600605,10.086771965026855,3.90625,5.06591796875,-19.073486328125
0.6924999000000001,0.727837324142456,-0.08140286058187485,10.16757583618164,0.91552734375,5.7373046875,-6.34765625
0.6974999000000001,0.8888474106788635,-0.49559974670410156,9.922768592834473,8.6669921875,6.622314453125,-15.13671875
0.7024999000000001,0.862511157989502,-1.1390414237976074,9.987412452697754,18.310546875,15.533447265625,-26.85546875
0.7074999,0.6835445761680603,-0.8301894664764404,9.786299705505371,12.481689453125,13.946533203125,-10.040283203125
0.7124999,-0.4800374507904053,0.9373299479484558,9.9371337890625,-40.374755859375,-16.78466796875,4.180908203125
0.7174999,-0.7679402232170105,0.47465047240257263,9.652822494506836,-31.463623046875,-4.21142578125,-5.950927734375
0.7224999,-0.030526071786880493,-2.1727380752563477,8.47786808013916,8.941650390625,-3.936767578125,24.200439453125
0.7274999,0.4345476031303406,-2.358887195587158,8.418013572692871,4.180908203125,-3.326416015625,33.203125
0.7324999,0.606930136680603,-2.0404584407806396,8.762778282165527,14.7705078125,0.091552734375,3.662109375
0.7374999,0.646434485912323,-1.3317747116088867,9.172784805297852,5.340576171875,-1.3427734375,8.85009765625
0.7424999,0.6661866307258606,-0.48602294921875,9.653421401977539,7.659912109375,-1.922607421875,-4.08935546875
0.7474999,0.5943605899810791,-0.08439560979604721,10.013150215148926,4.57763671875,3.662109375,-19.287109375
0.7524999,0.6757634282112122,-0.07541735470294952,10.144232749938965,-0.030517578125,3.875732421875,-7.598876953125
0.7574999,0.8062474131584167,-0.43335050344467163,9.938929557800293,7.354736328125,4.638671875,-13.12255859375
0.7624999,0.6344634294509888,-0.8313865661621094,9.85034465789795,12.87841796875,12.451171875,-12.908935546875
0.7674999,0.4471171796321869,-0.5764040350914001,10.028712272644043,-2.74658203125,0.396728515625,-1.068115234375
0.7724999,-0.21128830313682556,1.035492181777954,10.476428031921387,-8.7890625,-6.77490234375,1.40380859375
0.7774999,-0.5327098965644836,0.9714473485946655,9.911396026611328,-39.581298828125,-16.4794921875,5.340576171875
0.7824999,-0.7835025191307068,0.5871779918670654,9.586383819580078,-35.247802734375,-5.0048828125,-10.31494140625
0.7874999,-0.4076128304004669,-0.6973112225532532,8.664615631103516,-6.256103515625,-5.4931640625,10.25390625
0.7924999,0.07481880486011505,-2.3133974075317383,8.257601737976074,9.429931640625,-4.486083984375,24.35302734375
0.7974999,0.5973533391952515,-2.668936252593994,7.928399085998535,3.2958984375,-1.983642578125,35.2783203125
0.8024999,0.7254431247711182,-0.7733271718025208,9.591172218322754,8.1787109375,-2.13623046875,-1.8310546875
0.8074999,0.6979097723960876,-0.090979665517807,10.202890396118164,0.54931640625,5.035400390625,-8.36181640625
0.8124999,0.6979097723960876,-0.090979665517807,10.202890396118164,0.54931640625,5.035400390625,-8.36181640625
0.8174999000000001,0.8152256608009338,-0.37169981002807617,10.022727012634277,7.38525390625,4.852294921875,-11.016845703125
0.8224999000000001,0.839766263961792,-1.125873327255249,10.125677108764648,18.402099609375,13.5498046875,-28.99169921875
0.8274999000000001,0.6703764796257019,-0.7924807667732239,9.88386344909668,15.655517578125,14.22119140625,-14.678955078125
0.8324999000000001,0.43514615297317505,-0.6584054827690125,10.029311180114746,-1.0986328125,2.227783203125,0.54931640625
0.8374999,-0.07781155407428741,1.3910311460494995,10.430938720703125,-7.354736328125,-6.53076171875,0.48828125
0.8424999,-0.5231330990791321,1.4059948921203613,10.021530151367188,-36.80419921875,-17.181396484375,8.30078125
0.8474999,-0.6973112225532532,1.3036428689956665,9.733028411865234,-36.0107421875,-6.561279296875,-7.87353515625
0.8524999,-0.4537012279033661,-0.12090718746185303,8.923788070678711,-6.378173828125,-4.94384765625,10.92529296875
0.8574999,-0.05027823522686958,-1.997362732887268,8.480262756347656,9.185791015625,-4.974365234375,24.383544921875
0.8624999,0.4381389021873474,-2.6455929279327393,8.054693222045898,3.41796875,-2.3193359375,34.454345703125
0.8674999,0.7140706777572632,-0.9397241473197937,9.53849983215332,7.62939453125,-2.74658203125,-0.457763671875
0.8724999,0.7140706777572632,-0.9397241473197937,9.53849983215332,7.62939453125,-2.74658203125,-0.457763671875
0.8774999,0.6326677799224854,-0.2849099934101105,10.018536567687988,4.638671875,3.47900390625,-19.378662109375
0.8824999,0.8601169586181641,-0.3357867896556854,10.021530151367188,6.77490234375,4.5166015625,-10.92529296875
0.8874999,0.8601169586181641,-0.3357867896556854,10.021530151367188,6.77490234375,4.5166015625,-10.92529296875
0.8924999,0.8678981065750122,-1.1228805780410767,10.145429611206055,16.937255859375,13.092041015625,-28.80859375
0.8974999,0.6961141228675842,-0.7846996188163757,9.911994934082031,15.380859375,14.129638671875,-15.228271484375
0.9024999,0.43754035234451294,-0.6596025824546814,10.038887977600098,-0.701904296875,2.227783203125,0.457763671875
0.9074999,-0.047884032130241394,1.4047977924346924,10.36988639831543,-7.476806640625,-6.500244140625,-0.091552734375
0.9124999,-0.4770447015762329,1.534683346748352,10.036493301391602,-36.62109375,-16.021728515625,8.544921875
0.9174999,-0.6554127335548401,1.449090600013733,9.63187313079834,-36.62109375,-5.889892578125,-7.75146484375
0.9224999,-0.45848962664604187,0.058059390634298325,8.91181755065918,-5.7373046875,-5.645751953125,11.53564453125
0.9274999,0.6799532771110535,-0.3016694188117981,10.034697532653809,3.814697265625,2.62451171875,-20.782470703125
0.9324999,0.6799532771110535,-0.3016694188117981,10.034697532653809,3.814697265625,2.62451171875,-20.782470703125
0.9374999,0.8277952671051025,-0.20709845423698425,10.179547309875488,-0.640869140625,4.913330078125,-10.68115234375
0.9424999000000001,1.0001777410507202,-0.4129997789859772,9.988609313964844,6.28662109375,4.852294921875,-11.23046875
0.9474999000000001,0.9457096457481384,-1.2072762250900269,10.13525390625,16.265869140625,12.725830078125,-30.76171875
0.9524999000000001,0.7589619159698486,-0.8110358119010925,9.870695114135742,14.739990234375,13.397216796875,-18.61572265625
0.9574999000000001,0.49380409717559814,-0.6751648783683777,10.039485931396484,-1.40380859375,1.983642578125,-0.18310546875
0.9624999,0.023942016065120697,1.3198037147521973,10.56381607055664,-8.36181640625,-5.31005859375,-1.46484375
0.9674999,-0.4866214990615845,1.3467384576797485,10.222043991088867,-38.4521484375,-14.312744140625,8.026123046875
0.9724999,-0.5961562395095825,-0.1173158809542656,9.278728485107422,-12.481689453125,-6.622314453125,3.753662109375
0.9774999,-0.2106897532939911,-1.9614497423171997,8.758588790893555,4.57763671875,-7.415771484375,21.728515625
0.9824999,0.35494041442871094,-2.648585557937622,8.071452140808105,1.556396484375,-4.08935546875,35.675048828125
0.9874999,0.6817489266395569,-2.937685489654541,8.577227592468262,21.78955078125,-0.457763671875,6.34765625
0.9924999,0.7589619159698486,-2.297835111618042,8.646659851074219,10.1318359375,-3.814697265625,6.988525390625
0.9974999,0.768538773059845,-1.3988122940063477,9.389460563659668,13.214111328125,-3.753662109375,-1.190185546875
1.0024999,0.7374141216278076,-0.5422866940498352,9.909002304077148,5.55419921875,3.84521484375,-18.61572265625
1.0074999000000002,0.7948749661445618,-0.19213469326496124,10.137648582458496,0.67138671875,5.340576171875,-9.3994140625
1.0124999000000001,0.9528923034667969,-0.2513911724090576,10.042478561401367,6.28662109375,4.08935546875,-9.6435546875
1.0174999000000002,0.9133879542350769,-0.8678981065750122,10.090363502502441,18.24951171875,12.14599609375,-28.80859375
1.0224999000000001,0.718859076499939,-0.5297171473503113,9.815628051757812,16.11328125,14.556884765625,-17.578125
1.0274999,0.45848962664604187,-0.49978959560394287,10.02811336517334,-1.64794921875,0.946044921875,0.640869140625
1.0324999000000001,-0.6757634282112122,1.278503656387329,9.999382972717285,-38.970947265625,-6.011962890625,-8.453369140625
1.0374999,-0.536899745464325,0,9.323619842529297,-11.810302734375,-6.53076171875,5.859375
1.0424999000000001,-0.24839842319488525,-1.9255367517471313,8.929773330688477,4.425048828125,-7.4462890625,20.1416015625
1.0474999,0.2663549482822418,-2.667739152908325,8.057685852050781,-0.823974609375,-4.608154296875,35.125732421875
1.0524999000000002,0.5716156363487244,-3.0107085704803467,8.692748069763184,20.99609375,-1.708984375,10.43701171875
1.0574999,0.7092822790145874,-2.2882583141326904,8.543708801269531,10.55908203125,-3.11279296875,6.2255859375
1.0624999000000002,0.750582218170166,-1.3425486087799072,9.455899238586426,13.671875,-3.021240234375,6.9580078125
1.0674999,0.7463923692703247,-0.424970805644989,9.821015357971191,3.387451171875,1.220703125,-7.354736328125
1.0724999000000002,0.8349778652191162,-0.10953472554683685,10.140641212463379,-1.434326171875,4.8828125,-15.56396484375
1.0774999,0.8936358094215393,-0.2717418968677521,10.019734382629395,5.79833984375,5.584716796875,-6.744384765625
1.0824999000000002,0.961870551109314,-0.9115923047065735,9.992799758911133,16.2353515625,9.979248046875,-23.284912109375
1.0874999,0.4279635548591614,-0.6697779297828674,10.012551307678223,-0.640869140625,3.84521484375,1.007080078125
1.0924999000000002,0.35913026332855225,0.9510966539382935,10.298060417175293,-5.37109375,-4.608154296875,-1.739501953125
1.0974999,-0.26096799969673157,1.104325532913208,10.17176628112793,-29.144287109375,-10.009765625,9.765625
1.1024999000000002,-0.32620999217033386,0.7978677153587341,9.888052940368652,-38.39111328125,-4.730224609375,-3.7841796875
1.1074999,-0.424970805644989,-0.19273324310779572,9.182361602783203,-12.908935546875,-4.39453125,9.3994140625
1.1124999000000002,-0.39145198464393616,-1.9081788063049316,8.9680814743042,5.859375,-7.354736328125,20.20263671875
1.1174999,0.009576806798577309,-2.5953147411346436,8.05050277709961,0.701904296875,-4.974365234375,31.036376953125
1.1224999000000002,0.23283611238002777,-2.8191723823547363,8.797493934631348,18.402099609375,-3.387451171875,16.815185546875
1.1274999,0.49380409717559814,-2.0847511291503906,8.539519309997559,9.82666015625,-3.662109375,7.476806640625
1.1324999000000002,0.6236895322799683,-1.1073182821273804,9.487024307250977,12.420654296875,-4.638671875,12.3291015625
1.1374999000000001,0.7026981711387634,-0.27712884545326233,9.799467086791992,4.608154296875,-1.800537109375,0.06103515625
1.1424999000000002,0.8595184087753296,-0.20949265360832214,10.110713958740234,3.47900390625,4.82177734375,-6.65283203125
1.1474999000000001,0.9911994934082031,-0.8403648138046265,9.968857765197754,12.3291015625,5.79833984375,-16.9677734375
1.1524999000000002,0.7978677153587341,-0.8487445116043091,9.90361499786377,16.66259765625,12.542724609375,-25.787353515625
1.1574999000000001,0.536899745464325,-0.8379706144332886,9.865906715393066,2.44140625,6.744384765625,-3.41796875
1.1624999,0.4495113790035248,0.23104046285152435,10.120290756225586,-4.180908203125,-2.8076171875,-2.13623046875
1.1674999000000001,-0.02274491637945175,0.40940847992897034,10.00716495513916,-18.1884765625,-6.195068359375,6.988525390625
1.1724999,-0.22625206410884857,0.13766659796237946,9.989806175231934,-36.834716796875,-6.744384765625,-0.579833984375
1.1774999000000002,-0.3477577865123749,-0.608127236366272,9.369110107421875,-17.51708984375,-2.74658203125,5.584716796875
1.1824999,-0.41359832882881165,-1.7483657598495483,9.406818389892578,2.899169921875,-7.843017578125,18.585205078125
1.1874999000000002,-0.10534487664699554,-2.011129379272461,8.560467720031738,1.40380859375,-5.43212890625,24.810791015625
1.1924999,0.07302315533161163,-2.100313425064087,9.149441719055176,10.8642578125,-6.195068359375,25.2685546875
1.1974999000000002,0.40282443165779114,-1.489791989326477,8.722076416015625,8.758544921875,-4.608154296875,10.1318359375
1.2024999,0.9217676520347595,0.07062894850969315,9.971251487731934,-1.3427734375,0.457763671875,-5.0048828125
1.2074999000000002,0.9433154463768005,-0.2759317457675934,10.027515411376953,1.251220703125,6.4697265625,-10.498046875
1.2124999,0.9648633003234863,-0.889445960521698,9.86351203918457,9.46044921875,3.753662109375,-9.6435546875
1.2174999000000002,0.8331822156906128,-1.1982979774475098,9.823410034179688,16.05224609375,9.09423828125,-25.634765625
1.2224999,0.6230909824371338,-1.035492181777954,9.714473724365234,7.537841796875,11.138916015625,-14.373779296875
1.2274999000000002,0.4985924959182739,-0.2974795699119568,9.936535835266113,-2.74658203125,1.28173828125,-0.48828125
1.2324999,0.15442600846290588,0.882861852645874,10.517727851867676,-7.293701171875,-4.0283203125,-0.732421875
1.2374999000000002,-0.10953472554683685,0.6314706802368164,10.266336441040039,-29.754638671875,-8.23974609375,5.889892578125
1.2424999,-0.3513490855693817,0.15442600846290588,10.337564468383789,-18.37158203125,-1.03759765625,-0.823974609375
1.2474999000000002,-0.2669534981250763,-0.9151836037635803,9.846753120422363,3.11279296875,-5.126953125,16.021728515625
1.2524999,-0.14365209639072418,-1.8441338539123535,9.336788177490234,1.861572265625,-6.011962890625,15.350341796875
1.2574999000000002,0.40222588181495667,-1.5185223817825317,9.264962196350098,5.2490234375,-4.974365234375,13.73291015625
1.2624999000000001,0.5650315880775452,-0.9738415479660034,9.437344551086426,6.7138671875,-6.134033203125,18.829345703125
1.2674999000000002,0.7972691655158997,-0.5841852426528931,9.582193374633789,12.02392578125,-6.622314453125,21.91162109375
1.2724999000000001,0.8708908557891846,-0.26815059781074524,9.75397777557373,2.288818359375,-1.89208984375,4.974365234375
1.2774999000000002,0.8924387097358704,-0.2669534981250763,9.877877235412598,-0.67138671875,5.18798828125,-11.688232421875
1.2824999000000001,0.8337807655334473,-0.5985504388809204,9.854534149169922,3.7841796875,4.2724609375,-7.659912109375
1.2874999,0.838569164276123,-0.9810241460800171,9.800065994262695,10.040283203125,5.767822265625,-17.63916015625
1.2924999000000001,0.7182605266571045,-0.950498104095459,9.84495735168457,10.101318359375,12.176513671875,-26.18408203125
1.2974999,0.5482721924781799,-0.8050503134727478,9.827000617980957,1.068115234375,6.866455078125,-7.843017578125
1.3024999000000002,0.49140989780426025,0.10714052617549896,10.101137161254883,-3.23486328125,-0.48828125,-4.94384765625
1.3074999,0.023942016065120697,0.152031809091568,10.153210639953613,-14.556884765625,-2.838134765625,5.035400390625
1.3124999000000002,-0.16879121959209442,-0.07661445438861847,9.9772367477417,-21.91162109375,-4.82177734375,-0.8544921875
1.3174999,-0.3250128924846649,-1.1234791278839111,9.567828178405762,-2.410888671875,-7.32421875,13.336181640625
1.3224999000000002,-0.228047713637352,-1.2533645629882812,9.639056205749512,-2.3193359375,-5.645751953125,15.869140625
1.3274999,0.24480712413787842,-1.2120646238327026,9.437943458557129,-3.570556640625,-7.659912109375,21.820068359375
1.3324999000000002,0.5452794432640076,-1.004966139793396,9.48343276977539,3.72314453125,-7.781982421875,27.740478515625
1.3374999,0.8649053573608398,-0.9427168965339661,9.501389503479004,11.077880859375,-3.7841796875,21.636962890625
1.3424999000000002,1.0157400369644165,-0.7164648771286011,9.561842918395996,5.706787109375,-2.655029296875,13.153076171875
1.3474999,0.9217676520347595,-0.6607996821403503,9.704896926879883,0.9765625,2.471923828125,-3.7841796875
1.3524999000000002,0.7996633648872375,-0.690727174282074,9.784503936767578,2.13623046875,6.28662109375,-11.383056640625
1.3574999,0.7272387742996216,-0.9858125448226929,9.81263542175293,6.317138671875,4.2724609375,-9.857177734375
1.3624999000000002,0.7463923692703247,-1.0372878313064575,9.727641105651855,9.6435546875,9.246826171875,-23.284912109375
1.3674999,0.6697779297828674,-0.9870096445083618,9.822811126708984,7.354736328125,14.068603515625,-22.27783203125
1.3724999000000002,0.5518634915351868,-0.4034229815006256,9.959878921508789,0.518798828125,5.92041015625,-5.18798828125
1.3774999,-0.3818751573562622,-1.6573861837387085,9.420584678649902,-0.9765625,-7.110595703125,17.7001953125
1.3824999000000002,0.0293289702385664,-1.6376339197158813,9.258976936340332,-2.044677734375,-6.53076171875,20.172119140625
1.3874999000000001,0.414795458316803,-1.4209587574005127,9.285911560058594,0.91552734375,-8.453369140625,30.975341796875
1.3924999000000002,0.7098808288574219,-1.2132617235183716,9.416994094848633,12.603759765625,-4.8828125,29.1748046875
1.3974999000000001,0.9074024558067322,-0.9145850539207458,9.466673851013184,10.92529296875,-3.23486328125,15.655517578125
1.4024999000000002,0.8930372595787048,-0.639850378036499,9.673771858215332,2.777099609375,0.274658203125,-4.39453125
1.4074999000000001,0.8134300112724304,-0.47824180126190186,9.837176322937012,1.220703125,6.8359375,-15.56396484375
1.4124999,0.7954735159873962,-0.5650315880775452,9.86889934539795,5.0048828125,5.55419921875,-6.8359375
1.4174999000000001,0.8373720645904541,-0.8056488633155823,9.793481826782227,8.7890625,6.89697265625,-22.4609375
1.4224999,0.5919663906097412,-0.4776432514190674,9.9185791015625,1.8310546875,6.561279296875,-7.904052734375
1.4274999000000002,0.3519476354122162,0.8194155097007751,10.336965560913086,-4.638671875,-0.762939453125,0.54931640625
1.4324999,-0.038307227194309235,0.4411316514015198,10.411784172058105,-23.651123046875,-8.4228515625,5.096435546875
1.4374999000000002,-0.33937808871269226,0.30705636739730835,10.316615104675293,-17.730712890625,-2.471923828125,-0.640869140625
1.4424999,-0.36810851097106934,-1.4939818382263184,9.57201862335205,-3.021240234375,-8.941650390625,16.9677734375
1.4474999000000002,-0.12389993667602539,-1.7244237661361694,9.424176216125488,-0.396728515625,-8.270263671875,20.32470703125
1.4524999,0.23044191300868988,-1.6549919843673706,9.170391082763672,-0.732421875,-9.185791015625,21.820068359375
1.4574999000000002,0.23044191300868988,-1.6549919843673706,9.170391082763672,-0.732421875,-9.185791015625,21.820068359375
1.4624999,0.5434837937355042,-1.3880383968353271,9.370905876159668,12.20703125,-7.415771484375,32.257080078125
1.4674999000000002,0.8918401598930359,-1.1013327836990356,9.361329078674316,9.33837890625,-5.92041015625,19.95849609375
1.4724999,0.9738415479660034,-0.7763199210166931,9.616909980773926,1.678466796875,-0.8544921875,-1.3427734375
1.4774999000000002,0.93254154920578,-0.6991068720817566,9.804255485534668,5.55419921875,4.913330078125,-7.87353515625
1.4824999,0.9199720025062561,-1.0696096420288086,9.719860076904297,8.514404296875,6.53076171875,-23.590087890625
1.4874999000000002,0.8732850551605225,-0.7092822790145874,9.88625717163086,9.979248046875,14.0380859375,-28.472900390625
1.4924999,0.5823895931243896,-0.6332663297653198,9.87967300415039,1.220703125,6.317138671875,-10.040283203125
1.4974999000000002,0.4429273009300232,0.8367735147476196,10.391433715820312,-5.37109375,-0.48828125,2.685546875
1.5024999,-0.0071826050989329815,0.42856210470199585,10.404003143310547,-22.735595703125,-7.476806640625,0.30517578125
1.5074999000000002,-0.33099839091300964,0.4124012291431427,10.299257278442383,-15.777587890625,0.30517578125,1.190185546875
1.5124999000000001,-0.27653029561042786,-0.5380968451499939,10.037092208862305,1.40380859375,-3.265380859375,13.763427734375
1.5174999000000002,-0.2992752194404602,-1.390432596206665,9.561244010925293,-3.173828125,-7.2021484375,16.937255859375
1.5224999000000001,0.26755204796791077,-1.590348482131958,9.170989990234375,-1.52587890625,-8.48388671875,18.798828125
1.5274999000000002,0.26755204796791077,-1.590348482131958,9.170989990234375,-1.52587890625,-8.48388671875,18.798828125
1.5324999000000001,0.9056068062782288,-0.71766197681427,9.90361499786377,10.07080078125,15.594482421875,-24.444580078125
1.5374999000000003,0.646434485912323,-0.6542156338691711,9.897629737854004,1.556396484375,6.65283203125,-9.246826171875
1.5424999000000001,0.3693056106567383,0.882861852645874,10.366893768310547,-3.84521484375,1.03759765625,2.655029296875
1.5474999,-0.09576806426048279,0.1999158412218094,10.216058731079102,-21.453857421875,-5.92041015625,-0.579833984375
1.5524999000000002,-0.4854243993759155,0.23942017555236816,10.105326652526855,-12.75634765625,0.762939453125,3.23486328125
1.5574999,-0.38307225704193115,-0.8331822156906128,9.695918083190918,2.227783203125,-3.326416015625,13.702392578125
1.5624999000000002,-0.3818751573562622,-1.5352818965911865,9.370306968688965,-2.838134765625,-6.622314453125,18.06640625
1.5674999,0.8236053586006165,-0.6266822814941406,9.725846290588379,0.30517578125,4.791259765625,-7.9345703125
1.5724999000000002,0.8236053586006165,-0.6266822814941406,9.725846290588379,0.30517578125,4.791259765625,-7.9345703125
1.5774999,0.9145850539207458,-0.6123170852661133,9.770736694335938,5.157470703125,4.852294921875,-7.781982421875
1.5824999000000002,0.9080010056495667,-0.7799112200737,9.770736694335938,10.55908203125,8.7890625,-21.697998046875
1.5874999,0.7841010689735413,-0.5207388401031494,9.819818496704102,7.965087890625,12.237548828125,-17.303466796875
1.5924999000000002,0.6093243360519409,-0.5033808946609497,9.911994934082031,-0.244140625,4.638671875,-3.84521484375
1.5974999,0.27892449498176575,0.6482301354408264,10.170568466186523,-2.74658203125,0.213623046875,1.251220703125
1.6024999000000002,-0.07302315533161163,0.4016273319721222,10.465055465698242,-18.768310546875,-6.072998046875,-1.03759765625
1.6074999,-0.4321534037590027,0.1041477769613266,10.234613418579102,-20.843505859375,-2.197265625,0.06103515625
1.6124999000000002,-0.3124433159828186,-1.4101848602294922,9.654618263244629,-1.190185546875,-6.16455078125,13.580322265625
1.6174999,-0.03711012750864029,-1.7268179655075073,9.360730171203613,0.518798828125,-3.387451171875,16.143798828125
1.6224999000000002,0.2902969419956207,-1.8010382652282715,9.169792175292969,-0.701904296875,-6.011962890625,15.716552734375
1.6274999,0.49799394607543945,-1.6226701736450195,9.278130531311035,9.185791015625,-5.43212890625,13.427734375
1.6324999000000002,0.7589619159698486,-1.3772644996643066,9.353547096252441,9.70458984375,-0.8544921875,-3.84521484375
1.6374999000000001,0.8744821548461914,-0.8164227604866028,9.605537414550781,5.157470703125,3.35693359375,-8.97216796875
1.6424999000000002,0.9780313968658447,-0.4602852761745453,9.755773544311523,-0.152587890625,3.875732421875,-10.43701171875
1.6474999000000001,0.9660604000091553,-0.33039984107017517,9.862914085388184,2.8076171875,4.45556640625,-6.103515625
1.6524999000000002,0.9929951429367065,-0.5422866940498352,9.81263542175293,8.11767578125,6.7138671875,-16.54052734375
1.6574999000000001,0.7966706156730652,-0.596754789352417,9.877877235412598,8.697509765625,11.77978515625,-20.294189453125
1.6624999000000003,0.5704185366630554,-0.5811924338340759,9.90241813659668,0.518798828125,5.7373046875,-1.861572265625
1.6674999000000001,0.44831427931785583,0.09576806426048279,10.081384658813477,-3.082275390625,-1.40380859375,-3.204345703125
1.6724999,-0.17238251864910126,-0.017956512048840523,10.137049674987793,-18.98193359375,-1.708984375,-4.7607421875
1.6774999000000002,-0.3298012912273407,-0.3411737382411957,10.208277702331543,-1.46484375,-3.90625,12.51220703125
1.6824999,-0.304063618183136,-0.9481038451194763,9.77133560180664,-4.119873046875,-8.026123046875,11.077880859375
1.6874999000000002,-0.21607670187950134,-1.092953085899353,9.713275909423828,-1.15966796875,-3.143310546875,18.1884765625
1.6924999,0.17896658182144165,-1.2731167078018188,9.390657424926758,-2.471923828125,-4.974365234375,17.852783203125
1.6974999000000002,0.3992331326007843,-1.2545616626739502,9.43255615234375,6.256103515625,-5.950927734375,17.2119140625
1.7024999,0.6446388363838196,-1.27191960811615,9.381080627441406,8.819580078125,-2.5634765625,0.48828125
1.7074999000000002,0.778714120388031,-0.9271546006202698,9.533112525939941,7.01904296875,2.13623046875,-6.77490234375
1.7124999,0.8846575021743774,-0.6254851818084717,9.695320129394531,1.953125,3.692626953125,-10.92529296875
1.7174999000000002,0.9020155072212219,-0.34177228808403015,9.810839653015137,0.79345703125,3.7841796875,-7.476806640625
1.7224999,0.9498994946479797,-0.6039373874664307,9.79647445678711,4.974365234375,4.2724609375,-9.857177734375
1.7274999000000002,0.9115923047065735,-0.5440823435783386,9.892841339111328,10.19287109375,9.82666015625,-22.918701171875
1.7324999,0.5494692921638489,-0.14245499670505524,9.94970417022705,-2.349853515625,0.335693359375,0.640869140625
1.7374999000000002,0.16759411990642548,0.3166331648826599,10.141838073730469,-8.453369140625,-3.2958984375,-0.18310546875
1.7424999,-0.07721300423145294,-0.21368250250816345,9.930550575256348,-24.2919921875,-3.11279296875,2.685546875
1.7474999000000002,-0.28969839215278625,-0.30466216802597046,10.029909133911133,-4.57763671875,0.79345703125,0.54931640625
1.7524999,-0.22505496442317963,-1.0983400344848633,9.740211486816406,2.0751953125,-7.110595703125,14.5263671875
1.7574999000000002,-0.18794482946395874,-1.2282254695892334,9.6989107131958,-3.692626953125,-5.06591796875,15.869140625
1.7624999000000001,0.8361749649047852,-0.406415730714798,9.723451614379883,1.129150390625,3.814697265625,-9.09423828125
1.7674999000000002,0.6799532771110535,-0.821809709072113,9.86889934539795,8.758544921875,10.68115234375,-20.477294921875
1.7724999000000001,0.5440823435783386,-0.6105214357376099,9.892242431640625,0.91552734375,4.302978515625,-2.86865234375
1.7774999000000002,0.4183867573738098,-0.0694318488240242,10.183138847351074,-3.41796875,-2.471923828125,-2.01416015625
1.7824999000000001,-0.012569558806717396,0.026336219161748886,10.196905136108398,-15.19775390625,-4.2724609375,7.62939453125
1.7874999000000003,-0.13347674906253815,-0.2495955228805542,10.005369186401367,-14.70947265625,-2.655029296875,-6.134033203125
1.7924999000000001,-0.3705027103424072,-0.5321113467216492,9.830592155456543,3.143310546875,-2.593994140625,12.847900390625
1.7974999,-0.27234044671058655,-1.0905588865280151,9.480440139770508,-1.922607421875,-6.988525390625,11.749267578125
1.8024999000000002,-0.228047713637352,-1.0283095836639404,9.440936088562012,-0.213623046875,-3.570556640625,18.24951171875
1.8074999,0.10953472554683685,-1.1605892181396484,9.320627212524414,-2.01416015625,-5.67626953125,14.6484375
1.8124999000000002,0.3016694188117981,-1.0001777410507202,9.473258018493652,5.859375,-4.69970703125,9.09423828125
1.8174999,0.6326677799224854,-1.1127052307128906,9.479841232299805,6.40869140625,-3.23486328125,-3.509521484375
1.8224999000000002,0.9546879529953003,-0.4321534037590027,9.818621635437012,0.457763671875,3.41796875,-6.988525390625
1.8274999,0.9810241460800171,-0.6775590777397156,9.834183692932129,4.8828125,4.669189453125,-9.1552734375
1.8324999000000002,0.8732850551605225,-0.8020575642585754,9.77253246307373,8.85009765625,9.3994140625,-20.904541015625
1.8374999,0.70090252161026,-0.568622887134552,9.795876502990723,6.744384765625,9.765625,-11.688232421875
1.8424999000000002,0.46986207365989685,-0.26815059781074524,9.88506031036377,-2.532958984375,1.251220703125,0.67138671875
1.8474999,0.19273324310779572,0.5596446394920349,10.155006408691406,-6.072998046875,-2.197265625,-0.946044921875
1.8524999000000002,-0.17956513166427612,-0.2064998894929886,9.961075782775879,-16.326904296875,-2.410888671875,-1.3427734375
1.8574999,-0.3627215623855591,-0.12030863761901855,10.189722061157227,-3.72314453125,-0.18310546875,3.2958984375
1.8624999000000002,-0.32860419154167175,-0.9911994934082031,9.82759952545166,-0.762939453125,-6.2255859375,11.077880859375
1.8674999,-0.2944868206977844,-0.9391255974769592,9.907805442810059,-2.105712890625,-5.279541015625,15.045166015625
1.8724999000000002,0.2148796021938324,-0.9612720012664795,9.68574333190918,-0.9765625,-4.241943359375,14.129638671875
1.8774999,0.5638344883918762,-1.2066776752471924,9.543886184692383,7.8125,-3.11279296875,0.701904296875
1.8824999000000002,0.6871358752250671,-1.1749545335769653,9.520543098449707,5.9814453125,0.335693359375,-3.692626953125
1.8874999000000001,0.8535329103469849,-0.8236053586006165,9.606734275817871,4.57763671875,3.631591796875,-3.875732421875
1.8924999000000002,0.900818407535553,-0.5494692921638489,9.718663215637207,0.640869140625,1.800537109375,-11.993408203125
1.8974999000000001,0.8361749649047852,-0.3944447338581085,9.787496566772461,0,1.678466796875,-4.486083984375
1.9024999000000002,0.8415619134902954,-0.6344634294509888,9.815030097961426,4.730224609375,4.364013671875,-10.498046875
1.9074999000000001,0.7571662664413452,-0.5273229479789734,9.823410034179688,8.544921875,9.246826171875,-18.5546875
1.9124999000000003,0.6320692300796509,-0.5895721912384033,9.834183692932129,3.387451171875,5.9814453125,-7.2021484375
1.9174999000000001,0.4967968463897705,-0.090979665517807,9.950302124023438,-2.960205078125,0.091552734375,-2.01416015625
1.9224999,0.1951274424791336,0.12629413604736328,9.955689430236816,-6.9580078125,-0.91552734375,1.03759765625
1.9274999000000002,-0.025737667456269264,-0.31124621629714966,9.86770248413086,-16.204833984375,-3.570556640625,-4.058837890625
1.9324999,-0.2298433631658554,-0.8864531517028809,9.657012939453125,-1.46484375,-5.523681640625,11.3525390625
1.9374999000000002,-0.21368250250816345,-0.8487445116043091,9.810839653015137,-2.25830078125,-4.638671875,14.5263671875
1.9424999,0.07182604819536209,-1.0007762908935547,9.597756385803223,-5.9814453125,-4.33349609375,14.34326171875
1.9474999000000002,0.24480712413787842,-1.0169371366500854,9.689932823181152,2.13623046875,-3.2958984375,13.97705078125
1.9524999,0.5620388388633728,-1.2635399103164673,9.53849983215332,7.99560546875,-2.288818359375,-1.312255859375
1.9574999000000002,0.6655880808830261,-1.14742112159729,9.573814392089844,5.889892578125,1.40380859375,-2.01416015625
1.9624999,0.8343793153762817,-0.7823054194450378,9.672574996948242,3.875732421875,3.47900390625,-4.638671875
1.9674999000000002,0.8774749040603638,-0.5111620426177979,9.763554573059082,0.91552734375,2.13623046875,-10.650634765625
1.9724999,0.8134300112724304,-0.4106055796146393,9.809642791748047,0.79345703125,2.960205078125,-5.462646484375
1.9774999000000002,0.8212111592292786,-0.7015010714530945,9.80904483795166,5.645751953125,5.55419921875,-10.528564453125
1.9824999,0.7469909191131592,-0.5644330382347107,9.815628051757812,9.613037109375,9.674072265625,-17.822265625
1.9874999000000002,0.6057330369949341,-0.6332663297653198,9.817423820495605,3.84521484375,6.439208984375,-6.04248046875
1.9924999,-0.12988543510437012,-0.6703764796257019,9.86231517791748,-1.28173828125,-4.7607421875,11.627197265625
1.9974999000000002,-0.18495208024978638,-0.7212532758712769,9.931747436523438,-3.23486328125,-4.57763671875,14.495849609375
2.0024999,0.046088382601737976,-0.8661024570465088,9.713874816894531,-6.34765625,-4.058837890625,14.801025390625
2.0074999,0.2214636504650116,-1.0031704902648926,9.75517463684082,2.685546875,-3.5400390625,13.97705078125
2.0124999000000003,0.4884171485900879,-1.2671312093734741,9.558850288391113,7.14111328125,-1.64794921875,-2.38037109375
2.0174999000000002,0.6218938827514648,-1.1797429323196411,9.549273490905762,5.828857421875,1.5869140625,0.06103515625
2.0224999,0.8008604645729065,-0.7835025191307068,9.660005569458008,4.180908203125,2.38037109375,-5.06591796875
2.0274999,0.8224082589149475,-0.5015852451324463,9.745597839355469,0.42724609375,1.3427734375,-10.498046875
2.0324999000000004,0.8032546639442444,-0.3627215623855591,9.81263542175293,0.030517578125,2.44140625,-5.126953125
2.0374999000000003,0.7380126714706421,-0.4967968463897705,9.835979461669922,9.063720703125,8.48388671875,-17.02880859375
2.0424999,0.5943605899810791,-0.5973533391952515,9.828198432922363,2.86865234375,4.5166015625,-5.615234375
2.0474999,0.5943605899810791,-0.5973533391952515,9.828198432922363,2.86865234375,4.5166015625,-5.615234375
2.0524999,0.42616790533065796,-0.0077811554074287415,9.967659950256348,-3.082275390625,-0.274658203125,-1.5869140625
2.0574999000000003,0.1412578970193863,0.16220717132091522,9.962871551513672,-7.781982421875,-2.471923828125,1.953125
2.0624999,-0.009576806798577309,-0.1693897694349289,9.989806175231934,-15.2587890625,-4.638671875,-5.035400390625
2.0674999,-0.22864626348018646,-0.3148375153541565,9.923966407775879,-1.220703125,-1.068115234375,5.43212890625
2.0724999,-0.12270283699035645,-0.7218518257141113,9.84495735168457,-1.312255859375,-5.0048828125,11.8408203125
2.0774999000000003,-0.12090718746185303,-0.828393816947937,9.889848709106445,-2.99072265625,-4.82177734375,14.5263671875
2.0824999,0.7948749661445618,-0.31783026456832886,9.813234329223633,0.54931640625,2.532958984375,-5.31005859375
2.0874999,0.7948749661445618,-0.31783026456832886,9.813234329223633,0.54931640625,2.532958984375,-5.31005859375
2.0924999,0.8343793153762817,-0.595557689666748,9.819818496704102,5.523681640625,5.340576171875,-10.772705078125
2.0974999000000003,0.7631517648696899,-0.4812345504760742,9.819219589233398,9.124755859375,9.246826171875,-17.120361328125
2.1024999,0.5919663906097412,-0.5656301379203796,9.810839653015137,3.173828125,5.18798828125,-5.126953125
2.1074999,0.44592007994651794,-0.011971008032560349,9.931747436523438,-3.265380859375,-0.213623046875,-1.52587890625
2.1124999,0.1173158809542656,-0.012569558806717396,9.910199165344238,-7.9345703125,-1.739501953125,2.105712890625
2.1174999000000003,-0.020949264988303185,-0.3687070608139038,9.911396026611328,-13.427734375,-3.692626953125,-4.94384765625
2.1224999,-0.27234044671058655,-0.7410054206848145,9.798869132995605,0.3662109375,-0.579833984375,7.26318359375
2.1274999,-0.12928688526153564,-0.9445125460624695,9.724050521850586,-0.9765625,-5.035400390625,10.711669921875
2.1324999,-0.19931729137897491,-0.9840168952941895,9.79288387298584,-3.23486328125,-4.058837890625,14.923095703125
2.1374999000000003,0.5069721937179565,-1.1510124206542969,9.600150108337402,6.591796875,-1.46484375,-2.899169921875
2.1424999000000002,0.5919663906097412,-1.0109516382217407,9.619303703308105,4.669189453125,1.52587890625,0.152587890625
2.1474999,0.7745242714881897,-0.6482301354408264,9.716269493103027,3.84521484375,2.197265625,-5.18798828125
2.1524999,0.7882909178733826,-0.41958385705947876,9.780912399291992,0.79345703125,1.28173828125,-10.7421875
2.1574999000000004,0.7463923692703247,-0.35254621505737305,9.809642791748047,-0.030517578125,2.227783203125,-4.8828125
2.1624999000000003,0.729034423828125,-0.5267243981361389,9.814431190490723,8.60595703125,8.148193359375,-17.913818359375
2.1674999,0.729034423828125,-0.5267243981361389,9.814431190490723,8.60595703125,8.148193359375,-17.913818359375
2.1724999,0.5728127360343933,-0.5901707410812378,9.816825866699219,3.387451171875,4.8828125,-5.157470703125
2.1774999000000004,0.44592007994651794,-0.06763619929552078,9.94970417022705,-3.5400390625,-1.46484375,-1.708984375
2.1824999000000003,0.14245499670505524,-0.0520738884806633,9.873687744140625,-7.6904296875,-3.0517578125,2.74658203125
2.1874999,0.011971008032560349,-0.4124012291431427,9.897629737854004,-11.90185546875,-3.875732421875,-6.34765625
2.1924999,0.05267243832349777,-0.9301473498344421,9.654019355773926,-5.55419921875,-5.035400390625,14.617919921875
2.1974999,0.2059013396501541,-0.9115923047065735,9.75936508178711,2.685546875,-3.5400390625,10.19287109375
2.2024999000000003,0.5159504413604736,-1.1683704853057861,9.609128952026367,5.2490234375,-2.38037109375,-1.64794921875
2.2074999,0.6200982332229614,-1.0313023328781128,9.628880500793457,3.662109375,1.40380859375,0
2.2124999,0.8529343605041504,-0.7164648771286011,9.709086418151855,3.509521484375,2.899169921875,-6.256103515625
2.2174999,0.8331822156906128,-0.4878185987472534,9.751583099365234,0.9765625,2.13623046875,-10.55908203125
2.2224999000000003,0.7805097699165344,-0.39863458275794983,9.781511306762695,0.152587890625,2.532958984375,-5.18798828125
2.2274999,0.7745242714881897,-0.6643909811973572,9.7791166305542,3.753662109375,4.364013671875,-8.941650390625
2.2324999,0.7428010702133179,-0.6063315868377686,9.766547203063965,7.99560546875,8.48388671875,-17.669677734375
2.2374999,0.0802057534456253,-0.25318682193756104,9.95209789276123,-12.176513671875,-2.74658203125,-5.462646484375
2.2424999000000003,-0.20350714027881622,-0.22744916379451752,9.949105262756348,-0.8544921875,-0.1220703125,2.197265625
2.2474999,-0.1346738487482071,-0.7380126714706421,9.858723640441895,-0.79345703125,-4.058837890625,10.650634765625
2.2524999,-0.10594342648983002,-0.67815762758255,9.9000244140625,-3.143310546875,-4.638671875,14.312744140625
2.2574999,0.07242459803819656,-0.8942343592643738,9.773730278015137,-5.126953125,-3.692626953125,11.932373046875
2.2624999000000003,0.24480712413787842,-0.9660604000091553,9.75397777557373,2.410888671875,-2.197265625,12.054443359375
2.2674999000000002,0.48303020000457764,-1.2324153184890747,9.625288963317871,6.40869140625,-1.28173828125,1.40380859375
2.2724999,0.5626373887062073,-1.1761516332626343,9.599552154541016,5.18798828125,1.739501953125,0.8544921875
2.2774999,0.7098808288574219,-0.8248024582862854,9.688735961914062,4.08935546875,2.86865234375,-3.509521484375
2.2824999000000004,0.729034423828125,-0.4159925580024719,9.780912399291992,1.556396484375,1.495361328125,-8.697509765625
2.2874999000000003,0.5452794432640076,-0.31783026456832886,9.869498252868652,-1.708984375,1.129150390625,-2.288818359375
2.2924999,0.27054479718208313,0.6823474764823914,10.249577522277832,-4.425048828125,-1.15966796875,-0.732421875
2.2974999,0.05027823522686958,-0.1346738487482071,9.982624053955078,-12.115478515625,-4.119873046875,-1.8310546875
2.3024999000000004,-0.1885433793067932,0.09277531504631042,10.193313598632812,-3.84521484375,-0.701904296875,-1.953125
2.3074999000000003,-0.17537526786327362,-0.8661024570465088,9.805453300476074,0.54931640625,-3.143310546875,11.23046875
2.3124999,-0.152031809091568,-1.0492589473724365,9.766547203063965,-2.655029296875,-5.06591796875,14.09912109375
2.3174999,-0.004788403399288654,-1.2497732639312744,9.618106842041016,-6.439208984375,-5.31005859375,13.702392578125
2.3224999,0.17298106849193573,-1.1330559253692627,9.599552154541016,0.18310546875,-3.72314453125,13.641357421875
2.3274999000000003,0.406415730714798,-1.2641384601593018,9.552865028381348,6.103515625,-2.410888671875,2.25830078125
2.3324999,0.7182605266571045,-0.7984662652015686,9.67077922821045,3.35693359375,1.556396484375,-1.922607421875
2.3374999,0.7691373229026794,-0.3842693865299225,9.784503936767578,1.617431640625,1.190185546875,-9.552001953125
2.3424999,0.7924807667732239,-0.25079262256622314,9.865906715393066,-0.701904296875,1.068115234375,-6.500244140625
2.3474999000000003,0.7870938181877136,-0.375291109085083,9.86351203918457,1.556396484375,3.173828125,-6.744384765625
2.3524999,0.8439561128616333,-0.7924807667732239,9.843161582946777,6.561279296875,6.683349609375,-14.678955078125
2.3574999,0.7098808288574219,-0.5291185975074768,9.845556259155273,7.568359375,8.60595703125,-12.054443359375
2.3624999,0.5578489899635315,-0.596754789352417,9.88506031036377,-0.3662109375,1.64794921875,-2.166748046875
2.3674999000000003,0.3256114423274994,0.7182605266571045,10.133459091186523,-3.96728515625,-1.64794921875,-0.8544921875
2.3724999,-0.0035913025494664907,-0.01975216343998909,9.956886291503906,-11.5966796875,-3.84521484375,-0.152587890625
2.3774999,-0.18495208024978638,0.06404489278793335,9.989208221435547,-5.401611328125,-0.823974609375,-2.74658203125
2.3824999,-0.21847090125083923,-0.9917980432510376,9.64683723449707,0.732421875,-3.0517578125,11.23046875
2.3874999000000003,-0.166995570063591,-1.268328309059143,9.59177017211914,-1.953125,-4.852294921875,12.63427734375
2.3924999000000002,0.17836803197860718,-1.2934675216674805,9.535507202148438,-1.495361328125,-4.21142578125,14.862060546875
2.3974999,0.3968389332294464,-1.280897855758667,9.602544784545898,6.89697265625,-2.197265625,4.852294921875
2.4024999,0.6811503767967224,-0.4572925269603729,9.81143856048584,7.87353515625,8.880615234375,-12.02392578125
2.4074999000000004,0.5111620426177979,-0.4165911078453064,9.865906715393066,-1.373291015625,0.885009765625,-0.91552734375
2.4124999000000003,0.2998737692832947,0.7960720658302307,10.248380661010742,-4.5166015625,-2.349853515625,-1.007080078125
2.4174999,-0.03651157766580582,-0.11611878126859665,10.013748168945312,-13.458251953125,-4.180908203125,-1.556396484375
2.4224999,-0.17836803197860718,-0.9546879529953003,9.765350341796875,0.213623046875,-3.96728515625,11.322021484375
2.4274999000000004,-0.19273324310779572,-1.1294646263122559,9.754576683044434,-2.227783203125,-4.2724609375,13.885498046875
2.4324999000000003,0.05267243832349777,-1.3778630495071411,9.610325813293457,-5.889892578125,-4.45556640625,15.106201171875
2.4374999,0.21607670187950134,-1.212663173675537,9.610325813293457,-0.396728515625,-3.692626953125,15.5029296875
2.4424999,0.49559974670410156,-1.2832920551300049,9.57979965209961,7.75146484375,-1.495361328125,2.197265625
2.4474999,0.6141127347946167,-1.22642982006073,9.547477722167969,4.302978515625,1.190185546875,-3.90625
2.4524999000000003,0.7523778676986694,-0.7182605266571045,9.655815124511719,3.692626953125,3.143310546875,-1.28173828125
2.4574999,0.7918822169303894,-0.3597288131713867,9.754576683044434,1.46484375,1.129150390625,-12.26806640625
2.4624999,0.7236474752426147,-0.314238965511322,9.785101890563965,-0.67138671875,1.708984375,-6.317138671875
2.4674999,0.7841010689735413,-0.5303156971931458,9.808445930480957,3.96728515625,4.69970703125,-9.246826171875
2.4724999000000003,0.7374141216278076,-0.5596446394920349,9.800065994262695,9.368896484375,9.185791015625,-19.195556640625
2.4774999,0.5877765417098999,-0.5548562407493591,9.806650161743164,5.18798828125,6.500244140625,-7.904052734375
2.4824999,-0.22685061395168304,-1.0241197347640991,9.993996620178223,-2.62451171875,-3.72314453125,16.387939453125
2.4874999,0.11611878126859665,-1.0079588890075684,9.701904296875,-6.378173828125,-5.767822265625,13.48876953125
2.4924999000000003,0.19931729137897491,-0.7906851172447205,9.79408073425293,4.82177734375,-1.89208984375,15.625
2.4974999,0.6027402877807617,-1.128267526626587,9.607931137084961,7.293701171875,-0.640869140625,-5.79833984375
2.5024999,0.6338648796081543,-0.8702923059463501,9.621698379516602,3.326416015625,3.326416015625,-2.288818359375
2.5074999,0.8487445116043091,-0.4357447028160095,9.738415718078613,2.838134765625,2.960205078125,-6.256103515625
2.5124999000000003,0.8020575642585754,-0.31783026456832886,9.755773544311523,-0.030517578125,0.6103515625,-10.986328125
2.5174999000000002,0.7984662652015686,-0.5590460896492004,9.715670585632324,1.373291015625,3.265380859375,-5.218505859375
2.5224999,-0.2735375463962555,0.17238251864910126,10.159195899963379,-8.36181640625,-2.471923828125,0.54931640625
2.5274999,-0.24899697303771973,-0.7942764163017273,9.883264541625977,1.739501953125,-4.058837890625,12.63427734375
2.5324999000000004,-0.28311434388160706,-1.2228385210037231,9.768342971801758,-0.946044921875,-4.364013671875,14.83154296875
2.5374999000000003,0.0065840547904372215,-1.578976035118103,9.551667213439941,-6.317138671875,-6.256103515625,14.495849609375
2.5424999,0.18734627962112427,-1.346139907836914,9.557653427124023,-1.28173828125,-5.2490234375,16.54052734375
2.5474999,0.48722004890441895,-1.3305776119232178,9.592369079589844,9.033203125,-1.678466796875,4.39453125
2.5524999000000004,0.6655880808830261,-1.2749123573303223,9.551069259643555,4.058837890625,0.6103515625,-8.30078125
2.5574999000000003,0.8918401598930359,-0.3214215636253357,9.815030097961426,0.3662109375,0.54931640625,-13.12255859375
2.5624999,0.8224082589149475,-0.31603461503982544,9.806051254272461,0.18310546875,2.38037109375,-5.43212890625
2.5674999,0.9457096457481384,-0.6925228238105774,9.864709854125977,5.889892578125,6.256103515625,-14.129638671875
2.5724999,0.8104372620582581,-0.44592007994651794,9.843161582946777,10.8642578125,10.650634765625,-19.256591796875
2.5774999000000003,0.5907692909240723,-0.7733271718025208,9.851541519165039,0.8544921875,4.119873046875,-3.5400390625
2.5824999,0.4554968774318695,0.10055647045373917,9.97364616394043,-4.08935546875,-2.777099609375,-1.03759765625
2.5874999,0.01975216343998909,-0.005985504016280174,10.171167373657227,-10.711669921875,-4.486083984375,0.42724609375
2.5924999,-0.166995570063591,-0.3387795388698578,10.046669006347656,-12.603759765625,-3.72314453125,-3.11279296875
2.5974999000000003,-0.22385786473751068,-0.7858967185020447,10.105326652526855,1.220703125,-3.2958984375,12.8173828125
2.6024999,-0.22445641458034515,-0.9570821523666382,9.831191062927246,-0.946044921875,-5.584716796875,12.237548828125
2.6074999,-0.15442600846290588,-1.1683704853057861,9.751583099365234,-2.532958984375,-4.21142578125,16.571044921875
2.6124999,-0.15442600846290588,-1.1683704853057861,9.751583099365234,-2.532958984375,-4.21142578125,16.571044921875
2.6174999000000003,0.30885201692581177,-0.9654618501663208,9.576208114624023,7.720947265625,-2.593994140625,13.671875
2.6224999,0.7164648771286011,-1.2114660739898682,9.480440139770508,6.072998046875,-0.823974609375,-9.368896484375
2.6274999,0.7511807680130005,-0.6404489278793335,9.619902610778809,2.899169921875,3.7841796875,-2.50244140625
2.6324999,0.993593692779541,-0.34835633635520935,9.767744064331055,0.762939453125,1.861572265625,-10.528564453125
2.6374999000000003,0.8619126081466675,-0.34177228808403015,9.82640266418457,-0.1220703125,2.13623046875,-8.331298828125
2.6424999000000002,0.8601169586181641,-0.6506243348121643,9.853337287902832,10.1318359375,11.444091796875,-20.660400390625
2.6474999,0.8601169586181641,-0.6506243348121643,9.853337287902832,10.1318359375,11.444091796875,-20.660400390625
2.6524999,0.6356605291366577,-0.7535749673843384,9.849146842956543,4.45556640625,7.720947265625,-7.8125
2.6574999000000004,0.4668693244457245,-0.04249707981944084,9.8970308303833,-3.72314453125,-1.46484375,0.67138671875
2.6624999000000003,0.11192893236875534,-0.04429273307323456,9.855133056640625,-8.941650390625,-3.90625,-1.007080078125
2.6674999,-0.18794482946395874,-0.507570743560791,9.847352027893066,-14.434814453125,-3.173828125,-2.899169921875
2.6724999,-0.29807811975479126,-0.8319851160049438,9.849146842956543,0.8544921875,-1.40380859375,10.80322265625
2.6774999000000004,0.2064998894929886,-0.93254154920578,9.673172950744629,4.69970703125,-2.8076171875,16.021728515625
2.6824999000000003,0.6596025824546814,-1.1851298809051514,9.59835433959961,7.598876953125,-0.8544921875,-4.69970703125
2.6874999,0.6775590777397156,-0.8271966576576233,9.663596153259277,3.2958984375,3.082275390625,-6.011962890625
2.6924999,0.9403226971626282,-0.4189853072166443,9.775525093078613,0.946044921875,2.50244140625,-6.8359375
2.6974999,0.8535329103469849,-0.4118026793003082,9.824007987976074,-0.67138671875,1.15966796875,-10.498046875
2.7024999000000003,0.9181763529777527,-0.7092822790145874,9.821614265441895,3.90625,5.06591796875,-8.4228515625
2.7074999,0.8780734539031982,-0.702099621295929,9.808445930480957,9.307861328125,9.979248046875,-20.81298828125
2.7124999,0.6877344250679016,-0.6817489266395569,9.793481826782227,5.18798828125,8.148193359375,-11.29150390625
2.7174999,0.4620809257030487,-0.2041056901216507,9.864110946655273,-3.387451171875,-0.67138671875,0.579833984375
2.7224999000000003,-0.2651578485965729,-0.4129997789859772,9.8784761428833,-16.876220703125,-5.340576171875,-3.72314453125
2.7274999,0.7721300721168518,-0.790086567401886,9.66539192199707,2.899169921875,2.197265625,-8.544921875
2.7324999,0.7721300721168518,-0.790086567401886,9.66539192199707,2.899169921875,2.197265625,-8.544921875
2.7374999,1.0013748407363892,-0.33997663855552673,9.762357711791992,1.251220703125,3.35693359375,-5.18798828125
2.7424999000000003,0.9588778018951416,-0.3770867586135864,9.80904483795166,-1.190185546875,0.732421875,-13.275146484375
2.7474999,0.9145850539207458,-0.6242880821228027,9.692925453186035,2.44140625,4.69970703125,-7.049560546875
2.7524999,0.9510966539382935,-0.767341673374176,9.774328231811523,9.857177734375,10.467529296875,-21.54541015625
2.7574999,0.6883329749107361,-0.6949170231819153,9.729436874389648,6.072998046875,9.979248046875,-13.00048828125
2.7624999000000003,-0.1825578808784485,-0.2885012924671173,10.034697532653809,-16.29638671875,-3.570556640625,-3.7841796875
2.7674999000000002,-0.4405331015586853,-0.4884171485900879,10.178350448608398,-7.598876953125,-0.6103515625,3.0517578125
2.7724999,-0.3058592677116394,-1.3102269172668457,9.6803560256958,0.213623046875,-5.43212890625,11.627197265625
2.7774999,-0.34835633635520935,-1.5490485429763794,9.766547203063965,-1.373291015625,-3.41796875,16.265869140625
2.7824999000000004,0.09277531504631042,-1.5658079385757446,9.503185272216797,-6.622314453125,-6.2255859375,12.481689453125
2.7874999000000003,0.24660277366638184,-1.2228385210037231,9.604938507080078,0.48828125,-4.0283203125,16.6015625
2.7924999,0.6212953329086304,-1.2384008169174194,9.561244010925293,11.138916015625,-1.15966796875,0.640869140625
2.7974999,0.7422025203704834,-1.039083480834961,9.563638687133789,5.035400390625,2.410888671875,-10.19287109375
2.8024999000000004,0.8780734539031982,-0.3280056416988373,9.802460670471191,-0.732421875,0.18310546875,-12.725830078125
2.8074999000000003,0.8343793153762817,-0.49140989780426025,9.734824180603027,1.953125,3.265380859375,-5.92041015625
2.8124999,0.6200982332229614,-0.606930136680603,9.827000617980957,-2.197265625,1.28173828125,-0.579833984375
2.8174999,0.3250128924846649,0.8541314601898193,10.235212326049805,-3.60107421875,-2.25830078125,-0.396728515625
2.8224999,-0.10773907601833344,0.061052143573760986,10.078392028808594,-15.13671875,-4.638671875,-1.373291015625
2.8274999000000003,-0.3292027413845062,0.02274491637945175,10.06582260131836,-10.833740234375,-2.25830078125,2.349853515625
2.8324999,-0.28371289372444153,-1.0193313360214233,9.71926212310791,1.03759765625,-5.18798828125,12.75634765625
2.8374999,-0.33039984107017517,-1.3820528984069824,9.563638687133789,-0.274658203125,-3.021240234375,16.6015625
2.8424999,0.014365210197865963,-1.7322049140930176,9.384073257446289,-4.608154296875,-5.126953125,13.916015625
2.8474999000000003,0.24241292476654053,-1.4736311435699463,9.384073257446289,-1.373291015625,-5.279541015625,16.05224609375
2.8524999,0.5153518915176392,-1.3640964031219482,9.497200012207031,10.955810546875,-1.28173828125,6.805419921875
2.8574999,0.7218518257141113,-1.238999366760254,9.503185272216797,5.523681640625,1.678466796875,-11.29150390625
2.8624999,0.811634361743927,-0.5261258482933044,9.696516990661621,2.62451171875,3.265380859375,-2.197265625
2.8674999000000003,0.788889467716217,-0.42856210470199585,9.862914085388184,10.101318359375,10.80322265625,-17.27294921875
2.8724999,0.5315127968788147,-0.7751228213310242,9.895833969116211,-0.885009765625,2.227783203125,-1.312255859375
2.8774999,0.40880993008613586,0.6560112833976746,10.229825019836426,-4.058837890625,-3.265380859375,-0.152587890625
2.8824999,-0.13168109953403473,0.016160860657691956,10.205883026123047,-14.923095703125,-6.256103515625,-2.044677734375
2.8874999000000003,-0.26755204796791077,-0.012569558806717396,10.119691848754883,-10.772705078125,-1.953125,1.8310546875
2.8924999000000002,-0.262763649225235,-0.9026140570640564,9.911994934082031,1.190185546875,-5.7373046875,13.24462890625
2.8974999,-0.33339259028434753,-1.237802267074585,9.637260437011719,-1.15966796875,-4.82177734375,15.56396484375
2.9024999,-0.08439560979604721,-1.599326729774475,9.50737476348877,-3.143310546875,-5.2490234375,14.6484375
2.9074999000000004,0.19931729137897491,-1.449090600013733,9.378686904907227,-1.983642578125,-7.26318359375,13.24462890625
2.9124999000000003,0.8529343605041504,-0.5638344883918762,9.694721221923828,2.227783203125,3.5400390625,-2.9296875
2.9174999,1.01753568649292,-0.363918662071228,9.835979461669922,-0.457763671875,0.946044921875,-11.3525390625
2.9224999,0.9582792520523071,-0.3321954905986786,9.79408073425293,1.64794921875,3.265380859375,-6.28662109375
2.9274999000000004,1.0528502464294434,-0.7805097699165344,9.857526779174805,7.781982421875,9.21630859375,-18.829345703125
2.9324999000000003,0.8888474106788635,-0.4794389009475708,9.86231517791748,9.765625,11.8408203125,-16.815185546875
2.9374999,0.6177040338516235,-0.8086416125297546,9.90122127532959,-0.946044921875,3.72314453125,-2.471923828125
2.9424999,0.44592007994651794,0.48063600063323975,10.102932929992676,-3.23486328125,-2.0751953125,0
2.9474999,-0.13706804811954498,-0.09397241473197937,10.16637897491455,-14.190673828125,-4.69970703125,-2.13623046875
2.9524999000000003,-0.3705027103424072,-0.21667525172233582,9.97364616394043,-11.566162109375,-1.312255859375,3.0517578125
2.9574999,-0.35254621505737305,-0.9720458984375,9.874884605407715,1.617431640625,-5.43212890625,13.641357421875
2.9624999,1.035492181777954,-0.7032967209815979,9.84495735168457,7.32421875,9.185791015625,-18.768310546875
2.9674999,0.8732850551605225,-0.48722004890441895,9.849745750427246,9.613037109375,11.41357421875,-16.876220703125
2.9724999000000003,0.6326677799224854,-0.7835025191307068,9.924564361572266,-1.40380859375,3.143310546875,-3.47900390625
2.9774999,0.3693056106567383,0.4812345504760742,10.176554679870605,-3.448486328125,-2.197265625,-0.030517578125
2.9824999,-0.10773907601833344,0.1388636976480484,10.2747163772583,-13.24462890625,-5.157470703125,-2.349853515625
2.9874999,-0.39384618401527405,-0.08439560979604721,10.075399398803711,-13.092041015625,-1.708984375,0.3662109375
2.9924999000000003,-0.38546648621559143,-1.0073603391647339,9.689932823181152,-0.06103515625,-4.69970703125,13.885498046875
2.9974999,-0.12210428714752197,-1.4790180921554565,9.435548782348633,-5.126953125,-5.859375,14.09912109375
3.0024999,0.20111294090747833,-1.3898340463638306,9.37389850616455,-1.922607421875,-7.171630859375,13.427734375
3.0074999,0.46148237586021423,-1.3664906024932861,9.44991397857666,10.986328125,-2.5634765625,8.636474609375
3.0124999000000003,0.7799112200737,-1.338358759880066,9.47146224975586,5.18798828125,0.946044921875,-12.39013671875
3.0174999000000002,0.8678981065750122,-0.6685808300971985,9.660005569458008,1.983642578125,3.662109375,-1.953125
3.0224999,1.0426748991012573,-0.2932897210121155,9.801262855529785,-0.701904296875,0.42724609375,-11.199951171875
3.0274999,0.9235633015632629,-0.38965633511543274,9.761159896850586,1.129150390625,3.173828125,-6.317138671875
3.0324999000000004,1.0540473461151123,-0.7254431247711182,9.889249801635742,7.232666015625,9.185791015625,-19.500732421875
3.0374999000000003,0.8678981065750122,-0.4800374507904053,9.858723640441895,10.162353515625,11.627197265625,-16.4794921875
3.0424999,0.6542156338691711,-0.7948749661445618,9.944316864013672,-1.220703125,3.72314453125,-4.5166015625
3.0474999,0.4255693554878235,0.17717093229293823,10.040084838867188,-2.960205078125,-1.068115234375,-1.434326171875
3.0524999000000004,-0.06763619929552078,-1.1617863178253174,9.586981773376465,-7.354736328125,-5.126953125,13.702392578125
3.0574999000000003,0.20709845423698425,-1.0935516357421875,9.524134635925293,-2.5634765625,-5.584716796875,16.54052734375
3.0624999,0.4884171485900879,-1.279700756072998,9.513360023498535,11.8408203125,-2.227783203125,7.8125
3.0674999,0.7284358739852905,-1.3856441974639893,9.442132949829102,7.110595703125,2.44140625,-8.48388671875
3.0724999000000004,0.8457517623901367,-0.8445546627044678,9.589975357055664,3.814697265625,4.669189453125,-1.64794921875
3.0774999000000003,0.9750386476516724,-0.363918662071228,9.736021041870117,0.335693359375,0.91552734375,-10.19287109375
3.0824999,0.8786720037460327,-0.38127660751342773,9.768941879272461,1.068115234375,2.716064453125,-5.767822265625
3.0874999,0.9983820915222168,-0.6218938827514648,9.907805442810059,6.317138671875,8.331298828125,-17.9443359375
3.0924999,0.8248024582862854,-0.3513490855693817,9.9000244140625,10.894775390625,12.02392578125,-15.0146484375
3.0974999000000003,-0.23762452602386475,-0.6631938815116882,10.091560363769531,1.007080078125,-3.662109375,14.556884765625
3.1024999,-0.28790274262428284,-0.8391677141189575,9.824606895446777,0.640869140625,-4.364013671875,13.458251953125
3.1074999,-0.1322796493768692,-1.2042834758758545,9.68274974822998,-4.241943359375,-4.150390625,14.70947265625
3.1124999,0.25019407272338867,-1.2120646238327026,9.455301284790039,-3.662109375,-7.2021484375,14.007568359375
3.1174999000000003,0.4183867573738098,-1.1881226301193237,9.512762069702148,10.284423828125,-1.495361328125,11.810302734375
3.1224999,0.7362170219421387,-1.3784615993499756,9.45410442352295,7.32421875,1.983642578125,-9.613037109375
3.1274999,0.7942764163017273,-0.7727286219596863,9.609128952026367,2.74658203125,3.23486328125,-2.899169921875
3.1324999,0.9624691009521484,-0.2663549482822418,9.801262855529785,0.06103515625,0.244140625,-8.544921875
3.1374999000000003,0.8325836658477783,-0.3387795388698578,9.822811126708984,0,2.13623046875,-7.598876953125
3.1424999000000002,0.8122329115867615,-0.4429273009300232,9.873687744140625,10.284423828125,10.3759765625,-16.265869140625
3.1474999,0.595557689666748,-0.7864952683448792,9.864110946655273,0.42724609375,3.875732421875,-5.859375
3.1524999,0.3423708379268646,0.04010287672281265,9.95090103149414,-3.204345703125,-1.3427734375,0.06103515625
3.1574999000000004,0.023343466222286224,-0.07302315533161163,10.015543937683105,-8.087158203125,-4.058837890625,0.213623046875
3.1624999000000003,0.023343466222286224,-0.07302315533161163,10.015543937683105,-8.087158203125,-4.058837890625,0.213623046875
3.1674999,-0.25977087020874023,-0.5213374495506287,9.964667320251465,-13.519287109375,-3.72314453125,-3.936767578125
3.1724999,-0.2214636504650116,-0.7260416746139526,9.940725326538086,0.48828125,-2.50244140625,12.054443359375
3.1774999000000004,-0.18136078119277954,-0.823006808757782,9.86770248413086,0.457763671875,-4.852294921875,12.908935546875
3.1824999000000003,-0.10354922711849213,-1.0654197931289673,9.794678688049316,-5.828857421875,-5.157470703125,15.228271484375
3.1874999,0.2256535142660141,-0.9588778018951416,9.569623947143555,-4.94384765625,-5.828857421875,14.70947265625
3.1924999,0.3866635859012604,-1.0402805805206299,9.647436141967773,9.3994140625,-1.434326171875,12.26806640625
3.1974999000000004,0.7152677774429321,-1.3808557987213135,9.458892822265625,6.103515625,0.48828125,-8.4228515625
3.2024999000000003,0.884058952331543,-0.6105214357376099,9.822212219238281,2.471923828125,4.608154296875,-9.82666015625
3.2074999,0.8547300100326538,-0.50876784324646,9.839570045471191,10.589599609375,10.498046875,-18.61572265625
3.2124999,0.6853402256965637,-0.7487865686416626,9.767146110534668,3.753662109375,7.50732421875,-7.62939453125
3.2174999,0.49140989780426025,-0.15263035893440247,9.814431190490723,-2.99072265625,-0.030517578125,-2.166748046875
3.2224999000000003,0.12210428714752197,0.3345896899700165,9.911396026611328,-5.035400390625,-2.227783203125,1.617431640625
3.2274999,-0.18555063009262085,-0.40701428055763245,9.873088836669922,-14.923095703125,-4.57763671875,-5.67626953125
3.2324999,-0.3585317134857178,-0.5512649416923523,10.000580787658691,-2.38037109375,-0.946044921875,9.46044921875
3.2374999,-0.2106897532939911,-0.9080010056495667,9.851541519165039,1.373291015625,-4.94384765625,11.41357421875
3.2424999000000003,-0.2495955228805542,-1.125873327255249,10.023923873901367,-3.509521484375,-4.364013671875,16.815185546875
3.2474999,0.6799532771110535,-1.2832920551300049,9.576807022094727,7.6904296875,0.18310546875,-5.67626953125
3.2524999,0.6799532771110535,-1.2832920551300049,9.576807022094727,7.6904296875,0.18310546875,-5.67626953125
3.2574999,0.7194576263427734,-0.889445960521698,9.616311073303223,3.265380859375,3.143310546875,-2.86865234375
3.2624999000000003,0.9032126069068909,-0.3932476341724396,9.731232643127441,1.739501953125,1.556396484375,-6.16455078125
3.2674999000000002,0.7924807667732239,-0.3298012912273407,9.79527759552002,-1.03759765625,0.335693359375,-10.223388671875
3.2724999,0.8248024582862854,-0.5207388401031494,9.700706481933594,1.28173828125,2.899169921875,-6.40869140625
3.2774999,0.8595184087753296,-0.6949170231819153,9.7791166305542,8.697509765625,8.60595703125,-18.6767578125
3.2824999000000004,-0.3232172429561615,-1.3652935028076172,9.762955665588379,-1.89208984375,-4.302978515625,16.6015625
3.2874999000000003,0.03172317147254944,-1.4197616577148438,9.50857162475586,-7.6904296875,-6.500244140625,11.138916015625
3.2924999,0.21009120345115662,-1.256955862045288,9.644442558288574,1.40380859375,-3.90625,16.11328125
3.2974999,0.5674257874488831,-1.3287819623947144,9.572616577148438,8.97216796875,-1.312255859375,-0.396728515625
3.3024999000000004,0.6991068720817566,-1.1683704853057861,9.600749015808105,4.7607421875,1.89208984375,-4.638671875
3.3074999000000003,0.862511157989502,-0.5500678420066833,9.738415718078613,1.983642578125,2.166748046875,-4.302978515625
3.3124999,0.8900445103645325,-0.3711012601852417,9.780313491821289,-1.190185546875,-0.18310546875,-10.986328125
3.3174999,0.8690952062606812,-0.30047231912612915,9.770736694335938,1.312255859375,2.471923828125,-4.2724609375
3.3224999000000004,0.9361328482627869,-0.8301894664764404,9.837176322937012,6.65283203125,6.89697265625,-16.78466796875
3.3274999000000003,0.8541314601898193,-0.5165489912033081,9.855731010437012,7.4462890625,9.490966796875,-14.34326171875
3.3324999,0.639850378036499,-0.8750807046890259,9.926959037780762,0.06103515625,3.35693359375,-3.997802734375
3.3374999,0.5410895943641663,0.5201402902603149,10.127472877502441,-2.288818359375,0.1220703125,0.213623046875
3.3424999,-0.27054479718208313,-0.6554127335548401,9.794678688049316,0.213623046875,-3.570556640625,11.077880859375
3.3474999000000003,-0.4016273319721222,-1.1994950771331787,9.602544784545898,-3.204345703125,-3.7841796875,15.9912109375
3.3524999,-0.11851298063993454,-1.5173252820968628,9.415796279907227,-3.265380859375,-2.471923828125,14.007568359375
3.3574999,0.13706804811954498,-1.5520412921905518,9.39245319366455,0.762939453125,-3.082275390625,13.885498046875
3.3624999,0.46507367491722107,-1.470638394355774,9.46727180480957,9.033203125,0.091552734375,4.302978515625
3.3674999000000003,0.6715735793113708,-1.290474772453308,9.537302017211914,7.2021484375,3.631591796875,-3.753662109375
3.3724999,0.7727286219596863,-0.6332663297653198,9.722254753112793,3.2958984375,3.72314453125,-3.5400390625
3.3774999,0.8601169586181641,-0.3357867896556854,9.825204849243164,-0.79345703125,0.18310546875,-11.016845703125
3.3824999,0.760757565498352,-0.19692309200763702,9.884461402893066,1.64794921875,3.23486328125,-5.67626953125
3.3874999000000003,0.8678981065750122,-0.5392939448356628,9.86351203918457,6.317138671875,6.40869140625,-14.46533203125
3.3924999000000002,0.7254431247711182,-0.4465186297893524,9.86351203918457,7.232666015625,9.002685546875,-16.998291015625
3.3974999,0.3824737071990967,0.11013327538967133,10.013150215148926,-2.25830078125,-0.54931640625,-1.03759765625
3.4024999,0.002992752008140087,0.013766659423708916,10.235811233520508,-11.871337890625,-4.364013671875,-1.861572265625
3.4074999000000004,-0.23822307586669922,-0.12988543510437012,10.11550235748291,-14.312744140625,-3.47900390625,-3.11279296875
3.4124999000000003,-0.22505496442317963,-0.6165069341659546,10.068815231323242,-0.48828125,-3.0517578125,12.054443359375
3.4174999,-0.2561795711517334,-0.8343793153762817,9.778518676757812,-1.190185546875,-3.5400390625,13.397216796875
3.4224999,-0.06584054976701736,-1.2006921768188477,9.625288963317871,-1.953125,-3.021240234375,15.472412109375
3.4274999000000004,0.24420857429504395,-1.2725181579589844,9.354744911193848,-2.0751953125,-5.7373046875,14.190673828125
3.4324999000000003,0.42377370595932007,-1.1127052307128906,9.473258018493652,8.941650390625,-0.8544921875,9.6435546875
3.4374999,0.7038952708244324,-1.1540051698684692,9.481637001037598,7.659912109375,1.46484375,-4.180908203125
3.4424999,0.7852981686592102,-0.6159083843231201,9.655217170715332,2.410888671875,2.25830078125,-3.662109375
3.4474999000000004,0.9050082564353943,-0.2890998423099518,9.770736694335938,-0.518798828125,0.48828125,-11.8408203125
3.4524999000000003,0.8146271109580994,-0.2214636504650116,9.845556259155273,1.52587890625,2.960205078125,-4.8828125
3.4574999,-0.2651578485965729,-0.6835445761680603,9.874884605407715,0.518798828125,-2.838134765625,14.190673828125
3.4624999,-0.2106897532939911,-0.8319851160049438,9.62828254699707,-0.213623046875,-4.425048828125,12.298583984375
3.4674999,-0.12629413604736328,-0.943913996219635,9.642048835754395,-1.15966796875,-2.9296875,16.815185546875
3.4724999000000003,0.2232593148946762,-1.016338586807251,9.418789863586426,-3.326416015625,-7.26318359375,12.75634765625
3.4774999,0.39863458275794983,-0.8834604024887085,9.571419715881348,6.805419921875,-2.197265625,11.322021484375
3.4824999,0.6829460263252258,-1.0779893398284912,9.552266120910645,7.781982421875,1.708984375,-5.889892578125
3.4874999,0.7637503147125244,-0.6105214357376099,9.683348655700684,2.86865234375,2.38037109375,-2.3193359375
3.4924999000000003,0.7823054194450378,-0.25318682193756104,9.852738380432129,0.42724609375,2.410888671875,-5.92041015625
3.4974999,0.9385270476341248,-0.5027823448181152,9.861717224121094,4.7607421875,5.279541015625,-10.345458984375
3.5024999,0.7990648150444031,-0.5889736413955688,9.883264541625977,7.01904296875,8.48388671875,-18.402099609375
3.5074999,0.6272808313369751,-0.5740098357200623,9.855731010437012,2.74658203125,5.218505859375,-6.7138671875
3.5124999000000003,0.424970805644989,-0.06524199992418289,9.99339771270752,-2.86865234375,-1.434326171875,2.197265625
3.5174999000000002,0.14006079733371735,-0.0694318488240242,10.023324966430664,-9.674072265625,-5.126953125,-0.701904296875
3.5224999,-0.19692309200763702,-0.48961424827575684,10.046669006347656,2.01416015625,-0.579833984375,11.688232421875
3.5274999,-0.1735796183347702,-0.9971849918365479,9.740809440612793,-2.86865234375,-6.500244140625,10.8642578125
3.5324999000000004,-0.152031809091568,-0.7643488645553589,9.791686058044434,-2.105712890625,-2.62451171875,20.538330078125
3.5374999000000003,0.17178396880626678,-0.983418345451355,9.49121379852295,-0.885009765625,-4.364013671875,6.16455078125
3.5424999,0.33099839091300964,-0.9361328482627869,9.53969669342041,4.5166015625,-1.46484375,12.6953125
3.5474999,0.871489405632019,-0.37469255924224854,9.75278091430664,0.30517578125,1.46484375,-8.453369140625
3.5524999000000004,0.811634361743927,-0.3214215636253357,9.825803756713867,-0.9765625,0.213623046875,-7.4462890625
3.5574999000000003,0.8457517623901367,-0.5237316489219666,9.856928825378418,3.2958984375,4.08935546875,-8.575439453125
3.5624999,0.7811083197593689,-0.7104793787002563,9.838373184204102,7.38525390625,8.544921875,-17.39501953125
3.5674999,0.70090252161026,-0.5961562395095825,9.82640266418457,4.913330078125,6.500244140625,-10.92529296875
3.5724999000000004,0.4387374520301819,-0.3292027413845062,9.877877235412598,-2.25830078125,-0.396728515625,0.885009765625
3.5774999000000003,0.16759411990642548,0.34835633635520935,10.031106948852539,-4.94384765625,-3.35693359375,-1.708984375
3.5824999,-0.18375498056411743,-0.5422866940498352,9.926959037780762,-14.556884765625,-4.69970703125,-4.913330078125
3.5874999,-0.32441434264183044,-0.6500257849693298,10.079588890075684,-2.50244140625,-0.823974609375,6.103515625
3.5924999,-0.2555810213088989,-1.1803414821624756,9.804255485534668,0.579833984375,-4.791259765625,11.444091796875
3.5974999000000003,0.15143325924873352,-1.2204443216323853,9.603142738342285,-6.2255859375,-6.011962890625,12.115478515625
3.6024999,0.29209262132644653,-1.0109516382217407,9.710882186889648,4.8828125,-1.40380859375,14.34326171875
3.6074999,0.6685808300971985,-1.2509703636169434,9.541492462158203,8.1787109375,-0.030517578125,-3.448486328125
3.6124999,0.7032967209815979,-0.9397241473197937,9.601945877075195,3.84521484375,2.44140625,-2.50244140625
3.6174999000000003,0.8547300100326538,-0.40043023228645325,9.743802070617676,2.44140625,2.227783203125,-5.43212890625
3.6224999,0.7996633648872375,-0.3172317147254944,9.785700798034668,-0.946044921875,-0.06103515625,-10.223388671875
3.6274999,0.7996633648872375,-0.4902127981185913,9.779715538024902,1.190185546875,2.655029296875,-4.608154296875
3.6324999,0.8367735147476196,-0.6973112225532532,9.782109260559082,7.99560546875,7.659912109375,-15.838623046875
3.6374999000000003,0.7553706169128418,-0.6500257849693298,9.785101890563965,6.866455078125,7.8125,-12.603759765625
3.6424999000000002,0.5847837924957275,-0.5548562407493591,9.823410034179688,-1.495361328125,1.0986328125,-2.0751953125
3.6474999,0.46507367491722107,0.5500678420066833,10.0580415725708,-2.44140625,-1.617431640625,-0.640869140625
3.6524999,0.01735796220600605,0.05027823522686958,9.975440979003906,-10.650634765625,-4.08935546875,-2.532958984375
3.6574999000000004,-0.23163901269435883,-0.6733692288398743,9.77013874053955,1.46484375,-3.387451171875,11.993408203125
3.6624999000000003,-0.29568392038345337,-1.1240776777267456,9.810839653015137,-2.105712890625,-4.669189453125,14.0380859375
3.6674999,-0.05147533491253853,-1.4538789987564087,9.582193374633789,-6.439208984375,-5.2490234375,13.275146484375
3.6724999,0.152031809091568,-1.2186486721038818,9.639056205749512,1.922607421875,-2.0751953125,14.7705078125
3.6774999000000004,0.4734533727169037,-1.337161660194397,9.616311073303223,8.48388671875,-0.1220703125,1.739501953125
3.6824999000000003,0.6212953329086304,-1.2216414213180542,9.57441234588623,2.8076171875,1.251220703125,-4.21142578125
3.6874999,0.7499836683273315,-0.5716156363487244,9.721057891845703,3.35693359375,3.2958984375,-1.64794921875
3.6924999,0.790086567401886,-0.19812019169330597,9.804854393005371,0.48828125,0.274658203125,-11.04736328125
3.6974999000000004,0.751779317855835,-0.30047231912612915,9.844358444213867,-1.64794921875,0.579833984375,-4.94384765625
3.7024999000000003,0.8248024582862854,-0.535702645778656,9.882067680358887,3.631591796875,4.57763671875,-10.528564453125
3.7074999,0.7882909178733826,-0.5404910445213318,9.867103576660156,9.124755859375,9.246826171875,-15.045166015625
3.7124999,0.6350619792938232,-0.7942764163017273,9.817423820495605,1.708984375,4.180908203125,-6.805419921875
3.7174999,-0.13287819921970367,-0.6218938827514648,9.788095474243164,-0.091552734375,-4.33349609375,10.92529296875
3.7224999000000003,-0.20350714027881622,-0.8750807046890259,9.853337287902832,-5.06591796875,-5.0048828125,15.716552734375
3.7274999,0.12389993667602539,-0.899621307849884,9.679757118225098,-5.035400390625,-4.608154296875,13.36669921875
3.7324999,0.25498247146606445,-0.9594763517379761,9.79288387298584,7.4462890625,-0.6103515625,10.19287109375
3.7374999,0.5752069354057312,-1.371279001235962,9.579200744628906,4.82177734375,-0.579833984375,-4.45556640625
3.7424999000000003,0.6560112833976746,-0.9774328470230103,9.637260437011719,3.326416015625,2.197265625,1.220703125
3.7474999,0.7942764163017273,-0.4967968463897705,9.736021041870117,3.0517578125,1.312255859375,-8.72802734375
3.7524999,0.751779317855835,-0.3274070918560028,9.771934509277344,-1.220703125,-0.518798828125,-7.568359375
3.7574999,0.7805097699165344,-0.3728969097137451,9.77672290802002,0.18310546875,1.190185546875,-5.18798828125
3.7624999000000003,0.7410054206848145,-0.557250440120697,9.793481826782227,7.4462890625,7.659912109375,-12.786865234375
3.7674999000000002,0.5716156363487244,-0.5937620401382446,9.7791166305542,-1.28173828125,0.579833984375,-2.3193359375
3.7724999,0.4644751250743866,0.5237316489219666,10.019135475158691,-3.082275390625,-2.410888671875,-1.220703125
3.7774999,0.021547814831137657,0.0293289702385664,9.980229377746582,-10.31494140625,-4.33349609375,-1.64794921875
3.7824999000000004,-0.08140286058187485,-0.01496376097202301,10.032303810119629,-6.2255859375,-1.251220703125,-3.387451171875
3.7874999000000003,-0.21308395266532898,-0.6751648783683777,9.872490882873535,1.312255859375,-2.8076171875,10.498046875
3.7924999,-0.23163901269435883,-0.9738415479660034,9.879075050354004,-2.227783203125,-4.57763671875,12.8173828125
3.7974999,-0.0454898327589035,-1.2617442607879639,9.671378135681152,-6.34765625,-5.096435546875,12.664794921875
3.8024999000000004,0.14065934717655182,-1.1563993692398071,9.715670585632324,-0.457763671875,-2.777099609375,12.87841796875
3.8074999000000003,0.47465047240257263,-1.2767080068588257,9.658209800720215,6.744384765625,-1.03759765625,2.0751953125
3.8124999,0.6021417379379272,-1.2886791229248047,9.61331844329834,3.90625,1.495361328125,-1.434326171875
3.8174999,0.823006808757782,-0.3824737071990967,9.77791976928711,0.91552734375,1.0986328125,-10.162353515625
3.8224999000000004,0.7559691667556763,-0.3728969097137451,9.815030097961426,-1.312255859375,1.15966796875,-5.340576171875
3.8274999000000003,0.8110358119010925,-0.5159504413604736,9.828198432922363,3.143310546875,4.39453125,-7.965087890625
3.8324999,0.7535749673843384,-0.7104793787002563,9.785700798034668,7.110595703125,8.514404296875,-15.106201171875
3.8374999,0.6572083830833435,-0.6667851805686951,9.782109260559082,4.058837890625,6.622314453125,-8.636474609375
3.8424999,-0.03890577703714371,-0.3100491166114807,9.855133056640625,-13.12255859375,-4.425048828125,-5.4931640625
3.8474999000000003,-0.03890577703714371,-0.3100491166114807,9.855133056640625,-13.12255859375,-4.425048828125,-5.4931640625
3.8524999,-0.27653029561042786,-0.11851298063993454,9.913790702819824,-0.06103515625,0.030517578125,6.40869140625
3.8574999,-0.18495208024978638,-0.790086567401886,9.808445930480957,-0.885009765625,-4.974365234375,11.932373046875
3.8624999,-0.17238251864910126,-0.7781155705451965,9.875483512878418,-3.326416015625,-4.2724609375,14.862060546875
3.8674999000000003,0.09576806426048279,-0.9115923047065735,9.695320129394531,-2.593994140625,-3.7841796875,13.85498046875
3.8724999,0.6979097723960876,-0.9798270463943481,9.63187313079834,3.570556640625,2.25830078125,-0.640869140625
3.8774999,0.8242039084434509,-0.4620809257030487,9.752182006835938,2.227783203125,2.166748046875,-7.6904296875
3.8824999,0.8038532137870789,-0.34835633635520935,9.79527759552002,-1.0986328125,0.3662109375,-8.941650390625
3.8874999000000003,0.7990648150444031,-0.31184476613998413,9.824606895446777,0.732421875,2.38037109375,-4.638671875
3.8924999000000002,0.8924387097358704,-0.6314706802368164,9.815628051757812,5.401611328125,5.9814453125,-13.5498046875
3.8974999,0.7050924301147461,-0.5261258482933044,9.803058624267578,6.134033203125,9.063720703125,-14.5263671875
3.9024999,0.5925649404525757,-0.6733692288398743,9.847352027893066,0.48828125,2.593994140625,-3.5400390625
3.9074999000000004,0.40282443165779114,0.3794809579849243,10.031106948852539,-2.960205078125,-1.52587890625,-1.28173828125
3.9124999000000003,-0.043095629662275314,-0.06883329898118973,9.998785018920898,-11.749267578125,-3.814697265625,-1.220703125
3.9174999,-0.16160862147808075,-0.03232172131538391,9.964667320251465,-7.171630859375,-1.617431640625,-4.94384765625
3.9224999,-0.09457096457481384,-1.1073182821273804,9.558850288391113,-3.143310546875,-3.0517578125,14.0380859375
3.9274999000000004,0.1975216418504715,-1.1863269805908203,9.482834815979004,0.274658203125,-3.570556640625,11.90185546875
3.9324999000000003,0.42197805643081665,-1.292868971824646,9.552266120910645,5.462646484375,-2.197265625,4.852294921875
3.9374999,0.6021417379379272,-1.323395013809204,9.55585765838623,4.5166015625,0.396728515625,-0.67138671875
3.9424999,0.739209771156311,-0.8104372620582581,9.706692695617676,3.23486328125,2.777099609375,-3.814697265625
3.9474999000000004,0.8092401623725891,-0.4602852761745453,9.803058624267578,1.0986328125,1.129150390625,-9.674072265625
3.9524999000000003,0.7643488645553589,-0.3758896589279175,9.849745750427246,-1.068115234375,0.6103515625,-5.67626953125
3.9574999,0.8242039084434509,-0.5291185975074768,9.865307807922363,3.448486328125,4.08935546875,-7.26318359375
3.9624999,0.7757213711738586,-0.7625532150268555,9.874286651611328,7.26318359375,8.148193359375,-16.571044921875
3.9674999000000004,0.6703764796257019,-0.5943605899810791,9.865906715393066,3.570556640625,6.439208984375,-7.110595703125
3.9724999000000003,0.5776011347770691,-0.26156654953956604,9.940725326538086,-1.678466796875,0,-2.38037109375
3.9774999,0.06165069341659546,-0.21547815203666687,9.819219589233398,-12.6953125,-4.0283203125,-6.103515625
3.9824999,-0.2579752206802368,-0.058059390634298325,9.845556259155273,0.48828125,0.244140625,5.828857421875
3.9874999,-0.1604115068912506,-0.6937199234962463,9.68274974822998,-1.15966796875,-4.69970703125,11.871337890625
3.9924999000000003,-0.2124854028224945,-0.6823474764823914,9.81263542175293,-3.41796875,-3.997802734375,14.678955078125
3.9974999,0.06165069341659546,-0.8535329103469849,9.639056205749512,-2.9296875,-3.72314453125,13.916015625
4.0024999,0.2603694200515747,-1.0043675899505615,9.703699111938477,3.72314453125,-2.044677734375,10.3759765625
4.0074999,0.5404910445213318,-1.2204443216323853,9.61212158203125,6.317138671875,0.030517578125,0.42724609375
4.0124999,0.6584054827690125,-1.0468647480010986,9.638457298278809,3.7841796875,2.13623046875,-1.678466796875
4.0174999,0.7799112200737,-0.5273229479789734,9.773131370544434,2.50244140625,2.044677734375,-6.77490234375
4.022499900000001,0.7763199210166931,-0.34177228808403015,9.801861763000488,-0.762939453125,0,-8.85009765625
4.0274999000000005,0.7757213711738586,-0.37648820877075195,9.835380554199219,0.335693359375,1.983642578125,-4.730224609375
4.0324999,0.8601169586181641,-0.8259995579719543,9.803657531738281,5.950927734375,6.561279296875,-13.885498046875
4.0374999,-0.12749123573303223,-0.11133038252592087,10.055048942565918,-7.6904296875,-2.197265625,-0.244140625
4.0424999,-0.24121582508087158,-0.4794389009475708,9.868300437927246,1.953125,-3.41796875,12.542724609375
4.0474999,-0.2561795711517334,-0.739209771156311,9.690531730651855,-1.8310546875,-5.18798828125,12.939453125
4.0524999,-0.07900865375995636,-1.1432312726974487,9.517550468444824,-5.43212890625,-5.4931640625,14.5263671875
4.0574999,0.17417816817760468,-1.0851719379425049,9.474454879760742,-0.518798828125,-4.69970703125,13.824462890625
4.062499900000001,0.424970805644989,-1.1234791278839111,9.552266120910645,8.11767578125,-1.678466796875,7.62939453125
4.0674999000000005,0.6823474764823914,-1.2515689134597778,9.534908294677734,2.5634765625,-0.885009765625,-8.331298828125
4.0724999,0.7422025203704834,-0.6278793811798096,9.713275909423828,2.532958984375,3.448486328125,-1.40380859375
4.0774999,0.9175778031349182,-0.2735375463962555,9.832986831665039,0.518798828125,0.06103515625,-10.772705078125
4.0824999,0.10175357013940811,0.31783026456832886,9.857526779174805,-3.692626953125,-2.0751953125,-0.30517578125
4.0874999,-0.13347674906253815,-0.4596867263317108,9.771934509277344,-11.505126953125,-4.2724609375,-5.9814453125
4.0924999,-0.27054479718208313,-0.34356793761253357,9.81263542175293,-0.91552734375,-1.46484375,9.002685546875
4.0974999,-0.22505496442317963,-0.7655459642410278,9.801262855529785,0.54931640625,-4.791259765625,12.6953125
4.1024999,-0.1628057211637497,-1.0935516357421875,9.849745750427246,-5.79833984375,-5.645751953125,14.70947265625
4.1074999000000005,0.1149216815829277,-0.9355342984199524,9.758766174316406,-3.84521484375,-4.241943359375,13.824462890625
4.1124999,0.3280056416988373,-0.960673451423645,9.816825866699219,7.110595703125,-1.64794921875,11.322021484375
4.1174999,0.6631938815116882,-1.2773065567016602,9.633668899536133,3.814697265625,-1.15966796875,-5.06591796875
4.1224999,0.8224082589149475,-0.5512649416923523,9.779715538024902,0.213623046875,2.838134765625,-7.01904296875
4.1274999,0.9139865040779114,-0.6386532783508301,9.79288387298584,6.439208984375,8.880615234375,-15.93017578125
4.1324999,0.7380126714706421,-0.5961562395095825,9.767744064331055,7.38525390625,9.58251953125,-10.711669921875
4.1374999,0.6117185354232788,-0.6320692300796509,9.73781681060791,-1.739501953125,1.15966796875,-2.227783203125
4.1424999,0.3363853394985199,0.3968389332294464,9.909601211547852,-2.685546875,-0.885009765625,-0.518798828125
4.147499900000001,-0.020949264988303185,0.041299980133771896,9.88625717163086,-8.819580078125,-3.265380859375,-1.617431640625
4.1524999000000005,-0.21966800093650818,-0.31124621629714966,9.99459457397461,-5.2490234375,-1.46484375,-0.54931640625
4.1574999,-0.23942017555236816,-0.5764040350914001,9.901819229125977,2.25830078125,-2.38037109375,13.397216796875
4.1624999,0.47644615173339844,-1.2312182188034058,9.61331844329834,6.011962890625,-1.739501953125,1.678466796875
4.1674999,0.5811924338340759,-1.0690110921859741,9.5809965133667,1.556396484375,0.79345703125,-2.01416015625
4.1724999,0.767341673374176,-0.4985924959182739,9.70310115814209,2.9296875,3.0517578125,-5.67626953125
4.1774999,0.7763199210166931,-0.23762452602386475,9.750985145568848,1.007080078125,0.579833984375,-8.331298828125
4.1824999,0.7236474752426147,-0.1975216418504715,9.812037467956543,-1.312255859375,0.1220703125,-4.8828125
4.187499900000001,0.7906851172447205,-0.6332663297653198,9.798869132995605,1.5869140625,3.875732421875,-11.29150390625
4.1924999000000005,0.801459014415741,-0.5135562419891357,9.803058624267578,8.575439453125,10.101318359375,-16.754150390625
4.1974999,0.6518214344978333,-0.8056488633155823,9.777320861816406,3.72314453125,5.889892578125,-5.645751953125
4.2024999,0.5392939448356628,-0.22445641458034515,9.86889934539795,-3.23486328125,-1.312255859375,-2.105712890625
4.2074999,0.12090718746185303,0.50876784324646,10.261548042297363,-4.5166015625,-2.13623046875,-1.0986328125
4.2124999,-0.0077811554074287415,-0.39624038338661194,9.829395294189453,-16.754150390625,-3.631591796875,-21.148681640625
4.2174999,-0.2717418968677521,-0.6206967830657959,9.988011360168457,-4.791259765625,-1.3427734375,4.82177734375
4.2224999,-0.18914192914962769,-1.7573440074920654,9.458293914794922,-0.946044921875,-2.777099609375,12.176513671875
4.2274999,0.10295066982507706,-1.2449848651885986,9.527725219726562,-2.3193359375,-3.90625,14.923095703125
4.2324999000000005,0.2190694510936737,-0.950498104095459,9.643245697021484,3.997802734375,-5.035400390625,11.505126953125
4.2374999,0.45489832758903503,-0.9307458996772766,9.596558570861816,2.86865234375,-2.38037109375,-0.091552734375
4.2424999,0.6637924313545227,-0.6661866307258606,9.708487510681152,3.570556640625,2.5634765625,-2.166748046875
4.2474999,0.8200140595436096,-0.3256114423274994,9.78869342803955,3.936767578125,2.471923828125,-6.4697265625
4.2524999,0.9157821536064148,-0.0017956512747332454,9.871294021606445,-0.274658203125,0.457763671875,-6.439208984375
4.2574999,0.8876502513885498,-0.3280056416988373,9.865307807922363,-1.861572265625,2.86865234375,-11.138916015625
4.2624999,0.9181763529777527,-0.6099228858947754,9.847352027893066,4.364013671875,7.62939453125,-12.5732421875
4.2674999,0.8487445116043091,-0.49380409717559814,9.822811126708984,10.19287109375,9.735107421875,-12.298583984375
4.272499900000001,0.5476736426353455,-0.9648633003234863,9.761758804321289,0.06103515625,2.99072265625,-5.828857421875
4.2774999000000005,-0.08439560979604721,-0.29149407148361206,9.812037467956543,-4.21142578125,-2.777099609375,2.166748046875
4.2824999,-0.2585737705230713,-0.4554968774318695,9.8784761428833,-8.270263671875,-4.364013671875,-6.53076171875
4.2874999,-0.3208230137825012,-0.31842881441116333,9.812037467956543,1.52587890625,-1.068115234375,12.14599609375
4.2924999,-0.27712884545326233,-0.4387374520301819,9.916783332824707,-1.953125,-4.730224609375,15.869140625
4.2974999,-0.05446808785200119,-0.5153518915176392,9.747393608093262,-6.988525390625,-7.26318359375,11.8408203125
4.3024999,0.13287819921970367,-0.4572925269603729,9.764751434326172,1.40380859375,-2.105712890625,13.427734375
4.3074999,0.4189853072166443,-0.9157821536064148,9.68574333190918,4.791259765625,-1.251220703125,4.058837890625
4.312499900000001,0.6159083843231201,-1.0109516382217407,9.643844604492188,2.044677734375,-0.396728515625,1.15966796875
4.3174999000000005,0.7829039692878723,-0.760757565498352,9.733028411865234,2.99072265625,1.708984375,-4.058837890625
4.3224999,0.7781155705451965,-0.3363853394985199,9.788095474243164,1.77001953125,2.0751953125,-7.38525390625
4.3274999,0.8224082589149475,-0.30705636739730835,9.840767860412598,-2.197265625,-1.007080078125,-6.988525390625
4.3324999,0.7942764163017273,-0.436343252658844,9.831789016723633,-0.18310546875,1.77001953125,-6.8359375
4.3374999,0.7015010714530945,-0.6530185341835022,9.816825866699219,6.622314453125,7.26318359375,-10.040283203125
4.3424999,0.5602431893348694,-0.6823474764823914,9.84376049041748,-1.800537109375,0.06103515625,-0.701904296875
4.3474999,0.3357867896556854,0.13706804811954498,9.98681354522705,-2.86865234375,-1.953125,-0.946044921875
4.352499900000001,0.03411737456917763,0.019153613597154617,9.959878921508789,-6.134033203125,-3.204345703125,0.152587890625
4.3574999000000005,-0.04668693244457245,-0.3280056416988373,9.999382972717285,-4.486083984375,-2.44140625,-3.204345703125
4.3624999,-0.1586158573627472,-0.3645172119140625,9.854534149169922,1.28173828125,-1.495361328125,11.627197265625
4.3674999,-0.17657238245010376,-0.8457517623901367,9.82999324798584,-3.326416015625,-5.18798828125,14.09912109375
4.3724999,-0.010773907415568829,-1.035492181777954,9.597756385803223,-6.28662109375,-7.110595703125,13.275146484375
4.3774999,-0.010773907415568829,-1.035492181777954,9.597756385803223,-6.28662109375,-7.110595703125,13.275146484375
4.3824999,0.13168109953403473,-0.8810662031173706,9.636661529541016,2.685546875,-1.922607421875,10.894775390625
4.3874999,0.41778820753097534,-1.192312479019165,9.547477722167969,3.753662109375,-1.129150390625,1.617431640625
4.3924999,0.6051344871520996,-1.0438719987869263,9.570821762084961,1.617431640625,0.1220703125,0.6103515625
4.397499900000001,-0.181959331035614,-0.22266076505184174,9.988609313964844,-3.72314453125,-0.091552734375,-1.77001953125
4.4024999000000005,-0.17238251864910126,-1.4167689085006714,9.845556259155273,-4.0283203125,-4.94384765625,15.533447265625
4.4074999,0.08858546614646912,-1.4622586965560913,9.636063575744629,-7.32421875,-5.126953125,12.39013671875
4.4124999,0.5476736426353455,-1.3994108438491821,9.5809965133667,4.913330078125,0.213623046875,-0.091552734375
4.4174999,0.6326677799224854,-1.139639973640442,9.589376449584961,2.50244140625,2.288818359375,0.457763671875
4.4224999,0.7571662664413452,-0.547075092792511,9.723451614379883,4.2724609375,4.2724609375,-7.9345703125
4.4274999,0.6967126727104187,-0.22086510062217712,9.77791976928711,0.457763671875,1.861572265625,-8.23974609375
4.4324999,0.6518214344978333,-0.18794482946395874,9.835979461669922,-2.38037109375,0.1220703125,-6.4697265625
4.437499900000001,0.646434485912323,-0.5363011956214905,9.820416450500488,3.0517578125,4.425048828125,-6.8359375
4.4424999000000005,0.7236474752426147,-0.6775590777397156,9.793481826782227,8.30078125,9.27734375,-15.777587890625
4.4474999,0.5728127360343933,-0.7661445140838623,9.765350341796875,5.035400390625,7.2021484375,-7.354736328125
4.4524999,0.5321113467216492,-0.31364041566848755,9.864110946655273,-2.899169921875,-0.335693359375,-1.739501953125
4.4574999,0.10175357013940811,0.4010287821292877,9.954492568969727,-4.547119140625,-2.9296875,-0.152587890625
4.4624999,-0.03292027488350868,-0.2825157940387726,9.884461402893066,-11.3525390625,-4.791259765625,-6.65283203125
4.4674999,-0.24839842319488525,-0.2579752206802368,9.904213905334473,-2.349853515625,-0.518798828125,4.2724609375
4.4724999,-0.0975637212395668,-0.9654618501663208,9.859322547912598,-5.4931640625,-5.2490234375,16.05224609375
4.477499900000001,0.16400282084941864,-1.016338586807251,9.674968719482422,-8.48388671875,-5.79833984375,11.932373046875
4.4824999000000005,0.6099228858947754,-1.1426327228546143,9.565434455871582,3.41796875,1.922607421875,0.823974609375
4.4874999,0.6805518269538879,-0.5973533391952515,9.703699111938477,4.425048828125,2.44140625,-7.01904296875
4.4924999,0.6524199843406677,-0.4076128304004669,9.749788284301758,-0.67138671875,-0.8544921875,-6.77490234375
4.4974999,0.656609833240509,-0.2561795711517334,9.819818496704102,-1.434326171875,0.152587890625,-4.2724609375
4.5024999,0.7344213724136353,-0.6093243360519409,9.8599214553833,4.5166015625,5.06591796875,-9.368896484375
4.5074999,0.7194576263427734,-0.5548562407493591,9.818022727966309,7.62939453125,8.48388671875,-15.2587890625
4.5124999,0.667982280254364,-0.7846996188163757,9.858723640441895,2.5634765625,3.7841796875,-3.509521484375
4.5174999,0.46148237586021423,-0.1364694982767105,9.896432876586914,-2.25830078125,-0.54931640625,-3.0517578125
4.522499900000001,0.01975216343998909,-0.26755204796791077,9.893440246582031,-11.688232421875,-5.43212890625,-10.55908203125
4.5274999000000005,-0.1843535304069519,-0.4141969084739685,9.79288387298584,-1.251220703125,-0.30517578125,7.38525390625
4.5324999,-0.13287819921970367,-0.6039373874664307,9.850942611694336,-0.701904296875,-3.23486328125,13.85498046875
4.5374999,-0.0933738648891449,-0.7817068696022034,9.828198432922363,-5.828857421875,-5.615234375,15.0146484375
4.5424999,0.10833762586116791,-0.8762778043746948,9.721057891845703,-5.7373046875,-4.39453125,13.24462890625
4.5474999,0.29807811975479126,-1.0444705486297607,9.759963035583496,6.16455078125,-0.1220703125,5.4931640625
4.5524999,0.5548562407493591,-1.37906014919281,9.560047149658203,6.927490234375,1.312255859375,0.396728515625
4.5574999,0.6619967818260193,-1.1444283723831177,9.607931137084961,5.767822265625,3.0517578125,0.762939453125
4.562499900000001,0.6757634282112122,-0.15801730751991272,9.875483512878418,-0.18310546875,1.220703125,-4.7607421875
4.5674999000000005,0.7709329724311829,-0.6649895310401917,9.841964721679688,5.67626953125,6.103515625,-11.41357421875
4.5724999,0.5907692909240723,-0.7613561153411865,9.820416450500488,1.3427734375,2.685546875,-2.685546875
4.5774999,0.4357447028160095,0.04728548228740692,9.935338973999023,-2.9296875,-1.434326171875,-1.28173828125
4.5824999,0.03531447425484657,-0.060453593730926514,10.098742485046387,-7.4462890625,-3.72314453125,0.67138671875
4.5874999,-0.023343466222286224,-0.24480712413787842,10.042478561401367,-8.270263671875,-3.0517578125,-5.31005859375
4.5924999,-0.2148796021938324,-0.5351040959358215,10.073603630065918,0.79345703125,-1.40380859375,10.711669921875
4.5974999,-0.10295066982507706,-0.5829881429672241,9.943120002746582,-1.5869140625,-4.791259765625,10.284423828125
4.602499900000001,-0.08978256583213806,-0.8643068075180054,9.806051254272461,-4.791259765625,-4.57763671875,16.66259765625
4.6074999000000005,0.21547815203666687,-0.8990227580070496,9.582792282104492,-3.631591796875,-4.364013671875,10.406494140625
4.6124999,0.31124621629714966,-0.8792705535888672,9.646238327026367,6.805419921875,0.54931640625,7.537841796875
4.6174999,0.6356605291366577,-1.2599486112594604,9.496601104736328,3.11279296875,-0.79345703125,-3.84521484375
4.6224999,0.6320692300796509,-0.7769184708595276,9.624691009521484,3.082275390625,3.23486328125,-0.79345703125
4.6274999,0.6937199234962463,-0.30047231912612915,9.824007987976074,-2.44140625,-1.0986328125,-7.26318359375
4.6324999,0.6931213736534119,-0.2974795699119568,9.84256362915039,0.244140625,2.25830078125,-5.401611328125
4.6374999,0.7703344225883484,-0.7733271718025208,9.840767860412598,6.500244140625,6.988525390625,-13.671875
4.6424999,0.6829460263252258,-0.5620388388633728,9.827000617980957,7.26318359375,7.99560546875,-12.298583984375
4.647499900000001,0.5488707423210144,-0.6655880808830261,9.803657531738281,-1.617431640625,0.9765625,-1.953125
4.6524999000000005,0.406415730714798,0.10773907601833344,10.02691650390625,-3.204345703125,-2.166748046875,-2.288818359375
4.6574999,-0.017956512048840523,-0.008978256024420261,10.045472145080566,-8.4228515625,-3.997802734375,-2.044677734375
4.6624999,-0.12030863761901855,-0.4231751561164856,10.02691650390625,-7.75146484375,-2.0751953125,-4.364013671875
4.6674999,-0.23283611238002777,-0.5674257874488831,9.813833236694336,0.18310546875,-2.777099609375,10.7421875
4.6724999,-0.2669534981250763,-0.8678981065750122,9.75397777557373,-2.349853515625,-4.302978515625,14.46533203125
4.6774999,0.004189853090792894,-1.1366472244262695,9.393052101135254,-9.002685546875,-5.92041015625,14.617919921875
4.6824999,0.14903905987739563,-0.9989806413650513,9.464279174804688,0.457763671875,-1.617431640625,10.406494140625
4.687499900000001,0.6703764796257019,-0.21428105235099792,9.857526779174805,-2.838134765625,-1.312255859375,-4.7607421875
4.6924999000000005,0.6613982319831848,-0.40940847992897034,9.82879638671875,1.800537109375,2.9296875,-6.04248046875
4.6974999,0.7643488645553589,-0.629675030708313,9.815030097961426,8.85009765625,8.11767578125,-14.556884765625
4.7024999,0.6536170840263367,-0.6889315247535706,9.773131370544434,6.04248046875,6.8359375,-8.544921875
4.7074999,0.5596446394920349,-0.5147533416748047,9.871891975402832,-2.25830078125,-0.152587890625,-1.251220703125
4.7124999,0.26096799969673157,0.7044938206672668,10.11550235748291,-2.349853515625,-1.983642578125,-0.18310546875
4.7174999,-0.0065840547904372215,0.020949264988303185,9.97603988647461,-9.46044921875,-5.0048828125,-3.143310546875
4.7224999,-0.17477671802043915,-0.010773907415568829,10.056844711303711,-4.7607421875,-1.556396484375,0.640869140625
4.727499900000001,-0.11851298063993454,-0.6159083843231201,9.77672290802002,0.885009765625,-2.838134765625,11.65771484375
4.7324999000000005,0.16340427100658417,-1.4305355548858643,9.557653427124023,-7.2021484375,-5.43212890625,13.0615234375
4.7374999,0.24660277366638184,-1.1755530834197998,9.680954933166504,4.21142578125,-0.640869140625,10.7421875
4.7424999,0.5374982953071594,-1.3748703002929688,9.560646057128906,6.2255859375,-0.6103515625,0.457763671875
4.7474999,0.5841852426528931,-1.1528080701828003,9.572616577148438,2.50244140625,1.220703125,1.03759765625
4.7524999,0.7003039717674255,-0.5542576909065247,9.729436874389648,4.39453125,3.47900390625,-5.828857421875
4.7574999,0.6530185341835022,-0.17717093229293823,9.78989028930664,0.640869140625,0.701904296875,-8.30078125
4.7624999,0.656609833240509,-0.14245499670505524,9.847949981689453,-2.899169921875,-0.79345703125,-5.645751953125
4.7674999,0.6326677799224854,-0.42616790533065796,9.820416450500488,2.3193359375,3.96728515625,-6.591796875
4.772499900000001,0.7559691667556763,-0.5979518890380859,9.806051254272461,8.6669921875,8.575439453125,-14.2822265625
4.7774999000000005,0.5835866928100586,-0.7422025203704834,9.765350341796875,4.69970703125,6.072998046875,-7.01904296875
4.7824999,0.5351040959358215,-0.3794809579849243,9.86231517791748,-2.8076171875,-0.67138671875,-1.3427734375
4.7874999,0.17238251864910126,0.6045359373092651,10.13166332244873,-3.173828125,-2.44140625,-0.030517578125
4.7924999,-0.10594342648983002,-1.1516109704971313,9.765350341796875,-4.669189453125,-5.126953125,15.716552734375
4.7974999,0.166995570063591,-1.1976994276046753,9.560646057128906,-7.38525390625,-5.828857421875,11.474609375
4.8024999,0.24181437492370605,-1.037886381149292,9.691129684448242,4.7607421875,-0.030517578125,8.48388671875
4.8074999,0.5823895931243896,-1.3036428689956665,9.544485092163086,4.791259765625,-0.18310546875,-0.30517578125
4.812499900000001,0.6159083843231201,-1.0720038414001465,9.592369079589844,2.0751953125,1.77001953125,1.251220703125
4.8174999000000005,0.7541735172271729,-0.5817909836769104,9.73781681060791,3.936767578125,3.35693359375,-7.99560546875
4.8224999,0.6649895310401917,-0.2364274114370346,9.804255485534668,0.48828125,1.190185546875,-7.26318359375
4.8274999,0.6721721291542053,-0.22385786473751068,9.8599214553833,-2.74658203125,-0.42724609375,-5.615234375
4.8324999,0.6356605291366577,-0.5327098965644836,9.81143856048584,2.0751953125,3.7841796875,-6.866455078125
4.8374999,0.7547720670700073,-0.7224503755569458,9.79408073425293,8.48388671875,8.697509765625,-13.5498046875
4.8424999,0.5518634915351868,-0.43993455171585083,9.855731010437012,-2.62451171875,0.091552734375,-1.953125
4.8474999,0.2232593148946762,0.641047477722168,10.110115051269531,-3.23486328125,-1.922607421875,-0.30517578125
4.852499900000001,0.017956512048840523,-0.10235211998224258,9.983222961425781,-9.490966796875,-3.692626953125,-6.04248046875
4.8574999000000005,-0.12868833541870117,0.08918401598930359,10.06701946258545,-3.082275390625,-0.48828125,0.823974609375
4.8624999,-0.13168109953403473,-0.578798234462738,9.892841339111328,0.244140625,-2.716064453125,12.237548828125
4.8674999,-0.10235211998224258,-1.0342950820922852,9.831789016723633,-5.950927734375,-5.06591796875,14.83154296875
4.8724999,0.11791443079710007,-1.169567584991455,9.645041465759277,-7.965087890625,-4.69970703125,11.383056640625
4.8774999,0.228047713637352,-1.1623848676681519,9.68274974822998,4.94384765625,0.152587890625,7.6904296875
4.8824999,0.535702645778656,-0.46986207365989685,9.829395294189453,-2.197265625,0.3662109375,-1.52587890625
4.8874999,0.3064578175544739,0.35673606395721436,9.922170639038086,-3.5400390625,-2.38037109375,-1.495361328125
4.8924999,-0.013766659423708916,0.15801730751991272,9.961674690246582,-7.598876953125,-3.47900390625,-2.9296875
4.897499900000001,-0.06823474913835526,-0.15801730751991272,9.964069366455078,-4.974365234375,-1.983642578125,-3.11279296875
4.9024999000000005,-0.19632454216480255,-0.4016273319721222,9.95090103149414,0.54931640625,-2.38037109375,12.75634765625
4.9074999,-0.16759411990642548,-0.982221245765686,9.971850395202637,-5.18798828125,-5.4931640625,13.946533203125
4.9124999,0.017956512048840523,-1.216254472732544,9.768342971801758,-8.4228515625,-6.2255859375,12.39013671875
4.9174999,0.15801730751991272,-1.194706678390503,9.753378868103027,3.35693359375,-0.640869140625,8.23974609375
4.9224999,0.43993455171585083,-1.390432596206665,9.580398559570312,6.072998046875,0.030517578125,3.173828125
4.9274999,0.7026981711387634,-0.7852981686592102,9.671976089477539,3.60107421875,2.25830078125,-5.950927734375
4.9324999,0.6745663285255432,-0.31603461503982544,9.767744064331055,1.922607421875,1.678466796875,-6.744384765625
4.937499900000001,0.6745663285255432,-0.31603461503982544,9.767744064331055,1.922607421875,1.678466796875,-6.744384765625
4.9424999000000005,0.6901286244392395,-0.1538274586200714,9.860519409179688,-1.861572265625,-0.54931640625,-5.889892578125
4.9474999,0.6943184733390808,-0.2968810200691223,9.860519409179688,-0.244140625,1.678466796875,-5.950927734375
4.9524999,0.7733271718025208,-0.7326257228851318,9.853337287902832,6.103515625,6.622314453125,-11.77978515625
4.9574999,0.7200561761856079,-0.5859808921813965,9.832387924194336,8.697509765625,8.056640625,-11.383056640625
4.9624999,-0.04369417950510979,-0.05985504388809204,10.140641212463379,-6.500244140625,-3.082275390625,-0.640869140625
4.9674999,-0.04369417950510979,-0.05985504388809204,10.140641212463379,-6.500244140625,-3.082275390625,-0.640869140625
4.9724999,-0.1454477459192276,-0.4381389021873474,10.028712272644043,-7.26318359375,-2.685546875,-5.43212890625
4.977499900000001,0.17836803197860718,-0.8822633028030396,9.625288963317871,1.190185546875,-1.46484375,9.6435546875
4.9824999000000005,0.46986207365989685,-1.1815385818481445,9.497797966003418,7.2021484375,-0.152587890625,2.593994140625
4.9874999,0.5871779918670654,-1.2384008169174194,9.475052833557129,3.41796875,1.03759765625,1.983642578125
4.9924999,0.71766197681427,-0.8535329103469849,9.630077362060547,4.0283203125,2.593994140625,-4.058837890625
4.9974999,0.6901286244392395,-0.41359832882881165,9.752182006835938,2.50244140625,1.373291015625,-7.965087890625
5.0024999,0.6763619780540466,-0.18974047899246216,9.864709854125977,-1.46484375,-0.06103515625,-5.584716796875
5.0074999,0.6859387755393982,-0.3082534670829773,9.885659217834473,-0.6103515625,1.739501953125,-6.256103515625
5.0124999,0.7727286219596863,-0.7032967209815979,9.873687744140625,5.889892578125,6.53076171875,-11.566162109375
5.0174999,0.7296329736709595,-0.5662286877632141,9.847352027893066,9.002685546875,8.544921875,-11.474609375
5.022499900000001,0.5638344883918762,-0.6799532771110535,9.852738380432129,-0.274658203125,2.3193359375,-1.800537109375
5.0274999000000005,-0.12509703636169434,-0.4489128291606903,9.921571731567383,-7.26318359375,-2.716064453125,-5.767822265625
5.0324999,-0.12509703636169434,-0.4489128291606903,9.921571731567383,-7.26318359375,-2.716064453125,-5.767822265625
5.0374999,-0.22505496442317963,-0.535702645778656,9.881468772888184,1.03759765625,-1.46484375,11.29150390625
5.0424999,-0.18974047899246216,-0.6943184733390808,9.84615421295166,-2.655029296875,-4.241943359375,14.5263671875
5.0474999,0.01975216343998909,-0.8577227592468262,9.515754699707031,-8.636474609375,-6.317138671875,12.939453125
5.0524999,0.1735796183347702,-0.7876923680305481,9.560047149658203,1.40380859375,-0.946044921875,10.223388671875
5.0574999,0.44173020124435425,-1.0965443849563599,9.48882007598877,7.01904296875,0.1220703125,2.99072265625
5.062499900000001,0.5704185366630554,-1.146224021911621,9.505578994750977,2.9296875,1.007080078125,1.922607421875
5.0674999000000005,0.6919242739677429,-0.7966706156730652,9.674370765686035,3.448486328125,2.62451171875,-3.662109375
5.0724999,0.6685808300971985,-0.3866635859012604,9.785101890563965,2.685546875,1.861572265625,-6.744384765625
5.0774999,0.6518214344978333,-0.16819266974925995,9.880870819091797,-1.15966796875,-0.1220703125,-4.94384765625
5.0824999,0.6392518281936646,-0.23523031175136566,9.868300437927246,-1.03759765625,1.28173828125,-6.34765625
5.0874999,0.6877344250679016,-0.5033808946609497,9.827000617980957,9.185791015625,8.23974609375,-12.054443359375
5.0924999,0.4854243993759155,-0.6715735793113708,9.860519409179688,0.48828125,2.8076171875,-1.0986328125
5.0974999,0.38486793637275696,-0.08918401598930359,9.891644477844238,-4.302978515625,-2.716064453125,-3.021240234375
5.102499900000001,-0.03292027488350868,-0.21368250250816345,10.008959770202637,-6.04248046875,-3.173828125,0.640869140625
5.1074999000000005,-0.10773907601833344,-0.5494692921638489,9.906009674072266,-6.53076171875,-2.685546875,-6.4697265625
5.1124999,-0.19213469326496124,-0.6865373253822327,9.818621635437012,0.67138671875,-1.678466796875,10.009765625
5.1174999,-0.1843535304069519,-0.7661445140838623,9.85034465789795,-2.716064453125,-4.5166015625,13.916015625
5.1224999,0.011971008032560349,-0.8481459617614746,9.599552154541016,-8.85009765625,-7.2021484375,14.617919921875
5.1274999,0.17058686912059784,-0.7978677153587341,9.64564037322998,-0.91552734375,-2.532958984375,9.735107421875
5.1324999,0.4034229815006256,-1.0546458959579468,9.601346969604492,6.77490234375,0.244140625,3.7841796875
5.1374999,0.5710170865058899,-1.194706678390503,9.550470352172852,3.021240234375,0.244140625,2.410888671875
5.1424999,0.6931213736534119,-0.8858546018600464,9.656414031982422,3.60107421875,2.01416015625,-1.861572265625
5.147499900000001,0.6655880808830261,-0.21667525172233582,9.837775230407715,-1.190185546875,-0.06103515625,-5.523681640625
5.1524999000000005,0.6673837304115295,-0.21547815203666687,9.832387924194336,-1.251220703125,0.6103515625,-6.134033203125
5.1574999,0.6949170231819153,-0.706289529800415,9.838972091674805,4.57763671875,5.462646484375,-9.185791015625
5.1624999,0.7428010702133179,-0.5285200476646423,9.79408073425293,9.33837890625,8.880615234375,-13.85498046875
5.1674999,0.5315127968788147,-0.702099621295929,9.78869342803955,1.495361328125,3.875732421875,-1.953125
5.1724999,0.45489832758903503,-0.08439560979604721,9.857526779174805,-4.21142578125,-2.349853515625,-2.86865234375
5.1774999,0.03232172131538391,-0.22086510062217712,9.86351203918457,-5.67626953125,-2.86865234375,0.67138671875
5.1824999,-0.0520738884806633,-0.45250412821769714,9.888052940368652,-7.9345703125,-3.11279296875,-6.8359375
5.187499900000001,-0.17058686912059784,-0.6697779297828674,9.768941879272461,0.518798828125,-1.220703125,8.880615234375
5.1924999000000005,-0.14245499670505524,-0.6805518269538879,9.892841339111328,-1.708984375,-3.997802734375,13.336181640625
5.1974999,-0.0065840547904372215,-0.821809709072113,9.72165584564209,-8.270263671875,-6.256103515625,15.0146484375
5.2024999,0.14844051003456116,-0.811634361743927,9.699509620666504,-1.922607421875,-2.197265625,10.345458984375
5.2074999,0.5530605912208557,-1.2306196689605713,9.559449195861816,3.204345703125,0.518798828125,0.732421875
5.2124999,0.6584054827690125,-0.900818407535553,9.647436141967773,3.35693359375,2.838134765625,-1.495361328125
5.2174999,0.6823474764823914,-0.4668693244457245,9.73542308807373,3.5400390625,2.38037109375,-8.514404296875
5.2224999,0.6649895310401917,-0.17717093229293823,9.815628051757812,-0.640869140625,0.06103515625,-5.218505859375
5.227499900000001,0.6512228846549988,-0.22385786473751068,9.850942611694336,-1.678466796875,0.79345703125,-7.568359375
