# Time (seconds),Accel_X,Accel_Y,Accel_Z,Gyro_X,Gyro_Y,Gyro_Z
0.0024999,0.6775590777397156,-0.5129576921463013,9.78869342803955,0,0.1220703125,-0.244140625
0.0074999,0.6739677786827087,-0.5123591423034668,9.787496566772461,0.06103515625,0.213623046875,-0.213623046875
0.012499900000000001,0.6787561774253845,-0.5141547918319702,9.797073364257812,-0.030517578125,0.213623046875,-0.274658203125
0.0174999,0.6769605278968811,-0.5141547918319702,9.789292335510254,-0.1220703125,0.091552734375,-0.244140625
0.0224999,0.6775590777397156,-0.5129576921463013,9.79527759552002,0,0.06103515625,-0.18310546875
0.0274999,0.6751648783683777,-0.5129576921463013,9.79647445678711,-0.030517578125,0,-0.30517578125
0.0324999,0.6715735793113708,-0.5099649429321289,9.789292335510254,0.06103515625,0,-0.30517578125
0.0374999,0.6721721291542053,-0.5081692934036255,9.79527759552002,-0.030517578125,-0.18310546875,-0.274658203125
0.0424999,0.6739677786827087,-0.5093663930892944,9.791088104248047,-0.091552734375,-0.091552734375,-0.244140625
0.0474999,0.6751648783683777,-0.507570743560791,9.782109260559082,-0.091552734375,0.06103515625,-0.213623046875
0.0524999,0.6811503767967224,-0.5093663930892944,9.78989028930664,-0.030517578125,0,-0.213623046875
0.0574999,0.6811503767967224,-0.5063736438751221,9.779715538024902,0.091552734375,-0.1220703125,-0.152587890625
0.0624999,0.6859387755393982,-0.5051765441894531,9.785101890563965,0.030517578125,0.030517578125,-0.213623046875
0.0674999,0.6883329749107361,-0.507570743560791,9.788095474243164,0,0.18310546875,-0.3662109375
0.0724999,0.6835445761680603,-0.5099649429321289,9.7791166305542,0,0.030517578125,-0.30517578125
0.0774999,0.6829460263252258,-0.5135562419891357,9.78869342803955,0.06103515625,-0.030517578125,-0.30517578125
0.0824999,0.6757634282112122,-0.5141547918319702,9.781511306762695,-0.030517578125,0.06103515625,-0.244140625
0.0874999,0.6709750294685364,-0.5123591423034668,9.783905029296875,0,-0.06103515625,-0.213623046875
0.0924999,0.6715735793113708,-0.5099649429321289,9.78989028930664,-0.091552734375,0.06103515625,-0.244140625
0.0974999,0.669179379940033,-0.5123591423034668,9.783905029296875,-0.030517578125,0.030517578125,-0.30517578125
0.1024999,0.669179379940033,-0.5153518915176392,9.791686058044434,0,0.030517578125,-0.213623046875
0.1074999,0.667982280254364,-0.5195417404174805,9.793481826782227,0.18310546875,0.091552734375,-0.30517578125
0.1124999,0.6667851805686951,-0.5195417404174805,9.79288387298584,0.030517578125,-0.030517578125,-0.274658203125
0.1174999,0.6703764796257019,-0.5201402902603149,9.806051254272461,-0.06103515625,-0.091552734375,-0.091552734375
0.1224999,0.6709750294685364,-0.518943190574646,9.794678688049316,-0.091552734375,-0.152587890625,-0.274658203125
0.1274999,0.6841431260108948,-0.5231330990791321,9.786897659301758,0.06103515625,0.1220703125,-0.1220703125
0.1324999,0.6913257241249084,-0.5225345492362976,9.801262855529785,-0.06103515625,0.213623046875,-0.244140625
0.1374999,0.689530074596405,-0.518943190574646,9.795876502990723,-0.06103515625,0.213623046875,-0.30517578125
0.1424999,0.6853402256965637,-0.518943190574646,9.794678688049316,0.091552734375,0.213623046875,-0.213623046875
0.1474999,0.6853402256965637,-0.518943190574646,9.794678688049316,0.091552734375,0.213623046875,-0.213623046875
0.1524999,0.6799532771110535,-0.5165489912033081,9.801861763000488,0.152587890625,0.1220703125,-0.30517578125
0.1574999,0.6697779297828674,-0.5159504413604736,9.792284965515137,0.091552734375,0.030517578125,-0.152587890625
0.1624999,0.6661866307258606,-0.5099649429321289,9.794678688049316,0.030517578125,0,-0.244140625
0.1674999,0.6661866307258606,-0.5099649429321289,9.794678688049316,0.030517578125,0,-0.244140625
0.1724999,0.6715735793113708,-0.5129576921463013,9.79288387298584,-0.091552734375,-0.06103515625,-0.091552734375
0.17749990000000002,0.6751648783683777,-0.5147533416748047,9.78989028930664,0,0.1220703125,-0.30517578125
0.1824999,0.67815762758255,-0.5159504413604736,9.77791976928711,0.030517578125,0.1220703125,-0.3662109375
0.1874999,0.67815762758255,-0.5159504413604736,9.77791976928711,0.030517578125,0.1220703125,-0.3662109375
0.1924999,0.6751648783683777,-0.50876784324646,9.773730278015137,-0.091552734375,0,-0.18310546875
0.1974999,0.67815762758255,-0.5063736438751221,9.786299705505371,-0.030517578125,0.152587890625,-0.18310546875
0.2024999,0.6751648783683777,-0.5057750940322876,9.77672290802002,-0.1220703125,0.06103515625,-0.335693359375
0.20749990000000001,0.6751648783683777,-0.5093663930892944,9.781511306762695,0.030517578125,-0.030517578125,-0.1220703125
0.2124999,0.6775590777397156,-0.5141547918319702,9.784503936767578,0.091552734375,-0.06103515625,-0.1220703125
0.2174999,0.6775590777397156,-0.5153518915176392,9.771934509277344,-0.030517578125,0.06103515625,-0.213623046875
0.2224999,0.6841431260108948,-0.5147533416748047,9.781511306762695,-0.030517578125,0.18310546875,-0.244140625
0.2274999,0.6865373253822327,-0.5129576921463013,9.780912399291992,0.091552734375,0.213623046875,-0.335693359375
0.2324999,0.6841431260108948,-0.5153518915176392,9.780313491821289,0.06103515625,0.30517578125,-0.274658203125
0.2374999,0.6841431260108948,-0.5141547918319702,9.794678688049316,0.091552734375,0.244140625,-0.213623046875
0.2424999,0.669179379940033,-0.517746090888977,9.800065994262695,0.030517578125,-0.06103515625,-0.18310546875
0.2474999,0.669179379940033,-0.517746090888977,9.800065994262695,0.030517578125,-0.06103515625,-0.18310546875
0.2524999,0.6643909811973572,-0.5165489912033081,9.790489196777344,0.091552734375,-0.030517578125,-0.213623046875
0.2574999,0.667982280254364,-0.5135562419891357,9.798869132995605,0,0.06103515625,-0.213623046875
0.2624999,0.6757634282112122,-0.5105634927749634,9.799467086791992,0,0.1220703125,-0.274658203125
0.2674999,0.6799532771110535,-0.5081692934036255,9.795876502990723,-0.091552734375,0.091552734375,-0.30517578125
0.2724999,0.6877344250679016,-0.507570743560791,9.804255485534668,-0.091552734375,0.091552734375,-0.244140625
0.2774999,0.6853402256965637,-0.5099649429321289,9.797672271728516,0.1220703125,0.030517578125,-0.30517578125
0.2824999,0.6829460263252258,-0.507570743560791,9.798869132995605,0.18310546875,0.1220703125,-0.244140625
0.28749990000000003,0.6829460263252258,-0.5081692934036255,9.805453300476074,0,0.06103515625,-0.213623046875
0.2924999,0.6775590777397156,-0.50876784324646,9.800664901733398,0.030517578125,-0.06103515625,-0.274658203125
0.2974999,0.6805518269538879,-0.5081692934036255,9.810839653015137,0.1220703125,-0.091552734375,-0.06103515625
0.3024999,0.6721721291542053,-0.5183446407318115,9.800664901733398,0.06103515625,0.06103515625,-0.244140625
0.3074999,0.6727706789970398,-0.5237316489219666,9.797672271728516,0.152587890625,0.213623046875,-0.213623046875
0.3124999,0.6673837304115295,-0.5249287486076355,9.781511306762695,0.1220703125,0.152587890625,-0.213623046875
0.3174999,0.6697779297828674,-0.5231330990791321,9.781511306762695,-0.06103515625,0.06103515625,-0.213623046875
0.3224999,0.6673837304115295,-0.5201402902603149,9.784503936767578,0,0.030517578125,-0.18310546875
0.3274999,0.6619967818260193,-0.5141547918319702,9.780912399291992,0.091552734375,-0.213623046875,-0.30517578125
0.3324999,0.6649895310401917,-0.5093663930892944,9.798270225524902,0,0.030517578125,-0.18310546875
0.3374999,0.6655880808830261,-0.5063736438751221,9.79288387298584,0,-0.1220703125,-0.18310546875
0.3424999,0.6727706789970398,-0.5069721937179565,9.797672271728516,0,-0.06103515625,-0.213623046875
0.34749990000000003,0.6835445761680603,-0.5111620426177979,9.805453300476074,0,0.06103515625,-0.152587890625
0.35249990000000003,0.6853402256965637,-0.5183446407318115,9.79647445678711,-0.091552734375,0.152587890625,-0.18310546875
0.3574999,0.689530074596405,-0.5225345492362976,9.804854393005371,0.06103515625,0,-0.244140625
0.3624999,0.6865373253822327,-0.5207388401031494,9.787496566772461,0.091552734375,0,-0.274658203125
0.3674999,0.6859387755393982,-0.5147533416748047,9.791088104248047,-0.06103515625,-0.06103515625,-0.244140625
0.3724999,0.6799532771110535,-0.5105634927749634,9.777320861816406,0.030517578125,0,-0.30517578125
0.3774999,0.6745663285255432,-0.5069721937179565,9.780313491821289,0.06103515625,0.06103515625,-0.213623046875
0.3824999,0.6715735793113708,-0.507570743560791,9.786299705505371,0,0.091552734375,-0.335693359375
0.3874999,0.6673837304115295,-0.5057750940322876,9.778518676757812,0.030517578125,-0.213623046875,-0.30517578125
0.3924999,0.6709750294685364,-0.5081692934036255,9.791088104248047,0.18310546875,-0.030517578125,-0.152587890625
0.3974999,0.6715735793113708,-0.50876784324646,9.788095474243164,0.1220703125,0.030517578125,-0.152587890625
0.4024999,0.6769605278968811,-0.5213374495506287,9.787496566772461,0,-0.06103515625,-0.18310546875
0.4074999,0.6787561774253845,-0.518943190574646,9.794678688049316,-0.030517578125,-0.152587890625,-0.244140625
0.41249990000000003,0.6883329749107361,-0.5099649429321289,9.791686058044434,-0.091552734375,0.091552734375,-0.30517578125
0.41749990000000003,0.6859387755393982,-0.5093663930892944,9.78869342803955,0.1220703125,0.152587890625,-0.244140625
0.4224999,0.6847416758537292,-0.5117605924606323,9.79408073425293,0.091552734375,0.18310546875,-0.244140625
0.4274999,0.6739677786827087,-0.5135562419891357,9.781511306762695,0.06103515625,0.18310546875,-0.1220703125
0.4324999,0.6673837304115295,-0.5159504413604736,9.792284965515137,0.06103515625,0.091552734375,-0.152587890625
0.4374999,0.6590040326118469,-0.5165489912033081,9.787496566772461,-0.030517578125,0.152587890625,-0.30517578125
0.4424999,0.6512228846549988,-0.5153518915176392,9.783307075500488,0.06103515625,-0.091552734375,-0.152587890625
0.4474999,0.657806932926178,-0.5129576921463013,9.79408073425293,0.06103515625,-0.06103515625,-0.213623046875
0.4524999,0.6619967818260193,-0.5171475410461426,9.782109260559082,-0.091552734375,-0.091552734375,-0.244140625
0.4574999,0.6739677786827087,-0.5165489912033081,9.78869342803955,-0.030517578125,0,-0.152587890625
0.4624999,0.6919242739677429,-0.518943190574646,9.787496566772461,0.030517578125,0.06103515625,-0.18310546875
0.4674999,0.6937199234962463,-0.5213374495506287,9.795876502990723,0.152587890625,0.1220703125,-0.1220703125
0.47249990000000003,0.690727174282074,-0.5201402902603149,9.786897659301758,0.06103515625,0.030517578125,-0.213623046875
0.47749990000000003,0.6901286244392395,-0.5225345492362976,9.793481826782227,-0.06103515625,0.1220703125,-0.152587890625
0.4824999,0.6697779297828674,-0.5135562419891357,9.79288387298584,-0.06103515625,0.152587890625,-0.274658203125
0.4874999,0.6625953316688538,-0.5105634927749634,9.793481826782227,0.030517578125,0,-0.213623046875
0.4924999,0.7038952708244324,-0.5195417404174805,9.78989028930664,0.030517578125,0.030517578125,-0.396728515625
0.4974999,0.7015010714530945,-0.524330198764801,9.781511306762695,0.091552734375,0.06103515625,-0.213623046875
0.5024999,0.6979097723960876,-0.5249287486076355,9.786897659301758,-0.06103515625,0.06103515625,-0.152587890625
0.5074999,0.689530074596405,-0.5231330990791321,9.790489196777344,-0.091552734375,0.244140625,-0.244140625
0.5124999,0.6763619780540466,-0.5219359993934631,9.780313491821289,0.06103515625,0.06103515625,-0.244140625
0.5174999,0.6697779297828674,-0.517746090888977,9.79288387298584,0.06103515625,0.1220703125,-0.213623046875
0.5224999,0.6631938815116882,-0.5159504413604736,9.78869342803955,0,0.06103515625,-0.30517578125
0.5274999,0.6619967818260193,-0.5105634927749634,9.798869132995605,0.091552734375,0.1220703125,-0.152587890625
0.5324999,0.6613982319831848,-0.50876784324646,9.785700798034668,0.030517578125,-0.1220703125,-0.18310546875
0.5374999,0.667982280254364,-0.5105634927749634,9.789292335510254,0.030517578125,-0.152587890625,-0.152587890625
0.5424999,0.6751648783683777,-0.5123591423034668,9.789292335510254,0.1220703125,0.030517578125,-0.274658203125
0.5474999,0.679354727268219,-0.5135562419891357,9.780912399291992,0.1220703125,-0.091552734375,-0.274658203125
0.5524999,0.689530074596405,-0.5165489912033081,9.78989028930664,0,0.06103515625,-0.18310546875
0.5574999,0.6943184733390808,-0.5165489912033081,9.783307075500488,-0.1220703125,0.06103515625,-0.152587890625
0.5624999,0.6596025824546814,-0.5147533416748047,9.79527759552002,0,0,-0.091552734375
0.5674999000000001,0.6613982319831848,-0.5135562419891357,9.799467086791992,-0.06103515625,0,-0.274658203125
0.5724999000000001,0.6602011322975159,-0.5129576921463013,9.793481826782227,0,-0.1220703125,-0.396728515625
0.5774999000000001,0.6673837304115295,-0.5123591423034668,9.805453300476074,0.06103515625,-0.06103515625,-0.244140625
0.5824999,0.6697779297828674,-0.5123591423034668,9.798869132995605,0.030517578125,-0.030517578125,-0.244140625
0.5874999,0.6757634282112122,-0.5123591423034668,9.79527759552002,0.030517578125,-0.091552734375,-0.18310546875
0.5924999,0.6829460263252258,-0.5141547918319702,9.799467086791992,-0.030517578125,0.091552734375,-0.335693359375
0.5974999,0.6847416758537292,-0.5147533416748047,9.783307075500488,-0.091552734375,0.091552734375,-0.274658203125
0.6024999,0.6883329749107361,-0.5171475410461426,9.787496566772461,0.1220703125,0.030517578125,-0.1220703125
0.6074999,0.6889315247535706,-0.5171475410461426,9.785700798034668,0.1220703125,0.091552734375,-0.274658203125
0.6124999,0.6847416758537292,-0.5183446407318115,9.789292335510254,0.030517578125,0.18310546875,-0.18310546875
0.6174999,0.6775590777397156,-0.518943190574646,9.782708168029785,0.152587890625,0.1220703125,-0.244140625
0.6224999,0.6739677786827087,-0.5213374495506287,9.785101890563965,0.030517578125,0,-0.091552734375
0.6274999,0.6715735793113708,-0.518943190574646,9.794678688049316,-0.030517578125,0,-0.152587890625
0.6324999,0.6685808300971985,-0.5201402902603149,9.786299705505371,0.091552734375,-0.091552734375,-0.335693359375
0.6374999,0.6709750294685364,-0.5171475410461426,9.797672271728516,0.091552734375,-0.091552734375,-0.213623046875
0.6424999,0.6787561774253845,-0.5183446407318115,9.78989028930664,-0.06103515625,-0.152587890625,-0.3662109375
0.6474999,0.6865373253822327,-0.5213374495506287,9.800065994262695,-0.06103515625,0.030517578125,-0.3662109375
0.6524999,0.6865373253822327,-0.5183446407318115,9.786897659301758,0.030517578125,0.030517578125,-0.18310546875
0.6574999,0.6865373253822327,-0.5171475410461426,9.789292335510254,0.091552734375,0.06103515625,-0.091552734375
0.6624999,0.6877344250679016,-0.5165489912033081,9.791686058044434,0.06103515625,0.06103515625,-0.274658203125
0.6674999,0.6721721291542053,-0.5153518915176392,9.786897659301758,0,0.1220703125,-0.091552734375
0.6724999,0.6685808300971985,-0.5153518915176392,9.785101890563965,-0.091552734375,0.1220703125,-0.213623046875
0.6774999,0.6721721291542053,-0.5159504413604736,9.79408073425293,-0.06103515625,0.1220703125,-0.213623046875
0.6824999,0.6685808300971985,-0.517746090888977,9.785700798034668,0,-0.06103515625,-0.213623046875
0.6874999,0.6715735793113708,-0.5195417404174805,9.78989028930664,0.030517578125,0.1220703125,-0.152587890625
0.6924999000000001,0.669179379940033,-0.5201402902603149,9.793481826782227,0.1220703125,-0.030517578125,-0.213623046875
0.6974999000000001,0.667982280254364,-0.518943190574646,9.783905029296875,0,-0.1220703125,-0.335693359375
0.7024999000000001,0.6745663285255432,-0.5147533416748047,9.799467086791992,0,-0.1220703125,-0.152587890625
0.7074999,0.679354727268219,-0.5111620426177979,9.793481826782227,0.030517578125,0.091552734375,-0.244140625
0.7124999,0.6859387755393982,-0.5099649429321289,9.797672271728516,-0.030517578125,0.06103515625,-0.213623046875
0.7174999,0.6931213736534119,-0.5099649429321289,9.803657531738281,0.091552734375,0.06103515625,-0.152587890625
0.7224999,0.6883329749107361,-0.5141547918319702,9.794678688049316,-0.06103515625,0.152587890625,-0.335693359375
0.7274999,0.6883329749107361,-0.5141547918319702,9.794678688049316,-0.06103515625,0.152587890625,-0.335693359375
0.7324999,0.6829460263252258,-0.5159504413604736,9.788095474243164,0.06103515625,0.06103515625,-0.244140625
0.7374999,0.6745663285255432,-0.518943190574646,9.780313491821289,-0.06103515625,0.091552734375,-0.244140625
0.7424999,0.6727706789970398,-0.5201402902603149,9.791686058044434,-0.030517578125,0.18310546875,-0.18310546875
0.7474999,0.6661866307258606,-0.5207388401031494,9.780912399291992,0.06103515625,0.030517578125,-0.30517578125
0.7524999,0.6685808300971985,-0.5165489912033081,9.784503936767578,0.091552734375,0.030517578125,-0.244140625
0.7574999,0.6697779297828674,-0.5129576921463013,9.784503936767578,0,0.030517578125,-0.18310546875
0.7624999,0.6763619780540466,-0.5105634927749634,9.797073364257812,-0.091552734375,0.06103515625,-0.30517578125
0.7674999,0.6763619780540466,-0.5111620426177979,9.788095474243164,-0.1220703125,0.030517578125,-0.1220703125
0.7724999,0.6799532771110535,-0.5129576921463013,9.798270225524902,0.030517578125,0.06103515625,-0.152587890625
0.7774999,0.6817489266395569,-0.5159504413604736,9.79288387298584,0.213623046875,-0.030517578125,-0.213623046875
0.7824999,0.6901286244392395,-0.5111620426177979,9.789292335510254,0.030517578125,0.1220703125,-0.244140625
0.7874999,0.6901286244392395,-0.5111620426177979,9.789292335510254,0.030517578125,0.1220703125,-0.244140625
0.7924999,0.6865373253822327,-0.5117605924606323,9.783307075500488,0.1220703125,0.030517578125,-0.213623046875
0.7974999,0.6823474764823914,-0.5129576921463013,9.790489196777344,0.091552734375,0.091552734375,-0.274658203125
0.8024999,0.6709750294685364,-0.5141547918319702,9.782708168029785,-0.091552734375,0.1220703125,-0.335693359375
0.8074999,0.6697779297828674,-0.5159504413604736,9.792284965515137,0,-0.06103515625,-0.213623046875
0.8124999,0.6649895310401917,-0.5153518915176392,9.785101890563965,-0.1220703125,0.030517578125,-0.152587890625
0.8174999000000001,0.6631938815116882,-0.5171475410461426,9.782109260559082,-0.091552734375,0,-0.213623046875
0.8224999000000001,0.6685808300971985,-0.5141547918319702,9.792284965515137,-0.030517578125,-0.030517578125,-0.274658203125
0.8274999000000001,0.6769605278968811,-0.50876784324646,9.786897659301758,-0.1220703125,-0.274658203125,-0.1220703125
0.8324999000000001,0.6871358752250671,-0.5057750940322876,9.787496566772461,-0.213623046875,-0.152587890625,-0.091552734375
0.8374999,0.6985083222389221,-0.5051765441894531,9.785101890563965,0.1220703125,0.1220703125,-0.244140625
0.8424999,0.6949170231819153,-0.507570743560791,9.787496566772461,0.1220703125,0.1220703125,-0.18310546875
0.8474999,0.6913257241249084,-0.507570743560791,9.793481826782227,0.1220703125,0.18310546875,-0.18310546875
0.8524999,0.6829460263252258,-0.5093663930892944,9.784503936767578,0.06103515625,0.030517578125,-0.18310546875
0.8574999,0.6817489266395569,-0.5123591423034668,9.798270225524902,0,-0.030517578125,-0.274658203125
0.8624999,0.6763619780540466,-0.5153518915176392,9.79408073425293,0.030517578125,-0.091552734375,-0.213623046875
0.8674999,0.6727706789970398,-0.5171475410461426,9.787496566772461,0.091552734375,0,-0.213623046875
0.8724999,0.6721721291542053,-0.5165489912033081,9.790489196777344,0.030517578125,0.152587890625,-0.213623046875
0.8774999,0.6703764796257019,-0.5141547918319702,9.777320861816406,-0.091552734375,0.06103515625,-0.244140625
0.8824999,0.6739677786827087,-0.5141547918319702,9.780313491821289,-0.06103515625,0.091552734375,-0.152587890625
0.8874999,0.6751648783683777,-0.5141547918319702,9.784503936767578,0,0,-0.244140625
0.8924999,0.6757634282112122,-0.5159504413604736,9.779715538024902,-0.030517578125,0,-0.213623046875
0.8974999,0.6865373253822327,-0.5159504413604736,9.786897659301758,0.030517578125,-0.030517578125,-0.244140625
0.9024999,0.6937199234962463,-0.5165489912033081,9.78989028930664,0.030517578125,-0.06103515625,-0.335693359375
0.9074999,0.6937199234962463,-0.5165489912033081,9.780912399291992,0.06103515625,-0.030517578125,-0.30517578125
0.9124999,0.6985083222389221,-0.5147533416748047,9.791088104248047,-0.030517578125,0.06103515625,-0.152587890625
0.9174999,0.6925228238105774,-0.5129576921463013,9.792284965515137,-0.030517578125,0.091552734375,-0.244140625
0.9224999,0.6865373253822327,-0.5099649429321289,9.795876502990723,0,0.152587890625,-0.244140625
0.9274999,0.6787561774253845,-0.50876784324646,9.807249069213867,0,0.213623046875,-0.244140625
0.9324999,0.667982280254364,-0.507570743560791,9.797073364257812,0,0.06103515625,-0.30517578125
0.9374999,0.6625953316688538,-0.5063736438751221,9.798270225524902,-0.06103515625,0.091552734375,-0.18310546875
0.9424999000000001,0.6590040326118469,-0.5051765441894531,9.794678688049316,0.030517578125,0,-0.274658203125
0.9474999000000001,0.6625953316688538,-0.5099649429321289,9.791088104248047,-0.091552734375,0.030517578125,-0.152587890625
0.9524999000000001,0.6667851805686951,-0.5165489912033081,9.778518676757812,0,-0.030517578125,-0.274658203125
0.9574999000000001,0.6763619780540466,-0.5195417404174805,9.779715538024902,0.030517578125,-0.06103515625,-0.244140625
0.9624999,0.6859387755393982,-0.5207388401031494,9.79408073425293,-0.091552734375,0.152587890625,-0.30517578125
0.9674999,0.6841431260108948,-0.5213374495506287,9.78989028930664,0,0,-0.30517578125
0.9724999,0.6835445761680603,-0.5213374495506287,9.797672271728516,0.030517578125,0.244140625,-0.244140625
0.9774999,0.67815762758255,-0.5201402902603149,9.782109260559082,0.030517578125,0,-0.213623046875
0.9824999,0.6769605278968811,-0.5153518915176392,9.783307075500488,0.06103515625,0.091552734375,-0.1220703125
0.9874999,0.6733692288398743,-0.5135562419891357,9.788095474243164,0.06103515625,0.1220703125,-0.274658203125
0.9924999,0.6715735793113708,-0.5135562419891357,9.797073364257812,0,0,-0.244140625
0.9974999,0.6703764796257019,-0.5129576921463013,9.791686058044434,0,0,-0.152587890625
1.0024999,0.6721721291542053,-0.5159504413604736,9.78869342803955,0.030517578125,-0.091552734375,-0.274658203125
1.0074999000000002,0.6763619780540466,-0.5171475410461426,9.798270225524902,-0.091552734375,-0.06103515625,-0.213623046875
1.0124999000000001,0.6745663285255432,-0.518943190574646,9.786299705505371,-0.06103515625,-0.152587890625,-0.152587890625
1.0174999000000002,0.67815762758255,-0.5225345492362976,9.797672271728516,0.06103515625,0,-0.152587890625
1.0224999000000001,0.6817489266395569,-0.5249287486076355,9.798270225524902,-0.030517578125,0.18310546875,-0.396728515625
1.0274999,0.6805518269538879,-0.524330198764801,9.792284965515137,0.030517578125,0.091552734375,-0.213623046875
1.0324999000000001,0.6823474764823914,-0.5267243981361389,9.800664901733398,-0.030517578125,0.18310546875,-0.244140625
1.0374999,0.67815762758255,-0.524330198764801,9.78869342803955,0.06103515625,0.152587890625,-0.244140625
1.0424999000000001,0.6739677786827087,-0.5219359993934631,9.78869342803955,-0.030517578125,-0.06103515625,-0.18310546875
1.0474999,0.6727706789970398,-0.5195417404174805,9.790489196777344,0,0.1220703125,-0.213623046875
1.0524999000000002,0.6655880808830261,-0.5123591423034668,9.78989028930664,-0.18310546875,0.091552734375,-0.335693359375
1.0574999,0.6649895310401917,-0.5129576921463013,9.789292335510254,-0.06103515625,0,-0.213623046875
1.0624999000000002,0.6739677786827087,-0.5153518915176392,9.79647445678711,-0.030517578125,-0.06103515625,-0.18310546875
1.0674999,0.6775590777397156,-0.5171475410461426,9.785700798034668,-0.030517578125,-0.152587890625,-0.244140625
1.0724999000000002,0.6877344250679016,-0.5153518915176392,9.790489196777344,-0.030517578125,-0.030517578125,-0.244140625
1.0774999,0.6931213736534119,-0.5135562419891357,9.793481826782227,0.1220703125,0.091552734375,-0.30517578125
1.0824999000000002,0.690727174282074,-0.5105634927749634,9.780912399291992,0.091552734375,-0.06103515625,-0.18310546875
1.0874999,0.6931213736534119,-0.5081692934036255,9.792284965515137,0.030517578125,0.091552734375,-0.213623046875
1.0924999000000002,0.6871358752250671,-0.5057750940322876,9.776124000549316,0,0.030517578125,-0.244140625
1.0974999,0.6859387755393982,-0.5027823448181152,9.774927139282227,0.152587890625,0.030517578125,-0.152587890625
1.1024999000000002,0.6835445761680603,-0.5039794445037842,9.779715538024902,0.091552734375,0.213623046875,-0.244140625
1.1074999,0.6637924313545227,-0.5165489912033081,9.798270225524902,0,0.152587890625,-0.274658203125
1.1124999000000002,0.6596025824546814,-0.5147533416748047,9.798270225524902,0.091552734375,0,-0.18310546875
1.1174999,0.6637924313545227,-0.5123591423034668,9.807847023010254,0.030517578125,0.030517578125,-0.091552734375
1.1224999000000002,0.6637924313545227,-0.5057750940322876,9.794678688049316,0.030517578125,-0.030517578125,-0.152587890625
1.1274999,0.6721721291542053,-0.5045779943466187,9.799467086791992,0.030517578125,-0.1220703125,-0.06103515625
1.1324999000000002,0.6775590777397156,-0.5045779943466187,9.800664901733398,0.152587890625,-0.091552734375,-0.244140625
1.1374999000000001,0.6799532771110535,-0.5051765441894531,9.79288387298584,0.06103515625,-0.1220703125,-0.274658203125
1.1424999000000002,0.6835445761680603,-0.50876784324646,9.804255485534668,0,0.030517578125,-0.091552734375
1.1474999000000001,0.6835445761680603,-0.5099649429321289,9.79408073425293,0.091552734375,-0.030517578125,-0.213623046875
1.1524999000000002,0.6847416758537292,-0.5129576921463013,9.79288387298584,-0.030517578125,0,-0.213623046875
1.1574999000000001,0.6871358752250671,-0.5165489912033081,9.800065994262695,0.030517578125,0.213623046875,-0.335693359375
1.1624999,0.6835445761680603,-0.5141547918319702,9.79647445678711,-0.030517578125,0.091552734375,-0.152587890625
1.1674999000000001,0.6811503767967224,-0.5111620426177979,9.790489196777344,0.030517578125,0.06103515625,-0.244140625
1.1724999,0.6775590777397156,-0.5057750940322876,9.783307075500488,0.06103515625,-0.152587890625,-0.18310546875
1.1774999000000002,0.6799532771110535,-0.5039794445037842,9.793481826782227,0.06103515625,0.091552734375,-0.18310546875
1.1824999,0.6739677786827087,-0.5027823448181152,9.780912399291992,0.06103515625,0.030517578125,-0.3662109375
1.1874999000000002,0.6733692288398743,-0.5027823448181152,9.78989028930664,0,-0.091552734375,-0.091552734375
1.1924999,0.6739677786827087,-0.5051765441894531,9.79527759552002,-0.091552734375,0.030517578125,-0.213623046875
1.1974999000000002,0.6727706789970398,-0.5057750940322876,9.788095474243164,-0.091552734375,-0.06103515625,-0.30517578125
1.2024999,0.6865373253822327,-0.5069721937179565,9.791088104248047,0.030517578125,0.213623046875,-0.335693359375
1.2074999000000002,0.6901286244392395,-0.5057750940322876,9.790489196777344,-0.1220703125,0.091552734375,-0.3662109375
1.2124999,0.6949170231819153,-0.507570743560791,9.797672271728516,0,0.091552734375,-0.152587890625
1.2174999000000002,0.6829460263252258,-0.5105634927749634,9.794678688049316,-0.030517578125,0.244140625,-0.213623046875
1.2224999,0.6739677786827087,-0.5129576921463013,9.790489196777344,0.030517578125,0.152587890625,-0.213623046875
1.2274999000000002,0.6625953316688538,-0.5135562419891357,9.783905029296875,-0.06103515625,0.1220703125,-0.396728515625
1.2324999,0.6602011322975159,-0.5165489912033081,9.794678688049316,0.091552734375,0.152587890625,-0.18310546875
1.2374999000000002,0.657806932926178,-0.5153518915176392,9.784503936767578,0.030517578125,-0.030517578125,-0.244140625
1.2424999,0.6613982319831848,-0.5165489912033081,9.788095474243164,0.030517578125,-0.06103515625,-0.213623046875
1.2474999000000002,0.669179379940033,-0.5153518915176392,9.790489196777344,0.06103515625,0.091552734375,-0.213623046875
1.2524999,0.6721721291542053,-0.5123591423034668,9.781511306762695,0,-0.06103515625,-0.244140625
1.2574999000000002,0.6811503767967224,-0.5123591423034668,9.792284965515137,-0.030517578125,-0.030517578125,0
1.2624999000000001,0.6841431260108948,-0.5129576921463013,9.788095474243164,-0.06103515625,0.030517578125,-0.1220703125
1.2674999000000002,0.6871358752250671,-0.5111620426177979,9.788095474243164,-0.030517578125,-0.030517578125,-0.244140625
1.2724999000000001,0.6901286244392395,-0.5141547918319702,9.797073364257812,-0.030517578125,0.06103515625,-0.244140625
1.2774999000000002,0.6775590777397156,-0.5063736438751221,9.791686058044434,0.030517578125,0.244140625,-0.213623046875
1.2824999000000001,0.669179379940033,-0.5033808946609497,9.784503936767578,0.091552734375,0.06103515625,-0.30517578125
1.2874999,0.6655880808830261,-0.5045779943466187,9.797672271728516,0.152587890625,0.091552734375,-0.244140625
1.2924999000000001,0.6596025824546814,-0.5063736438751221,9.78869342803955,0.18310546875,0.030517578125,-0.274658203125
1.2974999,0.6596025824546814,-0.5105634927749634,9.787496566772461,0.030517578125,-0.1220703125,-0.30517578125
1.3024999000000002,0.6625953316688538,-0.517746090888977,9.791686058044434,0.091552734375,0,-0.152587890625
1.3074999,0.6631938815116882,-0.5225345492362976,9.776124000549316,0,-0.06103515625,-0.3662109375
1.3124999000000002,0.6703764796257019,-0.52552729845047,9.78989028930664,-0.06103515625,0.030517578125,-0.1220703125
1.3174999,0.6757634282112122,-0.5249287486076355,9.790489196777344,-0.030517578125,0.030517578125,-0.213623046875
1.3224999000000002,0.67815762758255,-0.5225345492362976,9.789292335510254,0.06103515625,-0.091552734375,-0.244140625
1.3274999,0.6847416758537292,-0.5195417404174805,9.79647445678711,0.06103515625,-0.06103515625,-0.213623046875
1.3324999000000002,0.6835445761680603,-0.5171475410461426,9.784503936767578,0.06103515625,0.18310546875,-0.1220703125
1.3374999,0.6823474764823914,-0.5165489912033081,9.785101890563965,0.06103515625,0.18310546875,-0.244140625
1.3424999000000002,0.6739677786827087,-0.5159504413604736,9.780313491821289,0.1220703125,0.030517578125,-0.396728515625
1.3474999,0.6733692288398743,-0.5159504413604736,9.792284965515137,0,0.091552734375,-0.213623046875
1.3524999000000002,0.6673837304115295,-0.5159504413604736,9.782109260559082,-0.06103515625,0.030517578125,-0.335693359375
1.3574999,0.6697779297828674,-0.5165489912033081,9.782708168029785,-0.091552734375,0.152587890625,-0.30517578125
1.3624999000000002,0.6727706789970398,-0.5213374495506287,9.784503936767578,-0.030517578125,0.152587890625,-0.244140625
1.3674999,0.6751648783683777,-0.524330198764801,9.775525093078613,0.030517578125,-0.030517578125,-0.244140625
1.3724999000000002,0.6829460263252258,-0.5249287486076355,9.788095474243164,0.152587890625,-0.18310546875,-0.091552734375
1.3774999,0.6829460263252258,-0.5249287486076355,9.788095474243164,0.152587890625,-0.18310546875,-0.091552734375
1.3824999000000002,0.6853402256965637,-0.52552729845047,9.791088104248047,-0.030517578125,-0.030517578125,-0.213623046875
1.3874999000000001,0.6853402256965637,-0.5201402902603149,9.791088104248047,-0.06103515625,-0.091552734375,-0.091552734375
1.3924999000000002,0.6805518269538879,-0.5147533416748047,9.800664901733398,-0.06103515625,-0.06103515625,-0.213623046875
1.3974999000000001,0.6805518269538879,-0.5147533416748047,9.800664901733398,-0.06103515625,-0.06103515625,-0.213623046875
1.4024999000000002,0.6769605278968811,-0.5123591423034668,9.805453300476074,-0.030517578125,0.06103515625,-0.244140625
1.4074999000000001,0.6739677786827087,-0.5105634927749634,9.80904483795166,0.06103515625,0.213623046875,-0.244140625
1.4124999,0.669179379940033,-0.5105634927749634,9.793481826782227,0.1220703125,0,-0.1220703125
1.4174999000000001,0.6745663285255432,-0.5093663930892944,9.800664901733398,-0.030517578125,0.1220703125,-0.244140625
1.4224999,0.6745663285255432,-0.5129576921463013,9.78869342803955,0.030517578125,0.152587890625,-0.42724609375
1.4274999000000002,0.6775590777397156,-0.5159504413604736,9.787496566772461,0.030517578125,0.06103515625,-0.274658203125
1.4324999,0.6811503767967224,-0.517746090888977,9.793481826782227,-0.091552734375,0.152587890625,-0.213623046875
1.4374999000000002,0.6745663285255432,-0.5201402902603149,9.780912399291992,0.06103515625,0,-0.18310546875
1.4424999,0.6763619780540466,-0.5207388401031494,9.786897659301758,0.06103515625,-0.030517578125,-0.06103515625
1.4474999000000002,0.6757634282112122,-0.5207388401031494,9.783307075500488,-0.030517578125,0,-0.335693359375
1.4524999,0.6787561774253845,-0.5099649429321289,9.788095474243164,0.06103515625,0.1220703125,-0.244140625
1.4574999000000002,0.679354727268219,-0.5111620426177979,9.797073364257812,0.030517578125,0.030517578125,-0.274658203125
1.4624999,0.6763619780540466,-0.5111620426177979,9.790489196777344,0,-0.06103515625,-0.274658203125
1.4674999000000002,0.6775590777397156,-0.5141547918319702,9.802460670471191,0.06103515625,0.091552734375,-0.152587890625
1.4724999,0.6757634282112122,-0.518943190574646,9.79408073425293,0.091552734375,0.244140625,-0.274658203125
1.4774999000000002,0.6733692288398743,-0.518943190574646,9.79288387298584,0.030517578125,0.091552734375,-0.244140625
1.4824999,0.6775590777397156,-0.5201402902603149,9.797073364257812,-0.030517578125,0,-0.213623046875
1.4874999000000002,0.6739677786827087,-0.5159504413604736,9.78869342803955,-0.030517578125,-0.030517578125,-0.3662109375
1.4924999,0.6751648783683777,-0.5111620426177979,9.794678688049316,0.030517578125,0.06103515625,-0.335693359375
1.4974999000000002,0.6721721291542053,-0.5105634927749634,9.797073364257812,0.06103515625,0.06103515625,-0.274658203125
1.5024999,0.6769605278968811,-0.5195417404174805,9.79408073425293,0.1220703125,0.091552734375,-0.396728515625
1.5074999000000002,0.6745663285255432,-0.5213374495506287,9.780912399291992,0.030517578125,0.030517578125,-0.213623046875
1.5124999000000001,0.6757634282112122,-0.524330198764801,9.78989028930664,0.06103515625,0.091552734375,-0.18310546875
1.5174999000000002,0.6775590777397156,-0.524330198764801,9.785700798034668,0.06103515625,0.030517578125,-0.274658203125
1.5224999000000001,0.6811503767967224,-0.5195417404174805,9.786897659301758,0,0.18310546875,-0.274658203125
1.5274999000000002,0.6775590777397156,-0.5147533416748047,9.774927139282227,0,0.030517578125,-0.42724609375
1.5324999000000001,0.6763619780540466,-0.507570743560791,9.780313491821289,-0.030517578125,0,-0.274658203125
1.5374999000000003,0.6745663285255432,-0.5039794445037842,9.782109260559082,0.030517578125,0.06103515625,-0.244140625
1.5424999000000001,0.6865373253822327,-0.5033808946609497,9.806650161743164,-0.091552734375,0.42724609375,-0.274658203125
1.5474999,0.6733692288398743,-0.5069721937179565,9.77672290802002,0.091552734375,-0.091552734375,-0.274658203125
1.5524999000000002,0.6823474764823914,-0.5141547918319702,9.829395294189453,0.152587890625,0.152587890625,-0.274658203125
1.5574999,0.667982280254364,-0.5135562419891357,9.80904483795166,0.030517578125,0.06103515625,-0.244140625
1.5624999000000002,0.6572083830833435,-0.5057750940322876,9.789292335510254,-0.030517578125,-0.396728515625,-0.213623046875
1.5674999,0.6655880808830261,-0.5027823448181152,9.815030097961426,-0.213623046875,-0.030517578125,-0.091552734375
1.5724999000000002,0.6613982319831848,-0.5051765441894531,9.793481826782227,-0.091552734375,-0.030517578125,-0.152587890625
1.5774999,0.6667851805686951,-0.5117605924606323,9.798869132995605,-0.030517578125,0.06103515625,-0.335693359375
1.5824999000000002,0.6697779297828674,-0.5213374495506287,9.800664901733398,0.06103515625,0.213623046875,-0.48828125
1.5874999,0.6667851805686951,-0.5207388401031494,9.79647445678711,0.091552734375,0.213623046875,-0.213623046875
1.5924999000000002,0.6709750294685364,-0.5183446407318115,9.80904483795166,0.030517578125,0.335693359375,-0.152587890625
1.5974999,0.6590040326118469,-0.5141547918319702,9.806051254272461,-0.091552734375,-0.030517578125,-0.274658203125
1.6024999000000002,0.6590040326118469,-0.5183446407318115,9.802460670471191,0.030517578125,-0.091552734375,-0.335693359375
1.6074999,0.656609833240509,-0.517746090888977,9.792284965515137,0.091552734375,-0.213623046875,-0.18310546875
1.6124999000000002,0.6703764796257019,-0.5159504413604736,9.800664901733398,-0.030517578125,-0.030517578125,-0.1220703125
1.6174999,0.6745663285255432,-0.5099649429321289,9.777320861816406,-0.18310546875,0.1220703125,-0.213623046875
1.6224999000000002,0.6859387755393982,-0.5093663930892944,9.780912399291992,-0.030517578125,0.1220703125,-0.213623046875
1.6274999,0.6937199234962463,-0.5129576921463013,9.786299705505371,0,0.213623046875,-0.213623046875
1.6324999000000002,0.6883329749107361,-0.5135562419891357,9.769539833068848,0.1220703125,0.152587890625,-0.335693359375
1.6374999000000001,0.6913257241249084,-0.5153518915176392,9.791088104248047,-0.030517578125,0.274658203125,-0.30517578125
1.6424999000000002,0.6799532771110535,-0.5111620426177979,9.784503936767578,-0.091552734375,0.152587890625,-0.335693359375
1.6474999000000001,0.6649895310401917,-0.5099649429321289,9.779715538024902,0.030517578125,-0.091552734375,-0.18310546875
1.6524999000000002,0.6613982319831848,-0.5123591423034668,9.798869132995605,0.030517578125,0,-0.274658203125
1.6574999000000001,0.657806932926178,-0.5117605924606323,9.791686058044434,0.030517578125,0,-0.3662109375
1.6624999000000003,0.6685808300971985,-0.5093663930892944,9.79527759552002,0,0.091552734375,-0.274658203125
1.6674999000000001,0.6745663285255432,-0.5081692934036255,9.787496566772461,0.091552734375,0.030517578125,-0.030517578125
1.6724999,0.6847416758537292,-0.5099649429321289,9.806650161743164,0,0.18310546875,-0.1220703125
1.6774999000000002,0.6835445761680603,-0.5111620426177979,9.798869132995605,-0.1220703125,0,-0.42724609375
1.6824999,0.6805518269538879,-0.507570743560791,9.807847023010254,-0.152587890625,0.213623046875,-0.213623046875
1.6874999000000002,0.67815762758255,-0.5039794445037842,9.792284965515137,-0.213623046875,0,-0.18310546875
1.6924999,0.6787561774253845,-0.507570743560791,9.795876502990723,-0.030517578125,0.091552734375,-0.18310546875
1.6974999000000002,0.6817489266395569,-0.5111620426177979,9.783307075500488,0,0.030517578125,-0.396728515625
1.7024999,0.6847416758537292,-0.5147533416748047,9.783307075500488,0.030517578125,0.06103515625,-0.42724609375
1.7074999000000002,0.690727174282074,-0.5147533416748047,9.793481826782227,0.030517578125,0.18310546875,-0.213623046875
1.7124999,0.6835445761680603,-0.5129576921463013,9.803058624267578,-0.06103515625,0.030517578125,-0.152587890625
1.7174999000000002,0.6733692288398743,-0.5165489912033081,9.806051254272461,0.06103515625,0.18310546875,-0.1220703125
1.7224999,0.6667851805686951,-0.5183446407318115,9.804854393005371,0.213623046875,-0.091552734375,-0.213623046875
1.7274999000000002,0.6673837304115295,-0.518943190574646,9.818022727966309,0.030517578125,0.030517578125,-0.18310546875
1.7324999,0.6625953316688538,-0.5159504413604736,9.800664901733398,-0.091552734375,-0.18310546875,-0.1220703125
1.7374999000000002,0.6667851805686951,-0.5159504413604736,9.801861763000488,0,-0.18310546875,-0.18310546875
1.7424999,0.6715735793113708,-0.5201402902603149,9.800065994262695,0,0.030517578125,-0.335693359375
1.7474999000000002,0.6745663285255432,-0.5249287486076355,9.780912399291992,0.06103515625,-0.1220703125,-0.213623046875
1.7524999,0.6841431260108948,-0.5327098965644836,9.79408073425293,-0.06103515625,0.091552734375,-0.18310546875
1.7574999000000002,0.6865373253822327,-0.5339069962501526,9.784503936767578,0,0.18310546875,-0.18310546875
1.7624999000000001,0.6811503767967224,-0.518943190574646,9.799467086791992,-0.030517578125,0.091552734375,-0.274658203125
1.7674999000000002,0.6745663285255432,-0.5129576921463013,9.800664901733398,0.06103515625,0.091552734375,-0.30517578125
1.7724999000000001,0.6685808300971985,-0.5111620426177979,9.793481826782227,0.1220703125,0.030517578125,-0.18310546875
1.7774999000000002,0.6685808300971985,-0.5111620426177979,9.801262855529785,0,0.213623046875,-0.18310546875
1.7824999000000001,0.6661866307258606,-0.5159504413604736,9.78869342803955,0.091552734375,0.152587890625,-0.3662109375
1.7874999000000003,0.6655880808830261,-0.517746090888977,9.785700798034668,0.18310546875,0.030517578125,-0.091552734375
1.7924999000000001,0.6673837304115295,-0.5207388401031494,9.78989028930664,-0.030517578125,0.030517578125,-0.091552734375
1.7974999,0.6655880808830261,-0.5213374495506287,9.776124000549316,0.030517578125,-0.06103515625,-0.244140625
1.8024999000000002,0.667982280254364,-0.518943190574646,9.786299705505371,0.06103515625,-0.091552734375,-0.213623046875
1.8074999,0.6709750294685364,-0.5201402902603149,9.781511306762695,0.030517578125,-0.18310546875,-0.213623046875
1.8124999000000002,0.6727706789970398,-0.5159504413604736,9.778518676757812,-0.030517578125,-0.030517578125,-0.18310546875
1.8174999,0.679354727268219,-0.5153518915176392,9.791088104248047,-0.030517578125,0.091552734375,-0.244140625
1.8224999000000002,0.6871358752250671,-0.50876784324646,9.795876502990723,0.06103515625,0.030517578125,-0.030517578125
1.8274999,0.6919242739677429,-0.5069721937179565,9.800065994262695,0.030517578125,0.06103515625,-0.244140625
1.8324999000000002,0.6889315247535706,-0.5063736438751221,9.793481826782227,0.213623046875,0.030517578125,-0.30517578125
1.8374999,0.689530074596405,-0.5093663930892944,9.804854393005371,0.06103515625,0.152587890625,-0.18310546875
1.8424999000000002,0.6715735793113708,-0.5183446407318115,9.797672271728516,0.091552734375,0.06103515625,-0.244140625
1.8474999,0.6637924313545227,-0.5213374495506287,9.784503936767578,0.06103515625,0.030517578125,-0.244140625
1.8524999000000002,0.6637924313545227,-0.5231330990791321,9.79527759552002,0.06103515625,0.030517578125,-0.213623046875
1.8574999,0.6637924313545227,-0.5201402902603149,9.792284965515137,-0.06103515625,0.06103515625,-0.244140625
1.8624999000000002,0.6625953316688538,-0.5183446407318115,9.791088104248047,-0.06103515625,0,-0.213623046875
1.8674999,0.6721721291542053,-0.5099649429321289,9.791088104248047,-0.06103515625,-0.030517578125,-0.30517578125
1.8724999000000002,0.6799532771110535,-0.507570743560791,9.79647445678711,0.1220703125,-0.091552734375,-0.1220703125
1.8774999,0.6883329749107361,-0.50876784324646,9.798869132995605,0.091552734375,-0.06103515625,-0.213623046875
1.8824999000000002,0.6901286244392395,-0.5117605924606323,9.786299705505371,0,0,-0.18310546875
1.8874999000000001,0.6973112225532532,-0.5159504413604736,9.797073364257812,-0.030517578125,0.18310546875,-0.244140625
1.8924999000000002,0.6931213736534119,-0.5207388401031494,9.786897659301758,0.091552734375,0.1220703125,-0.335693359375
1.8974999000000001,0.6901286244392395,-0.5225345492362976,9.785700798034668,0.06103515625,-0.06103515625,-0.244140625
1.9024999000000002,0.6877344250679016,-0.5201402902603149,9.79647445678711,0.091552734375,-0.030517578125,-0.18310546875
1.9074999000000001,0.679354727268219,-0.5165489912033081,9.786897659301758,0,0.213623046875,-0.30517578125
1.9124999000000003,0.6757634282112122,-0.5093663930892944,9.792284965515137,-0.030517578125,0.030517578125,-0.091552734375
1.9174999000000001,0.6703764796257019,-0.507570743560791,9.791088104248047,0,0.06103515625,-0.18310546875
1.9224999,0.6625953316688538,-0.5045779943466187,9.778518676757812,-0.030517578125,-0.091552734375,-0.335693359375
1.9274999000000002,0.6823474764823914,-0.5153518915176392,9.797073364257812,-0.06103515625,-0.06103515625,-0.244140625
1.9324999,0.6823474764823914,-0.5147533416748047,9.791686058044434,-0.030517578125,0.091552734375,-0.274658203125
1.9374999000000002,0.6823474764823914,-0.5153518915176392,9.786897659301758,0,0.1220703125,-0.30517578125
1.9424999,0.6865373253822327,-0.5135562419891357,9.79647445678711,-0.06103515625,0.152587890625,-0.18310546875
1.9474999000000002,0.6817489266395569,-0.5153518915176392,9.789292335510254,0.06103515625,0.152587890625,-0.18310546875
1.9524999,0.6811503767967224,-0.5141547918319702,9.795876502990723,0.152587890625,0.091552734375,-0.244140625
1.9574999000000002,0.6775590777397156,-0.517746090888977,9.803657531738281,0.152587890625,0.1220703125,-0.213623046875
1.9624999,0.6685808300971985,-0.518943190574646,9.787496566772461,0.06103515625,0,-0.213623046875
1.9674999000000002,0.6703764796257019,-0.5207388401031494,9.785700798034668,-0.030517578125,0.091552734375,-0.213623046875
1.9724999,0.6697779297828674,-0.5213374495506287,9.77672290802002,-0.030517578125,-0.06103515625,-0.213623046875
1.9774999000000002,0.6769605278968811,-0.5219359993934631,9.783905029296875,0,-0.091552734375,-0.18310546875
1.9824999,0.6817489266395569,-0.5249287486076355,9.789292335510254,-0.030517578125,-0.030517578125,-0.152587890625
1.9874999000000002,0.6853402256965637,-0.5261258482933044,9.786299705505371,-0.030517578125,-0.091552734375,-0.274658203125
1.9924999,0.6853402256965637,-0.5261258482933044,9.786299705505371,-0.030517578125,-0.091552734375,-0.274658203125
1.9974999000000002,0.6931213736534119,-0.5261258482933044,9.797672271728516,-0.030517578125,0.030517578125,-0.30517578125
2.0024999,0.6925228238105774,-0.5159504413604736,9.79647445678711,0.06103515625,0.152587890625,-0.152587890625
2.0074999,0.6901286244392395,-0.5111620426177979,9.801861763000488,0,0.213623046875,-0.18310546875
2.0124999000000003,0.6572083830833435,-0.5285200476646423,9.803657531738281,-0.030517578125,0.152587890625,-0.18310546875
2.0174999000000002,0.6554127335548401,-0.5309142470359802,9.79647445678711,0.06103515625,-0.030517578125,-0.213623046875
2.0224999,0.6625953316688538,-0.5297171473503113,9.801861763000488,0.030517578125,-0.06103515625,-0.213623046875
2.0274999,0.6703764796257019,-0.5273229479789734,9.803657531738281,0,-0.06103515625,-0.335693359375
2.0324999000000004,0.6757634282112122,-0.5213374495506287,9.790489196777344,0.030517578125,-0.1220703125,-0.274658203125
2.0374999000000003,0.6853402256965637,-0.5195417404174805,9.798270225524902,0.030517578125,0,-0.1220703125
2.0424999,0.6913257241249084,-0.5159504413604736,9.78989028930664,0.06103515625,0.06103515625,-0.244140625
2.0474999,0.6931213736534119,-0.5171475410461426,9.785101890563965,0.06103515625,0,-0.30517578125
2.0524999,0.6973112225532532,-0.5183446407318115,9.79408073425293,0.030517578125,0.1220703125,-0.274658203125
2.0574999000000003,0.6883329749107361,-0.5165489912033081,9.786897659301758,-0.091552734375,0,-0.244140625
2.0624999,0.6823474764823914,-0.5141547918319702,9.78989028930664,0,0.091552734375,-0.30517578125
2.0674999,0.6733692288398743,-0.5159504413604736,9.781511306762695,0.030517578125,0.06103515625,-0.396728515625
2.0724999,0.6685808300971985,-0.5159504413604736,9.79408073425293,-0.030517578125,0.152587890625,-0.244140625
2.0774999000000003,0.6625953316688538,-0.5153518915176392,9.791088104248047,0.030517578125,0.030517578125,-0.30517578125
2.0824999,0.6607996821403503,-0.5081692934036255,9.806650161743164,-0.1220703125,0.06103515625,-0.244140625
2.0874999,0.6619967818260193,-0.5057750940322876,9.798270225524902,-0.091552734375,-0.1220703125,-0.18310546875
2.0924999,0.6685808300971985,-0.5093663930892944,9.803058624267578,0.091552734375,-0.030517578125,-0.18310546875
2.0974999000000003,0.6775590777397156,-0.5129576921463013,9.798869132995605,0.06103515625,0.06103515625,-0.213623046875
2.1024999,0.6829460263252258,-0.5201402902603149,9.784503936767578,0,0,-0.18310546875
2.1074999,0.6919242739677429,-0.5219359993934631,9.791686058044434,0.091552734375,0.06103515625,-0.213623046875
2.1124999,0.6937199234962463,-0.5195417404174805,9.783307075500488,0.030517578125,0.06103515625,-0.244140625
2.1174999000000003,0.6913257241249084,-0.5195417404174805,9.792284965515137,0,0.1220703125,-0.244140625
2.1224999,0.6847416758537292,-0.5195417404174805,9.783307075500488,-0.030517578125,0.1220703125,-0.30517578125
2.1274999,0.6799532771110535,-0.5195417404174805,9.79408073425293,0.030517578125,0.091552734375,-0.244140625
2.1324999,0.6751648783683777,-0.5213374495506287,9.794678688049316,0,0.091552734375,-0.274658203125
2.1374999000000003,0.6685808300971985,-0.5207388401031494,9.79288387298584,-0.030517578125,0,-0.244140625
2.1424999000000002,0.669179379940033,-0.517746090888977,9.806051254272461,-0.091552734375,0.030517578125,-0.274658203125
2.1474999,0.6643909811973572,-0.517746090888977,9.801262855529785,-0.091552734375,0.06103515625,-0.213623046875
2.1524999,0.667982280254364,-0.517746090888977,9.805453300476074,-0.06103515625,-0.06103515625,-0.1220703125
2.1574999000000004,0.6727706789970398,-0.5201402902603149,9.81143856048584,-0.06103515625,0.06103515625,-0.244140625
2.1624999000000003,0.6859387755393982,-0.5183446407318115,9.785700798034668,-0.030517578125,0.213623046875,-0.3662109375
2.1674999,0.6883329749107361,-0.517746090888977,9.791686058044434,0.152587890625,0.152587890625,-0.274658203125
2.1724999,0.6817489266395569,-0.5165489912033081,9.783307075500488,0.06103515625,0.030517578125,-0.3662109375
2.1774999000000004,0.679354727268219,-0.5123591423034668,9.788095474243164,0,0.1220703125,-0.06103515625
2.1824999000000003,0.6757634282112122,-0.5105634927749634,9.793481826782227,0,0.152587890625,-0.1220703125
2.1874999,0.667982280254364,-0.5081692934036255,9.791088104248047,-0.06103515625,0.1220703125,-0.213623046875
2.1924999,0.6643909811973572,-0.5081692934036255,9.798869132995605,0.091552734375,0.213623046875,-0.06103515625
2.1974999,0.6596025824546814,-0.5093663930892944,9.798869132995605,0.06103515625,0.1220703125,-0.274658203125
2.2024999000000003,0.656609833240509,-0.50876784324646,9.79527759552002,-0.091552734375,0,-0.244140625
2.2074999,0.6590040326118469,-0.5105634927749634,9.803657531738281,-0.06103515625,0.06103515625,-0.274658203125
2.2124999,0.6637924313545227,-0.5093663930892944,9.79527759552002,-0.1220703125,-0.091552734375,-0.42724609375
2.2174999,0.6721721291542053,-0.5111620426177979,9.800065994262695,-0.030517578125,0,-0.213623046875
2.2224999000000003,0.6811503767967224,-0.5129576921463013,9.802460670471191,-0.091552734375,0.1220703125,-0.244140625
2.2274999,0.6871358752250671,-0.5141547918319702,9.792284965515137,0.030517578125,-0.030517578125,-0.213623046875
2.2324999,0.6937199234962463,-0.5153518915176392,9.797672271728516,-0.152587890625,0.06103515625,-0.152587890625
2.2374999,0.6931213736534119,-0.5165489912033081,9.791088104248047,0,0.030517578125,-0.213623046875
2.2424999000000003,0.6901286244392395,-0.5153518915176392,9.78869342803955,0.18310546875,0.06103515625,-0.213623046875
2.2474999,0.6841431260108948,-0.5183446407318115,9.797073364257812,-0.030517578125,0.213623046875,-0.244140625
2.2524999,0.6745663285255432,-0.5171475410461426,9.78869342803955,-0.091552734375,0.06103515625,-0.18310546875
2.2574999,0.6673837304115295,-0.5183446407318115,9.795876502990723,0.030517578125,0.18310546875,-0.091552734375
2.2624999000000003,0.6631938815116882,-0.5201402902603149,9.797073364257812,-0.030517578125,0.18310546875,-0.213623046875
2.2674999000000002,0.6584054827690125,-0.5237316489219666,9.790489196777344,-0.091552734375,0,-0.335693359375
2.2724999,0.6613982319831848,-0.524330198764801,9.798869132995605,-0.091552734375,0,-0.213623046875
2.2774999,0.6607996821403503,-0.5261258482933044,9.792284965515137,0,0,-0.335693359375
2.2824999000000004,0.6727706789970398,-0.5153518915176392,9.78989028930664,-0.091552734375,0,-0.18310546875
2.2874999000000003,0.6769605278968811,-0.5159504413604736,9.793481826782227,0.091552734375,0.091552734375,-0.274658203125
2.2924999,0.6787561774253845,-0.5141547918319702,9.786299705505371,0.091552734375,0,-0.18310546875
2.2974999,0.6841431260108948,-0.5123591423034668,9.79527759552002,0.18310546875,-0.030517578125,-0.152587890625
2.3024999000000004,0.6835445761680603,-0.5135562419891357,9.788095474243164,0.06103515625,0,-0.274658203125
2.3074999000000003,0.6787561774253845,-0.5129576921463013,9.791686058044434,-0.06103515625,0.06103515625,-0.152587890625
2.3124999,0.6769605278968811,-0.5147533416748047,9.798270225524902,0.091552734375,0,-0.091552734375
2.3174999,0.667982280254364,-0.5153518915176392,9.79288387298584,-0.030517578125,-0.091552734375,-0.274658203125
2.3224999,0.6667851805686951,-0.5171475410461426,9.79647445678711,0,0.1220703125,-0.274658203125
2.3274999000000003,0.6727706789970398,-0.5141547918319702,9.794678688049316,0.1220703125,0.18310546875,-0.1220703125
2.3324999,0.6757634282112122,-0.5111620426177979,9.783307075500488,0.030517578125,-0.1220703125,-0.213623046875
2.3374999,0.6799532771110535,-0.5093663930892944,9.783905029296875,0.030517578125,-0.030517578125,-0.274658203125
2.3424999,0.6847416758537292,-0.5123591423034668,9.789292335510254,0.030517578125,0.06103515625,-0.18310546875
2.3474999000000003,0.6829460263252258,-0.5135562419891357,9.780313491821289,0.091552734375,0,-0.152587890625
2.3524999,0.6847416758537292,-0.517746090888977,9.791686058044434,0.091552734375,0.1220703125,-0.091552734375
2.3574999,0.6871358752250671,-0.5201402902603149,9.79527759552002,0,0.274658203125,-0.1220703125
2.3624999,0.6859387755393982,-0.5213374495506287,9.79408073425293,-0.030517578125,0.152587890625,-0.244140625
2.3674999000000003,0.6853402256965637,-0.524330198764801,9.804854393005371,0.06103515625,0.030517578125,-0.335693359375
2.3724999,0.6787561774253845,-0.524330198764801,9.79408073425293,0.030517578125,0.091552734375,-0.42724609375
2.3774999,0.6715735793113708,-0.52552729845047,9.79288387298584,0.1220703125,0,-0.152587890625
2.3824999,0.667982280254364,-0.5231330990791321,9.792284965515137,0.1220703125,0.06103515625,-0.152587890625
2.3874999000000003,0.6661866307258606,-0.5159504413604736,9.791088104248047,-0.030517578125,0.06103515625,-0.335693359375
2.3924999000000002,0.667982280254364,-0.5135562419891357,9.789292335510254,0,-0.030517578125,-0.335693359375
2.3974999,0.6721721291542053,-0.5141547918319702,9.788095474243164,0.030517578125,-0.091552734375,-0.213623046875
2.4024999,0.6799532771110535,-0.5141547918319702,9.797672271728516,0.030517578125,0,-0.213623046875
2.4074999000000004,0.6799532771110535,-0.5165489912033081,9.786897659301758,0.030517578125,0.030517578125,-0.213623046875
2.4124999000000003,0.6823474764823914,-0.5183446407318115,9.790489196777344,0,-0.030517578125,-0.213623046875
2.4174999,0.6805518269538879,-0.5201402902603149,9.788095474243164,0.091552734375,0.030517578125,-0.213623046875
2.4224999,0.6739677786827087,-0.5201402902603149,9.782708168029785,0.030517578125,0.030517578125,-0.213623046875
2.4274999000000004,0.6739677786827087,-0.5183446407318115,9.791088104248047,0,0.030517578125,-0.274658203125
2.4324999000000003,0.669179379940033,-0.5165489912033081,9.785700798034668,-0.06103515625,0,-0.335693359375
2.4374999,0.6685808300971985,-0.5111620426177979,9.786299705505371,0.06103515625,0.091552734375,-0.152587890625
2.4424999,0.6715735793113708,-0.5069721937179565,9.78989028930664,0.06103515625,0.152587890625,-0.213623046875
2.4474999,0.669179379940033,-0.5069721937179565,9.784503936767578,0.030517578125,0.030517578125,-0.1220703125
2.4524999000000003,0.6697779297828674,-0.5093663930892944,9.777320861816406,-0.030517578125,-0.091552734375,-0.213623046875
2.4574999,0.6745663285255432,-0.5117605924606323,9.78989028930664,0.091552734375,0.091552734375,-0.244140625
2.4624999,0.6787561774253845,-0.5153518915176392,9.786299705505371,0.06103515625,0.030517578125,-0.335693359375
2.4674999,0.6841431260108948,-0.5183446407318115,9.791686058044434,-0.06103515625,-0.06103515625,-0.152587890625
2.4724999000000003,0.6919242739677429,-0.52552729845047,9.801262855529785,0.1220703125,0.091552734375,-0.213623046875
2.4774999,0.6925228238105774,-0.5261258482933044,9.790489196777344,0.1220703125,0.06103515625,-0.335693359375
2.4824999,0.6937199234962463,-0.5261258482933044,9.798270225524902,-0.030517578125,0.06103515625,-0.213623046875
2.4874999,0.6901286244392395,-0.5231330990791321,9.79647445678711,0.030517578125,0,-0.213623046875
2.4924999000000003,0.6799532771110535,-0.5171475410461426,9.79288387298584,0,0.030517578125,-0.18310546875
2.4974999,0.6739677786827087,-0.5153518915176392,9.801262855529785,0.030517578125,0.1220703125,-0.18310546875
2.5024999,0.6625953316688538,-0.5123591423034668,9.79288387298584,-0.030517578125,-0.18310546875,-0.274658203125
2.5074999,0.6643909811973572,-0.5135562419891357,9.793481826782227,0.06103515625,-0.06103515625,-0.30517578125
2.5124999000000003,0.6667851805686951,-0.5111620426177979,9.781511306762695,0,-0.06103515625,-0.152587890625
2.5174999000000002,0.6715735793113708,-0.5105634927749634,9.793481826782227,0.091552734375,0,-0.091552734375
2.5224999,0.6745663285255432,-0.5093663930892944,9.78869342803955,0.030517578125,-0.06103515625,-0.152587890625
2.5274999,0.6751648783683777,-0.50876784324646,9.792284965515137,0.091552734375,-0.091552734375,-0.274658203125
2.5324999000000004,0.6829460263252258,-0.5105634927749634,9.800065994262695,0.06103515625,0.1220703125,-0.3662109375
2.5374999000000003,0.6829460263252258,-0.50876784324646,9.790489196777344,-0.030517578125,-0.030517578125,-0.30517578125
2.5424999,0.689530074596405,-0.5105634927749634,9.793481826782227,-0.091552734375,0.1220703125,-0.213623046875
2.5474999,0.690727174282074,-0.5123591423034668,9.79288387298584,-0.06103515625,0.1220703125,-0.274658203125
2.5524999000000004,0.6877344250679016,-0.5117605924606323,9.785700798034668,-0.1220703125,0.091552734375,-0.30517578125
2.5574999000000003,0.6877344250679016,-0.5153518915176392,9.79647445678711,0,0.06103515625,-0.213623046875
2.5624999,0.6805518269538879,-0.5183446407318115,9.7791166305542,-0.030517578125,-0.244140625,-0.244140625
2.5674999,0.6841431260108948,-0.5207388401031494,9.783905029296875,-0.030517578125,-0.1220703125,-0.244140625
2.5724999,0.6823474764823914,-0.5225345492362976,9.77791976928711,-0.091552734375,0.030517578125,-0.213623046875
2.5774999000000003,0.6817489266395569,-0.5231330990791321,9.782708168029785,0,-0.030517578125,-0.274658203125
2.5824999,0.6817489266395569,-0.52552729845047,9.79408073425293,0,0.152587890625,-0.1220703125
2.5874999,0.679354727268219,-0.5207388401031494,9.793481826782227,-0.091552734375,0.030517578125,-0.274658203125
2.5924999,0.679354727268219,-0.5165489912033081,9.805453300476074,0.1220703125,0.091552734375,-0.18310546875
2.5974999000000003,0.669179379940033,-0.5057750940322876,9.799467086791992,0.091552734375,0.18310546875,-0.30517578125
2.6024999,0.669179379940033,-0.5057750940322876,9.804854393005371,-0.030517578125,0.152587890625,-0.213623046875
2.6074999,0.6655880808830261,-0.5093663930892944,9.789292335510254,-0.030517578125,0.030517578125,-0.335693359375
2.6124999,0.6655880808830261,-0.5093663930892944,9.789292335510254,-0.030517578125,0.030517578125,-0.335693359375
2.6174999000000003,0.667982280254364,-0.5141547918319702,9.791686058044434,0,0,0
2.6224999,0.6685808300971985,-0.5183446407318115,9.79527759552002,-0.030517578125,-0.091552734375,-0.152587890625
2.6274999,0.669179379940033,-0.5195417404174805,9.794678688049316,-0.030517578125,-0.152587890625,-0.335693359375
2.6324999,0.6733692288398743,-0.5237316489219666,9.808445930480957,0.030517578125,0.1220703125,-0.18310546875
2.6374999000000003,0.6763619780540466,-0.5249287486076355,9.810839653015137,-0.030517578125,-0.091552734375,-0.06103515625
2.6424999000000002,0.6799532771110535,-0.517746090888977,9.79647445678711,-0.091552734375,-0.030517578125,-0.274658203125
2.6474999,0.6739677786827087,-0.5099649429321289,9.793481826782227,0.030517578125,0.1220703125,-0.18310546875
2.6524999,0.6739677786827087,-0.5099649429321289,9.793481826782227,0.030517578125,0.1220703125,-0.18310546875
2.6574999000000004,0.6643909811973572,-0.5063736438751221,9.783307075500488,0,0.1220703125,-0.213623046875
2.6624999000000003,0.6613982319831848,-0.507570743560791,9.797073364257812,0.18310546875,0.030517578125,-0.335693359375
2.6674999,0.656609833240509,-0.50876784324646,9.794678688049316,0.091552734375,-0.06103515625,-0.18310546875
2.6724999,0.6554127335548401,-0.5111620426177979,9.792284965515137,0.030517578125,0.030517578125,-0.1220703125
2.6774999000000004,0.6607996821403503,-0.5147533416748047,9.797672271728516,-0.091552734375,0.06103515625,-0.213623046875
2.6824999000000003,0.6625953316688538,-0.517746090888977,9.782708168029785,0.030517578125,0.030517578125,-0.18310546875
2.6874999,0.6697779297828674,-0.5159504413604736,9.782708168029785,-0.06103515625,0.030517578125,-0.213623046875
2.6924999,0.6745663285255432,-0.5153518915176392,9.779715538024902,-0.06103515625,0,-0.152587890625
2.6974999,0.6769605278968811,-0.5123591423034668,9.77253246307373,0.06103515625,-0.06103515625,-0.091552734375
2.7024999000000003,0.6841431260108948,-0.5129576921463013,9.785101890563965,0.091552734375,0.152587890625,-0.1220703125
2.7074999,0.6871358752250671,-0.5117605924606323,9.785700798034668,0.06103515625,0,-0.18310546875
2.7124999,0.6919242739677429,-0.5099649429321289,9.799467086791992,0,0.152587890625,-0.1220703125
2.7174999,0.6865373253822327,-0.50876784324646,9.791088104248047,0.030517578125,0.1220703125,-0.06103515625
2.7224999000000003,0.6751648783683777,-0.5099649429321289,9.78989028930664,-0.06103515625,0.06103515625,-0.1220703125
2.7274999,0.6733692288398743,-0.5111620426177979,9.798270225524902,0,0,-0.213623046875
2.7324999,0.6685808300971985,-0.5117605924606323,9.791088104248047,0.152587890625,-0.06103515625,-0.30517578125
2.7374999,0.667982280254364,-0.5123591423034668,9.79408073425293,0.152587890625,-0.091552734375,-0.1220703125
2.7424999000000003,0.6721721291542053,-0.5123591423034668,9.799467086791992,-0.06103515625,0.06103515625,-0.152587890625
2.7474999,0.6739677786827087,-0.5135562419891357,9.786897659301758,-0.06103515625,-0.091552734375,-0.30517578125
2.7524999,0.6823474764823914,-0.5153518915176392,9.79408073425293,0,-0.213623046875,-0.274658203125
2.7574999,0.6877344250679016,-0.5171475410461426,9.791088104248047,0.06103515625,0.244140625,-0.244140625
2.7624999000000003,0.6829460263252258,-0.5195417404174805,9.798869132995605,0.152587890625,0.152587890625,-0.274658203125
2.7674999000000002,0.6751648783683777,-0.5213374495506287,9.793481826782227,0,-0.091552734375,-0.244140625
2.7724999,0.6727706789970398,-0.5231330990791321,9.804854393005371,0.030517578125,0.06103515625,-0.1220703125
2.7774999,0.669179379940033,-0.5231330990791321,9.797073364257812,-0.030517578125,0.030517578125,-0.244140625
2.7824999000000004,0.667982280254364,-0.5207388401031494,9.79527759552002,-0.030517578125,-0.1220703125,-0.274658203125
2.7874999000000003,0.6727706789970398,-0.5183446407318115,9.798270225524902,-0.030517578125,0.06103515625,-0.274658203125
2.7924999,0.6709750294685364,-0.5153518915176392,9.786299705505371,0,0.06103515625,-0.244140625
2.7974999,0.6769605278968811,-0.5141547918319702,9.790489196777344,-0.06103515625,0.06103515625,-0.1220703125
2.8024999000000004,0.6787561774253845,-0.5117605924606323,9.780313491821289,0.091552734375,0.06103515625,-0.30517578125
2.8074999000000003,0.6805518269538879,-0.5129576921463013,9.803657531738281,0.030517578125,0.213623046875,-0.274658203125
2.8124999,0.6727706789970398,-0.5093663930892944,9.784503936767578,-0.091552734375,0.06103515625,-0.30517578125
2.8174999,0.6685808300971985,-0.5093663930892944,9.803058624267578,0.06103515625,0.06103515625,-0.3662109375
2.8224999,0.6643909811973572,-0.5105634927749634,9.797073364257812,0.152587890625,0.06103515625,-0.335693359375
2.8274999000000003,0.657806932926178,-0.5123591423034668,9.78869342803955,0.1220703125,-0.06103515625,-0.18310546875
2.8324999,0.6661866307258606,-0.517746090888977,9.808445930480957,0,0.213623046875,-0.18310546875
2.8374999,0.6572083830833435,-0.5213374495506287,9.782708168029785,-0.030517578125,-0.030517578125,-0.335693359375
2.8424999,0.6661866307258606,-0.5249287486076355,9.798869132995605,0.152587890625,0.091552734375,-0.18310546875
2.8474999000000003,0.6649895310401917,-0.5237316489219666,9.777320861816406,-0.152587890625,0.030517578125,-0.274658203125
2.8524999,0.6757634282112122,-0.5231330990791321,9.798270225524902,0.030517578125,0.152587890625,-0.152587890625
2.8574999,0.6775590777397156,-0.5237316489219666,9.782109260559082,0.1220703125,-0.091552734375,-0.18310546875
2.8624999,0.6817489266395569,-0.5207388401031494,9.781511306762695,0.18310546875,-0.1220703125,-0.244140625
2.8674999000000003,0.6883329749107361,-0.518943190574646,9.79647445678711,0.06103515625,0.1220703125,-0.244140625
2.8724999,0.6847416758537292,-0.5141547918319702,9.782109260559082,-0.030517578125,0.18310546875,-0.48828125
2.8774999,0.6817489266395569,-0.5111620426177979,9.794678688049316,-0.1220703125,0.18310546875,-0.335693359375
2.8824999,0.6649895310401917,-0.5069721937179565,9.783307075500488,0.030517578125,0,-0.244140625
2.8874999000000003,0.6649895310401917,-0.5039794445037842,9.800664901733398,0.06103515625,0.1220703125,-0.18310546875
2.8924999000000002,0.6602011322975159,-0.4991910457611084,9.792284965515137,-0.06103515625,0.06103515625,-0.30517578125
2.8974999,0.6625953316688538,-0.5009866952896118,9.79527759552002,-0.030517578125,-0.091552734375,-0.274658203125
2.9024999,0.6703764796257019,-0.5147533416748047,9.79408073425293,0.030517578125,-0.06103515625,-0.30517578125
2.9074999000000004,0.6775590777397156,-0.5207388401031494,9.798270225524902,0.030517578125,-0.06103515625,-0.244140625
2.9124999000000003,0.6817489266395569,-0.5207388401031494,9.788095474243164,0.030517578125,-0.1220703125,-0.244140625
2.9174999,0.6829460263252258,-0.5207388401031494,9.776124000549316,-0.06103515625,-0.244140625,-0.06103515625
2.9224999,0.6889315247535706,-0.5183446407318115,9.782708168029785,-0.030517578125,0.091552734375,-0.1220703125
2.9274999000000004,0.6889315247535706,-0.5207388401031494,9.773730278015137,0.030517578125,0.06103515625,-0.335693359375
2.9324999000000003,0.6889315247535706,-0.5207388401031494,9.782708168029785,0.06103515625,0.030517578125,-0.18310546875
2.9374999,0.6877344250679016,-0.5201402902603149,9.78989028930664,0.1220703125,0.1220703125,-0.1220703125
2.9424999,0.6805518269538879,-0.5195417404174805,9.788095474243164,0.06103515625,0.213623046875,-0.18310546875
2.9474999,0.6763619780540466,-0.5207388401031494,9.800664901733398,-0.030517578125,0.213623046875,-0.1220703125
2.9524999000000003,0.6703764796257019,-0.524330198764801,9.800664901733398,0.030517578125,0.030517578125,-0.274658203125
2.9574999,0.6673837304115295,-0.5237316489219666,9.798270225524902,0.091552734375,0.030517578125,-0.18310546875
2.9624999,0.6799532771110535,-0.5111620426177979,9.803657531738281,-0.06103515625,-0.06103515625,-0.30517578125
2.9674999,0.6853402256965637,-0.5123591423034668,9.804255485534668,0,0.091552734375,-0.335693359375
2.9724999000000003,0.6871358752250671,-0.517746090888977,9.790489196777344,0.152587890625,-0.152587890625,-0.213623046875
2.9774999,0.690727174282074,-0.5219359993934631,9.79527759552002,0.152587890625,-0.1220703125,-0.152587890625
2.9824999,0.6955155730247498,-0.5225345492362976,9.792284965515137,0.030517578125,0.06103515625,-0.274658203125
2.9874999,0.6937199234962463,-0.5213374495506287,9.78989028930664,0.030517578125,0.06103515625,-0.3662109375
2.9924999000000003,0.6943184733390808,-0.5213374495506287,9.798869132995605,0.1220703125,0.06103515625,-0.335693359375
2.9974999,0.6853402256965637,-0.5201402902603149,9.790489196777344,0.091552734375,-0.06103515625,-0.244140625
3.0024999,0.679354727268219,-0.517746090888977,9.795876502990723,0.1220703125,0.244140625,-0.152587890625
3.0074999,0.6703764796257019,-0.5147533416748047,9.800664901733398,0.030517578125,0.274658203125,-0.18310546875
3.0124999000000003,0.6625953316688538,-0.5093663930892944,9.794678688049316,-0.030517578125,0.091552734375,-0.18310546875
3.0174999000000002,0.6703764796257019,-0.5141547918319702,9.79408073425293,0.030517578125,0,-0.396728515625
3.0224999,0.6787561774253845,-0.5195417404174805,9.798270225524902,0.030517578125,-0.030517578125,-0.152587890625
3.0274999,0.6877344250679016,-0.52552729845047,9.798869132995605,-0.152587890625,-0.030517578125,-0.274658203125
3.0324999000000004,0.6889315247535706,-0.5279214978218079,9.787496566772461,-0.030517578125,0.030517578125,-0.3662109375
3.0374999000000003,0.6931213736534119,-0.5309142470359802,9.79288387298584,0.06103515625,0.1220703125,-0.244140625
3.0424999,0.6931213736534119,-0.52552729845047,9.792284965515137,-0.06103515625,0.06103515625,-0.244140625
3.0474999,0.690727174282074,-0.524330198764801,9.79408073425293,0.030517578125,-0.06103515625,-0.213623046875
3.0524999000000004,0.6865373253822327,-0.518943190574646,9.804255485534668,0.030517578125,0.18310546875,-0.30517578125
3.0574999000000003,0.6799532771110535,-0.517746090888977,9.804255485534668,0.152587890625,0.152587890625,-0.152587890625
3.0624999,0.6829460263252258,-0.5219359993934631,9.798869132995605,0.06103515625,-0.030517578125,-0.244140625
3.0674999,0.6841431260108948,-0.5249287486076355,9.799467086791992,0,0.213623046875,-0.30517578125
3.0724999000000004,0.6829460263252258,-0.5267243981361389,9.78989028930664,0.091552734375,0,-0.396728515625
3.0774999000000003,0.6811503767967224,-0.524330198764801,9.793481826782227,0.18310546875,0.06103515625,-0.244140625
3.0824999,0.67815762758255,-0.5219359993934631,9.785101890563965,0.030517578125,0.091552734375,-0.274658203125
3.0874999,0.6721721291542053,-0.518943190574646,9.784503936767578,-0.091552734375,0.152587890625,-0.274658203125
3.0924999,0.6655880808830261,-0.5165489912033081,9.7791166305542,0.030517578125,0.06103515625,-0.48828125
3.0974999000000003,0.6649895310401917,-0.5111620426177979,9.783905029296875,0.091552734375,-0.030517578125,-0.30517578125
3.1024999,0.6643909811973572,-0.5069721937179565,9.78869342803955,0,0.030517578125,-0.152587890625
3.1074999,0.6649895310401917,-0.5039794445037842,9.777320861816406,-0.06103515625,0.06103515625,-0.244140625
3.1124999,0.667982280254364,-0.5063736438751221,9.783307075500488,-0.06103515625,-0.06103515625,-0.18310546875
3.1174999000000003,0.6709750294685364,-0.5117605924606323,9.774328231811523,0,-0.06103515625,-0.152587890625
3.1224999,0.6739677786827087,-0.5237316489219666,9.785700798034668,0.06103515625,0,-0.335693359375
3.1274999,0.6745663285255432,-0.5267243981361389,9.792284965515137,-0.030517578125,0.274658203125,-0.213623046875
3.1324999,0.667982280254364,-0.5063736438751221,9.785101890563965,0,0,-0.274658203125
3.1374999000000003,0.6685808300971985,-0.5081692934036255,9.792284965515137,0.18310546875,-0.1220703125,-0.213623046875
3.1424999000000002,0.6673837304115295,-0.50876784324646,9.781511306762695,0.06103515625,-0.18310546875,-0.18310546875
3.1474999,0.6715735793113708,-0.5129576921463013,9.788095474243164,-0.152587890625,-0.1220703125,-0.152587890625
3.1524999,0.6769605278968811,-0.5159504413604736,9.794678688049316,0,-0.030517578125,-0.244140625
3.1574999000000004,0.679354727268219,-0.518943190574646,9.79288387298584,0.06103515625,-0.030517578125,-0.1220703125
3.1624999000000003,0.6841431260108948,-0.5237316489219666,9.802460670471191,0.06103515625,0,-0.152587890625
3.1674999,0.6823474764823914,-0.5249287486076355,9.801861763000488,-0.091552734375,-0.030517578125,-0.3662109375
3.1724999,0.6817489266395569,-0.5261258482933044,9.799467086791992,0.06103515625,-0.030517578125,-0.30517578125
3.1774999000000004,0.6817489266395569,-0.5219359993934631,9.793481826782227,0,0.091552734375,-0.30517578125
3.1824999000000003,0.6817489266395569,-0.5219359993934631,9.793481826782227,0,0.091552734375,-0.30517578125
3.1874999,0.6829460263252258,-0.5183446407318115,9.797073364257812,0.030517578125,0.091552734375,-0.213623046875
3.1924999,0.6811503767967224,-0.5135562419891357,9.79527759552002,0.030517578125,0.18310546875,-0.244140625
3.1974999000000004,0.6745663285255432,-0.5099649429321289,9.791088104248047,0.18310546875,0,-0.152587890625
3.2024999000000003,0.6655880808830261,-0.5045779943466187,9.79288387298584,-0.091552734375,0.06103515625,-0.274658203125
3.2074999,0.6697779297828674,-0.50876784324646,9.794678688049316,0.030517578125,-0.06103515625,-0.274658203125
3.2124999,0.6703764796257019,-0.5129576921463013,9.78989028930664,-0.030517578125,-0.244140625,-0.244140625
3.2174999,0.6745663285255432,-0.5165489912033081,9.794678688049316,0.030517578125,0,-0.1220703125
3.2224999000000003,0.6811503767967224,-0.517746090888977,9.797073364257812,-0.06103515625,0.091552734375,-0.152587890625
3.2274999,0.679354727268219,-0.5099649429321289,9.780912399291992,-0.06103515625,0.1220703125,-0.244140625
3.2324999,0.679354727268219,-0.5099649429321289,9.780912399291992,-0.06103515625,0.1220703125,-0.244140625
3.2374999,0.6727706789970398,-0.5057750940322876,9.789292335510254,0.152587890625,0.06103515625,-0.18310546875
3.2424999000000003,0.6673837304115295,-0.5039794445037842,9.79408073425293,0.030517578125,0.06103515625,-0.30517578125
3.2474999,0.6631938815116882,-0.5033808946609497,9.788095474243164,0.030517578125,-0.06103515625,-0.42724609375
3.2524999,0.6703764796257019,-0.5069721937179565,9.793481826782227,0,-0.091552734375,-0.244140625
3.2574999,0.6733692288398743,-0.5063736438751221,9.78989028930664,0.030517578125,0.091552734375,-0.18310546875
3.2624999000000003,0.6811503767967224,-0.5099649429321289,9.78869342803955,0,0.06103515625,-0.213623046875
3.2674999000000002,0.6877344250679016,-0.5105634927749634,9.798869132995605,0.06103515625,0.1220703125,-0.18310546875
3.2724999,0.6865373253822327,-0.5159504413604736,9.799467086791992,-0.091552734375,0,-0.244140625
3.2774999,0.6841431260108948,-0.518943190574646,9.800065994262695,-0.1220703125,0.152587890625,-0.213623046875
3.2824999000000004,0.6745663285255432,-0.5141547918319702,9.786897659301758,0.06103515625,-0.030517578125,-0.30517578125
3.2874999000000003,0.6745663285255432,-0.5153518915176392,9.79647445678711,-0.06103515625,0.06103515625,-0.152587890625
3.2924999,0.6715735793113708,-0.5171475410461426,9.799467086791992,0,0.06103515625,-0.18310546875
3.2974999,0.6649895310401917,-0.517746090888977,9.793481826782227,0.030517578125,0.030517578125,-0.30517578125
3.3024999000000004,0.667982280254364,-0.518943190574646,9.798270225524902,-0.030517578125,-0.18310546875,-0.1220703125
3.3074999000000003,0.6847416758537292,-0.5141547918319702,9.798869132995605,0,0.1220703125,-0.213623046875
3.3124999,0.6877344250679016,-0.5153518915176392,9.79288387298584,-0.06103515625,0.06103515625,-0.3662109375
3.3174999,0.6931213736534119,-0.5183446407318115,9.797073364257812,0.030517578125,-0.030517578125,-0.274658203125
3.3224999000000004,0.6931213736534119,-0.5195417404174805,9.797672271728516,0,-0.030517578125,-0.30517578125
3.3274999000000003,0.689530074596405,-0.5207388401031494,9.78989028930664,-0.152587890625,0.091552734375,-0.396728515625
3.3324999,0.6835445761680603,-0.517746090888977,9.795876502990723,-0.152587890625,0.18310546875,-0.274658203125
3.3374999,0.6775590777397156,-0.5147533416748047,9.787496566772461,0,0.1220703125,-0.30517578125
3.3424999,0.6715735793113708,-0.5111620426177979,9.783905029296875,0.030517578125,0,-0.274658203125
3.3474999000000003,0.6703764796257019,-0.5099649429321289,9.790489196777344,0.06103515625,0.213623046875,-0.18310546875
3.3524999,0.6697779297828674,-0.5135562419891357,9.783307075500488,-0.030517578125,0,-0.457763671875
3.3574999,0.6715735793113708,-0.517746090888977,9.792284965515137,0,0,-0.1220703125
3.3624999,0.6829460263252258,-0.5159504413604736,9.781511306762695,0.152587890625,0,-0.18310546875
3.3674999000000003,0.6811503767967224,-0.5111620426177979,9.788095474243164,0.030517578125,0.1220703125,-0.213623046875
3.3724999,0.6787561774253845,-0.5081692934036255,9.78989028930664,0.030517578125,0.1220703125,-0.213623046875
3.3774999,0.6697779297828674,-0.5081692934036255,9.780912399291992,0.091552734375,0,-0.091552734375
3.3824999,0.6685808300971985,-0.5105634927749634,9.788095474243164,0.030517578125,0.152587890625,-0.030517578125
3.3874999000000003,0.6643909811973572,-0.5135562419891357,9.780313491821289,0.091552734375,0.152587890625,-0.274658203125
3.3924999000000002,0.6649895310401917,-0.5141547918319702,9.778518676757812,0.030517578125,0,-0.244140625
3.3974999,0.6841431260108948,-0.5195417404174805,9.790489196777344,-0.06103515625,-0.152587890625,-0.152587890625
3.4024999,0.6883329749107361,-0.5201402902603149,9.801861763000488,-0.091552734375,0.091552734375,-0.18310546875
3.4074999000000004,0.6865373253822327,-0.5165489912033081,9.79408073425293,-0.06103515625,0.18310546875,-0.30517578125
3.4124999000000003,0.6829460263252258,-0.5093663930892944,9.793481826782227,0,0.06103515625,-0.213623046875
3.4174999,0.679354727268219,-0.5081692934036255,9.800664901733398,-0.030517578125,0.1220703125,-0.1220703125
3.4224999,0.6721721291542053,-0.5057750940322876,9.791088104248047,0.030517578125,0.152587890625,-0.244140625
3.4274999000000004,0.667982280254364,-0.5105634927749634,9.800065994262695,0.030517578125,0,-0.091552734375
3.4324999000000003,0.6673837304115295,-0.5141547918319702,9.798270225524902,-0.06103515625,0.06103515625,-0.18310546875
3.4374999,0.6655880808830261,-0.5159504413604736,9.793481826782227,-0.030517578125,0,-0.274658203125
3.4424999,0.6751648783683777,-0.5183446407318115,9.79288387298584,-0.152587890625,0.030517578125,-0.18310546875
3.4474999000000004,0.679354727268219,-0.5219359993934631,9.800065994262695,0,0.030517578125,-0.244140625
3.4524999000000003,0.6787561774253845,-0.517746090888977,9.78989028930664,-0.18310546875,-0.1220703125,-0.244140625
3.4574999,0.6835445761680603,-0.5165489912033081,9.79527759552002,-0.030517578125,-0.091552734375,-0.18310546875
3.4624999,0.6823474764823914,-0.5123591423034668,9.79288387298584,0.030517578125,0.030517578125,-0.30517578125
3.4674999,0.6817489266395569,-0.5105634927749634,9.780912399291992,-0.091552734375,-0.030517578125,-0.18310546875
3.4724999000000003,0.6811503767967224,-0.5111620426177979,9.787496566772461,-0.06103515625,0.1220703125,-0.213623046875
3.4774999,0.6775590777397156,-0.5123591423034668,9.77791976928711,0.1220703125,0.1220703125,-0.30517578125
3.4824999,0.6751648783683777,-0.5153518915176392,9.7791166305542,0.1220703125,-0.030517578125,-0.244140625
3.4874999,0.6727706789970398,-0.5165489912033081,9.786299705505371,-0.030517578125,0.244140625,-0.244140625
3.4924999000000003,0.6673837304115295,-0.5135562419891357,9.787496566772461,0.06103515625,0.091552734375,-0.152587890625
3.4974999,0.6637924313545227,-0.5105634927749634,9.790489196777344,0,0.1220703125,-0.091552734375
3.5024999,0.6643909811973572,-0.5081692934036255,9.788095474243164,0.06103515625,-0.030517578125,-0.213623046875
3.5074999,0.669179379940033,-0.5093663930892944,9.798869132995605,0.1220703125,0.18310546875,-0.335693359375
3.5124999000000003,0.6727706789970398,-0.5117605924606323,9.787496566772461,0.091552734375,0.030517578125,-0.30517578125
3.5174999000000002,0.6799532771110535,-0.5135562419891357,9.785700798034668,-0.030517578125,0,-0.1220703125
3.5224999,0.6919242739677429,-0.518943190574646,9.776124000549316,0.091552734375,-0.06103515625,-0.213623046875
3.5274999,0.6967126727104187,-0.518943190574646,9.784503936767578,0.1220703125,0.06103515625,-0.1220703125
3.5324999000000004,0.6961141228675842,-0.5159504413604736,9.786897659301758,0.06103515625,0.091552734375,-0.18310546875
3.5374999000000003,0.6901286244392395,-0.5117605924606323,9.786897659301758,0.030517578125,0,-0.1220703125
3.5424999,0.6877344250679016,-0.5081692934036255,9.797672271728516,0,0.1220703125,-0.18310546875
3.5474999,0.6727706789970398,-0.5141547918319702,9.799467086791992,-0.030517578125,0.1220703125,-0.244140625
3.5524999000000004,0.6733692288398743,-0.517746090888977,9.792284965515137,-0.030517578125,-0.06103515625,-0.213623046875
3.5574999000000003,0.6775590777397156,-0.5195417404174805,9.799467086791992,0.091552734375,0.030517578125,-0.152587890625
3.5624999,0.6769605278968811,-0.5219359993934631,9.784503936767578,0.06103515625,-0.06103515625,-0.213623046875
3.5674999,0.6787561774253845,-0.5195417404174805,9.788095474243164,0.030517578125,0.030517578125,-0.274658203125
3.5724999000000004,0.6811503767967224,-0.5165489912033081,9.79288387298584,0,0.06103515625,-0.30517578125
3.5774999000000003,0.679354727268219,-0.5135562419891357,9.786897659301758,0.091552734375,0,-0.213623046875
3.5824999,0.6835445761680603,-0.5099649429321289,9.800664901733398,0,0.091552734375,-0.18310546875
3.5874999,0.6727706789970398,-0.5207388401031494,9.79408073425293,-0.030517578125,0.06103515625,-0.335693359375
3.5924999,0.6739677786827087,-0.5231330990791321,9.785101890563965,-0.091552734375,0.030517578125,-0.18310546875
3.5974999000000003,0.6811503767967224,-0.5195417404174805,9.797073364257812,0.030517578125,-0.06103515625,-0.152587890625
3.6024999,0.6853402256965637,-0.5105634927749634,9.797672271728516,-0.091552734375,-0.030517578125,-0.213623046875
3.6074999,0.6871358752250671,-0.5093663930892944,9.804854393005371,0,0.091552734375,-0.274658203125
3.6124999,0.6817489266395569,-0.5099649429321289,9.793481826782227,0,0.06103515625,-0.3662109375
3.6174999000000003,0.6805518269538879,-0.5117605924606323,9.798869132995605,0.091552734375,0.030517578125,-0.274658203125
3.6224999,0.6715735793113708,-0.5135562419891357,9.79647445678711,0.030517578125,-0.030517578125,-0.30517578125
3.6274999,0.6673837304115295,-0.5135562419891357,9.788095474243164,0.06103515625,0.030517578125,-0.18310546875
3.6324999,0.6673837304115295,-0.5165489912033081,9.789292335510254,0.030517578125,0.091552734375,-0.091552734375
3.6374999000000003,0.6703764796257019,-0.5183446407318115,9.79408073425293,-0.030517578125,0.152587890625,-0.244140625
3.6424999000000002,0.6709750294685364,-0.518943190574646,9.785101890563965,0,0.030517578125,-0.244140625
3.6474999,0.6799532771110535,-0.518943190574646,9.79527759552002,0.030517578125,0.091552734375,-0.06103515625
3.6524999,0.6811503767967224,-0.5159504413604736,9.79288387298584,0.06103515625,0,-0.1220703125
3.6574999000000004,0.6835445761680603,-0.5111620426177979,9.787496566772461,0.091552734375,-0.091552734375,-0.30517578125
3.6624999000000003,0.6859387755393982,-0.5069721937179565,9.801262855529785,0.091552734375,0.213623046875,-0.30517578125
3.6674999,0.6859387755393982,-0.5063736438751221,9.78989028930664,-0.030517578125,0.274658203125,-0.30517578125
3.6724999,0.6853402256965637,-0.5051765441894531,9.793481826782227,-0.091552734375,0,-0.18310546875
3.6774999000000004,0.6811503767967224,-0.5099649429321289,9.779715538024902,0.030517578125,0.091552734375,-0.18310546875
3.6824999000000003,0.6775590777397156,-0.5153518915176392,9.787496566772461,0.152587890625,0.1220703125,0.030517578125
3.6874999,0.6697779297828674,-0.517746090888977,9.786299705505371,0.152587890625,0.152587890625,-0.213623046875
3.6924999,0.6619967818260193,-0.5195417404174805,9.787496566772461,-0.091552734375,-0.030517578125,-0.213623046875
3.6974999000000004,0.6607996821403503,-0.5207388401031494,9.799467086791992,-0.06103515625,0,-0.244140625
3.7024999000000003,0.6572083830833435,-0.5183446407318115,9.787496566772461,-0.091552734375,0.06103515625,-0.274658203125
3.7074999,0.6631938815116882,-0.517746090888977,9.787496566772461,-0.030517578125,0,-0.1220703125
3.7124999,0.6703764796257019,-0.5141547918319702,9.786897659301758,-0.030517578125,0.1220703125,-0.213623046875
3.7174999,0.6757634282112122,-0.5123591423034668,9.776124000549316,0.030517578125,-0.030517578125,-0.244140625
3.7224999000000003,0.6853402256965637,-0.50876784324646,9.791686058044434,0,0.18310546875,-0.18310546875
3.7274999,0.6883329749107361,-0.5081692934036255,9.788095474243164,0.06103515625,0.18310546875,-0.244140625
3.7324999,0.6883329749107361,-0.5081692934036255,9.788095474243164,0.06103515625,0.18310546875,-0.244140625
3.7374999,0.690727174282074,-0.5105634927749634,9.801861763000488,0.06103515625,0.091552734375,-0.274658203125
3.7424999000000003,0.6841431260108948,-0.5129576921463013,9.797073364257812,-0.030517578125,0.06103515625,-0.152587890625
3.7474999,0.6811503767967224,-0.5183446407318115,9.805453300476074,0.030517578125,0.06103515625,-0.030517578125
3.7524999,0.6757634282112122,-0.5213374495506287,9.806051254272461,0.091552734375,0.091552734375,-0.274658203125
3.7574999,0.669179379940033,-0.5249287486076355,9.799467086791992,0,-0.06103515625,-0.244140625
3.7624999000000003,0.6703764796257019,-0.5225345492362976,9.775525093078613,-0.030517578125,-0.091552734375,-0.213623046875
3.7674999000000002,0.6757634282112122,-0.5195417404174805,9.785101890563965,-0.06103515625,-0.091552734375,-0.18310546875
3.7724999,0.6787561774253845,-0.5195417404174805,9.785101890563965,0,0.030517578125,-0.244140625
3.7774999,0.6877344250679016,-0.5171475410461426,9.794678688049316,-0.030517578125,0.18310546875,-0.18310546875
3.7824999000000004,0.6877344250679016,-0.5159504413604736,9.785700798034668,0,-0.030517578125,-0.213623046875
3.7874999000000003,0.6859387755393982,-0.5159504413604736,9.786897659301758,0.06103515625,-0.152587890625,-0.152587890625
3.7924999,0.6829460263252258,-0.5147533416748047,9.791686058044434,0.06103515625,0.1220703125,-0.335693359375
3.7974999,0.6745663285255432,-0.5123591423034668,9.784503936767578,0.030517578125,0.06103515625,-0.335693359375
3.8024999000000004,0.6703764796257019,-0.5099649429321289,9.797073364257812,-0.030517578125,0.152587890625,-0.213623046875
3.8074999000000003,0.6673837304115295,-0.5081692934036255,9.797073364257812,0,0,-0.18310546875
3.8124999,0.6643909811973572,-0.5063736438751221,9.79527759552002,0.030517578125,-0.1220703125,-0.244140625
3.8174999,0.6697779297828674,-0.5069721937179565,9.802460670471191,0,0.06103515625,-0.244140625
3.8224999000000004,0.6685808300971985,-0.5069721937179565,9.791686058044434,-0.030517578125,0.030517578125,-0.30517578125
3.8274999000000003,0.6745663285255432,-0.5105634927749634,9.791686058044434,-0.030517578125,-0.091552734375,-0.152587890625
3.8324999,0.67815762758255,-0.5153518915176392,9.790489196777344,0.030517578125,-0.06103515625,-0.274658203125
3.8374999,0.6865373253822327,-0.5183446407318115,9.787496566772461,0.091552734375,-0.030517578125,-0.152587890625
3.8424999,0.6841431260108948,-0.5117605924606323,9.798869132995605,0,0.213623046875,-0.1220703125
3.8474999000000003,0.6757634282112122,-0.50876784324646,9.791686058044434,-0.030517578125,0.1220703125,-0.213623046875
3.8524999,0.6697779297828674,-0.507570743560791,9.800065994262695,-0.030517578125,0.091552734375,-0.244140625
3.8574999,0.6649895310401917,-0.5093663930892944,9.803058624267578,0.06103515625,0.091552734375,-0.18310546875
3.8624999,0.6584054827690125,-0.5081692934036255,9.79527759552002,0,-0.030517578125,-0.18310546875
3.8674999000000003,0.6619967818260193,-0.5111620426177979,9.807249069213867,-0.030517578125,0.030517578125,-0.244140625
3.8724999,0.6637924313545227,-0.5111620426177979,9.79527759552002,0,0,-0.213623046875
3.8774999,0.6697779297828674,-0.5141547918319702,9.795876502990723,-0.030517578125,0,-0.244140625
3.8824999,0.6811503767967224,-0.5171475410461426,9.797073364257812,-0.06103515625,-0.091552734375,-0.244140625
3.8874999000000003,0.6925228238105774,-0.5153518915176392,9.78989028930664,-0.030517578125,0,-0.274658203125
3.8924999000000002,0.6967126727104187,-0.5159504413604736,9.790489196777344,-0.06103515625,0.06103515625,-0.244140625
3.8974999,0.6913257241249084,-0.5123591423034668,9.783905029296875,0,0.06103515625,-0.42724609375
3.9024999,0.6925228238105774,-0.5129576921463013,9.79647445678711,0.213623046875,0.152587890625,-0.18310546875
3.9074999000000004,0.6847416758537292,-0.5123591423034668,9.793481826782227,0.091552734375,0.244140625,-0.244140625
3.9124999000000003,0.6799532771110535,-0.5093663930892944,9.795876502990723,-0.030517578125,0.18310546875,-0.213623046875
3.9174999,0.6751648783683777,-0.5099649429321289,9.805453300476074,0.06103515625,0.213623046875,-0.213623046875
3.9224999,0.6560112833976746,-0.5099649429321289,9.790489196777344,-0.091552734375,0.1220703125,-0.244140625
3.9274999000000004,0.6607996821403503,-0.5093663930892944,9.782109260559082,-0.06103515625,-0.1220703125,-0.152587890625
3.9324999000000003,0.6649895310401917,-0.5147533416748047,9.784503936767578,-0.030517578125,0,-0.091552734375
3.9374999,0.6703764796257019,-0.518943190574646,9.787496566772461,-0.030517578125,0.06103515625,-0.335693359375
3.9424999,0.6709750294685364,-0.5219359993934631,9.780313491821289,0,0.091552734375,-0.3662109375
3.9474999000000004,0.6769605278968811,-0.524330198764801,9.797672271728516,0.18310546875,0.213623046875,-0.30517578125
3.9524999000000003,0.6739677786827087,-0.5207388401031494,9.795876502990723,-0.030517578125,0.091552734375,-0.274658203125
3.9574999,0.6727706789970398,-0.5201402902603149,9.797073364257812,-0.030517578125,0.091552734375,-0.18310546875
3.9624999,0.6727706789970398,-0.5183446407318115,9.80904483795166,0.152587890625,0.1220703125,-0.30517578125
3.9674999000000004,0.667982280254364,-0.517746090888977,9.79527759552002,0.152587890625,-0.030517578125,-0.3662109375
3.9724999000000003,0.6703764796257019,-0.5165489912033081,9.800664901733398,0.213623046875,0.06103515625,-0.244140625
3.9774999,0.6715735793113708,-0.5153518915176392,9.798869132995605,0.1220703125,0.030517578125,-0.244140625
3.9824999,0.6697779297828674,-0.5123591423034668,9.785700798034668,0,0.030517578125,-0.18310546875
3.9874999,0.6787561774253845,-0.5111620426177979,9.803657531738281,0.091552734375,-0.06103515625,-0.1220703125
3.9924999000000003,0.6805518269538879,-0.5111620426177979,9.79408073425293,-0.030517578125,-0.244140625,-0.213623046875
3.9974999,0.6847416758537292,-0.5123591423034668,9.803657531738281,0,0,-0.274658203125
4.0024999,0.6889315247535706,-0.5237316489219666,9.79408073425293,0.06103515625,0.091552734375,-0.3662109375
4.0074999,0.6841431260108948,-0.5231330990791321,9.795876502990723,0.06103515625,0.030517578125,-0.18310546875
4.0124999,0.679354727268219,-0.5201402902603149,9.797672271728516,0.06103515625,0.1220703125,-0.152587890625
4.0174999,0.6673837304115295,-0.5171475410461426,9.791088104248047,0.06103515625,0.030517578125,-0.274658203125
4.022499900000001,0.6572083830833435,-0.5117605924606323,9.800664901733398,-0.091552734375,0,-0.18310546875
4.0274999000000005,0.6560112833976746,-0.5093663930892944,9.802460670471191,-0.06103515625,-0.030517578125,-0.274658203125
4.0324999,0.6643909811973572,-0.5081692934036255,9.81263542175293,-0.091552734375,0.152587890625,-0.18310546875
4.0374999,0.6667851805686951,-0.5099649429321289,9.803058624267578,-0.06103515625,0,-0.30517578125
4.0424999,0.6763619780540466,-0.5105634927749634,9.807249069213867,0.06103515625,-0.030517578125,-0.244140625
4.0474999,0.6823474764823914,-0.5159504413604736,9.806051254272461,0.06103515625,0.030517578125,-0.30517578125
4.0524999,0.6847416758537292,-0.5183446407318115,9.790489196777344,-0.030517578125,-0.1220703125,-0.396728515625
4.0574999,0.6925228238105774,-0.517746090888977,9.798270225524902,0.06103515625,0.06103515625,-0.152587890625
4.062499900000001,0.6901286244392395,-0.5153518915176392,9.784503936767578,-0.091552734375,0.152587890625,-0.244140625
4.0674999000000005,0.6877344250679016,-0.50876784324646,9.783307075500488,0.091552734375,0.091552734375,-0.213623046875
4.0724999,0.6847416758537292,-0.5039794445037842,9.793481826782227,0.091552734375,0.030517578125,-0.18310546875
4.0774999,0.6757634282112122,-0.4991910457611084,9.788095474243164,0,0.030517578125,-0.152587890625
4.0824999,0.6655880808830261,-0.5111620426177979,9.790489196777344,0.06103515625,0.030517578125,-0.335693359375
4.0874999,0.6727706789970398,-0.5165489912033081,9.78989028930664,0,-0.152587890625,-0.152587890625
4.0924999,0.6823474764823914,-0.524330198764801,9.793481826782227,0,0.1220703125,-0.244140625
4.0974999,0.6841431260108948,-0.5237316489219666,9.785101890563965,0,-0.091552734375,-0.3662109375
4.1024999,0.6913257241249084,-0.52552729845047,9.798869132995605,0,-0.030517578125,-0.1220703125
4.1074999000000005,0.6913257241249084,-0.524330198764801,9.798869132995605,0,0.18310546875,-0.18310546875
4.1124999,0.6901286244392395,-0.5201402902603149,9.797672271728516,0.152587890625,-0.030517578125,-0.244140625
4.1174999,0.6925228238105774,-0.5171475410461426,9.804255485534668,0.06103515625,0.1220703125,-0.18310546875
4.1224999,0.6865373253822327,-0.5141547918319702,9.791088104248047,-0.030517578125,0.18310546875,-0.274658203125
4.1274999,0.6769605278968811,-0.5135562419891357,9.791686058044434,0.030517578125,0.1220703125,-0.213623046875
4.1324999,0.667982280254364,-0.5117605924606323,9.781511306762695,0.06103515625,-0.06103515625,-0.274658203125
4.1374999,0.6667851805686951,-0.5105634927749634,9.792284965515137,0,0.213623046875,-0.274658203125
4.1424999,0.6655880808830261,-0.5093663930892944,9.786299705505371,-0.06103515625,0.06103515625,-0.30517578125
4.147499900000001,0.6685808300971985,-0.5105634927749634,9.782708168029785,-0.091552734375,-0.152587890625,-0.06103515625
4.1524999000000005,0.67815762758255,-0.5117605924606323,9.791686058044434,-0.030517578125,0.091552734375,-0.152587890625
4.1574999,0.6847416758537292,-0.5123591423034668,9.779715538024902,0.030517578125,-0.030517578125,-0.213623046875
4.1624999,0.6901286244392395,-0.5111620426177979,9.788095474243164,0.06103515625,-0.152587890625,-0.18310546875
4.1674999,0.6883329749107361,-0.5051765441894531,9.742006301879883,0.152587890625,0.152587890625,-0.457763671875
4.1724999,0.6919242739677429,-0.5117605924606323,9.77133560180664,-0.091552734375,0,-0.335693359375
4.1774999,0.706289529800415,-0.5231330990791321,9.814431190490723,-0.1220703125,0.579833984375,-0.213623046875
4.1824999,0.6805518269538879,-0.5327098965644836,9.764751434326172,0.091552734375,-0.274658203125,-0.30517578125
4.187499900000001,0.6775590777397156,-0.5117605924606323,9.816226959228516,0.213623046875,0.1220703125,-0.244140625
4.1924999000000005,0.6631938815116882,-0.4854243993759155,9.790489196777344,-0.3662109375,-0.579833984375,-0.244140625
4.1974999,0.67815762758255,-0.47405192255973816,9.849146842956543,-0.335693359375,0.3662109375,-0.1220703125
4.2024999,0.6661866307258606,-0.48482584953308105,9.813833236694336,-0.06103515625,0,-0.335693359375
4.2074999,0.6625953316688538,-0.5117605924606323,9.799467086791992,0.18310546875,-0.396728515625,-0.152587890625
4.2124999,0.6643909811973572,-0.5327098965644836,9.794678688049316,0.1220703125,-0.091552734375,-0.274658203125
4.2174999,0.6655880808830261,-0.5392939448356628,9.77672290802002,-0.1220703125,0.06103515625,-0.30517578125
4.2224999,0.6709750294685364,-0.5351040959358215,9.783905029296875,-0.091552734375,0.18310546875,-0.1220703125
4.2274999,0.6733692288398743,-0.5285200476646423,9.777320861816406,0.244140625,0.030517578125,-0.274658203125
4.2324999000000005,0.6721721291542053,-0.5207388401031494,9.771934509277344,0.244140625,0.06103515625,-0.30517578125
4.2374999,0.6763619780540466,-0.5135562419891357,9.787496566772461,0.06103515625,0.18310546875,-0.152587890625
4.2424999,0.6769605278968811,-0.5339069962501526,9.813234329223633,0.152587890625,0.1220703125,-0.18310546875
4.2474999,0.6715735793113708,-0.5237316489219666,9.78869342803955,0.1220703125,-0.030517578125,-0.213623046875
4.2524999,0.67815762758255,-0.5105634927749634,9.800065994262695,-0.06103515625,0.06103515625,-0.152587890625
4.2574999,0.6829460263252258,-0.4967968463897705,9.804854393005371,-0.1220703125,0.396728515625,-0.213623046875
4.2624999,0.6757634282112122,-0.5009866952896118,9.782109260559082,-0.091552734375,0.18310546875,-0.274658203125
4.2674999,0.6763619780540466,-0.5135562419891357,9.79527759552002,0.091552734375,0.091552734375,-0.30517578125
4.272499900000001,0.6715735793113708,-0.5267243981361389,9.788095474243164,0.213623046875,-0.091552734375,-0.30517578125
4.2774999000000005,0.6685808300971985,-0.5267243981361389,9.786897659301758,0.1220703125,-0.1220703125,-0.18310546875
4.2824999,0.6709750294685364,-0.5207388401031494,9.79288387298584,0,0.030517578125,-0.152587890625
4.2874999,0.6715735793113708,-0.5123591423034668,9.798270225524902,-0.152587890625,0.152587890625,-0.274658203125
4.2924999,0.6739677786827087,-0.5117605924606323,9.807249069213867,-0.06103515625,0.091552734375,-0.30517578125
4.2974999,0.6703764796257019,-0.5105634927749634,9.799467086791992,-0.091552734375,0.1220703125,-0.152587890625
4.3024999,0.669179379940033,-0.5141547918319702,9.804255485534668,-0.06103515625,0.152587890625,-0.3662109375
4.3074999,0.6667851805686951,-0.518943190574646,9.803657531738281,-0.030517578125,0.091552734375,-0.396728515625
4.312499900000001,0.6649895310401917,-0.518943190574646,9.79527759552002,0.091552734375,-0.18310546875,-0.18310546875
4.3174999000000005,0.6721721291542053,-0.5153518915176392,9.797073364257812,0.030517578125,-0.1220703125,-0.213623046875
4.3224999,0.679354727268219,-0.507570743560791,9.791088104248047,-0.030517578125,0.030517578125,-0.1220703125
4.3274999,0.679354727268219,-0.507570743560791,9.791088104248047,-0.030517578125,0.030517578125,-0.1220703125
4.3324999,0.6865373253822327,-0.5027823448181152,9.78869342803955,-0.06103515625,0.030517578125,-0.244140625
4.3374999,0.6901286244392395,-0.50876784324646,9.793481826782227,-0.091552734375,0.274658203125,-0.335693359375
4.3424999,0.669179379940033,-0.5165489912033081,9.787496566772461,-0.1220703125,-0.030517578125,-0.091552734375
4.3474999,0.6709750294685364,-0.5153518915176392,9.801262855529785,-0.1220703125,-0.030517578125,-0.18310546875
4.352499900000001,0.667982280254364,-0.5153518915176392,9.794678688049316,0.152587890625,0,-0.244140625
4.3574999000000005,0.6703764796257019,-0.5207388401031494,9.79647445678711,-0.1220703125,0.152587890625,-0.244140625
4.3624999,0.6739677786827087,-0.5195417404174805,9.795876502990723,-0.091552734375,0.152587890625,-0.213623046875
4.3674999,0.6739677786827087,-0.5183446407318115,9.783905029296875,-0.18310546875,0.06103515625,-0.335693359375
4.3724999,0.6775590777397156,-0.5171475410461426,9.798869132995605,-0.06103515625,0.18310546875,-0.213623046875
4.3774999,0.67815762758255,-0.5213374495506287,9.793481826782227,-0.030517578125,0.1220703125,-0.274658203125
4.3824999,0.6769605278968811,-0.5201402902603149,9.79408073425293,0.091552734375,-0.091552734375,-0.244140625
4.3874999,0.6853402256965637,-0.518943190574646,9.800065994262695,0.030517578125,-0.030517578125,-0.335693359375
4.3924999,0.6727706789970398,-0.5303156971931458,9.773730278015137,0.18310546875,-0.06103515625,-0.213623046875
4.397499900000001,0.669179379940033,-0.5333084464073181,9.786897659301758,0.18310546875,0,-0.30517578125
4.4024999000000005,0.6619967818260193,-0.5297171473503113,9.783307075500488,0.091552734375,-0.091552734375,-0.213623046875
4.4074999,0.6613982319831848,-0.5231330990791321,9.79408073425293,-0.1220703125,0.1220703125,-0.1220703125
4.4124999,0.6619967818260193,-0.5201402902603149,9.798270225524902,-0.152587890625,0.18310546875,-0.335693359375
4.4174999,0.6602011322975159,-0.5225345492362976,9.78869342803955,0,0,-0.335693359375
4.4224999,0.6667851805686951,-0.5213374495506287,9.79527759552002,0.1220703125,0.030517578125,-0.18310546875
4.4274999,0.6733692288398743,-0.5165489912033081,9.783307075500488,0,0,-0.30517578125
4.4324999,0.6805518269538879,-0.5111620426177979,9.77791976928711,-0.06103515625,0.030517578125,-0.213623046875
4.437499900000001,0.690727174282074,-0.5099649429321289,9.786897659301758,-0.06103515625,-0.06103515625,-0.152587890625
4.4424999000000005,0.6859387755393982,-0.49978959560394287,9.791686058044434,-0.18310546875,0.244140625,-0.244140625
4.4474999,0.6859387755393982,-0.49978959560394287,9.791686058044434,-0.18310546875,0.244140625,-0.244140625
4.4524999,0.679354727268219,-0.5009866952896118,9.789292335510254,0.06103515625,0.091552734375,-0.274658203125
4.4574999,0.6733692288398743,-0.5045779943466187,9.794678688049316,0.1220703125,-0.030517578125,-0.18310546875
4.4624999,0.667982280254364,-0.5099649429321289,9.791686058044434,0.06103515625,-0.18310546875,-0.244140625
4.4674999,0.6625953316688538,-0.5117605924606323,9.794678688049316,0.1220703125,-0.1220703125,-0.152587890625
4.4724999,0.6649895310401917,-0.5093663930892944,9.797672271728516,0.030517578125,-0.030517578125,-0.091552734375
4.477499900000001,0.6649895310401917,-0.5093663930892944,9.792284965515137,-0.213623046875,0,-0.30517578125
4.4824999000000005,0.6739677786827087,-0.5183446407318115,9.78869342803955,0.213623046875,0.06103515625,-0.335693359375
4.4874999,0.6739677786827087,-0.5183446407318115,9.78869342803955,0.213623046875,0.06103515625,-0.335693359375
4.4924999,0.6763619780540466,-0.5225345492362976,9.785101890563965,0.030517578125,-0.030517578125,-0.213623046875
4.4974999,0.6757634282112122,-0.5195417404174805,9.787496566772461,-0.06103515625,-0.06103515625,-0.30517578125
4.5024999,0.6757634282112122,-0.5153518915176392,9.784503936767578,-0.091552734375,-0.06103515625,-0.213623046875
4.5074999,0.6817489266395569,-0.5105634927749634,9.798270225524902,-0.030517578125,0.091552734375,-0.18310546875
4.5124999,0.6823474764823914,-0.5081692934036255,9.79647445678711,-0.030517578125,0.091552734375,-0.244140625
4.5174999,0.6853402256965637,-0.5069721937179565,9.797073364257812,-0.030517578125,0.06103515625,-0.274658203125
4.522499900000001,0.6889315247535706,-0.5093663930892944,9.804255485534668,-0.030517578125,0.244140625,-0.244140625
4.5274999000000005,0.6829460263252258,-0.5129576921463013,9.791686058044434,0.030517578125,0.06103515625,-0.274658203125
4.5324999,0.6799532771110535,-0.5183446407318115,9.79408073425293,0.091552734375,0.06103515625,-0.213623046875
4.5374999,0.6775590777397156,-0.5213374495506287,9.793481826782227,0.1220703125,0.030517578125,-0.30517578125
4.5424999,0.6709750294685364,-0.5195417404174805,9.784503936767578,-0.06103515625,-0.18310546875,-0.213623046875
4.5474999,0.6727706789970398,-0.5201402902603149,9.79527759552002,-0.091552734375,-0.06103515625,-0.1220703125
4.5524999,0.6709750294685364,-0.5171475410461426,9.78989028930664,-0.030517578125,-0.1220703125,-0.18310546875
4.5574999,0.6757634282112122,-0.5183446407318115,9.798270225524902,0.091552734375,0.030517578125,-0.213623046875
4.562499900000001,0.6739677786827087,-0.5171475410461426,9.786897659301758,0,0.030517578125,-0.244140625
4.5674999000000005,0.6811503767967224,-0.5183446407318115,9.79408073425293,-0.06103515625,-0.06103515625,-0.152587890625
4.5724999,0.6847416758537292,-0.518943190574646,9.791686058044434,0,0,-0.274658203125
4.5774999,0.6865373253822327,-0.5195417404174805,9.7791166305542,-0.06103515625,0.152587890625,-0.274658203125
4.5824999,0.690727174282074,-0.518943190574646,9.787496566772461,0.030517578125,0.091552734375,-0.1220703125
4.5874999,0.689530074596405,-0.517746090888977,9.782109260559082,0.1220703125,0,-0.152587890625
4.5924999,0.6889315247535706,-0.5153518915176392,9.786299705505371,0.030517578125,0.06103515625,-0.152587890625
4.5974999,0.6877344250679016,-0.5129576921463013,9.800664901733398,-0.06103515625,0.1220703125,-0.152587890625
4.602499900000001,0.6829460263252258,-0.5135562419891357,9.798869132995605,-0.06103515625,-0.030517578125,-0.152587890625
4.6074999000000005,0.6763619780540466,-0.5117605924606323,9.806650161743164,-0.091552734375,-0.06103515625,-0.213623046875
4.6124999,0.6661866307258606,-0.5123591423034668,9.798270225524902,-0.030517578125,0.030517578125,-0.213623046875
4.6174999,0.6667851805686951,-0.5135562419891357,9.782708168029785,-0.091552734375,0.1220703125,-0.244140625
4.6224999,0.6721721291542053,-0.5135562419891357,9.783307075500488,0.091552734375,0.030517578125,-0.18310546875
4.6274999,0.6775590777397156,-0.5159504413604736,9.785700798034668,0.1220703125,-0.1220703125,-0.244140625
4.6324999,0.6757634282112122,-0.5165489912033081,9.780912399291992,0,-0.06103515625,-0.274658203125
4.6374999,0.67815762758255,-0.5159504413604736,9.791686058044434,-0.06103515625,0.18310546875,-0.1220703125
4.6424999,0.6751648783683777,-0.5135562419891357,9.780912399291992,0.06103515625,0.030517578125,-0.152587890625
4.647499900000001,0.67815762758255,-0.5159504413604736,9.787496566772461,0.030517578125,0.1220703125,-0.18310546875
4.6524999000000005,0.6751648783683777,-0.5159504413604736,9.79288387298584,0.06103515625,-0.030517578125,-0.274658203125
4.6574999,0.6757634282112122,-0.5123591423034668,9.782109260559082,0.030517578125,-0.030517578125,-0.274658203125
4.6624999,0.6829460263252258,-0.5147533416748047,9.78989028930664,0.06103515625,-0.091552734375,-0.18310546875
4.6674999,0.6865373253822327,-0.5171475410461426,9.790489196777344,-0.030517578125,0,-0.30517578125
4.6724999,0.6835445761680603,-0.518943190574646,9.784503936767578,0,0.18310546875,-0.274658203125
4.6774999,0.6829460263252258,-0.5195417404174805,9.791686058044434,0.091552734375,0.213623046875,-0.152587890625
4.6824999,0.67815762758255,-0.5171475410461426,9.783307075500488,-0.030517578125,0.18310546875,-0.30517578125
4.687499900000001,0.6721721291542053,-0.5111620426177979,9.782109260559082,-0.06103515625,0.06103515625,-0.18310546875
4.6924999000000005,0.6613982319831848,-0.5039794445037842,9.786299705505371,0.06103515625,0.030517578125,-0.30517578125
4.6974999,0.6596025824546814,-0.5033808946609497,9.79527759552002,0.06103515625,0.06103515625,-0.274658203125
4.7024999,0.6602011322975159,-0.5063736438751221,9.794678688049316,-0.06103515625,0.06103515625,-0.48828125
4.7074999,0.6607996821403503,-0.50876784324646,9.791088104248047,-0.091552734375,-0.152587890625,-0.274658203125
4.7124999,0.6703764796257019,-0.5123591423034668,9.795876502990723,0.030517578125,-0.030517578125,-0.152587890625
4.7174999,0.6745663285255432,-0.5153518915176392,9.787496566772461,0,0,-0.30517578125
4.7224999,0.6805518269538879,-0.5153518915176392,9.784503936767578,0.091552734375,-0.06103515625,-0.213623046875
4.727499900000001,0.6853402256965637,-0.5171475410461426,9.786897659301758,0.06103515625,0.06103515625,-0.213623046875
4.7324999000000005,0.6811503767967224,-0.5153518915176392,9.778518676757812,-0.06103515625,0.091552734375,-0.274658203125
4.7374999,0.6787561774253845,-0.5171475410461426,9.787496566772461,-0.030517578125,0.1220703125,-0.18310546875
4.7424999,0.6751648783683777,-0.517746090888977,9.784503936767578,0.030517578125,-0.030517578125,-0.152587890625
4.7474999,0.6685808300971985,-0.518943190574646,9.783905029296875,-0.06103515625,0.030517578125,-0.18310546875
4.7524999,0.6715735793113708,-0.517746090888977,9.79288387298584,0.091552734375,0.152587890625,-0.152587890625
4.7574999,0.6715735793113708,-0.5153518915176392,9.790489196777344,0,0.030517578125,-0.335693359375
4.7624999,0.6757634282112122,-0.5141547918319702,9.798869132995605,-0.091552734375,0.091552734375,-0.335693359375
4.7674999,0.6829460263252258,-0.5093663930892944,9.805453300476074,0,0.091552734375,-0.396728515625
4.772499900000001,0.6811503767967224,-0.50876784324646,9.801861763000488,0.06103515625,-0.18310546875,-0.18310546875
4.7774999000000005,0.6841431260108948,-0.5069721937179565,9.810839653015137,0.06103515625,-0.06103515625,-0.213623046875
4.7824999,0.6811503767967224,-0.5063736438751221,9.805453300476074,0.030517578125,-0.06103515625,-0.244140625
4.7874999,0.6811503767967224,-0.5099649429321289,9.800664901733398,0.06103515625,-0.091552734375,-0.18310546875
4.7924999,0.6865373253822327,-0.5123591423034668,9.801861763000488,0,0.091552734375,-0.274658203125
4.7974999,0.6853402256965637,-0.5141547918319702,9.786299705505371,-0.030517578125,-0.091552734375,-0.30517578125
4.8024999,0.6823474764823914,-0.5141547918319702,9.792284965515137,0.06103515625,0.06103515625,-0.30517578125
4.8074999,0.6739677786827087,-0.5153518915176392,9.78989028930664,-0.030517578125,0.091552734375,-0.335693359375
4.812499900000001,0.6727706789970398,-0.5159504413604736,9.793481826782227,0,0.030517578125,-0.30517578125
4.8174999000000005,0.6709750294685364,-0.5165489912033081,9.801861763000488,0.030517578125,-0.030517578125,-0.244140625
4.8224999,0.6655880808830261,-0.5129576921463013,9.78869342803955,0.030517578125,-0.030517578125,-0.244140625
4.8274999,0.669179379940033,-0.5117605924606323,9.79288387298584,-0.06103515625,-0.030517578125,-0.244140625
4.8324999,0.6721721291542053,-0.5117605924606323,9.786897659301758,-0.030517578125,0,-0.3662109375
4.8374999,0.6757634282112122,-0.5135562419891357,9.7791166305542,-0.06103515625,-0.091552734375,-0.274658203125
4.8424999,0.6847416758537292,-0.5171475410461426,9.792284965515137,-0.06103515625,0.030517578125,-0.274658203125
4.8474999,0.6865373253822327,-0.517746090888977,9.784503936767578,0,0.030517578125,-0.274658203125
4.852499900000001,0.6871358752250671,-0.5171475410461426,9.78989028930664,-0.06103515625,-0.030517578125,-0.30517578125
4.8574999000000005,0.689530074596405,-0.5159504413604736,9.798869132995605,0.030517578125,0.152587890625,-0.396728515625
4.8624999,0.6643909811973572,-0.5141547918319702,9.800065994262695,0.030517578125,0.244140625,-0.152587890625
4.8674999,0.657806932926178,-0.5135562419891357,9.79288387298584,0.06103515625,0.030517578125,-0.213623046875
4.8724999,0.6607996821403503,-0.5099649429321289,9.799467086791992,0.091552734375,-0.030517578125,-0.152587890625
4.8774999,0.6655880808830261,-0.5093663930892944,9.804854393005371,-0.1220703125,0.091552734375,-0.244140625
4.8824999,0.6733692288398743,-0.5057750940322876,9.79527759552002,0,-0.030517578125,-0.18310546875
4.8874999,0.6835445761680603,-0.5081692934036255,9.801262855529785,0,-0.06103515625,-0.1220703125
4.8924999,0.6871358752250671,-0.5081692934036255,9.791686058044434,-0.091552734375,0,-0.3662109375
4.897499900000001,0.6889315247535706,-0.5129576921463013,9.786299705505371,0.152587890625,-0.091552734375,-0.274658203125
4.9024999000000005,0.690727174282074,-0.5153518915176392,9.79647445678711,0.030517578125,0.091552734375,-0.42724609375
4.9074999,0.667982280254364,-0.5099649429321289,9.802460670471191,0.030517578125,0.06103515625,-0.244140625
4.9124999,0.6631938815116882,-0.5081692934036255,9.788095474243164,0.030517578125,-0.030517578125,-0.244140625
4.9174999,0.669179379940033,-0.5081692934036255,9.798270225524902,-0.06103515625,-0.030517578125,-0.274658203125
4.9224999,0.6721721291542053,-0.5111620426177979,9.794678688049316,-0.030517578125,-0.06103515625,-0.213623046875
4.9274999,0.6775590777397156,-0.5123591423034668,9.78989028930664,0.06103515625,-0.030517578125,-0.1220703125
4.9324999,0.6943184733390808,-0.5135562419891357,9.786897659301758,-0.06103515625,0.030517578125,-0.213623046875
4.937499900000001,0.6973112225532532,-0.5135562419891357,9.790489196777344,-0.030517578125,0.06103515625,-0.18310546875
4.9424999000000005,0.6913257241249084,-0.5147533416748047,9.7791166305542,-0.06103515625,-0.06103515625,-0.274658203125
4.9474999,0.6859387755393982,-0.5153518915176392,9.787496566772461,0.030517578125,0.030517578125,-0.213623046875
4.9524999,0.6763619780540466,-0.517746090888977,9.784503936767578,0.030517578125,0.1220703125,-0.244140625
4.9574999,0.6661866307258606,-0.517746090888977,9.780313491821289,0,0.06103515625,-0.18310546875
4.9624999,0.667982280254364,-0.5195417404174805,9.78869342803955,0.091552734375,0.091552734375,-0.274658203125
4.9674999,0.6649895310401917,-0.518943190574646,9.780912399291992,0.1220703125,-0.030517578125,-0.244140625
4.9724999,0.6715735793113708,-0.5195417404174805,9.783307075500488,0.091552734375,-0.091552734375,-0.18310546875
4.977499900000001,0.6751648783683777,-0.5225345492362976,9.78989028930664,0.06103515625,0.030517578125,-0.274658203125
4.9824999000000005,0.6775590777397156,-0.524330198764801,9.782708168029785,0.06103515625,-0.091552734375,-0.335693359375
4.9874999,0.6829460263252258,-0.524330198764801,9.794678688049316,0.030517578125,0.1220703125,-0.3662109375
4.9924999,0.6835445761680603,-0.517746090888977,9.794678688049316,-0.030517578125,-0.030517578125,-0.18310546875
4.9974999,0.6835445761680603,-0.5147533416748047,9.807249069213867,-0.030517578125,0.030517578125,-0.06103515625
5.0024999,0.6799532771110535,-0.5105634927749634,9.798869132995605,-0.030517578125,0.1220703125,-0.213623046875
5.0074999,0.6805518269538879,-0.5081692934036255,9.806051254272461,-0.1220703125,0.244140625,-0.213623046875
5.0124999,0.6787561774253845,-0.50876784324646,9.807847023010254,-0.030517578125,0.06103515625,-0.152587890625
5.0174999,0.6709750294685364,-0.50876784324646,9.800664901733398,0.152587890625,0,-0.152587890625
5.022499900000001,0.669179379940033,-0.5081692934036255,9.81143856048584,0.152587890625,0.1220703125,-0.18310546875
5.0274999000000005,0.6613982319831848,-0.5069721937179565,9.804854393005371,0.030517578125,0.152587890625,-0.274658203125
5.0324999,0.6554127335548401,-0.5057750940322876,9.797672271728516,-0.030517578125,0,-0.213623046875
5.0374999,0.6572083830833435,-0.5069721937179565,9.800664901733398,0.030517578125,0.06103515625,-0.30517578125
5.0424999,0.6518214344978333,-0.5099649429321289,9.782109260559082,-0.030517578125,0.06103515625,-0.244140625
5.0474999,0.6613982319831848,-0.518943190574646,9.78869342803955,0.030517578125,0.030517578125,-0.396728515625
5.0524999,0.6667851805686951,-0.5207388401031494,9.782708168029785,0.030517578125,-0.1220703125,-0.30517578125
5.0574999,0.6751648783683777,-0.5219359993934631,9.79408073425293,0.091552734375,-0.1220703125,-0.152587890625
5.062499900000001,0.6787561774253845,-0.518943190574646,9.786299705505371,0.06103515625,0.06103515625,-0.274658203125
5.0674999000000005,0.6811503767967224,-0.5171475410461426,9.783307075500488,0.152587890625,0.091552734375,-0.244140625
5.0724999,0.6817489266395569,-0.5171475410461426,9.791088104248047,-0.030517578125,0.1220703125,-0.274658203125
5.0774999,0.6775590777397156,-0.5129576921463013,9.780313491821289,0,0.091552734375,-0.152587890625
5.0824999,0.6733692288398743,-0.5105634927749634,9.79408073425293,0.1220703125,0.1220703125,-0.18310546875
5.0874999,0.667982280254364,-0.5093663930892944,9.793481826782227,0.030517578125,0.1220703125,-0.335693359375
5.0924999,0.6619967818260193,-0.5063736438751221,9.791088104248047,-0.030517578125,0,-0.244140625
5.0974999,0.6613982319831848,-0.5093663930892944,9.800664901733398,0.030517578125,0.06103515625,-0.18310546875
5.102499900000001,0.6607996821403503,-0.5123591423034668,9.78869342803955,0.06103515625,0.06103515625,-0.335693359375
5.1074999000000005,0.6703764796257019,-0.5195417404174805,9.79527759552002,0.030517578125,-0.030517578125,-0.213623046875
5.1124999,0.6703764796257019,-0.5207388401031494,9.783307075500488,0.030517578125,-0.06103515625,-0.244140625
5.1174999,0.6775590777397156,-0.517746090888977,9.797073364257812,-0.06103515625,0,-0.244140625
5.1224999,0.6787561774253845,-0.5165489912033081,9.78989028930664,-0.06103515625,-0.152587890625,-0.274658203125
5.1274999,0.679354727268219,-0.5141547918319702,9.789292335510254,-0.030517578125,-0.030517578125,-0.1220703125
5.1324999,0.6835445761680603,-0.5171475410461426,9.79647445678711,-0.06103515625,0.1220703125,-0.091552734375
5.1374999,0.6787561774253845,-0.5183446407318115,9.786299705505371,0.030517578125,-0.030517578125,-0.335693359375
5.1424999,0.6799532771110535,-0.5207388401031494,9.791686058044434,0.18310546875,-0.030517578125,-0.18310546875
5.147499900000001,0.6775590777397156,-0.5183446407318115,9.797073364257812,0.030517578125,0.1220703125,-0.274658203125
5.1524999000000005,0.6709750294685364,-0.5153518915176392,9.790489196777344,0.030517578125,-0.030517578125,-0.1220703125
5.1574999,0.6703764796257019,-0.5117605924606323,9.802460670471191,0.030517578125,-0.030517578125,-0.091552734375
5.1624999,0.6649895310401917,-0.5117605924606323,9.797672271728516,-0.06103515625,0.091552734375,-0.274658203125
5.1674999,0.6613982319831848,-0.5129576921463013,9.797073364257812,0.091552734375,-0.06103515625,-0.3662109375
5.1724999,0.667982280254364,-0.5165489912033081,9.804255485534668,-0.030517578125,-0.030517578125,-0.18310546875
5.1774999,0.6667851805686951,-0.5171475410461426,9.79527759552002,-0.091552734375,-0.152587890625,-0.274658203125
5.1824999,0.6733692288398743,-0.5171475410461426,9.800664901733398,-0.091552734375,-0.06103515625,-0.274658203125
5.187499900000001,0.6769605278968811,-0.5159504413604736,9.798869132995605,-0.030517578125,0,-0.3662109375
5.1924999000000005,0.6787561774253845,-0.5123591423034668,9.788095474243164,-0.030517578125,-0.06103515625,-0.274658203125
5.1974999,0.6835445761680603,-0.5111620426177979,9.79527759552002,0.030517578125,0.06103515625,-0.274658203125
5.2024999,0.6811503767967224,-0.5081692934036255,9.785101890563965,0.030517578125,0.18310546875,-0.396728515625
5.2074999,0.6811503767967224,-0.5051765441894531,9.78869342803955,0.030517578125,0.152587890625,-0.18310546875
5.2124999,0.679354727268219,-0.5093663930892944,9.79527759552002,0.030517578125,0.18310546875,-0.274658203125
5.2174999,0.6739677786827087,-0.5123591423034668,9.786897659301758,0.030517578125,0.06103515625,-0.152587890625
5.2224999,0.6769605278968811,-0.517746090888977,9.794678688049316,0.030517578125,0.030517578125,-0.06103515625
5.227499900000001,0.6733692288398743,-0.5159504413604736,9.797073364257812,0.06103515625,0.030517578125,-0.274658203125
5.2324999000000005,0.6751648783683777,-0.5135562419891357,9.804255485534668,0.06103515625,0.030517578125,-0.244140625
5.2374999,0.6799532771110535,-0.5135562419891357,9.809642791748047,0.06103515625,0.06103515625,-0.213623046875
5.2424999,0.6787561774253845,-0.5123591423034668,9.803058624267578,0,0.06103515625,-0.335693359375
5.2474999,0.6841431260108948,-0.5123591423034668,9.81263542175293,0,-0.1220703125,-0.18310546875
5.2524999,0.6865373253822327,-0.5123591423034668,9.807847023010254,0.06103515625,0.06103515625,-0.274658203125
5.2574999,0.6865373253822327,-0.5123591423034668,9.798869132995605,-0.030517578125,0,-0.244140625
5.2624999,0.6901286244392395,-0.5117605924606323,9.804255485534668,-0.06103515625,0.030517578125,-0.244140625
5.2674999,0.6853402256965637,-0.5135562419891357,9.792284965515137,0.030517578125,0,-0.30517578125
5.272499900000001,0.6811503767967224,-0.5147533416748047,9.793481826782227,0.06103515625,-0.030517578125,-0.213623046875
5.2774999000000005,0.6673837304115295,-0.5213374495506287,9.805453300476074,-0.030517578125,0.152587890625,-0.18310546875
5.2824999,0.6643909811973572,-0.524330198764801,9.801861763000488,-0.030517578125,0,-0.213623046875
5.2874999,0.6667851805686951,-0.524330198764801,9.804255485534668,0,0.06103515625,-0.213623046875
5.2924999,0.667982280254364,-0.5213374495506287,9.790489196777344,0.06103515625,-0.06103515625,-0.30517578125
5.2974999,0.6751648783683777,-0.517746090888977,9.791088104248047,-0.1220703125,0.030517578125,-0.274658203125
5.3024999,0.6787561774253845,-0.5153518915176392,9.787496566772461,-0.030517578125,0.18310546875,-0.42724609375
5.3074999,0.6799532771110535,-0.5111620426177979,9.784503936767578,0.030517578125,0,-0.213623046875
5.312499900000001,0.6817489266395569,-0.5099649429321289,9.79527759552002,0,0,-0.18310546875
5.3174999000000005,0.679354727268219,-0.5099649429321289,9.790489196777344,0,0.06103515625,-0.274658203125
5.3224999,0.6757634282112122,-0.5099649429321289,9.79288387298584,0,0.091552734375,-0.213623046875
5.3274999,0.6721721291542053,-0.5159504413604736,9.79647445678711,0.06103515625,0.1220703125,-0.091552734375
5.3324999,0.669179379940033,-0.5183446407318115,9.792284965515137,0,0.152587890625,-0.06103515625
5.3374999,0.6673837304115295,-0.5195417404174805,9.789292335510254,-0.06103515625,0.091552734375,-0.18310546875
5.3424999,0.6721721291542053,-0.5201402902603149,9.800065994262695,0.030517578125,0.06103515625,-0.1220703125
5.3474999,0.6769605278968811,-0.5201402902603149,9.79288387298584,0.091552734375,-0.030517578125,-0.152587890625
5.352499900000001,0.6799532771110535,-0.5201402902603149,9.797672271728516,0.06103515625,-0.1220703125,-0.274658203125
5.3574999000000005,0.6877344250679016,-0.5225345492362976,9.803058624267578,0,0.030517578125,-0.244140625
5.3624999,0.6847416758537292,-0.5249287486076355,9.790489196777344,0.030517578125,-0.030517578125,-0.1220703125
5.3674999,0.6901286244392395,-0.52552729845047,9.79288387298584,0.091552734375,-0.06103515625,-0.152587890625
5.3724999,0.6901286244392395,-0.5219359993934631,9.785101890563965,-0.06103515625,-0.06103515625,-0.30517578125
5.3774999,0.6865373253822327,-0.5183446407318115,9.774328231811523,0.030517578125,0,-0.18310546875
5.3824999,0.6697779297828674,-0.5111620426177979,9.785700798034668,0.18310546875,0.1220703125,-0.244140625
5.3874999,0.6655880808830261,-0.5117605924606323,9.780912399291992,0,0.030517578125,-0.335693359375
5.3924999,0.6643909811973572,-0.5105634927749634,9.790489196777344,0,0.030517578125,-0.152587890625
5.397499900000001,0.6625953316688538,-0.5129576921463013,9.784503936767578,0.06103515625,-0.030517578125,-0.274658203125
5.4024999000000005,0.6631938815116882,-0.5099649429321289,9.783307075500488,0.091552734375,-0.06103515625,-0.1220703125
