# Time (seconds),Accel_X,Accel_Y,Accel_Z,Gyro_X,Gyro_Y,Gyro_Z
0.0024999,-1.5203180313110352,-0.24660277366638184,9.782708168029785,0.42724609375,-24.47509765625,51.025390625
0.0074999,-1.5203180313110352,-0.24660277366638184,9.782708168029785,0.42724609375,-24.47509765625,51.025390625
0.012499900000000001,-0.25677812099456787,-0.9528923034667969,9.747992515563965,10.68115234375,-16.021728515625,48.248291015625
0.0174999,1.1492167711257935,-1.1139023303985596,9.61212158203125,8.1787109375,-2.0751953125,14.129638671875
0.0224999,2.315192937850952,-0.9385270476341248,9.595361709594727,2.777099609375,8.087158203125,-24.59716796875
0.0274999,3.006518840789795,-0.8134300112724304,9.661202430725098,4.2724609375,24.2919921875,-36.62109375
0.0324999,3.1914708614349365,-0.7601590156555176,9.568427085876465,9.3994140625,31.18896484375,-30.364990234375
0.0374999,2.647388458251953,-1.1743559837341309,9.68933391571045,9.8876953125,31.18896484375,-58.074951171875
0.0424999,1.3102269172668457,-0.36750996112823486,9.717466354370117,2.532958984375,18.951416015625,-45.135498046875
0.0474999,-0.3687070608139038,-0.414795458316803,9.900622367858887,-12.054443359375,0.8544921875,-20.263671875
0.0524999,-1.7974469661712646,0.5213374495506287,9.84376049041748,-17.791748046875,-19.866943359375,16.876220703125
0.0574999,-2.5510218143463135,0.5051765441894531,10.021530151367188,-15.594482421875,-31.585693359375,42.6025390625
0.0624999,-2.380434989929199,-0.011971008032560349,9.719860076904297,-13.0615234375,-27.984619140625,37.506103515625
0.0674999,-1.3868412971496582,-0.6865373253822327,9.68155288696289,-0.79345703125,-23.895263671875,50.537109375
0.0724999,-0.22206220030784607,-1.2204443216323853,9.588777542114258,11.199951171875,-18.06640625,52.886962890625
0.0774999,1.0145429372787476,-1.4879963397979736,9.503185272216797,9.70458984375,-4.33349609375,21.42333984375
0.0824999,2.1086931228637695,-1.20368492603302,9.570821762084961,4.302978515625,6.2255859375,-16.754150390625
0.0874999,2.8610711097717285,-1.0019733905792236,9.657610893249512,3.997802734375,20.904541015625,-38.848876953125
0.0924999,3.026270866394043,-0.6171054840087891,9.66299819946289,7.171630859375,29.23583984375,-28.839111328125
0.0974999,-0.36810851097106934,-0.012569558806717396,10.092757225036621,-10.07080078125,3.875732421875,-19.744873046875
0.1024999,-1.5616180896759033,0.8140285611152649,9.947908401489258,-18.85986328125,-17.39501953125,17.578125
0.1074999,-2.1793220043182373,0.6925228238105774,10.143633842468262,-17.669677734375,-29.23583984375,37.78076171875
0.1124999,-1.9847931861877441,0.08379705995321274,9.803657531738281,-12.542724609375,-26.18408203125,42.05322265625
0.1174999,-1.0618284940719604,-0.8571242094039917,9.622895240783691,1.3427734375,-23.529052734375,52.734375
0.1224999,-0.05147533491253853,-1.4598644971847534,9.504382133483887,15.56396484375,-17.791748046875,57.92236328125
0.1274999,1.0205284357070923,-1.7519570589065552,9.337985038757324,12.908935546875,-1.77001953125,26.397705078125
0.1324999,2.009333848953247,-1.292868971824646,9.476848602294922,6.622314453125,9.09423828125,-14.892578125
0.1374999,2.7263972759246826,-0.950498104095459,9.625288963317871,4.730224609375,21.453857421875,-41.900634765625
0.1424999,2.917933225631714,-0.47225627303123474,9.718663215637207,7.293701171875,30.609130859375,-31.005859375
0.1474999,2.426523447036743,-0.7679402232170105,9.880870819091797,7.049560546875,28.900146484375,-51.6357421875
0.1524999,-0.4537012279033661,-0.0293289702385664,10.161590576171875,-10.31494140625,2.166748046875,-24.169921875
0.1574999,-1.635838270187378,0.7852981686592102,10.02811336517334,-18.310546875,-17.730712890625,16.937255859375
0.1624999,-1.0205284357070923,-0.7631517648696899,9.676166534423828,1.678466796875,-23.712158203125,54.901123046875
0.1674999,-0.004189853090792894,-1.3898340463638306,9.500192642211914,15.5029296875,-17.242431640625,60.577392578125
0.1724999,1.1180921792984009,-1.6531962156295776,9.35654067993164,12.359619140625,-0.579833984375,28.350830078125
0.17749990000000002,2.1284453868865967,-1.2443863153457642,9.459490776062012,6.103515625,9.521484375,-17.913818359375
0.1824999,2.7934348583221436,-0.921169102191925,9.625887870788574,4.913330078125,23.92578125,-44.61669921875
0.1874999,2.9777884483337402,-0.5201402902603149,9.682151794433594,8.087158203125,31.646728515625,-31.158447265625
0.1924999,2.434903144836426,-0.9127894043922424,9.852738380432129,7.32421875,29.449462890625,-55.7861328125
0.1974999,1.1701661348342896,-0.06344634294509888,9.895833969116211,0.91552734375,18.310546875,-57.647705078125
0.2024999,-0.8595184087753296,-0.7230489253997803,9.639654159545898,1.312255859375,-23.98681640625,59.6923828125
0.20749990000000001,0.21787235140800476,-1.4712369441986084,9.486425399780273,18.49365234375,-16.082763671875,64.208984375
0.2124999,1.3335703611373901,-1.7004817724227905,9.265560150146484,13.916015625,1.983642578125,25.970458984375
0.2174999,2.235585927963257,-1.2515689134597778,9.389460563659668,6.40869140625,11.71875,-25.115966796875
0.2224999,2.734178304672241,-0.8936358094215393,9.601945877075195,5.462646484375,25.390625,-47.393798828125
0.2274999,2.804208755493164,-0.4572925269603729,9.694721221923828,7.537841796875,31.6162109375,-33.416748046875
0.2324999,2.1948843002319336,-0.39863458275794983,9.793481826782227,6.744384765625,28.900146484375,-59.9365234375
0.2374999,0.8858546018600464,0.22266076505184174,9.945513725280762,-3.692626953125,15.68603515625,-60.48583984375
0.2424999,-0.778714120388031,0.436343252658844,10.110115051269531,-16.693115234375,-2.777099609375,-27.52685546875
0.2474999,-2.235585927963257,0.6721721291542053,10.407594680786133,-20.111083984375,-32.379150390625,47.454833984375
0.2524999,-1.6274585723876953,-0.23702596127986908,9.982025146484375,-18.1884765625,-27.52685546875,48.248291015625
0.2574999,-0.3363853394985199,-1.182137131690979,9.537900924682617,2.288818359375,-25.726318359375,71.35009765625
0.2624999,0.7529764175415039,-1.911171555519104,9.34397029876709,28.350830078125,-15.777587890625,78.399658203125
0.2674999,1.6376339197158813,-1.9955670833587646,8.989628791809082,18.768310546875,5.462646484375,33.721923828125
0.2724999,2.184709072113037,-1.4257471561431885,9.261969566345215,7.32421875,14.892578125,-31.31103515625
0.2774999,2.385223388671875,-0.9756371974945068,9.640851974487305,7.8125,28.9306640625,-58.41064453125
0.2824999,2.3301568031311035,-0.40940847992897034,9.81143856048584,7.62939453125,31.829833984375,-39.00146484375
0.28749990000000003,1.63344407081604,-0.058059390634298325,10.234015464782715,4.730224609375,29.205322265625,-61.920166015625
0.2924999,0.45190557837486267,0.3603273630142212,10.323199272155762,-8.453369140625,12.26806640625,-67.626953125
0.2974999,-1.1264718770980835,0.7858967185020447,10.448894500732422,-22.369384765625,-6.561279296875,-36.407470703125
0.3024999,-1.9273324012756348,1.0085574388504028,10.38844108581543,-27.435302734375,-23.529052734375,20.416259765625
0.3074999,-1.1240776777267456,-0.322618693113327,9.838972091674805,-24.59716796875,-29.144287109375,56.82373046875
0.3124999,0.30226796865463257,-1.337161660194397,9.193734169006348,2.62451171875,-28.228759765625,85.784912109375
0.3174999,1.2330138683319092,-2.2613234519958496,8.941145896911621,41.961669921875,-17.730712890625,93.292236328125
0.3224999,1.8046295642852783,-2.363675594329834,8.488043785095215,28.533935546875,7.87353515625,43.304443359375
0.3274999,1.9865888357162476,-1.789067268371582,8.933364868164062,10.31494140625,16.876220703125,-33.8134765625
0.3324999,1.9865888357162476,-1.789067268371582,8.933364868164062,10.31494140625,16.876220703125,-33.8134765625
0.3374999,1.9363106489181519,-1.0959458351135254,9.59476375579834,9.063720703125,30.731201171875,-68.42041015625
0.3424999,1.7483657598495483,-0.3298012912273407,9.909002304077148,6.011962890625,29.998779296875,-45.257568359375
0.34749990000000003,1.0971429347991943,0.22924481332302094,10.45667552947998,1.922607421875,28.045654296875,-60.638427734375
0.35249990000000003,0.03172317147254944,0.6440402865409851,10.599130630493164,-9.765625,11.138916015625,-62.774658203125
0.3574999,-1.184531331062317,1.0396820306777954,10.616488456726074,-22.52197265625,-7.9345703125,-30.364990234375
0.3624999,-1.657984733581543,1.1252747774124146,10.612298965454102,-26.67236328125,-25.7568359375,26.397705078125
0.3674999,-0.3531447649002075,-0.4040215313434601,9.864110946655273,-23.681640625,-27.16064453125,63.78173828125
0.3724999,0.8984242081642151,-1.4760253429412842,9.153033256530762,8.23974609375,-28.076171875,96.282958984375
0.3774999,1.6765397787094116,-2.322375535964966,8.830414772033691,44.281005859375,-14.068603515625,97.16796875
0.3824999,2.0428526401519775,-2.337339401245117,8.473678588867188,27.801513671875,11.444091796875,40.863037109375
0.3874999,1.977012038230896,-1.7286136150360107,8.9249849319458,9.307861328125,21.759033203125,-39.337158203125
0.3924999,1.7561469078063965,-1.0971429347991943,9.660005569458008,10.25390625,37.017822265625,-73.211669921875
0.3974999,1.4173674583435059,-0.17477671802043915,10.004770278930664,6.317138671875,32.440185546875,-52.978515625
0.4024999,0.6440402865409851,0.3734954595565796,10.512341499328613,-0.732421875,28.25927734375,-72.3876953125
0.4074999,-0.5542576909065247,1.1013327836990356,10.76852035522461,-15.9912109375,8.575439453125,-82.1533203125
0.41249990000000003,-1.953070044517517,1.7950527667999268,10.90798282623291,-35.552978515625,-12.75634765625,-46.966552734375
0.41749990000000003,-2.4444799423217773,2.1529858112335205,11.227010726928711,-49.957275390625,-36.1328125,21.514892578125
0.4224999,-2.167351007461548,1.9638439416885376,11.567585945129395,-63.29345703125,-45.83740234375,57.67822265625
0.4274999,1.1683704853057861,-0.14844051003456116,9.9185791015625,-45.501708984375,-46.56982421875,130.67626953125
0.4324999,1.1683704853057861,-0.14844051003456116,9.9185791015625,-45.501708984375,-46.56982421875,130.67626953125
0.4374999,2.647388458251953,-1.7519570589065552,8.090605735778809,33.050537109375,-54.5654296875,164.947509765625
0.4424999,3.464409828186035,-3.3028011322021484,6.394314289093018,83.343505859375,-32.958984375,153.106689453125
0.4474999,3.245939016342163,-4.308964729309082,6.399701118469238,74.676513671875,11.23046875,72.08251953125
0.4524999,1.9979612827301025,-4.126406669616699,7.144298076629639,26.763916015625,44.036865234375,-52.764892578125
0.4574999,0.4770447015762329,-3.1142578125,9.034520149230957,10.650634765625,51.239013671875,-111.572265625
0.4624999,-1.1773487329483032,-1.777096152305603,10.439916610717773,9.58251953125,32.501220703125,-112.73193359375
0.4674999,-1.8770540952682495,-0.3345896899700165,11.17852783203125,-3.204345703125,25.7568359375,-108.642578125
0.47249990000000003,-1.7507599592208862,0.3058592677116394,11.514314651489258,-6.500244140625,11.474609375,-67.596435546875
0.47749990000000003,-0.8098387122154236,0.7116764783859253,11.23479175567627,-6.2255859375,-8.453369140625,8.209228515625
0.4824999,0.9115923047065735,-0.7158663272857666,9.255385398864746,10.07080078125,10.43701171875,-11.3525390625
0.4874999,0.9115923047065735,-0.7158663272857666,9.255385398864746,10.07080078125,10.43701171875,-11.3525390625
0.4924999,1.4975731372833252,-0.12749123573303223,9.535507202148438,1.77001953125,22.03369140625,-54.87060546875
0.4974999,2.2038626670837402,0.3363853394985199,9.870096206665039,4.547119140625,40.0390625,-47.36328125
0.5024999,2.2038626670837402,0.21368250250816345,10.052056312561035,5.279541015625,36.62109375,-50.1708984375
0.5074999,1.4879963397979736,0.2974795699119568,10.264541625976562,-2.3193359375,28.564453125,-71.77734375
0.5124999,0.01496376097202301,0.353743314743042,10.484807968139648,-18.829345703125,7.75146484375,-66.192626953125
0.5174999,-1.2773065567016602,0.6607996821403503,10.417770385742188,-29.266357421875,-4.0283203125,-30.426025390625
0.5224999,-1.7052701711654663,0.7146692276000977,10.594342231750488,-28.01513671875,-25.848388671875,34.637451171875
0.5274999,-1.3551181554794312,0.353743314743042,10.504559516906738,-28.62548828125,-30.76171875,61.248779296875
0.5324999,1.1881226301193237,-1.4933832883834839,9.066842079162598,5.096435546875,-27.587890625,95.64208984375
0.5374999,1.9165585041046143,-2.493561029434204,8.53652572631836,49.86572265625,-17.51708984375,90.51513671875
0.5424999,1.9506758451461792,-2.69646954536438,8.093599319458008,40.1611328125,8.48388671875,29.9072265625
0.5474999,1.4903905391693115,-2.0458452701568604,8.507197380065918,15.2587890625,25.604248046875,-45.7763671875
0.5524999,0.8457517623901367,-1.18094003200531,9.5624418258667,13.0615234375,34.912109375,-72.3876953125
0.5574999,0.4076128304004669,0.1867477297782898,10.209474563598633,0.8544921875,27.130126953125,-56.243896484375
0.5624999,-0.35913026332855225,1.0103530883789062,10.8319673538208,-9.613037109375,25.87890625,-76.629638671875
0.5674999000000001,-1.060032844543457,1.6639702320098877,11.177928924560547,-19.287109375,12.3291015625,-95.458984375
0.5724999000000001,-1.8555063009262085,1.868674397468567,11.25454330444336,-38.299560546875,-6.65283203125,-70.12939453125
0.5774999000000001,-1.6208745241165161,1.688510775566101,11.189900398254395,-51.544189453125,-25.177001953125,-4.791259765625
0.5824999,-0.3992331326007843,1.027711033821106,11.25214958190918,-54.168701171875,-37.353515625,57.0068359375
0.5874999,1.4311341047286987,-0.3669114112854004,10.718840599060059,-58.59375,-26.336669921875,85.9375
0.5924999,3.509899616241455,-4.486135482788086,6.1716532707214355,107.025146484375,-21.881103515625,123.321533203125
0.5974999,2.1954829692840576,-4.454412460327148,6.317699909210205,94.7265625,15.2587890625,43.426513671875
0.6024999,0.5680243372917175,-3.0137014389038086,7.407660007476807,28.3203125,43.548583984375,-52.30712890625
0.6074999,-0.7463923692703247,-1.0348936319351196,10.046669006347656,11.16943359375,43.487548828125,-91.064453125
0.6124999,-1.7968484163284302,1.3204022645950317,11.309011459350586,-4.82177734375,25.87890625,-82.8857421875
0.6174999,-2.292448043823242,2.9077579975128174,12.145785331726074,-19.927978515625,23.223876953125,-102.813720703125
0.6224999,-2.61087703704834,2.9897594451904297,12.217611312866211,-27.40478515625,6.77490234375,-104.766845703125
0.6274999,-2.390011787414551,2.4205379486083984,11.588534355163574,-39.093017578125,-9.552001953125,-65.7958984375
0.6324999,-1.1785458326339722,1.170764684677124,11.003152847290039,-37.841796875,-29.60205078125,10.3759765625
0.6374999,0.4967968463897705,-0.28790274262428284,10.559626579284668,-28.01513671875,-35.797119140625,73.211669921875
0.6424999,2.432508945465088,-1.7160440683364868,9.57441234588623,-29.11376953125,-25.146484375,96.25244140625
0.6474999,3.449446201324463,-3.573944568634033,7.48846435546875,68.328857421875,-29.60205078125,130.859375
0.6524999,2.518700122833252,-3.5045127868652344,7.378331184387207,80.01708984375,1.220703125,76.171875
0.6574999,1.1851298809051514,-2.249951124191284,7.799111843109131,26.9775390625,21.54541015625,-15.716552734375
0.6624999,0.15083470940589905,-0.7882909178733826,9.55585765838623,5.462646484375,35.186767578125,-79.345703125
0.6674999,-0.36810851097106934,0.9774328470230103,10.699089050292969,2.99072265625,34.210205078125,-75.408935546875
0.6724999,-0.8134300112724304,1.8387469053268433,11.261127471923828,-11.322021484375,28.62548828125,-74.005126953125
0.6774999,-1.0875661373138428,2.0865468978881836,11.493964195251465,-14.58740234375,23.92578125,-98.907470703125
0.6824999,-1.5987281799316406,1.578976035118103,11.30302619934082,-24.932861328125,3.90625,-95.21484375
0.6874999,-1.5173252820968628,0.9415197968482971,10.733205795288086,-35.58349609375,-11.993408203125,-43.182373046875
0.6924999000000001,-0.6123170852661133,0.06224924325942993,10.498574256896973,-30.2734375,-31.524658203125,35.980224609375
0.6974999000000001,0.7374141216278076,-0.7583633661270142,10.089764595031738,-24.71923828125,-31.402587890625,79.1015625
0.7024999000000001,2.2164323329925537,-1.944091796875,9.28650951385498,-20.01953125,-24.0478515625,94.512939453125
0.7074999,2.45285964012146,-3.178302764892578,7.940370082855225,72.8759765625,-20.660400390625,111.053466796875
0.7124999,1.659181833267212,-2.670133352279663,7.8763251304626465,52.24609375,10.711669921875,45.867919921875
0.7174999,0.8080430626869202,-1.4401123523712158,8.658031463623047,10.25390625,21.697998046875,-38.57421875
0.7224999,0.3034650683403015,-0.35015198588371277,10.084976196289062,6.072998046875,37.29248046875,-78.369140625
0.7274999,0.25019407272338867,0.9983820915222168,10.7110595703125,3.23486328125,35.15625,-62.469482421875
0.7324999,-0.07960720360279083,1.3227964639663696,11.116278648376465,-7.32421875,32.1044921875,-73.028564453125
0.7374999,-0.5273229479789734,1.5670050382614136,11.199477195739746,-13.12255859375,20.294189453125,-100.830078125
0.7424999,-1.389235496520996,1.4012064933776855,11.03906536102295,-29.571533203125,0.79345703125,-97.015380859375
0.7474999,-1.611896276473999,1.036689281463623,10.594941139221191,-39.48974609375,-14.923095703125,-35.2783203125
0.7524999,-0.9409212470054626,0.35733461380004883,10.542268753051758,-35.980224609375,-37.567138671875,46.875
0.7574999,0.32860419154167175,-0.5488707423210144,10.11550235748291,-34.11865234375,-32.867431640625,78.155517578125
0.7624999,1.9704279899597168,-1.8339585065841675,9.353547096252441,-26.885986328125,-24.444580078125,92.620849609375
0.7674999,2.7964274883270264,-3.4841620922088623,7.6548614501953125,79.620361328125,-19.256591796875,110.382080078125
0.7724999,2.166752576828003,-3.1447839736938477,7.627327919006348,61.920166015625,13.24462890625,44.403076171875
0.7774999,1.2443863153457642,-2.032078742980957,8.400056838989258,15.411376953125,30.548095703125,-38.51318359375
0.7824999,0.4620809257030487,-0.9038111567497253,10.074202537536621,12.14599609375,42.66357421875,-77.301025390625
0.7874999,0.13527239859104156,0.7386112213134766,10.797849655151367,7.354736328125,37.322998046875,-64.849853515625
0.7924999,-0.33099839091300964,1.447893500328064,11.267711639404297,-5.37109375,33.8134765625,-81.207275390625
0.7974999,-0.739209771156311,1.944091796875,11.367071151733398,-13.61083984375,19.47021484375,-110.83984375
0.8024999,-0.008978256024420261,-0.3148375153541565,10.187328338623047,-35.94970703125,-35.125732421875,75.775146484375
0.8074999,1.866280198097229,-1.6112977266311646,9.576807022094727,-34.942626953125,-21.636962890625,85.9375
0.8124999,3.1735143661499023,-3.314173698425293,7.681796073913574,68.115234375,-16.90673828125,102.294921875
0.8174999000000001,2.470217704772949,-3.35667085647583,7.524377346038818,70.098876953125,7.01904296875,41.93115234375
0.8224999000000001,1.2461819648742676,-2.366069793701172,8.016386032104492,25.634765625,29.022216796875,-31.097412109375
0.8274999000000001,0.11133038252592087,-1.106719732284546,9.77013874053955,15.106201171875,37.841796875,-71.77734375
0.8324999000000001,-0.6093243360519409,0.8194155097007751,10.805032730102539,4.791259765625,31.707763671875,-70.37353515625
0.8374999,-1.1186907291412354,2.053626537322998,11.368866920471191,-12.87841796875,28.80859375,-88.104248046875
0.8424999,-1.4299370050430298,2.6862943172454834,11.635820388793945,-19.439697265625,18.035888671875,-121.612548828125
0.8474999,-1.856104850769043,2.410961151123047,11.453861236572266,-36.07177734375,-0.457763671875,-114.349365234375
0.8524999,-1.6974890232086182,1.655590534210205,10.997166633605957,-51.57470703125,-15.5029296875,-51.1474609375
0.8574999,-0.5596446394920349,0.5512649416923523,10.913370132446289,-53.314208984375,-37.261962890625,39.9169921875
0.8624999,1.0732009410858154,-0.5614402890205383,10.752958297729492,-54.13818359375,-35.125732421875,86.944580078125
0.8674999,2.9454667568206787,-1.8405425548553467,10.131064414978027,-59.051513671875,-18.1884765625,101.348876953125
0.8724999,3.555988073348999,-3.309983968734741,7.207744121551514,48.797607421875,-21.331787109375,116.27197265625
0.8774999,2.4241292476654053,-3.843890905380249,6.156689643859863,93.170166015625,-7.537841796875,64.056396484375
0.8824999,-1.7836803197860718,2.808398485183716,12.331933975219727,-19.317626953125,19.83642578125,-118.743896484375
0.8874999,-1.732803463935852,3.352480888366699,12.522273063659668,-33.538818359375,4.364013671875,-114.044189453125
0.8924999,-1.3491326570510864,2.84790301322937,12.054805755615234,-52.093505859375,-11.016845703125,-60.546875
0.8974999,-0.2214636504650116,1.6238672733306885,11.616067886352539,-57.31201171875,-31.280517578125,24.993896484375
0.9024999,1.4742296934127808,0.07062894850969315,11.152790069580078,-57.12890625,-34.24072265625,81.787109375
0.9074999,3.0346505641937256,-1.4431051015853882,10.355521202087402,-63.446044921875,-17.547607421875,98.663330078125
0.9124999,3.4602200984954834,-3.2866404056549072,7.293935298919678,25.543212890625,-19.8974609375,117.00439453125
0.9174999,2.1930887699127197,-3.9414546489715576,5.977723121643066,87.82958984375,-11.65771484375,70.770263671875
0.9224999,0.5045779943466187,-4.073135852813721,5.838859558105469,89.9658203125,9.368896484375,5.157470703125
0.9274999,-0.9445125460624695,-3.403956174850464,6.840234279632568,59.4482421875,30.57861328125,-50.201416015625
0.9324999,-1.8249802589416504,-2.1972784996032715,9.133879661560059,48.27880859375,37.139892578125,-83.49609375
0.9374999,-1.6950948238372803,0.181959331035614,10.919355392456055,21.942138671875,29.449462890625,-84.716796875
0.9424999000000001,-1.4293384552001953,2.141613483428955,12.187684059143066,-12.87841796875,22.27783203125,-97.625732421875
0.9474999000000001,-1.0408791303634644,3.313575267791748,12.79581069946289,-24.261474609375,8.392333984375,-103.57666015625
0.9524999000000001,-0.9798270463943481,3.245939016342163,12.428899765014648,-39.520263671875,-7.354736328125,-68.572998046875
0.9574999000000001,-0.45250412821769714,2.1559786796569824,11.673528671264648,-45.806884765625,-24.932861328125,2.13623046875
0.9624999,-0.6518214344978333,1.514931082725525,11.287464141845703,-0.18310546875,23.62060546875,-48.7060546875
0.9674999,-0.6518214344978333,1.514931082725525,11.287464141845703,-0.18310546875,23.62060546875,-48.7060546875
0.9724999,-0.7086837291717529,2.563591480255127,11.954249382019043,-10.894775390625,23.86474609375,-65.97900390625
0.9774999,-0.9750386476516724,2.7982232570648193,11.935693740844727,-17.425537109375,9.735107421875,-85.63232421875
0.9824999,-1.5652093887329102,2.2451627254486084,11.45146656036377,-30.8837890625,-7.2021484375,-70.159912109375
0.9874999,-1.413776159286499,1.3898340463638306,10.824186325073242,-38.299560546875,-22.3388671875,-16.90673828125
0.9924999,2.387019157409668,-2.166153907775879,9.3643217086792,-29.998779296875,-17.547607421875,81.573486328125
0.9974999,2.387019157409668,-2.166153907775879,9.3643217086792,-29.998779296875,-17.547607421875,81.573486328125
1.0024999,2.9263129234313965,-3.136404275894165,8.178592681884766,16.632080078125,-21.453857421875,102.72216796875
1.0074999000000002,2.624643564224243,-3.825335741043091,7.38132381439209,70.3125,-13.48876953125,80.62744140625
1.0124999000000001,1.6849194765090942,-3.6290111541748047,7.3023152351379395,67.81005859375,7.50732421875,16.387939453125
1.0174999000000002,0.6404489278793335,-2.3517045974731445,8.02955436706543,28.13720703125,23.712158203125,-42.205810546875
1.0224999000000001,-0.021547814831137657,-0.8984242081642151,9.798270225524902,17.7001953125,26.18408203125,-59.2041015625
1.0274999,-0.2059013396501541,1.0241197347640991,10.824186325073242,1.953125,21.881103515625,-47.42431640625
1.0324999000000001,-0.4572925269603729,1.8830395936965942,11.480795860290527,-8.7890625,22.064208984375,-58.441162109375
1.0374999,-0.7433996200561523,2.185906171798706,11.502942085266113,-13.427734375,16.754150390625,-74.21875
1.0424999000000001,-1.346139907836914,1.7106571197509766,11.207258224487305,-21.54541015625,-4.119873046875,-60.05859375
1.0474999,-1.2647370100021362,1.0426748991012573,10.63504409790039,-28.3203125,-19.287109375,-11.5966796875
1.0524999000000002,0.7164648771286011,-0.8212111592292786,9.985017776489258,-29.052734375,-23.345947265625,64.483642578125
1.0574999,1.8896236419677734,-1.9800047874450684,9.278728485107422,-16.143798828125,-18.463134765625,74.432373046875
1.0624999000000002,2.337339401245117,-2.940678119659424,8.390480041503906,26.79443359375,-19.989013671875,91.61376953125
1.0674999,2.0440497398376465,-3.39677357673645,8.085219383239746,60.699462890625,-7.99560546875,64.3310546875
1.0724999000000002,1.3898340463638306,-2.8173768520355225,7.9625163078308105,38.0859375,11.90185546875,-3.0517578125
1.0774999,0.8331822156906128,-1.5364789962768555,9.021950721740723,16.78466796875,22.5830078125,-50.048828125
1.0824999000000002,0.4513070285320282,-0.20231004059314728,9.97484302520752,10.25390625,24.169921875,-48.2177734375
1.0874999,0.3776853084564209,1.1162965297698975,10.763731956481934,0.244140625,23.040771484375,-40.008544921875
1.0924999000000002,-0.05386953800916672,1.4814122915267944,11.033080101013184,-6.34765625,23.468017578125,-61.920166015625
1.0974999,-0.6619967818260193,1.5652093887329102,11.080365180969238,-13.00048828125,13.0615234375,-74.920654296875
1.1024999000000002,-1.4119805097579956,1.2922704219818115,10.788871765136719,-22.918701171875,-5.706787109375,-54.87060546875
1.1074999,-1.3365631103515625,0.8523358106613159,10.49677848815918,-28.4423828125,-21.17919921875,0
1.1124999000000002,0.6482301354408264,-0.6602011322975159,9.914987564086914,-29.1748046875,-22.064208984375,64.178466796875
1.1174999,1.7956513166427612,-1.9219454526901245,9.144054412841797,-8.7890625,-18.73779296875,76.84326171875
1.1224999000000002,2.1326351165771484,-2.831143617630005,8.38808536529541,37.445068359375,-19.04296875,91.888427734375
1.1274999,1.898003339767456,-3.3530795574188232,8.192359924316406,58.013916015625,-1.953125,52.886962890625
1.1324999000000002,1.3120225667953491,-2.580949544906616,8.169015884399414,26.85546875,15.167236328125,-18.00537109375
1.1374999000000001,0.9062053561210632,-1.3210008144378662,9.396044731140137,14.007568359375,24.078369140625,-55.48095703125
1.1424999000000002,0.7553706169128418,0.06823474913835526,10.072406768798828,5.7373046875,24.566650390625,-45.623779296875
1.1474999000000001,0.4423287510871887,1.1085153818130493,10.796053886413574,-2.105712890625,22.796630859375,-45.806884765625
1.1524999000000002,-0.02454056777060032,1.446696400642395,10.950480461120605,-7.293701171875,22.491455078125,-72.723388671875
1.1574999000000001,-1.0360907316207886,1.4197616577148438,10.993576049804688,-18.4326171875,4.69970703125,-74.52392578125
1.1624999,-1.711255669593811,1.1941081285476685,10.65898609161377,-28.564453125,-10.589599609375,-42.816162109375
1.1674999000000001,-1.4203602075576782,0.6560112833976746,10.499771118164062,-29.449462890625,-28.350830078125,19.256591796875
1.1724999,1.025316834449768,-1.470638394355774,9.537302017211914,-23.651123046875,-21.331787109375,70.831298828125
1.1774999000000002,2.0895395278930664,-2.6162638664245605,8.634089469909668,12.75634765625,-21.3623046875,94.78759765625
1.1824999,2.126051187515259,-3.3722331523895264,8.260594367980957,59.417724609375,-15.380859375,92.8955078125
1.1874999000000002,1.732803463935852,-3.0639796257019043,8.036137580871582,46.905517578125,7.8125,32.318115234375
1.1924999,1.1839327812194824,-1.7615338563919067,8.772953987121582,14.0380859375,17.15087890625,-39.276123046875
1.1974999000000002,0.8236053586006165,-0.34835633635520935,9.854534149169922,7.904052734375,24.749755859375,-59.14306640625
1.2024999,-1.3329718112945557,1.0935516357421875,10.786477088928223,-22.4609375,-3.35693359375,-55.572509765625
1.2074999000000002,-1.5053542852401733,0.8068459630012512,10.463858604431152,-27.4658203125,-19.4091796875,-9.521484375
1.2124999,-1.0414776802062988,0.2663549482822418,10.345345497131348,-21.759033203125,-31.3720703125,45.379638671875
1.2174999000000002,1.2665326595306396,-1.8986018896102905,9.087791442871094,-0.30517578125,-21.087646484375,79.986572265625
1.2224999,1.6454150676727295,-2.721608877182007,8.67718505859375,42.755126953125,-22.705078125,96.466064453125
1.2274999000000002,1.589151382446289,-2.9544448852539062,8.418013572692871,45.0439453125,1.678466796875,59.906005859375
1.2324999,1.4113819599151611,-1.944091796875,8.787917137145996,17.181396484375,13.48876953125,-8.11767578125
1.2374999000000002,1.3850456476211548,-0.7751228213310242,9.564835548400879,5.0048828125,19.927978515625,-57.220458984375
1.2424999,1.4903905391693115,0.3010708689689636,10.143035888671875,3.936767578125,30.059814453125,-46.69189453125
1.2474999000000002,1.3539210557937622,0.3555389642715454,10.402207374572754,3.84521484375,28.106689453125,-45.8984375
1.2524999,0.6673837304115295,0.727837324142456,10.536283493041992,-0.1220703125,24.139404296875,-70.25146484375
1.2574999000000002,-0.5422866940498352,0.4381389021873474,10.606313705444336,-16.17431640625,4.08935546875,-62.713623046875
1.2624999000000001,-1.5328876972198486,0.8254010081291199,10.268731117248535,-27.28271484375,-10.92529296875,-29.815673828125
1.2674999000000002,-1.6166846752166748,0.6745663285255432,10.351330757141113,-20.782470703125,-28.80859375,26.885986328125
1.2724999000000001,-0.9594763517379761,0.03890577703714371,9.916184425354004,-15.838623046875,-29.510498046875,59.478759765625
1.2774999000000002,0.9840168952941895,-2.1146786212921143,9.015366554260254,25.238037109375,-24.35302734375,87.34130859375
1.2824999000000001,1.1558008193969727,-2.582146644592285,8.786720275878906,40.0390625,-7.38525390625,75.164794921875
1.2874999,1.2964602708816528,-1.9303251504898071,8.950722694396973,20.355224609375,11.932373046875,23.162841796875
1.2924999000000001,1.535880446434021,-0.8750807046890259,9.438541412353516,4.21142578125,11.474609375,-40.0390625
1.2974999,1.9087773561477661,-0.13706804811954498,9.982624053955078,3.11279296875,29.60205078125,-54.779052734375
1.3024999000000002,1.9949685335159302,0.3148375153541565,10.13166332244873,6.7138671875,31.18896484375,-39.24560546875
1.3074999,1.5735890865325928,0.25438392162323,10.36449909210205,6.04248046875,28.86962890625,-62.713623046875
1.3124999000000002,0.24001872539520264,0.3381809890270233,10.251971244812012,-12.359619140625,10.955810546875,-67.56591796875
1.3174999,-1.2300211191177368,0.5734112858772278,10.218452453613281,-25.45166015625,-6.16455078125,-45.318603515625
1.3224999000000002,-1.8962076902389526,0.7032967209815979,9.934141159057617,-27.923583984375,-23.74267578125,3.90625
1.3274999,-1.7842788696289062,0.36571431159973145,9.988609313964844,-17.333984375,-34.5458984375,49.530029296875
1.3324999000000002,-0.8170213103294373,-0.5674257874488831,9.498994827270508,-19.683837890625,-26.885986328125,61.126708984375
1.3374999,1.5693992376327515,-1.4736311435699463,9.141061782836914,10.80322265625,12.0849609375,-2.50244140625
1.3424999000000002,1.811812162399292,-0.74040687084198,9.609726905822754,1.46484375,21.1181640625,-62.1337890625
1.3474999,2.1134815216064453,0.0011971008498221636,10.068815231323242,6.40869140625,36.56005859375,-54.87060546875
1.3524999000000002,1.7866730690002441,0.2908954918384552,10.31242561340332,3.47900390625,29.72412109375,-47.760009765625
1.3574999,0.8888474106788635,0.4794389009475708,10.533289909362793,-7.14111328125,20.6298828125,-68.29833984375
1.3624999000000002,-0.7344213724136353,0.6619967818260193,10.636839866638184,-23.712158203125,0.732421875,-67.901611328125
1.3674999,-1.7962498664855957,0.7709329724311829,10.393828392028809,-30.731201171875,-12.51220703125,-33.538818359375
1.3724999000000002,-1.8040310144424438,0.4106055796146393,10.390835762023926,-23.86474609375,-33.3251953125,31.646728515625
1.3774999,-1.0205284357070923,-0.2801215946674347,10.018536567687988,-20.1416015625,-31.25,65.673828125
1.3824999000000002,1.5717934370040894,-2.7263972759246826,8.555081367492676,54.290771484375,-7.720947265625,100.2197265625
1.3874999000000001,1.4449007511138916,-2.013523578643799,8.626907348632812,25.93994140625,15.7470703125,37.109375
1.3924999000000002,1.3413515090942383,-0.9846154451370239,9.251194953918457,3.204345703125,12.75634765625,-43.51806640625
1.3974999000000001,1.425148606300354,-0.21188685297966003,10.035296440124512,3.265380859375,33.203125,-72.021484375
1.4024999000000002,1.5705963373184204,0.33698388934135437,10.176554679870605,5.767822265625,34.515380859375,-50.10986328125
1.4074999000000001,1.106719732284546,0.49799394607543945,10.591948509216309,-1.129150390625,28.839111328125,-63.323974609375
1.4124999,0.017956512048840523,0.547075092792511,10.643424034118652,-14.6484375,9.857177734375,-73.516845703125
1.4174999000000001,-1.3682862520217896,0.871489405632019,10.590152740478516,-28.656005859375,-5.55419921875,-59.5703125
1.4224999,-1.799242615699768,0.7553706169128418,10.423755645751953,-26.580810546875,-23.5595703125,-4.791259765625
1.4274999000000002,-1.4209587574005127,0.22864626348018646,10.261548042297363,-16.510009765625,-36.529541015625,53.8330078125
1.4324999,-0.2663549482822418,-0.8948329091072083,9.593565940856934,-15.716552734375,-26.91650390625,70.1904296875
1.4374999000000002,1.2330138683319092,-2.2918496131896973,8.65863037109375,34.698486328125,8.72802734375,73.028564453125
1.4424999,1.954267144203186,0.5434837937355042,10.202890396118164,3.41796875,39.12353515625,-61.09619140625
1.4474999000000002,1.8483237028121948,0.8367735147476196,10.350732803344727,1.007080078125,31.67724609375,-47.515869140625
1.4524999,0.982221245765686,0.6973112225532532,10.610503196716309,-8.819580078125,21.514892578125,-61.004638671875
1.4574999000000002,-0.646434485912323,0.8379706144332886,10.681731224060059,-25.69580078125,1.922607421875,-65.91796875
1.4624999,-1.7675193548202515,0.7852981686592102,10.542867660522461,-33.843994140625,-11.871337890625,-40.771484375
1.4674999000000002,-1.7399860620498657,0.353743314743042,10.506954193115234,-29.72412109375,-32.073974609375,22.979736328125
1.4724999,-0.67815762758255,-0.42197805643081665,10.108918190002441,-26.67236328125,-30.76171875,64.63623046875
1.4774999000000002,0.8445546627044678,-1.643619418144226,9.316437721252441,-17.333984375,-23.37646484375,83.038330078125
1.4824999,1.876455545425415,-3.1711201667785645,8.183979988098145,65.97900390625,-15.07568359375,108.367919921875
1.4874999000000002,1.4646528959274292,-2.585737943649292,8.15644645690918,37.90283203125,16.143798828125,45.013427734375
1.4924999,1.0821791887283325,-1.3000515699386597,9.02135181427002,6.378173828125,14.556884765625,-38.818359375
1.4974999000000002,0.9205705523490906,-0.15442600846290588,10.06701946258545,2.38037109375,29.998779296875,-72.601318359375
1.5024999,1.1438298225402832,0.7595604658126831,10.45966911315918,3.082275390625,32.2265625,-48.52294921875
1.5074999000000002,0.8074445128440857,0.9331400990486145,10.853514671325684,-2.593994140625,29.144287109375,-56.671142578125
1.5124999000000001,0.10654197633266449,0.8876502513885498,10.837952613830566,-10.345458984375,16.265869140625,-73.516845703125
1.5174999000000002,-1.07379949092865,0.8254010081291199,10.719439506530762,-24.10888671875,-0.885009765625,-65.521240234375
1.5224999000000001,1.1480196714401245,-1.9434932470321655,9.02254867553711,4.913330078125,-19.775390625,77.972412109375
1.5274999000000002,1.3138182163238525,-2.583942174911499,8.624512672424316,38.2080078125,2.349853515625,53.8330078125
1.5324999000000001,1.1815385818481445,-1.4879963397979736,9.050082206726074,11.566162109375,11.322021484375,-12.054443359375
1.5374999000000003,1.2802993059158325,-0.44352585077285767,9.749788284301758,1.8310546875,18.24951171875,-54.87060546875
1.5424999000000001,1.5598224401474,0.46986207365989685,10.157401084899902,3.265380859375,30.82275390625,-43.060302734375
1.5474999,1.5406688451766968,0.4207809567451477,10.356718063354492,4.8828125,29.327392578125,-45.318603515625
1.5524999000000002,0.851138710975647,0.6757634282112122,10.46206283569336,-1.64794921875,23.956298828125,-72.235107421875
1.5574999,0.851138710975647,0.6757634282112122,10.46206283569336,-1.64794921875,23.956298828125,-72.235107421875
1.5624999000000002,-0.47824180126190186,0.4728548228740692,10.58775806427002,-19.134521484375,2.593994140625,-70.1904296875
1.5674999,-1.6400281190872192,0.7841010689735413,10.333374977111816,-29.266357421875,-9.521484375,-43.15185546875
1.5724999000000002,-1.7513585090637207,0.5710170865058899,10.413579940795898,-22.64404296875,-28.6865234375,17.547607421875
1.5774999,-1.0540473461151123,-0.0802057534456253,10.093356132507324,-16.66259765625,-30.853271484375,58.89892578125
1.5824999000000002,0.17657238245010376,-1.235408067703247,9.418789863586426,-13.946533203125,-22.0947265625,66.131591796875
1.5874999,1.3299790620803833,-2.5941176414489746,8.769362449645996,45.318603515625,-13.458251953125,91.24755859375
1.5924999000000002,1.2779051065444946,-2.0632033348083496,8.79928970336914,25.08544921875,10.80322265625,40.069580078125
1.5974999,1.282094955444336,-0.9750386476516724,9.340977668762207,4.82177734375,8.697509765625,-30.09033203125
1.6024999000000002,1.7591396570205688,0.3794809579849243,10.169970512390137,4.669189453125,31.67724609375,-40.435791015625
1.6074999,1.7591396570205688,0.3794809579849243,10.169970512390137,4.669189453125,31.67724609375,-40.435791015625
1.6124999000000002,1.4000093936920166,0.5219359993934631,10.503961563110352,2.471923828125,28.564453125,-53.680419921875
1.6174999,0.4141969084739685,0.45669397711753845,10.538677215576172,-10.101318359375,15.228271484375,-68.817138671875
1.6224999000000002,-1.0564415454864502,0.6356605291366577,10.578181266784668,-24.2919921875,-3.2958984375,-59.051513671875
1.6274999,-1.6861165761947632,0.5656301379203796,10.28249740600586,-26.702880859375,-17.242431640625,-16.265869140625
1.6324999000000002,-1.502361536026001,0.10354922711849213,10.198101997375488,-15.44189453125,-32.379150390625,43.15185546875
1.6374999000000001,-0.5464765429496765,-0.7852981686592102,9.61212158203125,-12.51220703125,-25.848388671875,64.8193359375
1.6424999000000002,0.6889315247535706,-1.8986018896102905,9.14585018157959,6.256103515625,-21.78955078125,78.948974609375
1.6474999000000001,2.184110403060913,0.16819266974925995,10.158597946166992,6.744384765625,33.38623046875,-43.060302734375
1.6524999000000002,1.5089455842971802,0.4423287510871887,10.278307914733887,3.509521484375,26.031494140625,-65.91796875
1.6574999000000001,-0.0520738884806633,0.09397241473197937,10.266336441040039,-17.76123046875,6.2255859375,-68.634033203125
1.6624999000000003,-1.512536883354187,0.5015852451324463,9.995193481445312,-26.092529296875,-8.48388671875,-44.98291015625
1.6674999000000001,-1.9662381410598755,0.28550854325294495,9.9401273727417,-20.44677734375,-25.909423828125,11.1083984375
1.6724999,-1.567603588104248,-0.23343466222286224,9.770736694335938,-9.796142578125,-31.18896484375,54.62646484375
1.6774999000000002,-0.4866214990615845,-1.2204443216323853,9.294290542602539,-9.70458984375,-22.613525390625,61.6455078125
1.6824999,1.5682021379470825,-0.6057330369949341,9.548674583435059,3.265380859375,7.568359375,-21.3623046875
1.6874999000000002,1.5682021379470825,-0.6057330369949341,9.548674583435059,3.265380859375,7.568359375,-21.3623046875
1.6924999,2.0225019454956055,-0.03890577703714371,9.905410766601562,0.1220703125,25.69580078125,-56.365966796875
1.6974999000000002,2.4588451385498047,0.4423287510871887,10.059837341308594,7.87353515625,37.078857421875,-39.886474609375
1.7024999,2.1290438175201416,-0.035913024097681046,10.00836181640625,6.622314453125,31.8603515625,-54.26025390625
1.7074999000000002,0.9666589498519897,0.2322375625371933,10.10053825378418,-7.2021484375,15.80810546875,-73.6083984375
1.7124999,-0.7254431247711182,0.1256955862045288,10.146626472473145,-23.345947265625,-0.946044921875,-67.87109375
1.7174999000000002,-1.9482816457748413,0.4554968774318695,9.836577415466309,-26.18408203125,-13.7939453125,-29.296875
1.7224999,-2.1146786212921143,0.1388636976480484,10.066421508789062,-12.237548828125,-31.524658203125,32.65380859375
1.7274999000000002,-1.50355863571167,-0.4842272996902466,9.657012939453125,-9.3994140625,-29.693603515625,59.5703125
1.7324999,-0.11791443079710007,-1.4873977899551392,9.370905876159668,-1.52587890625,-21.453857421875,65.704345703125
1.7374999000000002,0.6368576288223267,-2.0033483505249023,9.304466247558594,29.083251953125,-23.956298828125,87.921142578125
1.7424999,1.380257248878479,-1.22642982006073,9.404424667358398,12.26806640625,10.040283203125,22.705078125
1.7474999000000002,1.834557056427002,-0.45669397711753845,9.624092102050781,-0.885009765625,8.270263671875,-39.764404296875
1.7524999,2.4791958332061768,0.16220717132091522,10.055646896362305,2.99072265625,33.02001953125,-52.276611328125
1.7574999000000002,2.5971102714538574,0.053270988166332245,9.97484302520752,9.521484375,36.19384765625,-41.3818359375
1.7624999000000001,-1.1917139291763306,0.228047713637352,9.95209789276123,-24.383544921875,-4.608154296875,-57.464599609375
1.7674999000000002,-2.1727380752563477,0.2651578485965729,9.72165584564209,-20.01953125,-20.416259765625,-7.50732421875
1.7724999000000001,-2.204461097717285,-0.05985504388809204,9.816226959228516,-6.378173828125,-33.447265625,46.966552734375
1.7774999000000002,-1.3694833517074585,-0.8361749649047852,9.419986724853516,-9.063720703125,-26.42822265625,57.769775390625
1.7824999000000001,-0.10714052617549896,-1.482010841369629,9.418789863586426,8.23974609375,-24.139404296875,71.197509765625
1.7874999000000003,2.1080946922302246,0.18315643072128296,10.070611000061035,3.5400390625,23.895263671875,-68.511962890625
1.7924999000000001,0.2495955228805542,-0.20470423996448517,10.163386344909668,-23.529052734375,2.3193359375,-73.54736328125
1.7974999,-1.5376760959625244,0.3082534670829773,9.911994934082031,-27.52685546875,-6.4697265625,-53.40576171875
1.8024999000000002,-2.403778553009033,0.05626374110579491,9.779715538024902,-18.5546875,-23.773193359375,3.2958984375
1.8074999,-2.236783027648926,-0.2908954918384552,9.656414031982422,-5.889892578125,-34.36279296875,52.520751953125
1.8124999000000002,-1.1540051698684692,-1.1743559837341309,9.241020202636719,-10.19287109375,-24.444580078125,54.901123046875
1.8174999,0.2513911724090576,-1.6172832250595093,9.251194953918457,11.505126953125,-22.186279296875,73.211669921875
1.8224999000000002,2.2200236320495605,-0.17717093229293823,9.927556991577148,1.068115234375,25.32958984375,-52.6123046875
1.8274999,2.670732021331787,0.2968810200691223,10.071807861328125,10.7421875,40.6494140625,-40.71044921875
1.8324999000000002,2.492363929748535,-0.33758243918418884,10.093954086303711,10.467529296875,37.65869140625,-54.38232421875
1.8374999,1.6089035272598267,0.10295066982507706,10.158597946166992,-4.119873046875,20.01953125,-83.0078125
1.8424999000000002,-0.09397241473197937,-0.09576806426048279,10.157999038696289,-25.970458984375,-1.03759765625,-84.381103515625
1.8474999,-1.7944542169570923,0.35673606395721436,9.82999324798584,-29.327392578125,-11.077880859375,-55.694580078125
1.8524999000000002,-2.5246856212615967,0.19033902883529663,9.716867446899414,-16.571044921875,-27.313232421875,11.71875
1.8574999,-2.1559786796569824,-0.2232593148946762,9.59057331085205,-7.080078125,-37.261962890625,58.502197265625
1.8624999000000002,-0.9744400978088379,-1.158793568611145,9.189544677734375,-9.979248046875,-24.59716796875,55.023193359375
1.8674999,0.48722004890441895,-1.6543933153152466,9.227851867675781,15.655517578125,-20.751953125,76.019287109375
1.8724999000000002,1.4760253429412842,-1.490989089012146,9.308655738830566,18.4326171875,9.70458984375,35.308837890625
1.8774999,1.7082629203796387,-0.52552729845047,9.707889556884766,2.716064453125,8.758544921875,-22.88818359375
1.8824999000000002,2.0009541511535645,-0.03711012750864029,10.019734382629395,1.8310546875,26.06201171875,-52.459716796875
1.8874999000000001,2.3953988552093506,0.414795458316803,10.147225379943848,10.6201171875,38.421630859375,-39.337158203125
1.8924999000000002,2.23199462890625,-0.1867477297782898,10.152013778686523,9.82666015625,35.919189453125,-54.412841796875
1.8974999000000001,1.3533225059509277,0.13287819921970367,10.179547309875488,-7.2021484375,17.51708984375,-81.329345703125
1.9024999000000002,-0.23044191300868988,-0.03411737456917763,10.18912410736084,-25.421142578125,-2.655029296875,-80.780029296875
1.9074999000000001,-1.8255788087844849,0.28730419278144836,9.827000617980957,-28.594970703125,-13.031005859375,-50.4150390625
1.9124999000000003,-2.4355015754699707,0.0975637212395668,9.813234329223633,-14.617919921875,-29.083251953125,19.83642578125
1.9174999000000001,-1.9991583824157715,-0.3770867586135864,9.605537414550781,-8.636474609375,-36.590576171875,60.577392578125
1.9224999,-0.2555810213088989,-0.12629413604736328,10.170568466186523,-24.749755859375,-2.777099609375,-75.286865234375
1.9274999000000002,-1.8040310144424438,0.2932897210121155,9.777320861816406,-27.313232421875,-12.939453125,-42.816162109375
1.9324999,-2.389413356781006,0.16579847037792206,9.860519409179688,-14.58740234375,-31.036376953125,25.7568359375
1.9374999000000002,-1.9584569931030273,-0.2968810200691223,9.605537414550781,-10.3759765625,-35.82763671875,59.2041015625
1.9424999,-0.7314286231994629,-1.1887211799621582,9.280524253845215,-9.002685546875,-23.773193359375,53.40576171875
1.9474999000000002,0.49380409717559814,-1.7830817699432373,9.29069995880127,21.270751953125,-22.308349609375,80.2001953125
1.9524999,1.3832499980926514,-1.459265947341919,9.351752281188965,16.6015625,10.6201171875,38.330078125
1.9574999000000002,1.669357180595398,-0.578798234462738,9.673172950744629,1.5869140625,6.2255859375,-20.3857421875
1.9624999,2.033874273300171,-0.07960720360279083,9.975440979003906,1.52587890625,25.177001953125,-52.764892578125
1.9674999000000002,2.4211363792419434,0.2322375625371933,10.040084838867188,11.322021484375,37.567138671875,-38.238525390625
1.9724999,2.256535053253174,-0.4728548228740692,10.029311180114746,9.735107421875,35.064697265625,-52.703857421875
1.9774999000000002,1.2874820232391357,0.018555063754320145,10.152612686157227,-5.706787109375,16.29638671875,-72.967529296875
1.9824999,-0.29628247022628784,-0.09816227108240128,10.186131477355957,-24.200439453125,-3.143310546875,-69.2138671875
1.9874999000000002,-1.7926585674285889,0.444722980260849,9.896432876586914,-25.909423828125,-13.153076171875,-36.865234375
1.9924999,-2.362478494644165,0.37229835987091064,10.002974510192871,-13.580322265625,-31.79931640625,27.069091796875
1.9974999000000002,-1.9309237003326416,-0.10115502029657364,9.679159164428711,-10.19287109375,-34.698486328125,57.43408203125
2.0024999,0.38546648621559143,-1.653794765472412,9.390059471130371,21.270751953125,-23.406982421875,79.28466796875
2.0074999,1.346139907836914,-1.4305355548858643,9.424176216125488,15.350341796875,10.894775390625,42.29736328125
2.0124999000000003,1.777694821357727,-0.6242880821228027,9.66958236694336,1.28173828125,6.103515625,-16.693115234375
2.0174999000000002,2.2685060501098633,-0.17058686912059784,9.919178009033203,1.3427734375,25.604248046875,-52.093505859375
2.0224999,2.6803088188171387,0.12988543510437012,9.981427192687988,11.962890625,38.970947265625,-37.261962890625
2.0274999,2.45285964012146,-0.5530605912208557,9.973047256469727,9.82666015625,35.2783203125,-49.652099609375
2.0324999000000004,1.3976151943206787,-0.07302315533161163,10.080187797546387,-4.913330078125,16.510009765625,-71.014404296875
2.0374999000000003,-0.2801215946674347,-0.20470423996448517,10.103530883789062,-23.62060546875,-3.11279296875,-68.511962890625
2.0424999,-1.8291701078414917,0.26396074891090393,9.786897659301758,-24.59716796875,-12.237548828125,-37.506103515625
2.0474999,-2.4235305786132812,0.20949265360832214,9.868300437927246,-12.359619140625,-30.242919921875,26.0009765625
2.0524999,-1.9913772344589233,-0.18914192914962769,9.619902610778809,-9.124755859375,-33.721923828125,55.999755859375
2.0574999000000003,-0.9301473498344421,-1.0528502464294434,9.37389850616455,-7.26318359375,-23.3154296875,48.919677734375
2.0624999,0.24600422382354736,-1.5873557329177856,9.469067573547363,19.927978515625,-22.0947265625,72.998046875
2.0674999,0.7775170207023621,-1.9560627937316895,9.329605102539062,28.01513671875,-6.500244140625,71.2890625
2.0724999,1.2485761642456055,-1.381454348564148,9.515754699707031,14.373779296875,9.70458984375,38.26904296875
2.0774999000000003,1.7711106538772583,-0.5781996846199036,9.715071678161621,1.52587890625,5.889892578125,-15.716552734375
2.0824999,2.318784236907959,-0.11312603205442429,9.94970417022705,1.0986328125,24.139404296875,-48.583984375
2.0874999,2.7287914752960205,0.12629413604736328,9.95329475402832,11.016845703125,37.139892578125,-34.576416015625
2.0924999,2.476203203201294,-0.6015431880950928,9.953893661499023,10.345458984375,35.09521484375,-49.468994140625
2.0974999000000003,1.4879963397979736,-0.07781155407428741,10.011953353881836,-3.173828125,16.082763671875,-68.90869140625
2.1024999,-0.2124854028224945,-0.314238965511322,10.028712272644043,-23.0712890625,-3.265380859375,-63.690185546875
2.1074999,-1.699883222579956,0.24121582508087158,9.72165584564209,-23.37646484375,-11.505126953125,-34.088134765625
2.1124999,-2.3505074977874756,0.19273324310779572,9.831789016723633,-11.77978515625,-29.510498046875,24.7802734375
2.1174999000000003,-2.0374655723571777,-0.19033902883529663,9.596558570861816,-8.758544921875,-32.71484375,53.40576171875
2.1224999,-1.0923545360565186,-1.0085574388504028,9.39245319366455,-7.537841796875,-23.712158203125,46.844482421875
2.1274999,0.5452794432640076,-1.9033904075622559,9.34397029876709,25.93994140625,-7.75146484375,70.953369140625
2.1324999,1.1162965297698975,-1.370081901550293,9.533112525939941,14.2822265625,8.48388671875,42.8466796875
2.1374999000000003,1.7663222551345825,-0.5608417391777039,9.694122314453125,2.105712890625,4.8828125,-8.23974609375
2.1424999000000002,2.4355015754699707,-0.09217676520347595,9.904213905334473,0.335693359375,21.453857421875,-46.600341796875
2.1474999,2.876633405685425,0.16759411990642548,9.883264541625977,9.765625,36.651611328125,-34.85107421875
2.1524999,2.606687068939209,-0.5542576909065247,9.892242431640625,10.1318359375,34.66796875,-46.539306640625
2.1574999000000004,1.5921441316604614,0.05686229094862938,9.925163269042969,-0.701904296875,17.364501953125,-63.323974609375
2.1624999000000003,-0.1604115068912506,-0.322618693113327,9.996989250183105,-21.759033203125,-1.77001953125,-58.2275390625
2.1674999,-1.635838270187378,0.3034650683403015,9.691129684448242,-22.0947265625,-10.07080078125,-30.426025390625
2.1724999,-2.3020248413085938,0.15083470940589905,9.850942611694336,-11.260986328125,-28.4423828125,23.49853515625
2.1774999000000004,-2.072181463241577,-0.24121582508087158,9.601346969604492,-7.6904296875,-31.005859375,51.055908203125
2.1824999000000003,1.0492589473724365,-1.3395558595657349,9.582792282104492,13.5498046875,7.232666015625,44.403076171875
2.1874999,1.8327614068984985,-0.5333084464073181,9.727641105651855,2.471923828125,5.218505859375,-3.814697265625
2.1924999,2.61087703704834,-0.07242459803819656,9.880870819091797,0.213623046875,20.69091796875,-44.342041015625
2.1974999,3.074753522872925,0.18914192914962769,9.857526779174805,9.27734375,36.62109375,-34.66796875
2.2024999000000003,2.782062292098999,-0.5021837949752808,9.854534149169922,10.345458984375,35.430908203125,-45.22705078125
2.2074999,1.713649868965149,0.09038111567497253,9.841964721679688,0.9765625,17.76123046875,-60.4248046875
2.2124999,-0.09876082092523575,-0.36810851097106934,9.923966407775879,-22.247314453125,-1.922607421875,-56.396484375
2.2174999,-1.6370353698730469,0.21667525172233582,9.59596061706543,-22.4609375,-9.21630859375,-30.517578125
2.2224999000000003,-2.340332269668579,-0.031124621629714966,9.733627319335938,-12.542724609375,-27.83203125,22.0947265625
2.2274999,-2.163759708404541,-0.40462008118629456,9.528324127197266,-7.568359375,-30.6396484375,49.9267578125
2.2324999,0.3687070608139038,-1.92134690284729,9.397241592407227,23.13232421875,-9.735107421875,69.39697265625
2.2374999,0.3687070608139038,-1.92134690284729,9.397241592407227,23.13232421875,-9.735107421875,69.39697265625
2.2424999000000003,1.0899603366851807,-1.4305355548858643,9.585186958312988,14.46533203125,8.7890625,45.623779296875
2.2474999,1.9075802564620972,-0.6404489278793335,9.718663215637207,3.204345703125,7.2021484375,-2.50244140625
2.2524999,2.699462413787842,-0.19273324310779572,9.898826599121094,0.823974609375,22.4609375,-45.501708984375
2.2574999,3.156156301498413,0.12689268589019775,9.901819229125977,10.284423828125,38.787841796875,-35.15625
2.2624999000000003,2.872443437576294,-0.5129576921463013,9.9000244140625,10.8642578125,36.346435546875,-46.234130859375
2.2674999000000002,1.8579005002975464,0.05626374110579491,9.9401273727417,1.434326171875,18.6767578125,-66.802978515625
2.2724999,0.033518824726343155,-0.35254621505737305,10.014347076416016,-23.49853515625,-3.173828125,-65.3076171875
2.2774999,-1.5957354307174683,0.1693897694349289,9.717466354370117,-23.162841796875,-7.6904296875,-40.802001953125
2.2824999000000004,-2.432508945465088,-0.03232172131538391,9.744400978088379,-12.542724609375,-24.871826171875,15.777587890625
2.2874999000000003,-2.366069793701172,-0.28969839215278625,9.570222854614258,-6.4697265625,-31.982421875,51.025390625
2.2924999,-0.25917232036590576,-1.3395558595657349,9.460687637329102,11.474609375,-22.247314453125,63.385009765625
2.2974999,0.46507367491722107,-1.79146146774292,9.410409927368164,24.200439453125,-10.955810546875,67.413330078125
2.3024999000000004,1.1965023279190063,-1.3898340463638306,9.53969669342041,14.6484375,7.843017578125,40.52734375
2.3074999000000003,1.8956091403961182,-0.6159083843231201,9.720458984375,3.387451171875,7.080078125,-5.31005859375
2.3124999,2.5528175830841064,-0.21787235140800476,9.916184425354004,0.79345703125,21.697998046875,-44.769287109375
2.3174999,3.008314371109009,0.14903905987739563,9.958083152770996,10.1318359375,37.384033203125,-34.454345703125
2.3224999,2.7126305103302,-0.4734533727169037,9.965864181518555,11.3525390625,36.376953125,-45.806884765625
2.3274999000000003,1.8525135517120361,0.053270988166332245,9.966463088989258,1.800537109375,19.500732421875,-70.556640625
2.3324999,0.06165069341659546,-0.2998737692832947,10.029909133911133,-23.37646484375,-4.119873046875,-68.817138671875
2.3374999,-1.578976035118103,0.17238251864910126,9.709685325622559,-23.681640625,-8.544921875,-43.914794921875
2.3424999,-2.472611904144287,0.002394201699644327,9.712677955627441,-13.702392578125,-25.93994140625,13.427734375
2.3474999000000003,-2.476203203201294,-0.2621650993824005,9.588777542114258,-7.293701171875,-34.3017578125,51.81884765625
2.3524999,1.1659762859344482,-1.4915876388549805,9.52114200592041,15.9912109375,8.30078125,49.224853515625
2.3574999,1.8160020112991333,-0.657806932926178,9.723451614379883,4.058837890625,6.622314453125,3.41796875
2.3624999,2.5019407272338867,-0.26156654953956604,9.864709854125977,-0.42724609375,17.669677734375,-43.914794921875
2.3674999000000003,3.021482467651367,0.15801730751991272,9.960477828979492,9.307861328125,37.384033203125,-37.567138671875
2.3724999,2.830544948577881,-0.4129997789859772,9.923367500305176,11.260986328125,36.80419921875,-41.229248046875
2.3774999,2.0183119773864746,-0.0520738884806633,9.877279281616211,3.41796875,22.216796875,-65.73486328125
2.3824999,0.23343466222286224,-0.3082534670829773,9.94970417022705,-21.331787109375,-2.3193359375,-65.887451171875
2.3874999000000003,-1.4730325937271118,0.09038111567497253,9.627084732055664,-23.651123046875,-7.99560546875,-43.45703125
2.3924999000000002,-2.4217350482940674,-0.017956512048840523,9.616311073303223,-15.80810546875,-24.7802734375,10.498046875
2.3974999,-2.5067291259765625,-0.22685061395168304,9.569025993347168,-8.23974609375,-34.24072265625,50.47607421875
2.4024999,2.410961151123047,-0.36152446269989014,9.825204849243164,-1.03759765625,14.617919921875,-42.022705078125
2.4074999000000004,2.940079689025879,0.07841010391712189,9.989208221435547,8.087158203125,36.62109375,-39.9169921875
2.4124999000000003,2.850297212600708,-0.3824737071990967,9.882665634155273,11.16943359375,36.285400390625,-37.2314453125
2.4174999,2.0901381969451904,-0.08200141042470932,10.006566047668457,4.69970703125,24.688720703125,-62.92724609375
2.4224999,0.4076128304004669,-0.17477671802043915,10.06043529510498,-19.073486328125,0.457763671875,-66.253662109375
2.4274999000000004,-1.2617442607879639,0.21428105235099792,9.893440246582031,-22.552490234375,-6.561279296875,-45.8984375
2.4324999000000003,-2.2212207317352295,0.16579847037792206,9.835380554199219,-15.5029296875,-22.4609375,6.89697265625
2.4374999,-2.3780407905578613,-0.04728548228740692,9.752182006835938,-7.50732421875,-33.233642578125,49.530029296875
2.4424999,1.6496049165725708,-0.7224503755569458,9.668983459472656,5.67626953125,7.354736328125,12.237548828125
2.4474999,2.3936030864715576,-0.3597288131713867,9.757569313049316,-1.220703125,13.73291015625,-40.252685546875
2.4524999000000003,2.985569477081299,0.10773907601833344,9.9401273727417,7.598876953125,36.956787109375,-41.412353515625
2.4574999,2.913144826889038,-0.2992752194404602,9.859322547912598,11.41357421875,36.9873046875,-37.078857421875
2.4624999,2.190694570541382,-0.1149216815829277,9.978434562683105,4.69970703125,25.604248046875,-63.995361328125
2.4674999,0.4668693244457245,-0.16220717132091522,10.035296440124512,-19.805908203125,0.79345703125,-68.7255859375
2.4724999000000003,-1.259350061416626,0.12928688526153564,9.900622367858887,-24.322509765625,-6.500244140625,-50.079345703125
2.4774999,-2.293046712875366,0.08858546614646912,9.766547203063965,-18.37158203125,-21.6064453125,1.28173828125
2.4824999,-0.30705636739730835,-1.3263877630233765,9.449316024780273,5.7373046875,-23.284912109375,63.4765625
2.4874999,0.43754035234451294,-1.7836803197860718,9.398438453674316,27.40478515625,-17.76123046875,81.756591796875
2.4924999000000003,1.1456254720687866,-1.6944962739944458,9.366117477416992,20.1416015625,6.103515625,58.197021484375
2.4974999,1.6903064250946045,-0.8415619134902954,9.619303703308105,7.14111328125,8.697509765625,13.48876953125
2.5024999,2.3122003078460693,-0.40222588181495667,9.744999885559082,-0.823974609375,14.404296875,-41.473388671875
2.5074999,2.898181200027466,-0.0071826050989329815,10.001178741455078,7.476806640625,38.26904296875,-46.142578125
2.5124999000000003,2.8215668201446533,-0.13108254969120026,9.892841339111328,12.20703125,37.689208984375,-36.07177734375
2.5174999000000002,2.11946702003479,0.07960720360279083,10.106523513793945,2.288818359375,26.79443359375,-67.07763671875
2.5224999,0.44412440061569214,0.14484919607639313,10.135852813720703,-20.355224609375,3.448486328125,-78.399658203125
2.5274999,-1.390432596206665,0.524330198764801,10.125079154968262,-27.2216796875,-8.056640625,-61.859130859375
2.5324999000000004,-2.4193408489227295,0.3513490855693817,9.873687744140625,-22.430419921875,-19.83642578125,-8.7890625
2.5374999000000003,-0.04369417950510979,-1.5388731956481934,9.300874710083008,3.84521484375,-22.247314453125,66.802978515625
2.5424999,0.7936778664588928,-2.011129379272461,9.260173797607422,33.38623046875,-19.256591796875,90.179443359375
2.5474999,1.3605051040649414,-1.956661343574524,9.175179481506348,27.008056640625,6.134033203125,66.58935546875
2.5524999000000004,1.6274585723876953,-1.0402805805206299,9.518747329711914,9.002685546875,10.25390625,16.66259765625
2.5574999000000003,1.9596540927886963,-0.3728969097137451,9.779715538024902,-0.396728515625,12.451171875,-42.022705078125
2.5624999,2.454056739807129,0.04908113554120064,10.002974510192871,12.054443359375,37.4755859375,-38.51318359375
2.5674999,1.9285295009613037,0.11791443079710007,10.199298858642578,3.41796875,29.388427734375,-66.375732421875
2.5724999,0.5201402902603149,0.2232593148946762,10.187328338623047,-19.1650390625,5.615234375,-79.986572265625
2.5774999000000003,-1.2216414213180542,0.6063315868377686,10.186131477355957,-28.656005859375,-8.9111328125,-66.71142578125
2.5824999,-2.279279947280884,0.46627077460289,9.897629737854004,-24.5361328125,-19.95849609375,-15.045166015625
2.5874999,-1.5065513849258423,-0.6775590777397156,9.485228538513184,-12.939453125,-31.73828125,57.891845703125
2.5924999,0.020949264988303185,-1.544858694076538,9.29189682006836,2.105712890625,-23.13232421875,69.305419921875
2.5974999000000003,0.8816647529602051,-2.033275842666626,9.21288776397705,35.400390625,-20.599365234375,97.22900390625
2.6024999,1.3850456476211548,-2.0937294960021973,9.124302864074707,32.16552734375,7.659912109375,79.4677734375
2.6074999,1.5490485429763794,-1.1988965272903442,9.46487808227539,11.688232421875,12.969970703125,31.280517578125
2.6124999,1.801636815071106,-0.4668693244457245,9.75517463684082,-0.54931640625,9.490966796875,-33.966064453125
2.6174999000000003,2.1344308853149414,-0.076015904545784,10.11789608001709,5.706787109375,35.21728515625,-57.6171875
2.6224999,2.365471363067627,0.11911153793334961,10.011354446411133,13.092041015625,40.252685546875,-41.229248046875
2.6274999,1.9752163887023926,0.08080431073904037,10.181941032409668,5.43212890625,31.67724609375,-61.46240234375
2.6324999,0.6931213736534119,0.3016694188117981,10.17296314239502,-18.798828125,6.988525390625,-78.704833984375
2.6374999000000003,-0.9768342971801758,0.6374561786651611,10.219650268554688,-29.4189453125,-7.781982421875,-72.723388671875
2.6424999000000002,1.3898340463638306,-2.2810757160186768,9.036913871765137,37.994384765625,3.35693359375,88.623046875
2.6474999,1.5053542852401733,-1.4059948921203613,9.304466247558594,15.533447265625,15.07568359375,44.0673828125
2.6524999,1.6687586307525635,-0.5183446407318115,9.68574333190918,0.244140625,6.134033203125,-21.392822265625
2.6574999000000004,1.9117701053619385,-0.016160860657691956,10.059837341308594,2.38037109375,28.411865234375,-59.02099609375
2.6624999000000003,2.3313539028167725,0.31842881441116333,10.077195167541504,12.20703125,40.283203125,-44.586181640625
2.6674999,2.0236990451812744,0.2364274114370346,10.013748168945312,6.34765625,33.87451171875,-55.11474609375
2.6724999,1.0211269855499268,0.579995334148407,10.149619102478027,-15.2587890625,11.932373046875,-73.211669921875
2.6774999000000004,-0.6607996821403503,0.8259995579719543,10.195708274841309,-29.388427734375,-3.90625,-73.6083984375
2.6824999000000003,-2.0272903442382812,0.8301894664764404,9.987412452697754,-33.966064453125,-16.082763671875,-40.52734375
2.6874999,1.2144588232040405,-2.5498247146606445,9.03870964050293,30.09033203125,-25.115966796875,98.602294921875
2.6924999,1.600523829460144,-2.716820478439331,8.948927879333496,49.25537109375,-4.486083984375,99.06005859375
2.6974999,1.5741876363754272,-1.8620903491973877,9.074623107910156,23.8037109375,18.463134765625,54.779052734375
2.7024999000000003,1.4718354940414429,-0.6344634294509888,9.658209800720215,3.2958984375,8.72802734375,-10.19287109375
2.7074999,1.6047136783599854,0.17477671802043915,10.083779335021973,1.220703125,23.681640625,-57.830810546875
2.7124999,1.9943699836730957,0.6979097723960876,10.238204956054688,10.833740234375,40.95458984375,-48.858642578125
2.7174999,1.9488801956176758,0.14903905987739563,10.212467193603516,8.270263671875,37.445068359375,-52.947998046875
2.7224999000000003,1.2072762250900269,0.48961424827575684,10.36988639831543,-7.354736328125,18.310546875,-76.59912109375
2.7274999,1.2072762250900269,0.48961424827575684,10.36988639831543,-7.354736328125,18.310546875,-76.59912109375
2.7324999,-0.3196259140968323,0.3292027413845062,10.384849548339844,-28.74755859375,-1.77001953125,-82.45849609375
2.7374999,-2.4875755310058594,0.38546648621559143,9.943717956542969,-26.336669921875,-30.1513671875,2.9296875
2.7424999000000003,-1.9692308902740479,-0.2849099934101105,9.841964721679688,-12.725830078125,-41.961669921875,58.990478515625
2.7474999,-0.5440823435783386,-1.3724761009216309,9.205106735229492,-12.969970703125,-28.076171875,62.652587890625
2.7524999,1.0336965322494507,-2.1930887699127197,8.942941665649414,14.892578125,-24.4140625,87.34130859375
2.7574999,1.6160861253738403,-2.652775526046753,8.902838706970215,50.079345703125,-16.510009765625,105.377197265625
2.7624999000000003,1.7088614702224731,-2.1757307052612305,8.886677742004395,34.271240234375,14.495849609375,71.8994140625
2.7674999000000002,1.5161281824111938,-0.9373299479484558,9.50617790222168,8.1787109375,12.481689453125,13.214111328125
2.7724999,1.5286977291107178,-0.048482585698366165,9.971251487731934,-1.03759765625,12.5732421875,-47.66845703125
2.7774999,1.9410990476608276,0.5734112858772278,10.310030937194824,6.805419921875,38.177490234375,-56.488037109375
2.7824999000000004,1.98958158493042,0.38127660751342773,10.202890396118164,10.55908203125,39.459228515625,-46.32568359375
2.7874999000000003,1.611896276473999,0.6039373874664307,10.324396133422852,1.46484375,27.83203125,-67.962646484375
2.7924999,0.20889410376548767,0.46986207365989685,10.31362247467041,-24.627685546875,3.84521484375,-79.437255859375
2.7974999,-1.1025298833847046,-1.0013748407363892,9.390657424926758,-12.451171875,-33.50830078125,63.751220703125
2.8024999000000004,0.5422866940498352,-2.0458452701568604,9.000402450561523,2.38037109375,-22.491455078125,73.516845703125
2.8074999000000003,1.4359225034713745,-2.5983073711395264,8.953716278076172,43.182373046875,-24.261474609375,103.02734375
2.8124999,1.6657658815383911,-2.5911247730255127,8.861538887023926,43.853759765625,5.157470703125,86.3037109375
2.8174999,1.502361536026001,-1.4951789379119873,9.304466247558594,15.68603515625,17.08984375,36.31591796875
2.8224999,1.4832079410552979,-0.35434186458587646,9.813833236694336,0.274658203125,6.317138671875,-28.106689453125
2.8274999000000003,1.6364368200302124,0.31184476613998413,10.24239444732666,2.3193359375,29.510498046875,-57.7392578125
2.8324999,2.03507137298584,0.6368576288223267,10.225635528564453,10.772705078125,40.618896484375,-42.999267578125
2.8374999,1.7980455160140991,0.36152446269989014,10.028712272644043,6.4697265625,34.881591796875,-56.45751953125
2.8424999,0.8822633028030396,0.6135141849517822,10.195109367370605,-15.228271484375,12.0849609375,-74.951171875
2.8474999000000003,-2.0602104663848877,0.7236474752426147,10.055646896362305,-35.2783203125,-14.312744140625,-48.675537109375
2.8524999,-2.3535003662109375,0.13168109953403473,10.173561096191406,-22.430419921875,-34.759521484375,19.95849609375
2.8574999,-1.4766238927841187,-0.6739677786827087,9.943120002746582,-12.969970703125,-38.909912109375,61.8896484375
2.8624999,-0.03232172131538391,-1.8088194131851196,9.303269386291504,-10.25390625,-24.810791015625,64.239501953125
2.8674999000000003,1.3766659498214722,-2.5528175830841064,9.03751277923584,26.42822265625,-26.397705078125,94.970703125
2.8724999,1.6274585723876953,-2.8209681510925293,8.859145164489746,52.337646484375,-10.406494140625,102.020263671875
2.8774999,1.5532383918762207,-2.0703859329223633,8.948328971862793,28.533935546875,18.890380859375,61.70654296875
2.8824999,1.3479355573654175,-0.6961141228675842,9.567828178405762,5.523681640625,9.918212890625,0.6103515625
2.8874999000000003,1.4724340438842773,0.17956513166427612,10.02452278137207,-0.54931640625,17.120361328125,-53.253173828125
2.8924999000000002,1.8800468444824219,0.7870938181877136,10.31601619720459,8.60595703125,41.68701171875,-53.03955078125
2.8974999,1.9662381410598755,0.32022446393966675,10.226832389831543,10.009765625,40.252685546875,-49.62158203125
2.9024999,1.4748282432556152,0.6027402877807617,10.333374977111816,-1.922607421875,25.238037109375,-73.79150390625
2.9074999000000004,-1.602918028831482,0.7170634269714355,10.195109367370605,-35.003662109375,-8.941650390625,-74.554443359375
2.9124999000000003,-2.4678235054016113,0.41120412945747375,9.82999324798584,-29.754638671875,-24.078369140625,-19.012451171875
2.9174999,-2.2631192207336426,-0.2172738015651703,9.82640266418457,-13.458251953125,-42.510986328125,49.98779296875
2.9224999,-1.0630255937576294,-1.1468225717544556,9.282918930053711,-11.90185546875,-33.172607421875,63.96484375
2.9274999000000004,0.628477931022644,-2.09672212600708,8.983643531799316,5.706787109375,-22.76611328125,75.592041015625
2.9324999000000003,1.456871747970581,-2.6156654357910156,8.958504676818848,45.135498046875,-23.37646484375,102.691650390625
2.9374999,1.710058569908142,-2.498948097229004,8.923788070678711,41.748046875,8.23974609375,82.550048828125
2.9424999,1.5382746458053589,-1.338358759880066,9.403825759887695,13.85498046875,17.120361328125,31.494140625
2.9474999,1.5161281824111938,-0.2513911724090576,9.871891975402832,-0.48828125,6.7138671875,-31.79931640625
2.9524999000000003,1.668160080909729,0.3555389642715454,10.265738487243652,3.0517578125,31.31103515625,-57.373046875
2.9574999,2.0638017654418945,0.5829881429672241,10.201693534851074,11.65771484375,41.656494140625,-43.64013671875
2.9624999,-2.145204782485962,0.7218518257141113,10.034099578857422,-34.393310546875,-15.380859375,-51.33056640625
2.9674999,-2.498948097229004,0.06763619929552078,10.097545623779297,-19.927978515625,-35.797119140625,19.22607421875
2.9724999000000003,-1.6819267272949219,-0.7523778676986694,9.873687744140625,-10.589599609375,-40.283203125,61.798095703125
2.9774999,-0.2454056739807129,-1.8405425548553467,9.287707328796387,-7.537841796875,-25.57373046875,61.70654296875
2.9824999,1.1803414821624756,-2.5043349266052246,9.167996406555176,26.519775390625,-26.397705078125,89.874267578125
2.9874999,1.5065513849258423,-2.693476915359497,9.007585525512695,47.18017578125,-9.70458984375,96.954345703125
2.9924999000000003,1.523909330368042,-1.9141643047332764,9.14345645904541,25.421142578125,18.37158203125,60.9130859375
2.9974999,1.4329297542572021,-0.5494692921638489,9.675567626953125,5.18798828125,9.124755859375,4.058837890625
3.0024999,1.6627731323242188,0.24480712413787842,10.015543937683105,-1.922607421875,13.702392578125,-49.37744140625
3.0074999,2.165555477142334,0.729034423828125,10.237606048583984,7.598876953125,40.46630859375,-50.4150390625
3.0124999000000003,1.7435773611068726,0.39803603291511536,10.22383975982666,0.1220703125,26.641845703125,-66.436767578125
3.0174999000000002,0.23044191300868988,0.17717093229293823,10.251971244812012,-24.749755859375,2.532958984375,-76.080322265625
3.0224999,-1.4873977899551392,0.48961424827575684,10.15560531616211,-31.707763671875,-7.720947265625,-68.7255859375
3.0274999,-2.457049608230591,0.20111294090747833,9.841365814208984,-26.519775390625,-22.369384765625,-19.012451171875
3.0324999000000004,-2.3953988552093506,-0.30466216802597046,9.853935241699219,-11.53564453125,-39.947509765625,46.783447265625
3.0374999000000003,-1.3449428081512451,-1.061229944229126,9.419387817382812,-10.711669921875,-32.196044921875,59.112548828125
3.0424999,0.20709845423698425,-1.900996208190918,9.182361602783203,4.150390625,-22.03369140625,64.483642578125
3.0474999,1.0516531467437744,-2.339733600616455,9.213486671447754,37.78076171875,-22.705078125,90.667724609375
3.0524999000000004,1.4257471561431885,-2.2822728157043457,9.109338760375977,34.393310546875,5.462646484375,74.371337890625
3.0574999000000003,1.4939818382263184,-1.2395979166030884,9.486425399780273,13.3056640625,14.83154296875,30.609130859375
3.0624999,1.692102074623108,-0.26396074891090393,9.812037467956543,-0.213623046875,6.011962890625,-26.641845703125
3.0674999,2.0260932445526123,0.2711433470249176,10.110713958740234,2.227783203125,28.594970703125,-51.361083984375
3.0724999000000004,-0.5386953949928284,0.4692635238170624,10.181343078613281,-27.4658203125,-3.082275390625,-71.990966796875
3.0774999000000003,-2.008136749267578,0.6757634282112122,9.971251487731934,-30.975341796875,-13.641357421875,-46.142578125
3.0824999,-2.471414804458618,0.24121582508087158,9.998785018920898,-18.4326171875,-32.379150390625,18.402099609375
3.0874999,-1.88782799243927,-0.48722004890441895,9.785700798034668,-10.986328125,-37.139892578125,57.220458984375
3.0924999,-0.557250440120697,-1.5167267322540283,9.281123161315918,-8.941650390625,-24.7802734375,54.3212890625
3.0974999000000003,0.760757565498352,-2.2158336639404297,9.233837127685547,22.27783203125,-23.86474609375,78.948974609375
3.1024999,1.2306196689605713,-2.4791958332061768,9.087791442871094,40.6494140625,-10.650634765625,86.639404296875
3.1074999,1.4335283041000366,-1.8477251529693604,9.225458145141602,22.94921875,14.312744140625,53.1005859375
3.1124999,1.5466543436050415,-0.5722141861915588,9.694721221923828,5.279541015625,8.11767578125,1.556396484375
3.1174999000000003,1.8513164520263672,0.08080431073904037,9.988609313964844,-1.190185546875,14.83154296875,-46.051025390625
3.1224999,-1.4616601467132568,0.6871358752250671,10.184335708618164,-29.541015625,-7.537841796875,-60.699462890625
3.1274999,-2.3738510608673096,0.39803603291511536,9.941922187805176,-24.47509765625,-22.064208984375,-11.53564453125
3.1324999,-2.3511061668395996,-0.11791443079710007,9.917980194091797,-11.138916015625,-37.841796875,47.119140625
3.1374999000000003,-1.3611036539077759,-0.943913996219635,9.472060203552246,-11.444091796875,-29.876708984375,54.718017578125
3.1424999000000002,0.08200141042470932,-1.8070237636566162,9.24940013885498,5.462646484375,-21.728515625,61.58447265625
3.1474999,0.8732850551605225,-2.2810757160186768,9.254786491394043,36.07177734375,-20.965576171875,86.73095703125
3.1524999,1.3048399686813354,-2.253542423248291,9.142857551574707,30.21240234375,6.011962890625,68.54248046875
3.1574999000000004,1.5005658864974976,-1.2336124181747437,9.518148422241211,11.627197265625,13.092041015625,26.3671875
3.1624999000000003,1.8285715579986572,-0.33099839091300964,9.781511306762695,-0.335693359375,6.591796875,-29.571533203125
3.1674999,-0.7068880796432495,0.39145198464393616,10.08198356628418,-26.85546875,-3.753662109375,-66.2841796875
3.1724999,-2.0697872638702393,0.6763619780540466,9.840168952941895,-28.106689453125,-14.58740234375,-34.85107421875
3.1774999000000004,-2.4606409072875977,0.28790274262428284,9.96945571899414,-14.46533203125,-33.5693359375,26.947021484375
3.1824999000000003,-1.7507599592208862,-0.37469255924224854,9.667786598205566,-10.284423828125,-34.1796875,55.938720703125
3.1874999,-0.5488707423210144,-1.4269442558288574,9.298480987548828,-6.16455078125,-23.49853515625,52.703857421875
3.1924999,0.6733692288398743,-2.0440497398376465,9.333196640014648,25.634765625,-24.35302734375,80.078125
3.1974999000000004,1.0558429956436157,-2.346317768096924,9.15961742401123,35.003662109375,-5.2490234375,80.56640625
3.2024999000000003,1.3275848627090454,-1.6442179679870605,9.385869026184082,17.791748046875,14.6484375,47.607421875
3.2074999,1.6340426206588745,-0.5752069354057312,9.719860076904297,2.9296875,5.9814453125,-5.126953125
3.2124999,1.6747441291809082,0.37648820877075195,10.11789608001709,-1.64794921875,20.538330078125,-65.73486328125
3.2174999,-0.09217676520347595,0.1454477459192276,10.216058731079102,-25.7568359375,-2.01416015625,-69.183349609375
3.2224999000000003,-1.7525556087493896,0.6482301354408264,9.989806175231934,-29.60205078125,-9.735107421875,-51.7578125
3.2274999,-2.5067291259765625,0.33758243918418884,9.865906715393066,-21.331787109375,-26.91650390625,2.655029296875
3.2324999,-2.2876596450805664,-0.2603694200515747,9.763554573059082,-9.21630859375,-37.200927734375,51.788330078125
3.2374999,-1.1725603342056274,-1.2168530225753784,9.298480987548828,-9.8876953125,-27.099609375,53.131103515625
3.2424999000000003,0.26815059781074524,-1.9458874464035034,9.249998092651367,13.824462890625,-22.216796875,69.793701171875
3.2474999,0.8972271084785461,-2.337339401245117,9.188347816467285,36.31591796875,-15.289306640625,86.48681640625
3.2524999,1.3395558595657349,-1.9829975366592407,9.244012832641602,23.712158203125,10.589599609375,61.4013671875
3.2574999,1.6112977266311646,-0.7841010689735413,9.660005569458008,7.354736328125,9.94873046875,16.66259765625
3.2624999000000003,2.673126220703125,0.152031809091568,9.985017776489258,12.87841796875,39.886474609375,-36.56005859375
3.2674999000000002,2.2002713680267334,0.2148796021938324,10.019734382629395,5.92041015625,30.21240234375,-61.58447265625
3.2724999,0.6003460884094238,0.30047231912612915,10.08318042755127,-21.17919921875,2.44140625,-73.2421875
3.2774999,-1.213860273361206,0.6165069341659546,10.020931243896484,-28.656005859375,-6.011962890625,-65.155029296875
3.2824999000000004,-2.624643564224243,-0.026336219161748886,9.926959037780762,-11.41357421875,-36.9873046875,40.191650390625
3.2874999000000003,-1.8393454551696777,-0.8277952671051025,9.537302017211914,-10.833740234375,-32.04345703125,56.365966796875
3.2924999,-0.2819172441959381,-1.7286136150360107,9.304466247558594,0.91552734375,-21.54541015625,58.502197265625
3.2974999,0.6727706789970398,-2.22660756111145,9.343372344970703,32.806396484375,-21.881103515625,86.3037109375
3.3024999000000004,1.2701239585876465,-2.251746654510498,9.18355941772461,31.402587890625,2.9296875,73.2421875
3.3074999000000003,1.5831658840179443,-1.2755109071731567,9.497200012207031,12.63427734375,13.702392578125,33.63037109375
3.3124999,2.276287317276001,0.17058686912059784,10.04068374633789,2.62451171875,28.50341796875,-51.08642578125
3.3174999,2.6126725673675537,0.3585317134857178,10.012551307678223,12.420654296875,40.0390625,-36.0107421875
3.3224999000000004,2.3127987384796143,-0.36750996112823486,9.98681354522705,9.002685546875,35.64453125,-53.009033203125
3.3274999000000003,2.3127987384796143,-0.36750996112823486,9.98681354522705,9.002685546875,35.64453125,-53.009033203125
3.3324999,1.1815385818481445,0.20949265360832214,10.080187797546387,-11.077880859375,10.986328125,-72.418212890625
3.3374999,-0.5333084464073181,0.08319851011037827,10.09814453125,-27.252197265625,-4.5166015625,-69.9462890625
3.3424999,-2.0859482288360596,0.5704185366630554,9.814431190490723,-29.571533203125,-14.16015625,-41.015625
3.3474999000000003,-2.6156654357910156,0.34656068682670593,9.871891975402832,-16.326904296875,-32.958984375,21.270751953125
3.3524999,-2.0398597717285156,-0.25258827209472656,9.624691009521484,-9.918212890625,-36.529541015625,56.304931640625
3.3574999,-0.7876923680305481,-1.2641384601593018,9.23443603515625,-7.62939453125,-24.627685546875,53.253173828125
3.3624999,0.5668272376060486,-1.913565754890442,9.305663108825684,23.193359375,-24.383544921875,80.169677734375
3.3674999000000003,2.5300726890563965,0.4165911078453064,10.09814453125,9.09423828125,39.0625,-42.6025390625
3.3724999,2.5300726890563965,0.4165911078453064,10.09814453125,9.09423828125,39.0625,-42.6025390625
3.3774999,2.4420857429504395,-0.10354922711849213,10.022128105163574,10.711669921875,37.4755859375,-40.34423828125
3.3824999,1.66696298122406,0.3423708379268646,10.136451721191406,-0.885009765625,23.284912109375,-65.460205078125
3.3874999000000003,0.014365210197865963,0.21009120345115662,10.226234436035156,-24.627685546875,-0.701904296875,-70.9228515625
3.3924999000000002,-1.6466121673583984,0.6811503767967224,10.069414138793945,-29.60205078125,-9.490966796875,-54.595947265625
3.3974999,-2.429516077041626,0.3860650360584259,9.944915771484375,-22.308349609375,-25.93994140625,0.823974609375
3.4024999,-2.257133722305298,-0.20350714027881622,9.854534149169922,-10.711669921875,-37.994384765625,51.94091796875
3.4074999000000004,-1.1569979190826416,-1.1581950187683105,9.335591316223145,-10.894775390625,-28.3203125,54.50439453125
3.4124999000000003,0.28072014451026917,-1.9698294401168823,9.242815971374512,12.969970703125,-22.5830078125,70.80078125
3.4174999,1.5340847969055176,-0.8637082576751709,9.642048835754395,7.9345703125,10.498046875,18.98193359375
3.4224999,1.5340847969055176,-0.8637082576751709,9.642048835754395,7.9345703125,10.498046875,18.98193359375
3.4274999000000004,1.9159599542617798,-0.11552023142576218,9.88386344909668,-2.01416015625,8.6669921875,-37.90283203125
3.4324999000000003,2.4229321479797363,0.3477577865123749,10.16877269744873,5.31005859375,34.881591796875,-48.88916015625
3.4374999,2.5689783096313477,0.21547815203666687,9.991601943969727,12.451171875,39.12353515625,-36.468505859375
3.4424999,-1.7519570589065552,-0.7858967185020447,9.586981773376465,-12.481689453125,-33.26416015625,57.67822265625
3.4474999000000004,-0.1975216418504715,-1.7286136150360107,9.311050415039062,1.0986328125,-23.590087890625,63.04931640625
3.4524999000000003,1.2216414213180542,-2.3475148677825928,9.123106002807617,33.477783203125,3.41796875,84.075927734375
3.4574999,1.4425065517425537,-1.381454348564148,9.419387817382812,14.404296875,15.7470703125,43.792724609375
3.4624999,1.7687164545059204,-0.42437225580215454,9.731831550598145,-0.1220703125,4.058837890625,-16.9677734375
3.4674999,2.1942858695983887,0.11791443079710007,10.004770278930664,0.701904296875,25.20751953125,-54.3212890625
3.4724999000000003,2.647388458251953,0.3687070608139038,10.020332336425781,11.5966796875,41.44287109375,-39.764404296875
3.4774999,2.40736985206604,-0.23283611238002777,10.066421508789062,7.904052734375,36.4990234375,-49.4384765625
3.4824999,1.2515689134597778,0.27892449498176575,10.1382474899292,-10.223388671875,14.83154296875,-69.061279296875
3.4874999,-0.5183446407318115,0.21188685297966003,10.270526885986328,-26.641845703125,-2.74658203125,-69.610595703125
3.4924999000000003,-2.075772762298584,0.5913678407669067,9.935338973999023,-30.76171875,-14.09912109375,-41.595458984375
3.4974999,-2.5091233253479004,0.2711433470249176,9.980828285217285,-18.4326171875,-33.3251953125,20.843505859375
3.5024999,-1.8052281141281128,-0.4165911078453064,9.677363395690918,-10.772705078125,-35.94970703125,57.342529296875
3.5074999,-0.43933600187301636,-1.4862006902694702,9.19972038269043,-6.927490234375,-23.92578125,57.7392578125
3.5124999000000003,1.2910733222961426,-2.449866771697998,9.049484252929688,39.306640625,-6.622314453125,87.738037109375
3.5174999000000002,1.45806884765625,-1.7687164545059204,9.270947456359863,20.111083984375,16.6015625,51.910400390625
3.5224999,1.9027918577194214,0.028730420395731926,10.008959770202637,-0.579833984375,18.463134765625,-50.59814453125
3.5274999,2.3469161987304688,0.48722004890441895,10.16877269744873,9.82666015625,40.0390625,-42.8466796875
3.5324999000000004,2.3133974075317383,-0.04489128291606903,10.092158317565918,11.16943359375,38.14697265625,-42.96875
3.5374999000000003,1.6041151285171509,0.39564183354377747,10.186729431152344,-1.068115234375,22.674560546875,-70.953369140625
3.5424999,0.002992752008140087,0.2519897222518921,10.256759643554688,-25.238037109375,-1.15966796875,-77.667236328125
3.5474999,-1.6621745824813843,0.7128735780715942,10.068815231323242,-30.242919921875,-9.033203125,-61.248779296875
3.5524999000000004,-2.4678235054016113,0.42377370595932007,9.8970308303833,-22.308349609375,-24.871826171875,-3.692626953125
3.5574999000000003,-2.3026235103607178,-0.13527239859104156,9.82999324798584,-9.6435546875,-38.665771484375,52.6123046875
3.5624999,-1.1881226301193237,-1.0809820890426636,9.320627212524414,-10.8642578125,-28.411865234375,54.779052734375
3.5674999,1.060032844543457,-2.299032211303711,9.178771018981934,37.4755859375,-16.9677734375,87.432861328125
3.5724999000000004,1.4838064908981323,-2.054224967956543,9.220669746398926,26.18408203125,11.04736328125,61.4013671875
3.5774999000000003,1.6496049165725708,-0.8816647529602051,9.639654159545898,7.843017578125,10.7421875,13.885498046875
3.5824999,1.9279309511184692,-0.1538274586200714,9.901819229125977,-1.5869140625,10.009765625,-40.557861328125
3.5874999,2.3020248413085938,0.26994624733924866,10.159195899963379,5.828857421875,35.247802734375,-47.54638671875
3.5924999,2.409764051437378,0.20231004059314728,10.026318550109863,12.603759765625,38.6962890625,-36.376953125
3.5974999000000003,1.9470845460891724,0.1280897855758667,10.116100311279297,4.913330078125,30.975341796875,-63.690185546875
3.6024999,-2.3367409706115723,0.44592007994651794,9.82999324798584,-29.11376953125,-18.49365234375,-27.52685546875
3.6074999,-2.4630351066589355,-0.06224924325942993,9.90241813659668,-13.671875,-38.055419921875,39.9169921875
3.6124999,-1.6442179679870605,-0.8966285586357117,9.485827445983887,-11.627197265625,-33.660888671875,59.2041015625
3.6174999000000003,1.5753847360610962,-1.3982137441635132,9.365518569946289,14.2822265625,14.83154296875,34.515380859375
3.6224999,1.6992846727371216,-0.3932476341724396,9.765948295593262,0.1220703125,5.584716796875,-24.810791015625
3.6274999,1.9434932470321655,0.2017114907503128,10.102932929992676,1.77001953125,26.763916015625,-53.497314453125
3.6324999,2.29484224319458,0.5003881454467773,10.121487617492676,11.383056640625,38.970947265625,-38.02490234375
3.6374999000000003,2.0476410388946533,0.09876082092523575,10.050858497619629,7.659912109375,34.85107421875,-52.978515625
3.6424999000000002,1.0432734489440918,0.49559974670410156,10.14782428741455,-12.115478515625,13.031005859375,-74.066162109375
3.6474999,-0.5829881429672241,0.5009866952896118,10.173561096191406,-27.9541015625,-3.7841796875,-74.371337890625
3.6524999,-2.033874273300171,0.6937199234962463,9.911994934082031,-31.18896484375,-14.16015625,-45.745849609375
3.6574999000000004,-2.434903144836426,0.22505496442317963,9.980229377746582,-18.1884765625,-33.538818359375,21.331787109375
3.6624999000000003,-1.7561469078063965,-0.5219359993934631,9.722254753112793,-10.589599609375,-37.384033203125,59.50927734375
3.6674999,0.8984242081642151,-2.2601263523101807,9.20091724395752,26.123046875,-24.688720703125,86.669921875
3.6724999,1.256955862045288,-2.4869771003723145,9.057863235473633,40.71044921875,-6.744384765625,91.4306640625
3.6774999000000004,1.3958195447921753,-1.7447744607925415,9.264962196350098,20.599365234375,16.143798828125,54.443359375
3.6824999000000003,0.012569558806717396,0.25977087020874023,10.276512145996094,-25.604248046875,0.06103515625,-78.216552734375
3.6874999,-1.646013617515564,0.6386532783508301,10.143035888671875,-31.890869140625,-9.6435546875,-63.995361328125
3.6924999,-2.3989901542663574,0.38067805767059326,9.908403396606445,-24.658203125,-24.7802734375,-5.615234375
3.6974999000000004,-2.1380221843719482,-0.21607670187950134,9.873088836669922,-11.566162109375,-39.1845703125,53.52783203125
3.7024999000000003,-0.9552865028381348,-1.182137131690979,9.312247276306152,-11.77978515625,-28.778076171875,59.08203125
3.7074999,0.6057330369949341,-2.0231003761291504,9.126696586608887,10.8642578125,-21.392822265625,74.737548828125
3.7124999,1.27191960811615,-2.4666264057159424,9.06983470916748,42.29736328125,-16.693115234375,95.5810546875
3.7174999,1.5735890865325928,-2.1960813999176025,9.057265281677246,30.94482421875,12.115478515625,67.07763671875
3.7224999000000003,1.5705963373184204,-0.9971849918365479,9.55825138092041,8.636474609375,11.932373046875,13.73291015625
3.7274999,1.6944962739944458,-0.14006079733371735,9.927556991577148,-1.28173828125,11.260986328125,-43.609619140625
3.7324999,1.8842366933822632,0.25318682193756104,10.220248222351074,5.67626953125,35.797119140625,-51.69677734375
3.7374999,2.141613483428955,0.3531447649002075,10.120888710021973,12.420654296875,38.848876953125,-38.970947265625
3.7424999000000003,1.6023194789886475,0.3495534360408783,10.301651000976562,2.13623046875,29.60205078125,-65.73486328125
3.7474999,0.4638765752315521,0.5195417404174805,10.317214012145996,-22.491455078125,4.486083984375,-81.878662109375
3.7524999,-1.1635819673538208,0.9187749028205872,10.41956615447998,-33.14208984375,-7.4462890625,-78.460693359375
3.7574999,-2.2188265323638916,0.6805518269538879,10.05923843383789,-31.25,-18.646240234375,-34.1796875
3.7624999000000003,-1.2994530200958252,-0.9546879529953003,9.583391189575195,-12.5732421875,-34.3017578125,63.65966796875
3.7674999000000002,0.3908534348011017,-1.9889830350875854,9.044695854187012,-1.678466796875,-20.69091796875,67.596435546875
3.7724999,1.3784615993499756,-2.676717519760132,8.939350128173828,38.482666015625,-22.64404296875,98.419189453125
3.7774999,1.722628116607666,-2.677914619445801,8.82323169708252,45.47119140625,2.9296875,85.99853515625
3.7824999000000004,1.6274585723876953,-1.5747861862182617,9.147047996520996,17.242431640625,16.632080078125,34.881591796875
3.7874999000000003,1.5119383335113525,-0.3663128614425659,9.774328231811523,0.518798828125,7.9345703125,-28.076171875
3.7924999,1.6083049774169922,0.4034229815006256,10.22144603729248,2.197265625,27.89306640625,-56.243896484375
3.7974999,1.9620482921600342,0.8008604645729065,10.31242561340332,11.077880859375,39.459228515625,-41.1376953125
3.8024999000000004,1.7471686601638794,0.646434485912323,10.183138847351074,6.89697265625,34.210205078125,-55.450439453125
3.8074999000000003,0.8882488012313843,0.7368155717849731,10.2962646484375,-14.617919921875,12.847900390625,-80.902099609375
3.8124999,-0.7158663272857666,0.8463503122329712,10.262146949768066,-30.731201171875,-4.2724609375,-84.41162109375
3.8174999,-2.1332337856292725,0.7595604658126831,10.071209907531738,-35.369873046875,-14.373779296875,-58.502197265625
3.8224999000000004,-1.669357180595398,-0.7116764783859253,9.88625717163086,-13.3056640625,-40.679931640625,62.6220703125
3.8274999000000003,-0.10714052617549896,-1.8285715579986572,9.253589630126953,-10.498046875,-25.0244140625,65.185546875
3.8324999,1.3748703002929688,-2.588730573654175,8.989628791809082,24.2919921875,-24.59716796875,93.93310546875
3.8374999,1.7609353065490723,-2.830544948577881,8.865130424499512,51.81884765625,-10.8642578125,105.3466796875
3.8424999,1.6597803831100464,-2.0853497982025146,8.942343711853027,30.09033203125,17.852783203125,65.4296875
3.8474999000000003,1.3964180946350098,-0.6943184733390808,9.579200744628906,5.06591796875,9.735107421875,1.46484375
3.8524999,1.3976151943206787,0.19033902883529663,10.075998306274414,-1.495361328125,15.2587890625,-53.955078125
3.8574999,1.8782511949539185,0.7439981698989868,10.277709007263184,7.171630859375,39.00146484375,-53.1005859375
3.8624999,1.9039889574050903,0.4357447028160095,10.192715644836426,9.979248046875,37.109375,-44.43359375
3.8674999000000003,1.414973258972168,0.5339069962501526,10.385448455810547,-4.94384765625,24.10888671875,-70.526123046875
3.8724999,-0.0454898327589035,0.49619829654693604,10.368688583374023,-25.146484375,1.64794921875,-80.963134765625
3.8774999,-1.7088614702224731,0.7631517648696899,10.417171478271484,-34.97314453125,-10.25390625,-72.235107421875
3.8824999,-2.0147206783294678,-0.15921440720558167,10.020931243896484,-15.56396484375,-41.3818359375,52.18505859375
3.8874999000000003,-0.6548141837120056,-1.1252747774124146,9.41400146484375,-13.18359375,-30.2734375,65.61279296875
3.8924999000000002,0.9600749015808105,-2.1757307052612305,8.9680814743042,7.8125,-21.575927734375,80.078125
3.8974999,1.655590534210205,-2.7036523818969727,8.841787338256836,48.27880859375,-21.759033203125,107.2998046875
3.9024999,1.6915035247802734,-2.562394380569458,8.811261177062988,43.15185546875,10.986328125,84.28955078125
3.9074999000000004,1.4191631078720093,-1.3305776119232178,9.288904190063477,12.664794921875,16.143798828125,26.4892578125
3.9124999000000003,1.346139907836914,-0.2059013396501541,9.896432876586914,-1.40380859375,8.209228515625,-39.154052734375
3.9174999,1.499967336654663,0.4273650050163269,10.309432983398438,3.41796875,32.928466796875,-57.525634765625
3.9224999,1.5682021379470825,0.5716156363487244,10.417171478271484,4.150390625,32.40966796875,-61.09619140625
3.9274999000000004,1.5682021379470825,0.5716156363487244,10.417171478271484,4.150390625,32.40966796875,-61.09619140625
3.9324999000000003,0.5877765417098999,0.5943605899810791,10.412383079528809,-18.5546875,9.1552734375,-80.596923828125
3.9374999,-2.1984755992889404,0.6949170231819153,10.10053825378418,-34.149169921875,-16.510009765625,-48.4619140625
3.9424999,-2.2685060501098633,0.0520738884806633,10.012551307678223,-20.3857421875,-36.9873046875,27.099609375
3.9474999000000004,-1.1701661348342896,-0.760757565498352,9.636063575744629,-12.847900390625,-37.689208984375,64.910888671875
3.9524999000000003,0.33997663855552673,-1.9129672050476074,9.046490669250488,-6.744384765625,-22.979736328125,67.474365234375
3.9574999,1.622071623802185,-2.6192567348480225,8.852560997009277,32.958984375,-25.634765625,98.236083984375
3.9624999,1.703474521636963,-2.7934348583221436,8.79928970336914,51.422119140625,-4.791259765625,99.578857421875
3.9674999000000004,1.4460978507995605,-1.8794482946395874,9.006388664245605,24.169921875,18.890380859375,53.924560546875
3.9724999000000003,1.2384008169174194,-0.49978959560394287,9.6989107131958,2.38037109375,6.7138671875,-11.444091796875
3.9774999,1.3545196056365967,0.3669114112854004,10.176554679870605,-1.220703125,19.073486328125,-56.82373046875
3.9824999,1.824381709098816,0.8876502513885498,10.322600364685059,7.87353515625,39.9169921875,-47.91259765625
3.9874999,1.8830395936965942,0.46746787428855896,10.271124839782715,8.819580078125,36.2548828125,-46.93603515625
3.9924999000000003,1.206079125404358,0.5901707410812378,10.380061149597168,-7.62939453125,20.965576171875,-72.08251953125
3.9974999,-1.787870168685913,0.6871358752250671,10.304644584655762,-34.515380859375,-11.29150390625,-65.97900390625
4.0024999,-0.3693056106567383,-1.367687702178955,9.318233489990234,-12.664794921875,-27.03857421875,64.178466796875
4.0074999,1.1791443824768066,-2.3044190406799316,8.96149730682373,13.12255859375,-21.209716796875,82.58056640625
4.0124999,1.6765397787094116,-2.7012581825256348,8.822632789611816,49.560546875,-18.12744140625,102.935791015625
4.0174999,1.6849194765090942,-2.3457190990448,8.839991569519043,37.78076171875,13.397216796875,71.258544921875
4.022499900000001,1.4281413555145264,-1.0283095836639404,9.393052101135254,9.1552734375,13.36669921875,11.29150390625
4.0274999000000005,1.3646949529647827,-0.011372458189725876,9.96825885772705,-1.800537109375,10.8642578125,-47.027587890625
4.0324999,1.4873977899551392,0.4602852761745453,10.300454139709473,4.302978515625,34.85107421875,-52.91748046875
4.0374999,1.7968484163284302,0.524330198764801,10.233416557312012,11.16943359375,37.445068359375,-40.313720703125
4.0424999,1.315613865852356,0.4908113479614258,10.375871658325195,1.52587890625,29.510498046875,-66.375732421875
4.0474999,0.6943184733390808,-2.0207061767578125,9.046490669250488,-3.509521484375,-20.32470703125,69.64111328125
4.0524999,1.7477672100067139,-2.7335798740386963,8.821435928344727,37.90283203125,-24.139404296875,100.64697265625
4.0574999,1.832162857055664,-2.781463861465454,8.790909767150879,50.933837890625,-0.518798828125,92.4072265625
4.062499900000001,1.5203180313110352,-1.73519766330719,9.062053680419922,20.751953125,18.096923828125,39.703369140625
4.0674999000000005,1.2611457109451294,-0.37169981002807617,9.780912399291992,0.640869140625,7.171630859375,-26.4892578125
4.0724999,1.3024457693099976,0.46806642413139343,10.274118423461914,0.335693359375,24.932861328125,-57.861328125
4.0774999,1.7268179655075073,0.9403226971626282,10.377667427062988,8.72802734375,38.51318359375,-43.487548828125
4.0824999,1.624465823173523,0.7224503755569458,10.299856185913086,7.659912109375,34.66796875,-53.314208984375
4.0874999,-1.9608511924743652,0.6248866319656372,10.130465507507324,-34.454345703125,-12.847900390625,-61.248779296875
4.0924999,-2.2667105197906494,0.10115502029657364,10.019135475158691,-24.078369140625,-30.609130859375,8.85009765625
4.0974999,-1.5550340414047241,-0.6847416758537292,9.895236015319824,-13.5498046875,-38.482666015625,60.72998046875
4.1024999,-0.05686229094862938,-1.7028759717941284,9.269750595092773,-11.688232421875,-24.4140625,64.5751953125
4.1074999000000005,1.3736732006072998,-2.5234885215759277,8.942343711853027,19.927978515625,-22.4609375,89.17236328125
4.1124999,1.7178397178649902,-2.7904419898986816,8.837596893310547,52.337646484375,-14.312744140625,102.935791015625
4.1174999,1.5951368808746338,-2.1709423065185547,8.842385292053223,33.477783203125,15.838623046875,63.5986328125
4.1224999,1.3126211166381836,-0.7745242714881897,9.48882007598877,5.92041015625,10.92529296875,0.335693359375
4.1274999,1.2814964056015015,0.1711854189634323,10.044873237609863,-2.13623046875,13.73291015625,-52.734375
4.1324999,1.6603789329528809,0.7170634269714355,10.327987670898438,5.06591796875,35.94970703125,-49.6826171875
4.1374999,1.787870168685913,0.46088382601737976,10.28010368347168,10.009765625,35.70556640625,-42.3583984375
4.1424999,-2.250549554824829,0.6278793811798096,10.056844711303711,-30.853271484375,-22.52197265625,-23.01025390625
4.147499900000001,-1.92134690284729,-0.07122749835252762,10.013748168945312,-16.265869140625,-39.886474609375,47.088623046875
4.1524999000000005,-0.6667851805686951,-1.114500880241394,9.47146224975586,-14.007568359375,-29.9072265625,65.582275390625
4.1574999,1.0091559886932373,-2.164358377456665,8.964489936828613,3.0517578125,-19.775390625,76.873779296875
4.1624999,1.427542805671692,-1.4664485454559326,9.156025886535645,15.167236328125,16.632080078125,27.2216796875
4.1674999,1.2527660131454468,-0.23104046285152435,9.833584785461426,-1.129150390625,7.232666015625,-38.9404296875
4.1724999,1.3317747116088867,0.4991910457611084,10.311826705932617,1.64794921875,29.632568359375,-56.70166015625
4.1774999,1.5185223817825317,0.6326677799224854,10.470442771911621,5.462646484375,32.470703125,-58.990478515625
4.1824999,0.6308721303939819,0.5392939448356628,10.437521934509277,-15.9912109375,10.986328125,-77.5146484375
4.187499900000001,-0.8517372608184814,0.7667431235313416,10.471639633178711,-30.548095703125,-5.06591796875,-78.2470703125
4.1924999000000005,-2.0033483505249023,0.608127236366272,10.086173057556152,-32.440185546875,-15.80810546875,-46.9970703125
4.1974999,-2.0895395278930664,0.02992752194404602,10.002974510192871,-18.85986328125,-35.003662109375,25.909423828125
4.2024999,-1.115697979927063,-0.7428010702133179,9.653421401977539,-12.39013671875,-34.66796875,63.018798828125
4.2074999,0.33279404044151306,-1.8249802589416504,9.09497356414795,-7.232666015625,-21.575927734375,65.216064453125
4.2124999,1.5257049798965454,-2.5121161937713623,8.920196533203125,30.059814453125,-23.5595703125,93.353271484375
4.2174999,1.613093376159668,-2.695871114730835,8.838793754577637,48.492431640625,-6.40869140625,93.475341796875
4.2224999,1.414973258972168,-1.8291701078414917,9.039308547973633,23.712158203125,17.4560546875,47.05810546875
4.2274999,1.245583415031433,-0.4507084786891937,9.691728591918945,2.288818359375,7.080078125,-17.120361328125
4.2324999000000005,1.3557167053222656,0.3292027413845062,10.169371604919434,-1.312255859375,19.83642578125,-55.0537109375
4.2374999,1.778891921043396,0.28790274262428284,10.299856185913086,9.002685546875,34.088134765625,-46.173095703125
4.2424999,1.1558008193969727,-2.2697031497955322,9.006986618041992,16.357421875,-21.575927734375,81.939697265625
4.2474999,1.548449993133545,-2.6420016288757324,8.881291389465332,47.088623046875,-16.082763671875,98.236083984375
4.2524999,1.5292962789535522,-2.22660756111145,8.928576469421387,31.768798828125,13.824462890625,64.971923828125
4.2574999,1.3868412971496582,-0.9205705523490906,9.493009567260742,7.232666015625,10.25390625,5.462646484375
4.2624999,1.4622586965560913,0.0071826050989329815,9.979032516479492,-2.349853515625,11.383056640625,-49.560546875
4.2674999,1.9698294401168823,0.345363587141037,10.219051361083984,10.589599609375,35.64453125,-38.116455078125
4.272499900000001,1.4951789379119873,0.37648820877075195,10.301053047180176,2.3193359375,28.076171875,-64.453125
4.2774999000000005,0.15083470940589905,0.30526071786880493,10.250176429748535,-20.355224609375,4.33349609375,-72.57080078125
4.2824999,-1.4305355548858643,0.6889315247535706,10.165182113647461,-30.181884765625,-8.392333984375,-63.3544921875
4.2874999,-2.160168409347534,0.47165772318840027,9.908403396606445,-25.93994140625,-21.484375,-16.17431640625
4.2924999,-1.975814938545227,-0.0933738648891449,9.90241813659668,-13.00048828125,-36.834716796875,46.56982421875
4.2974999,-0.9271546006202698,-1.0181342363357544,9.465476036071777,-12.5732421875,-27.984619140625,59.417724609375
4.3024999,0.5536591410636902,-1.92134690284729,9.138668060302734,4.69970703125,-19.439697265625,67.413330078125
4.3074999,1.1988965272903442,-2.492962598800659,9.087791442871094,38.848876953125,-20.782470703125,91.00341796875
4.312499900000001,1.3976151943206787,-2.3726539611816406,8.966285705566406,34.11865234375,5.67626953125,69.427490234375
4.3174999000000005,1.425148606300354,-1.2425906658172607,9.384672164916992,11.71875,12.451171875,18.49365234375
4.3224999,1.5634137392044067,-0.23104046285152435,9.810839653015137,-1.251220703125,7.232666015625,-38.51318359375
4.3274999,2.1481974124908447,0.45489832758903503,10.149619102478027,10.528564453125,34.881591796875,-33.87451171875
4.3324999,1.7244237661361694,0.26575639843940735,10.175955772399902,7.2021484375,32.3486328125,-58.349609375
4.3374999,0.6470330357551575,0.42856210470199585,10.178350448608398,-15.31982421875,9.521484375,-70.9228515625
4.3424999,-0.9469067454338074,0.6955155730247498,10.213066101074219,-28.3203125,-4.8828125,-64.788818359375
4.3474999,-2.0045454502105713,0.6931213736534119,9.880870819091797,-29.449462890625,-16.693115234375,-29.083251953125
4.352499900000001,-2.0901381969451904,0.16101007163524628,9.989806175231934,-16.17431640625,-35.0341796875,34.423828125
4.3574999000000005,-1.0402805805206299,-0.6494272351264954,9.567230224609375,-13.36669921875,-30.45654296875,58.7158203125
4.3624999,0.31603461503982544,-1.7423802614212036,9.149441719055176,-3.814697265625,-19.6533203125,61.859130859375
4.3674999,1.370081901550293,-2.4157495498657227,9.050681114196777,33.0810546875,-21.8505859375,89.508056640625
4.3724999,1.4550760984420776,-2.5737667083740234,8.913613319396973,39.85595703125,-0.91552734375,78.67431640625
4.3774999,1.3682862520217896,-1.6430208683013916,9.227252960205078,16.66259765625,14.251708984375,30.029296875
4.3824999,1.3718775510787964,-0.4866214990615845,9.740809440612793,0.762939453125,6.7138671875,-30.426025390625
4.3874999,1.9129672050476074,0.5847837924957275,10.226234436035156,9.124755859375,34.759521484375,-35.186767578125
4.3924999,1.7208324670791626,0.26396074891090393,10.020332336425781,8.23974609375,33.233642578125,-54.931640625
4.397499900000001,0.7918822169303894,0.4183867573738098,10.141838073730469,-10.528564453125,13.397216796875,-73.699951171875
4.4024999000000005,-0.707486629486084,0.42197805643081665,10.075399398803711,-26.763916015625,-3.47900390625,-68.817138671875
4.4074999,-1.8974047899246216,0.5237316489219666,9.852738380432129,-29.72412109375,-14.434814453125,-38.543701171875
4.4124999,-2.1074960231781006,0.04010287672281265,10.036493301391602,-17.08984375,-33.02001953125,26.0009765625
4.4174999,-1.316810965538025,-0.679354727268219,9.731232643127441,-11.71875,-32.65380859375,58.868408203125
4.4224999,-0.0071826050989329815,-1.732803463935852,9.270947456359863,-6.439208984375,-21.1181640625,59.478759765625
4.4274999,1.1264718770980835,-2.3523032665252686,9.191340446472168,28.01513671875,-21.820068359375,85.99853515625
4.4324999,1.3114240169525146,-2.5288755893707275,9.021950721740723,39.73388671875,-5.157470703125,83.526611328125
4.437499900000001,1.3389573097229004,-1.6663644313812256,9.24940013885498,18.85986328125,14.22119140625,40.252685546875
4.4424999000000005,1.4012064933776855,-0.444722980260849,9.716867446899414,1.739501953125,6.16455078125,-20.050048828125
4.4474999,1.114500880241394,0.2944868206977844,10.135852813720703,-6.927490234375,17.120361328125,-71.47216796875
4.4524999,-0.44592007994651794,0.07781155407428741,10.234015464782715,-26.092529296875,-1.46484375,-69.9462890625
4.4574999,-1.8734627962112427,0.4991910457611084,9.815628051757812,-31.707763671875,-12.115478515625,-46.112060546875
4.4624999,-2.2224178314208984,0.22625206410884857,9.844358444213867,-20.263671875,-30.609130859375,15.9912109375
4.4674999,-1.5855600833892822,-0.44173020124435425,9.598953247070312,-11.8408203125,-34.149169921875,57.80029296875
4.4724999,-0.16579847037792206,-1.5029600858688354,9.10993766784668,-9.368896484375,-21.97265625,59.50927734375
4.477499900000001,1.1204863786697388,-2.275688648223877,9.024943351745605,23.98681640625,-20.751953125,84.442138671875
4.4824999000000005,1.469441294670105,-0.5446808934211731,9.647436141967773,3.47900390625,8.1787109375,-16.265869140625
4.4874999,1.8932149410247803,0.02693476900458336,10.224438667297363,10.1318359375,34.97314453125,-49.163818359375
4.4924999,1.194706678390503,0.3058592677116394,10.28010368347168,-4.69970703125,18.4326171875,-76.23291015625
4.4974999,-0.30526071786880493,0.09816227108240128,10.24538803100586,-26.153564453125,-2.105712890625,-77.33154296875
4.5024999,-1.7729063034057617,0.4842272996902466,9.982025146484375,-31.6162109375,-11.16943359375,-55.084228515625
4.5074999,-1.7729063034057617,0.4842272996902466,9.982025146484375,-31.6162109375,-11.16943359375,-55.084228515625
4.5124999,-2.258330821990967,0.272938996553421,9.868300437927246,-21.05712890625,-28.80859375,8.544921875
4.5174999,-1.8177976608276367,-0.3645172119140625,9.70310115814209,-10.92529296875,-36.834716796875,57.708740234375
4.522499900000001,-0.4908113479614258,-1.3239935636520386,9.179967880249023,-10.894775390625,-24.169921875,58.563232421875
4.5274999000000005,0.8954314589500427,-2.117072820663452,9.078812599182129,19.10400390625,-20.660400390625,80.657958984375
4.5324999,1.3533225059509277,-2.431311845779419,9.00160026550293,42.724609375,-11.627197265625,91.217041015625
4.5374999,1.4867992401123047,-1.8872294425964355,9.097368240356445,24.59716796875,13.36669921875,52.520751953125
4.5424999,1.6160861253738403,0.0347159244120121,10.020332336425781,-1.5869140625,16.571044921875,-51.910400390625
4.5474999,1.9764134883880615,0.5985504388809204,10.201693534851074,7.110595703125,34.3017578125,-40.58837890625
4.5524999,1.9446903467178345,0.008379706181585789,10.19032096862793,10.43701171875,34.515380859375,-43.914794921875
4.5574999,1.3186066150665283,0.2819172441959381,10.20887565612793,-0.823974609375,22.003173828125,-70.80078125
4.562499900000001,-1.6238672733306885,0.5105634927749634,9.959280967712402,-30.670166015625,-9.918212890625,-55.206298828125
4.5674999000000005,-1.6238672733306885,0.5105634927749634,9.959280967712402,-30.670166015625,-9.918212890625,-55.206298828125
4.5724999,-2.186504602432251,0.27712884545326233,9.832986831665039,-22.0947265625,-27.16064453125,2.8076171875
4.5774999,-1.8543092012405396,-0.3280056416988373,9.724050521850586,-10.772705078125,-36.712646484375,54.5654296875
4.5824999,-0.6476315855979919,-1.2665326595306396,9.230246543884277,-11.383056640625,-25.20751953125,57.9833984375
4.5874999,0.7715315222740173,-2.076969861984253,9.136872291564941,15.655517578125,-20.721435546875,77.45361328125
4.5924999,1.2563573122024536,-2.432508945465088,9.03511905670166,40.985107421875,-13.702392578125,92.559814453125
4.5974999,1.5693992376327515,0.3172317147254944,10.172364234924316,1.953125,24.749755859375,-70.037841796875
4.602499900000001,0.07242459803819656,0.08738835901021957,10.171167373657227,-23.8037109375,-0.1220703125,-75.469970703125
4.6074999000000005,-1.5322890281677246,0.5105634927749634,9.946710586547852,-30.303955078125,-8.758544921875,-60.6689453125
4.6124999,-2.279279947280884,0.23822307586669922,9.75278091430664,-23.284912109375,-24.078369140625,-5.615234375
4.6174999,-2.0871453285217285,-0.2902969419956207,9.73542308807373,-10.25390625,-37.261962890625,52.093505859375
4.6224999,-0.9169792532920837,-1.1186907291412354,9.223063468933105,-11.871337890625,-26.641845703125,57.373046875
4.6274999,0.5680243372917175,-1.9309237003326416,9.164405822753906,10.498046875,-19.378662109375,71.59423828125
4.6324999,1.236605167388916,-2.3122003078460693,9.100360870361328,38.63525390625,-15.594482421875,90.423583984375
4.6374999,1.7519570589065552,-0.17836803197860718,9.960477828979492,-1.617431640625,13.519287109375,-47.210693359375
4.6424999,2.142810583114624,0.333991140127182,10.211869239807129,6.011962890625,34.66796875,-45.2880859375
4.647499900000001,2.142810583114624,0.333991140127182,10.211869239807129,6.011962890625,34.66796875,-45.2880859375
4.6524999000000005,2.1493945121765137,0.1364694982767105,10.134655952453613,12.02392578125,36.041259765625,-38.726806640625
4.6574999,1.6561890840530396,0.3932476341724396,10.238204956054688,3.143310546875,26.4892578125,-69.2138671875
4.6624999,0.18794482946395874,0.3315969407558441,10.251971244812012,-23.406982421875,1.0986328125,-78.704833984375
4.6674999,-1.4867992401123047,0.8206126093864441,10.166977882385254,-31.67724609375,-7.87353515625,-67.81005859375
4.6724999,-2.3540987968444824,0.5410895943641663,9.877279281616211,-27.313232421875,-22.003173828125,-17.51708984375
4.6774999,-2.230797529220581,-0.08499415963888168,9.876082420349121,-12.237548828125,-38.543701171875,47.454833984375
4.6824999,-1.0708067417144775,-1.0079588890075684,9.353547096252441,-12.359619140625,-29.052734375,60.028076171875
4.687499900000001,0.5464765429496765,-1.9841946363449097,9.080010414123535,5.859375,-19.256591796875,70.220947265625
4.6924999000000005,1.3479355573654175,-2.4863784313201904,9.059061050415039,40.4052734375,-18.585205078125,95.001220703125
4.6974999,1.6184803247451782,-0.24361002445220947,9.865906715393066,-1.556396484375,10.1318359375,-43.731689453125
4.7024999,1.7621324062347412,0.2513911724090576,10.19151782989502,4.180908203125,32.8369140625,-50.47607421875
4.7074999,2.0009541511535645,0.32620999217033386,10.14782428741455,11.932373046875,36.80419921875,-38.63525390625
4.7124999,1.6202759742736816,0.27712884545326233,10.277111053466797,5.67626953125,29.72412109375,-66.558837890625
4.7174999,0.47644615173339844,0.2974795699119568,10.270526885986328,-20.20263671875,3.90625,-78.55224609375
4.7224999,-2.053027868270874,0.50876784324646,9.928754806518555,-27.496337890625,-19.622802734375,-25.81787109375
4.727499900000001,-2.1338322162628174,-0.004189853090792894,9.944316864013672,-12.39013671875,-36.956787109375,42.633056640625
4.7324999000000005,-1.2976573705673218,-0.8924387097358704,9.472060203552246,-11.749267578125,-30.731201171875,60.394287109375
4.7374999,0.24660277366638184,-1.8064252138137817,9.12968921661377,1.495361328125,-19.256591796875,64.727783203125
4.7424999,1.0863690376281738,-2.385822057723999,9.119514465332031,36.224365234375,-19.744873046875,91.827392578125
4.7474999,1.5693992376327515,-1.2294225692749023,9.385271072387695,11.77978515625,12.969970703125,23.25439453125
4.7524999,1.6825252771377563,-0.2669534981250763,9.816226959228516,-1.220703125,8.514404296875,-37.017822265625
4.7574999,1.8483237028121948,0.23523031175136566,10.146028518676758,3.41796875,30.94482421875,-50.872802734375
4.7624999,2.164358377456665,0.40521863102912903,10.11669921875,12.63427734375,36.834716796875,-35.919189453125
4.7674999,1.7824832201004028,0.17836803197860718,10.046669006347656,7.87353515625,32.379150390625,-62.408447265625
4.772499900000001,0.7224503755569458,0.3561375141143799,10.090363502502441,-17.15087890625,6.9580078125,-79.498291015625
4.7774999000000005,-0.8942343592643738,0.5710170865058899,10.095749855041504,-30.45654296875,-5.92041015625,-75.225830078125
4.7824999,-2.1266496181488037,0.5333084464073181,9.824007987976074,-31.18896484375,-17.15087890625,-40.130615234375
4.7874999,-2.3133974075317383,-0.03411737456917763,9.980229377746582,-15.80810546875,-36.102294921875,31.280517578125
4.7924999,-1.315613865852356,-0.8224082589149475,9.581595420837402,-11.444091796875,-33.843994140625,61.676025390625
4.7974999,0.20350714027881622,-1.8830395936965942,9.186552047729492,-4.058837890625,-19.866943359375,62.56103515625
4.8024999,1.4101848602294922,-2.493561029434204,9.09257984161377,32.958984375,-20.751953125,91.888427734375
4.8074999,1.5909470319747925,0.284311443567276,10.183138847351074,1.739501953125,27.34375,-54.3212890625
4.812499900000001,1.9189527034759521,0.641047477722168,10.202890396118164,11.474609375,37.933349609375,-38.909912109375
4.8174999000000005,1.8082208633422852,0.17537526786327362,10.11789608001709,9.58251953125,34.820556640625,-59.26513671875
4.8224999,0.9534908533096313,0.4638765752315521,10.13166332244873,-11.71875,11.29150390625,-79.89501953125
4.8274999,-0.5392939448356628,0.4279635548591614,10.13166332244873,-28.839111328125,-5.157470703125,-77.056884765625
4.8324999,-1.9303251504898071,0.6727706789970398,9.840168952941895,-31.463623046875,-14.984130859375,-49.346923828125
4.8374999,-2.339733600616455,0.2759317457675934,9.9000244140625,-17.9443359375,-32.623291015625,19.775390625
4.8424999,-1.6956933736801147,-0.4423287510871887,9.697115898132324,-10.650634765625,-36.31591796875,60.028076171875
4.8474999,-0.30705636739730835,-1.4856021404266357,9.218873977661133,-8.85009765625,-22.430419921875,58.197021484375
4.852499900000001,1.047463297843933,-2.1781249046325684,9.175179481506348,23.98681640625,-21.17919921875,84.9609375
4.8574999000000005,1.5478514432907104,-1.732803463935852,9.213486671447754,20.965576171875,14.923095703125,46.32568359375
4.8624999,1.523909330368042,-0.545877993106842,9.694122314453125,2.38037109375,7.568359375,-14.22119140625
4.8674999,1.657984733581543,0.08619125932455063,10.087369918823242,-0.152587890625,21.881103515625,-52.978515625
4.8724999,1.9931728839874268,0.5632359385490417,10.219051361083984,9.796142578125,36.834716796875,-40.0390625
4.8774999,1.9243396520614624,-0.06524199992418289,10.179547309875488,11.1083984375,35.82763671875,-48.309326171875
4.8824999,1.2006921768188477,0.26575639843940735,10.236409187316895,-5.096435546875,18.646240234375,-75.50048828125
4.8874999,-0.2861070930957794,0.15801730751991272,10.20767879486084,-27.64892578125,-3.082275390625,-78.582763671875
4.8924999,-1.813009262084961,0.5554547905921936,9.966463088989258,-33.8134765625,-12.359619140625,-61.70654296875
4.897499900000001,-2.3708581924438477,0.3250128924846649,9.768941879272461,-23.8037109375,-28.6865234375,0.244140625
4.9024999000000005,-1.9309237003326416,-0.3256114423274994,9.668983459472656,-11.04736328125,-39.36767578125,56.915283203125
4.9074999,-0.595557689666748,-1.3204022645950317,9.151237487792969,-10.772705078125,-25.848388671875,61.126708984375
4.9124999,0.9421183466911316,-2.1535844802856445,9.026140213012695,16.41845703125,-20.904541015625,81.817626953125
4.9174999,2.0231003761291504,0.5530605912208557,10.259753227233887,7.01904296875,36.865234375,-49.25537109375
4.9224999,2.0266916751861572,0.20949265360832214,10.178948402404785,12.481689453125,37.59765625,-43.792724609375
4.9274999,1.590348482131958,0.32620999217033386,10.213664054870605,1.434326171875,26.153564453125,-71.77734375
4.9324999,0.13407529890537262,0.21428105235099792,10.184335708618164,-24.658203125,0.274658203125,-79.16259765625
4.937499900000001,-1.5269020795822144,0.6111199855804443,10.081384658813477,-32.89794921875,-10.040283203125,-69.64111328125
4.9424999000000005,-2.3948001861572266,0.3645172119140625,9.785101890563965,-27.64892578125,-23.284912109375,-18.646240234375
4.9474999,-2.2242133617401123,-0.19692309200763702,9.848548889160156,-12.939453125,-39.97802734375,48.9501953125
4.9524999,-1.0606313943862915,-1.0283095836639404,9.410409927368164,-13.00048828125,-30.09033203125,61.82861328125
4.9574999,0.5925649404525757,-1.92134690284729,9.134477615356445,4.119873046875,-20.5078125,73.028564453125
4.9624999,1.544858694076538,-1.212663173675537,9.371503829956055,11.810302734375,13.702392578125,26.031494140625
4.9674999,1.53707754611969,-0.2669534981250763,9.841365814208984,-1.953125,8.9111328125,-38.57421875
4.9724999,1.659181833267212,0.20530278980731964,10.196306228637695,3.47900390625,32.684326171875,-55.389404296875
4.977499900000001,1.9692308902740479,0.3705027103424072,10.17296314239502,12.5732421875,38.02490234375,-39.764404296875
4.9824999000000005,1.5765818357467651,0.30047231912612915,10.305242538452148,5.55419921875,31.524658203125,-61.492919921875
4.9874999,0.5500678420066833,0.3992331326007843,10.324396133422852,-18.310546875,7.75146484375,-79.28466796875
4.9924999,-1.0330979824066162,0.7966706156730652,10.384849548339844,-31.829833984375,-6.9580078125,-78.155517578125
4.9974999,-2.1703438758850098,0.6631938815116882,10.034697532653809,-32.012939453125,-17.7001953125,-43.27392578125
5.0024999,-2.2260091304779053,0.06404489278793335,9.988609313964844,-17.63916015625,-37.078857421875,31.829833984375
5.0074999,-1.1198878288269043,-0.751779317855835,9.572616577148438,-11.71875,-34.881591796875,64.02587890625
5.0124999,1.6466121673583984,-2.6114754676818848,8.902240753173828,45.379638671875,-0.06103515625,93.994140625
5.0174999,1.4179660081863403,-1.6502034664154053,9.182361602783203,19.71435546875,16.632080078125,46.173095703125
5.022499900000001,1.2545616626739502,-0.3926490843296051,9.786299705505371,0.30517578125,5.401611328125,-19.500732421875
5.0274999000000005,1.3934253454208374,0.34416648745536804,10.205883026123047,-0.6103515625,23.101806640625,-56.732177734375
5.0324999,1.8734627962112427,0.767341673374176,10.287285804748535,9.521484375,38.26904296875,-43.27392578125
5.0374999,1.7824832201004028,0.32381579279899597,10.160393714904785,9.063720703125,34.85107421875,-51.605224609375
5.0424999,-1.6525976657867432,-0.5051765441894531,9.858723640441895,-12.603759765625,-38.116455078125,59.814453125
5.0474999,1.1953052282333374,-2.3558945655822754,9.051279067993164,21.66748046875,-23.712158203125,89.84375
5.0524999,1.547252893447876,-2.6342203617095947,8.925583839416504,47.9736328125,-11.77978515625,104.248046875
5.0574999,1.5083470344543457,-2.032078742980957,8.99860668182373,29.144287109375,16.78466796875,68.145751953125
5.062499900000001,1.3503297567367554,-0.6727706789970398,9.565434455871582,5.06591796875,8.880615234375,6.28662109375
5.0674999000000005,1.4323312044143677,0.0933738648891449,10.010157585144043,-2.899169921875,12.75634765625,-51.33056640625
5.0724999,1.945288896560669,0.6033388376235962,10.231022834777832,6.195068359375,37.04833984375,-50.78125
5.0774999,1.9937714338302612,0.21009120345115662,10.146626472473145,11.444091796875,36.62109375,-42.724609375
5.0824999,1.5430630445480347,0.38486793637275696,10.289081573486328,0.79345703125,25.909423828125,-68.42041015625
5.0874999,0.06165069341659546,0.31364041566848755,10.301053047180176,-23.162841796875,2.716064453125,-77.301025390625
5.0924999,-1.5711948871612549,0.7655459642410278,10.28130054473877,-32.04345703125,-8.941650390625,-67.718505859375
5.0974999,-2.3289597034454346,0.5363011956214905,9.996390342712402,-27.008056640625,-23.590087890625,-16.754150390625
5.102499900000001,-2.057217836380005,-0.08858546614646912,9.961674690246582,-13.0615234375,-39.154052734375,48.492431640625
5.1074999000000005,-0.8265981078147888,-1.05105459690094,9.440337181091309,-11.871337890625,-29.052734375,62.225341796875
5.1124999,0.7679402232170105,-2.033275842666626,9.102754592895508,7.720947265625,-20.904541015625,74.371337890625
5.1174999,1.4443022012710571,-2.563591480255127,9.036913871765137,42.938232421875,-20.782470703125,100.2197265625
5.1224999,1.4419080018997192,-1.193509578704834,9.394248962402344,10.92529296875,14.2822265625,27.008056640625
5.1274999,1.4419080018997192,-1.193509578704834,9.394248962402344,10.92529296875,14.2822265625,27.008056640625
5.1324999,1.4993687868118286,-0.16519992053508759,9.853337287902832,-2.349853515625,6.2255859375,-37.29248046875
5.1374999,1.7184382677078247,0.3669114112854004,10.192715644836426,2.471923828125,31.890869140625,-54.290771484375
5.1424999,2.1302409172058105,0.4686649739742279,10.140042304992676,12.176513671875,39.6728515625,-39.581298828125
5.147499900000001,1.8375498056411743,0.2669534981250763,10.105925559997559,7.14111328125,33.172607421875,-61.798095703125
5.1524999000000005,0.7751228213310242,0.3531447649002075,10.149619102478027,-17.578125,7.8125,-78.55224609375
5.1574999,-0.8517372608184814,0.5949591398239136,10.189722061157227,-30.09033203125,-5.0048828125,-76.11083984375
5.1624999,-2.126051187515259,0.5273229479789734,9.926360130310059,-31.55517578125,-16.571044921875,-42.96875
5.1674999,-1.3186066150665283,-0.7972691655158997,9.719860076904297,-11.8408203125,-34.85107421875,61.676025390625
