# Time (seconds),Accel_X,Accel_Y,Accel_Z,Gyro_X,Gyro_Y,Gyro_Z
0.0024999,-1.7405846118927002,-0.2902969419956207,9.9000244140625,-9.6435546875,-39.61181640625,48.187255859375
0.0074999,-1.7405846118927002,-0.2902969419956207,9.9000244140625,-9.6435546875,-39.61181640625,48.187255859375
0.012499900000000001,-0.778714120388031,-0.7739257216453552,9.858723640441895,6.378173828125,-40.557861328125,51.513671875
0.0174999,0.23702596127986908,-1.216254472732544,9.677961349487305,14.5263671875,-31.43310546875,50.59814453125
0.0224999,0.9971849918365479,-1.3886369466781616,9.509769439697266,16.143798828125,-12.63427734375,49.652099609375
0.0274999,1.488594889640808,-1.2892776727676392,9.553462982177734,19.378662109375,0.946044921875,49.01123046875
0.0324999,1.7435773611068726,-0.9469067454338074,9.604340553283691,16.937255859375,9.033203125,35.400390625
0.0374999,2.3319525718688965,0.304063618183136,9.872490882873535,-0.79345703125,5.55419921875,-12.359619140625
0.0424999,2.6862943172454834,0.35494041442871094,9.77133560180664,-3.082275390625,22.491455078125,-33.050537109375
0.0474999,2.8006174564361572,0.10354922711849213,9.673172950744629,3.60107421875,39.276123046875,-42.388916015625
0.0524999,2.516305923461914,-0.17836803197860718,9.618705749511719,4.302978515625,42.144775390625,-51.849365234375
0.0574999,1.698686122894287,-0.5841852426528931,9.623494148254395,-1.190185546875,35.82763671875,-50.872802734375
0.0624999,0.619499683380127,-0.7858967185020447,9.646238327026367,-3.692626953125,19.073486328125,-56.70166015625
0.0674999,-0.47405192255973816,-0.33997663855552673,9.807847023010254,-5.950927734375,0.335693359375,-55.60302734375
0.0724999,-1.5658079385757446,-0.6236895322799683,10.04188060760498,-23.712158203125,-2.74658203125,-32.2265625
0.0774999,-2.1110873222351074,0.10474632680416107,9.914987564086914,-13.336181640625,-2.01416015625,-3.753662109375
0.0824999,-2.3696610927581787,-0.06344634294509888,10.227431297302246,-12.908935546875,-24.200439453125,16.845703125
0.0874999,-2.1266496181488037,-0.03531447425484657,10.078392028808594,-17.39501953125,-34.637451171875,36.529541015625
0.0924999,-1.4652514457702637,-0.4710591733455658,9.895236015319824,-8.148193359375,-38.055419921875,47.18017578125
0.0974999,0.35434186458587646,-1.3838485479354858,9.578003883361816,16.05224609375,-29.47998046875,51.025390625
0.1024999,0.9977835416793823,-1.4778209924697876,9.44991397857666,17.852783203125,-12.969970703125,49.37744140625
0.1074999,1.4047977924346924,-1.316810965538025,9.549872398376465,20.56884765625,2.0751953125,47.271728515625
0.1124999,1.61069917678833,-0.8900445103645325,9.65222454071045,17.08984375,9.8876953125,32.89794921875
0.1174999,1.8602946996688843,-0.22445641458034515,9.780313491821289,8.23974609375,7.4462890625,12.725830078125
0.1224999,2.293046712875366,0.4129997789859772,9.900622367858887,-0.67138671875,7.232666015625,-14.34326171875
0.1274999,2.7120320796966553,0.4225766062736511,9.791686058044434,-2.197265625,26.0009765625,-34.271240234375
0.1324999,2.875436305999756,0.152031809091568,9.676166534423828,4.45556640625,41.900634765625,-44.921875
0.1374999,2.583942174911499,-0.1604115068912506,9.618106842041016,4.241943359375,43.39599609375,-55.023193359375
0.1424999,1.7363947629928589,-0.6153098344802856,9.634865760803223,-1.52587890625,34.942626953125,-55.7861328125
0.1474999,0.6248866319656372,-0.8242039084434509,9.618106842041016,-3.5400390625,17.2119140625,-62.042236328125
0.1524999,-0.5297171473503113,-0.406415730714798,9.798869132995605,-6.744384765625,-1.129150390625,-58.868408203125
0.1574999,-2.23199462890625,0.12928688526153564,9.916184425354004,-12.054443359375,-3.326416015625,-4.302978515625
0.1624999,-2.541445016860962,0.005386953707784414,10.234613418579102,-11.993408203125,-24.139404296875,18.157958984375
0.1674999,-2.2906525135040283,0.055665191262960434,10.096946716308594,-16.448974609375,-36.43798828125,38.39111328125
0.1724999,-1.6298527717590332,-0.44173020124435425,9.932944297790527,-7.38525390625,-39.48974609375,46.875
0.17749990000000002,-0.7122750282287598,-0.9020155072212219,9.836577415466309,9.368896484375,-38.39111328125,51.727294921875
0.1824999,0.23822307586669922,-1.3503297567367554,9.640253067016602,15.0146484375,-29.144287109375,50.1708984375
0.1874999,0.9331400990486145,-1.3946224451065063,9.512163162231445,15.960693359375,-11.749267578125,47.2412109375
0.1924999,1.4191631078720093,-1.2180501222610474,9.585186958312988,19.53125,2.38037109375,45.928955078125
0.1974999,1.6873136758804321,-0.8050503134727478,9.650428771972656,15.625,8.85009765625,33.233642578125
0.2024999,2.006340980529785,-0.1280897855758667,9.776124000549316,7.4462890625,6.9580078125,13.519287109375
0.20749990000000001,2.429516077041626,0.40521863102912903,9.864110946655273,-1.312255859375,7.2021484375,-16.021728515625
0.2124999,2.7886464595794678,0.36571431159973145,9.75397777557373,-2.74658203125,25.115966796875,-34.515380859375
0.2174999,2.515707492828369,-0.28311434388160706,9.5809965133667,3.96728515625,41.32080078125,-50.811767578125
0.2224999,1.6280571222305298,-0.6883329749107361,9.610923767089844,-1.922607421875,33.99658203125,-52.642822265625
0.2274999,0.5339069962501526,-0.8547300100326538,9.617507934570312,-4.33349609375,15.68603515625,-57.098388671875
0.2324999,-0.5991489887237549,-0.444722980260849,9.791088104248047,-6.988525390625,-1.15966796875,-51.483154296875
0.2374999,-1.66696298122406,-0.6799532771110535,9.931148529052734,-23.345947265625,-2.593994140625,-27.557373046875
0.2424999,-0.5668272376060486,-0.9241618514060974,9.786897659301758,9.1552734375,-36.712646484375,49.835205078125
0.2474999,0.3429693877696991,-1.368884801864624,9.607931137084961,14.09912109375,-29.1748046875,47.698974609375
0.2524999,0.9900023937225342,-1.4155718088150024,9.494805335998535,16.11328125,-11.962890625,45.41015625
0.2574999,1.6759412288665771,-0.8248024582862854,9.648633003234863,15.350341796875,8.9111328125,30.853271484375
0.2624999,1.988384485244751,-0.15801730751991272,9.762955665588379,7.01904296875,6.500244140625,10.3759765625
0.2674999,2.405574083328247,0.3687070608139038,9.848548889160156,-1.77001953125,8.72802734375,-18.585205078125
0.2724999,2.7521347999572754,0.33039984107017517,9.745597839355469,-2.044677734375,27.618408203125,-33.75244140625
0.2774999,2.8335378170013428,0.025737667456269264,9.62828254699707,6.16455078125,40.34423828125,-40.252685546875
0.2824999,2.4612393379211426,-0.2932897210121155,9.589376449584961,3.72314453125,41.778564453125,-53.3447265625
0.28749990000000003,1.5723919868469238,-0.6494272351264954,9.62947940826416,-2.13623046875,32.989501953125,-55.7861328125
0.2924999,0.5015852451324463,-0.8343793153762817,9.61331844329834,-4.364013671875,15.0146484375,-60.11962890625
0.2974999,-0.606930136680603,-0.42856210470199585,9.825803756713867,-7.26318359375,-0.885009765625,-54.351806640625
0.3024999,-1.6597803831100464,-0.7044938206672668,9.914389610290527,-23.0712890625,-2.44140625,-29.571533203125
0.3074999,-2.1559786796569824,0.058059390634298325,9.868300437927246,-11.016845703125,-3.7841796875,-2.349853515625
0.3124999,-2.430713176727295,-0.09157821536064148,10.113706588745117,-12.5732421875,-24.47509765625,20.20263671875
0.3174999,-1.4802151918411255,-0.5195417404174805,9.856329917907715,-5.4931640625,-37.933349609375,46.600341796875
0.3224999,-0.5805938839912415,-0.9840168952941895,9.800065994262695,10.711669921875,-36.62109375,51.1474609375
0.3274999,0.365115761756897,-1.3646949529647827,9.603142738342285,13.397216796875,-27.03857421875,46.600341796875
0.3324999,1.0283095836639404,-1.382651448249817,9.535507202148438,16.29638671875,-9.857177734375,43.426513671875
0.3374999,1.4736311435699463,-1.2108675241470337,9.615114212036133,19.317626953125,3.90625,40.83251953125
0.3424999,1.6789339780807495,-0.7858967185020447,9.675567626953125,14.923095703125,7.9345703125,27.64892578125
0.34749990000000003,1.96683669090271,-0.11911153793334961,9.787496566772461,7.171630859375,6.927490234375,7.659912109375
0.35249990000000003,2.3361423015594482,0.3884592354297638,9.852140426635742,-1.220703125,9.552001953125,-19.775390625
0.3574999,2.649782657623291,0.3705027103424072,9.747393608093262,-1.5869140625,27.099609375,-32.989501953125
0.3624999,2.698863983154297,0.04489128291606903,9.619902610778809,6.28662109375,38.6962890625,-39.61181640625
0.3674999,2.321178436279297,-0.29209262132644653,9.585784912109375,3.997802734375,39.61181640625,-53.924560546875
0.3724999,1.45806884765625,-0.7266402244567871,9.607931137084961,-1.739501953125,30.3955078125,-54.74853515625
0.3774999,-2.382829189300537,-0.015562310814857483,10.057442665100098,-14.7705078125,-26.06201171875,20.050048828125
0.3824999,-2.053626537322998,0.08259996026754379,10.00836181640625,-14.16015625,-34.149169921875,37.567138671875
0.3874999,-1.427542805671692,-0.5339069962501526,9.910199165344238,-4.180908203125,-36.285400390625,43.5791015625
0.3924999,-0.6003460884094238,-0.7817068696022034,9.892242431640625,10.406494140625,-38.02490234375,50.872802734375
0.3974999,0.2663549482822418,-1.2539631128311157,9.700706481933594,10.986328125,-27.130126953125,47.210693359375
0.4024999,0.9289502501487732,-1.1875240802764893,9.635464668273926,14.007568359375,-7.9345703125,45.257568359375
0.4074999,1.4472949504852295,-1.0552444458007812,9.64803409576416,17.486572265625,3.90625,44.73876953125
0.41249990000000003,1.7597382068634033,-0.6799532771110535,9.66958236694336,14.007568359375,8.60595703125,32.16552734375
0.41749990000000003,2.494758129119873,0.27653029561042786,9.803657531738281,-2.13623046875,8.97216796875,-19.683837890625
0.4224999,2.494758129119873,0.27653029561042786,9.803657531738281,-2.13623046875,8.97216796875,-19.683837890625
0.4274999,2.781463861465454,0.24001872539520264,9.713275909423828,-1.434326171875,26.2451171875,-32.1044921875
0.4324999,2.7682957649230957,-0.07302315533161163,9.606135368347168,5.9814453125,38.63525390625,-38.9404296875
0.4374999,2.3499090671539307,-0.3298012912273407,9.605537414550781,2.593994140625,39.97802734375,-53.253173828125
0.4424999,1.4610615968704224,-0.6625953316688538,9.646238327026367,-2.25830078125,30.426025390625,-53.40576171875
0.4474999,0.4141969084739685,-0.8553285598754883,9.620500564575195,-4.730224609375,14.251708984375,-56.793212890625
0.4524999,-0.6548141837120056,-0.3705027103424072,9.894637107849121,-7.598876953125,-1.52587890625,-50.567626953125
0.4574999,-1.6687586307525635,-0.6147112846374512,9.910199165344238,-21.91162109375,-2.9296875,-26.611328125
0.4624999,-2.1140801906585693,0.23702596127986908,9.95090103149414,-11.3525390625,-4.45556640625,-0.67138671875
0.4674999,-2.3582887649536133,0.10235211998224258,10.143633842468262,-13.85498046875,-25.0244140625,20.660400390625
0.47249990000000003,-2.0428526401519775,0.09157821536064148,10.02571964263916,-17.486572265625,-34.36279296875,36.2548828125
0.47749990000000003,-0.4836287498474121,-0.973242998123169,9.818621635437012,10.92529296875,-37.750244140625,52.154541015625
0.4824999,0.44352585077285767,-1.3880383968353271,9.570821762084961,12.87841796875,-26.06201171875,47.05810546875
0.4874999,1.1079168319702148,-1.40180504322052,9.512163162231445,17.181396484375,-7.4462890625,44.98291015625
0.4924999,1.5376760959625244,-1.238999366760254,9.57860279083252,19.59228515625,5.462646484375,42.236328125
0.4974999,1.7585411071777344,-0.838569164276123,9.64683723449707,15.56396484375,9.796142578125,27.4658203125
0.5024999,2.0177135467529297,-0.23762452602386475,9.787496566772461,7.598876953125,9.002685546875,5.92041015625
0.5074999,2.3786394596099854,0.365115761756897,9.877877235412598,-0.091552734375,11.3525390625,-19.927978515625
0.5124999,2.691681146621704,0.3884592354297638,9.790489196777344,-0.701904296875,29.23583984375,-34.027099609375
0.5174999,2.7455508708953857,0.17178396880626678,9.66958236694336,4.2724609375,41.50390625,-45.074462890625
0.5224999,2.3744494915008545,-0.16519992053508759,9.646238327026367,2.99072265625,41.015625,-60.4248046875
0.5274999,1.4975731372833252,-0.690727174282074,9.609726905822754,-1.373291015625,29.327392578125,-59.051513671875
0.5324999,0.39803603291511536,-1.0582371950149536,9.5624418258667,-3.692626953125,12.725830078125,-61.58447265625
0.5374999,-2.2649147510528564,0.16819266974925995,10.037092208862305,-13.153076171875,-35.797119140625,38.116455078125
0.5424999,-1.6250643730163574,-0.43095630407333374,9.944915771484375,-3.2958984375,-38.970947265625,46.9970703125
0.5474999,-0.7439981698989868,-0.7757213711738586,9.982025146484375,11.04736328125,-40.069580078125,52.581787109375
0.5524999,0.20051439106464386,-1.2198457717895508,9.758766174316406,9.8876953125,-24.96337890625,47.91259765625
0.5574999,0.973242998123169,-1.128267526626587,9.710283279418945,13.397216796875,-5.523681640625,45.8984375
0.5624999,1.9291280508041382,-0.629675030708313,9.664793968200684,14.068603515625,9.033203125,33.416748046875
0.5674999000000001,2.255337953567505,-0.10654197633266449,9.754576683044434,7.14111328125,8.60595703125,11.23046875
0.5724999000000001,2.5761611461639404,0.28550854325294495,9.7791166305542,-1.89208984375,7.32421875,-18.280029296875
0.5774999000000001,2.7748796939849854,-0.005985504016280174,9.601346969604492,4.425048828125,37.841796875,-38.787841796875
0.5824999,2.3493103981018066,-0.29628247022628784,9.598953247070312,2.105712890625,38.848876953125,-51.33056640625
0.5874999,1.4724340438842773,-0.6374561786651611,9.627084732055664,-1.434326171875,30.94482421875,-50.59814453125
0.5924999,0.3926490843296051,-0.8930372595787048,9.62947940826416,-4.638671875,15.0146484375,-53.89404296875
0.5974999,-0.6829460263252258,-0.4884171485900879,9.824606895446777,-6.4697265625,-2.50244140625,-47.637939453125
0.6024999,-1.6777368783950806,-0.7116764783859253,9.938331604003906,-20.843505859375,-3.509521484375,-24.84130859375
0.6074999,-2.1302409172058105,0.13946224749088287,9.913790702819824,-12.359619140625,-5.035400390625,2.716064453125
0.6124999,-2.2912509441375732,0.17717093229293823,10.16877269744873,-14.5263671875,-25.93994140625,17.913818359375
0.6174999,-1.9835960865020752,0.09876082092523575,10.037690162658691,-17.333984375,-32.04345703125,31.982421875
0.6224999,-1.334767460823059,-0.3585317134857178,9.905410766601562,-4.425048828125,-36.529541015625,47.91259765625
0.6274999,-0.5027823448181152,-0.9804255962371826,9.831789016723633,10.43701171875,-37.90283203125,52.18505859375
0.6324999,0.33997663855552673,-1.413776159286499,9.618106842041016,12.847900390625,-26.55029296875,47.4853515625
0.6374999,1.4335283041000366,-1.2132617235183716,9.616909980773926,18.5546875,3.387451171875,42.938232421875
0.6424999,1.7154455184936523,-0.8337807655334473,9.655815124511719,15.380859375,9.521484375,29.998779296875
0.6474999,2.0213048458099365,-0.26336219906806946,9.776124000549316,7.965087890625,8.514404296875,9.063720703125
0.6524999,2.433706045150757,0.3196259140968323,9.85034465789795,0,9.368896484375,-17.669677734375
0.6574999,2.7706899642944336,0.3621230125427246,9.767744064331055,-1.129150390625,27.618408203125,-33.538818359375
0.6624999,2.8383262157440186,0.14065934717655182,9.6618013381958,4.33349609375,41.473388671875,-42.205810546875
0.6674999,2.495356798171997,-0.15741875767707825,9.634267807006836,3.997802734375,41.07666015625,-55.419921875
0.6724999,1.6172832250595093,-0.6027402877807617,9.63067626953125,-0.762939453125,31.982421875,-55.84716796875
0.6774999,0.5291185975074768,-0.9014169573783875,9.601346969604492,-4.058837890625,15.228271484375,-60.6689453125
0.6824999,-0.596754789352417,-0.5440823435783386,9.75397777557373,-5.889892578125,-2.716064453125,-56.396484375
0.6874999,-1.655590534210205,-0.7918822169303894,9.923966407775879,-21.97265625,-4.69970703125,-32.53173828125
0.6924999000000001,-2.230198860168457,0.07242459803819656,9.8599214553833,-10.894775390625,-3.753662109375,-0.48828125
0.6974999000000001,-2.273893117904663,0.21667525172233582,10.052654266357422,-16.90673828125,-33.477783203125,31.280517578125
0.7024999000000001,-1.6268600225448608,-0.15322890877723694,9.974244117736816,-5.767822265625,-37.933349609375,47.393798828125
0.7074999,-0.750582218170166,-0.7667431235313416,9.873687744140625,9.21630859375,-37.17041015625,51.544189453125
0.7124999,0.19153612852096558,-1.258152961730957,9.724050521850586,12.3291015625,-25.787353515625,45.867919921875
0.7174999,0.9295487999916077,-1.3210008144378662,9.611522674560547,12.87841796875,-8.636474609375,39.886474609375
0.7224999,1.4472949504852295,-1.1641805171966553,9.664793968200684,16.66259765625,1.3427734375,39.276123046875
0.7274999,1.7423802614212036,-0.849941611289978,9.683348655700684,14.7705078125,7.4462890625,28.74755859375
0.7324999,2.0015525817871094,-0.24121582508087158,9.791686058044434,8.575439453125,7.110595703125,10.92529296875
0.7374999,2.342726469039917,0.2867056429386139,9.831789016723633,-0.244140625,7.049560546875,-15.869140625
0.7424999,2.630629062652588,0.3758896589279175,9.759963035583496,-2.685546875,23.86474609375,-32.89794921875
0.7474999,2.676717519760132,0.07721300423145294,9.628880500793457,3.96728515625,37.384033203125,-37.841796875
0.7524999,2.3792378902435303,-0.25917232036590576,9.587580680847168,4.364013671875,38.14697265625,-49.346923828125
0.7574999,1.566406488418579,-0.7044938206672668,9.589975357055664,0.152587890625,32.196044921875,-50.445556640625
0.7624999,0.52552729845047,-0.9882067441940308,9.607931137084961,-3.753662109375,14.862060546875,-53.070068359375
0.7674999,-0.5267243981361389,-0.5141547918319702,9.637859344482422,-4.45556640625,-2.227783203125,-48.76708984375
0.7724999,-1.53707754611969,-0.7451952695846558,9.955090522766113,-20.32470703125,-5.340576171875,-25.909423828125
0.7774999,-2.123058319091797,0.13527239859104156,9.818022727966309,-12.298583984375,-4.2724609375,3.173828125
0.7824999,-2.2679076194763184,0.19632454216480255,10.231620788574219,-13.214111328125,-24.10888671875,14.923095703125
0.7874999,-2.1152772903442383,0.25498247146606445,10.11550235748291,-16.6015625,-30.8837890625,27.984619140625
0.7924999,-1.4951789379119873,-0.16220717132091522,10.055646896362305,-4.669189453125,-35.21728515625,46.234130859375
0.7974999,-0.7248445749282837,-0.7134721279144287,9.88625717163086,6.988525390625,-37.353515625,50.201416015625
0.8024999,-0.4339490532875061,-0.3597288131713867,9.530718803405762,-3.997802734375,0.396728515625,-51.69677734375
0.8074999,-1.3617022037506104,-0.557250440120697,9.985017776489258,-18.06640625,-3.265380859375,-30.09033203125
0.8124999,-2.0254945755004883,0.013766659423708916,9.61451530456543,-11.810302734375,-1.007080078125,-0.091552734375
0.8174999000000001,-2.1912930011749268,0.29388827085494995,10.204686164855957,-7.110595703125,-22.52197265625,23.284912109375
0.8224999000000001,-2.0877439975738525,-0.048482585698366165,10.190919876098633,-16.357421875,-32.440185546875,23.13232421875
0.8274999000000001,0.2932897210121155,-1.335964560508728,9.75936508178711,13.092041015625,-26.519775390625,49.4384765625
0.8324999000000001,0.8948329091072083,-1.4281413555145264,9.603142738342285,10.711669921875,-12.63427734375,40.679931640625
0.8374999,1.3138182163238525,-1.2156559228897095,9.62947940826416,16.90673828125,1.03759765625,37.7197265625
0.8424999,1.4903905391693115,-0.851138710975647,9.661202430725098,14.0380859375,5.401611328125,28.4423828125
0.8474999,1.7004817724227905,-0.35733461380004883,9.709685325622559,8.544921875,5.035400390625,13.18359375
0.8524999,2.054823637008667,0.20769700407981873,9.815030097961426,1.5869140625,5.31005859375,-9.09423828125
0.8574999,2.4468741416931152,0.5345055460929871,9.79288387298584,-1.15966796875,18.890380859375,-29.449462890625
0.8624999,2.6192567348480225,0.23822307586669922,9.64803409576416,-1.434326171875,35.0341796875,-37.29248046875
0.8674999,2.4803929328918457,0.03411737456917763,9.637859344482422,4.39453125,41.1376953125,-49.25537109375
0.8724999,1.7974469661712646,-0.5339069962501526,9.61451530456543,0.732421875,34.7900390625,-53.436279296875
0.8774999,0.7541735172271729,-0.9678560495376587,9.621099472045898,-1.3427734375,17.242431640625,-51.300048828125
0.8824999,-2.1942858695983887,0.07661445438861847,10.211869239807129,-16.693115234375,-32.928466796875,20.965576171875
0.8874999,-1.5741876363754272,0.03711012750864029,10.159794807434082,-13.00048828125,-29.84619140625,29.78515625
0.8924999,-0.7272387742996216,-0.7356184720993042,10.11550235748291,9.6435546875,-33.87451171875,54.595947265625
0.8974999,0.1496376097202301,-1.116895079612732,9.86650562286377,10.7421875,-28.167724609375,50.018310546875
0.9024999,0.7661445140838623,-1.24917471408844,9.699509620666504,7.87353515625,-13.48876953125,41.07666015625
0.9074999,1.2629413604736328,-1.0570400953292847,9.670180320739746,14.7705078125,-0.091552734375,39.9169921875
0.9124999,1.5430630445480347,-0.7769184708595276,9.663596153259277,12.542724609375,4.486083984375,33.3251953125
0.9174999,1.8399440050125122,-0.39624038338661194,9.674968719482422,8.941650390625,5.92041015625,18.157958984375
0.9224999,2.1924901008605957,0.07661445438861847,9.77133560180664,1.953125,5.06591796875,-6.134033203125
0.9274999,2.6886885166168213,0.10594342648983002,9.651625633239746,-0.946044921875,33.8134765625,-34.3017578125
0.9324999,2.5312697887420654,-0.08080431073904037,9.617507934570312,4.33349609375,40.4052734375,-43.914794921875
0.9374999,1.8740613460540771,-0.5195417404174805,9.631275177001953,0.885009765625,35.7666015625,-51.33056640625
0.9424999000000001,0.8637082576751709,-0.8924387097358704,9.628880500793457,-1.312255859375,20.69091796875,-49.98779296875
0.9474999000000001,-0.16220717132091522,-0.6434416770935059,9.504382133483887,-4.425048828125,4.364013671875,-52.459716796875
0.9524999000000001,-1.1456254720687866,-0.646434485912323,9.990405082702637,-15.655517578125,-2.99072265625,-34.576416015625
0.9574999000000001,-1.9375077486038208,-0.23343466222286224,9.657610893249512,-12.237548828125,-0.579833984375,-6.28662109375
0.9624999,-2.2008697986602783,0,10.301651000976562,-16.510009765625,-33.99658203125,25.7568359375
0.9674999,-1.6388310194015503,-0.10893617570400238,10.141240119934082,-19.073486328125,-29.266357421875,24.505615234375
0.9724999,-0.7571662664413452,-0.7350199222564697,10.11789608001709,7.659912109375,-33.87451171875,51.605224609375
0.9774999,0.21009120345115662,-1.1468225717544556,9.803058624267578,13.458251953125,-30.029296875,52.764892578125
0.9824999,1.3431471586227417,-1.2228385210037231,9.570222854614258,17.88330078125,0.244140625,39.154052734375
0.9874999,1.5167267322540283,-0.9127894043922424,9.622296333312988,15.2587890625,5.523681640625,31.158447265625
0.9924999,1.6968904733657837,-0.47584760189056396,9.675567626953125,10.650634765625,6.4697265625,16.326904296875
0.9974999,2.010530948638916,0.06643909960985184,9.828198432922363,3.326416015625,6.2255859375,-5.126953125
1.0024999,2.388814687728882,0.4854243993759155,9.825204849243164,-0.518798828125,17.02880859375,-27.252197265625
1.0074999000000002,2.630629062652588,0.28371289372444153,9.702502250671387,-1.068115234375,34.72900390625,-35.614013671875
1.0124999000000001,2.5498247146606445,0.08858546614646912,9.66419506072998,4.180908203125,42.633056640625,-48.004150390625
1.0174999000000002,1.987187385559082,-0.3974374830722809,9.643245697021484,1.5869140625,37.017822265625,-57.31201171875
1.0224999000000001,1.006163239479065,-0.8924387097358704,9.619303703308105,-0.579833984375,20.81298828125,-55.0537109375
1.0274999,-0.05626374110579491,-0.9762357473373413,9.520543098449707,-4.150390625,4.608154296875,-57.891845703125
1.0324999000000001,-1.114500880241394,-0.8008604645729065,9.975440979003906,-14.801025390625,-5.9814453125,-40.557861328125
1.0374999,-2.0183119773864746,-0.5027823448181152,9.651026725769043,-12.481689453125,-2.105712890625,-10.7421875
1.0424999000000001,-0.12030863761901855,-1.0301052331924438,9.837176322937012,12.6953125,-32.012939453125,54.50439453125
1.0474999,0.6236895322799683,-1.2653355598449707,9.623494148254395,7.781982421875,-16.021728515625,43.9453125
1.0524999000000002,1.1929110288619995,-1.0642226934432983,9.627683639526367,15.289306640625,-1.312255859375,41.56494140625
1.0574999,1.5496470928192139,-0.7703344225883484,9.63067626953125,12.603759765625,3.35693359375,36.07177734375
1.0624999000000002,1.843535304069519,-0.37888240814208984,9.668384552001953,10.3759765625,6.28662109375,22.247314453125
1.0674999,2.181716203689575,0.10295066982507706,9.806650161743164,3.5400390625,5.43212890625,-0.335693359375
1.0724999000000002,2.5031378269195557,0.3663128614425659,9.773730278015137,-2.25830078125,12.3291015625,-26.0009765625
1.0774999,2.6868927478790283,0.17717093229293823,9.700706481933594,-1.190185546875,30.70068359375,-32.28759765625
1.0824999000000002,-0.8792705535888672,-0.6045359373092651,10.022128105163574,-12.75634765625,-3.509521484375,-38.970947265625
1.0874999,-0.8792705535888672,-0.6045359373092651,10.022128105163574,-12.75634765625,-3.509521484375,-38.970947265625
1.0924999000000002,-1.7196353673934937,-0.657806932926178,9.809642791748047,-13.61083984375,1.03759765625,-12.87841796875
1.0974999,-2.100912094116211,0.035913024097681046,10.119691848754883,-8.36181640625,-13.85498046875,15.31982421875
1.1024999000000002,-2.1948843002319336,0.23283611238002777,10.232219696044922,-13.916015625,-32.71484375,26.91650390625
1.1074999,-1.765723705291748,0.028730420395731926,10.020931243896484,-22.0947265625,-29.449462890625,20.3857421875
1.1124999000000002,-0.9726444482803345,-0.3076549172401428,9.988011360168457,2.13623046875,-33.111572265625,48.27880859375
1.1174999,-0.033518824726343155,-0.8990227580070496,9.82999324798584,14.923095703125,-33.38623046875,56.365966796875
1.1224999000000002,0.6847416758537292,-1.2515689134597778,9.539097785949707,10.1318359375,-18.768310546875,45.135498046875
1.1274999,2.6354174613952637,0.13826514780521393,9.653421401977539,2.44140625,41.44287109375,-44.036865234375
1.1324999000000002,2.2188265323638916,-0.24480712413787842,9.63067626953125,2.471923828125,39.154052734375,-54.3212890625
1.1374999000000001,1.3162124156951904,-0.7044938206672668,9.634267807006836,0.3662109375,26.85546875,-53.28369140625
1.1424999000000002,0.27712884545326233,-1.0660183429718018,9.559449195861816,-3.90625,10.19287109375,-58.074951171875
1.1474999000000001,-0.7529764175415039,-0.645237386226654,9.931148529052734,-11.71875,-4.119873046875,-48.248291015625
1.1524999000000002,-1.7489643096923828,-0.8254010081291199,9.793481826782227,-14.46533203125,0.030517578125,-21.3623046875
1.1574999000000001,-2.252943754196167,-0.050876785069704056,10.030508041381836,-8.087158203125,-10.8642578125,10.955810546875
1.1624999,-1.2258312702178955,0.009576806798577309,10.056245803833008,-1.15966796875,-33.26416015625,44.464111328125
1.1674999000000001,-0.2041056901216507,-0.7463923692703247,9.912593841552734,14.70947265625,-33.966064453125,57.281494140625
1.1724999,0.6051344871520996,-1.2384008169174194,9.585784912109375,10.07080078125,-20.5078125,47.271728515625
1.1774999000000002,1.128267526626587,-1.3539210557937622,9.584588050842285,15.13671875,-4.82177734375,41.656494140625
1.1824999,1.4107834100723267,-1.1504138708114624,9.63067626953125,15.07568359375,2.44140625,36.834716796875
1.1874999000000002,1.5556325912475586,-0.7547720670700073,9.64923095703125,12.847900390625,5.06591796875,24.96337890625
1.1924999,1.8034324645996094,-0.21308395266532898,9.816226959228516,5.79833984375,4.913330078125,7.99560546875
1.1974999000000002,2.207453966140747,0.3597288131713867,9.815030097961426,-0.30517578125,7.01904296875,-17.425537109375
1.2024999,2.53725528717041,0.35015198588371277,9.716867446899414,-3.204345703125,24.993896484375,-34.72900390625
1.2074999000000002,2.6001031398773193,0.1346738487482071,9.634267807006836,1.983642578125,38.6962890625,-41.168212890625
1.2124999,2.275090217590332,-0.22864626348018646,9.589975357055664,3.0517578125,38.818359375,-49.560546875
1.2174999000000002,-2.1164743900299072,0.06643909960985184,9.965864181518555,-9.3994140625,-9.765625,9.58251953125
1.2224999,-2.2487540245056152,0.43514615297317505,10.263343811035156,-12.115478515625,-30.6396484375,27.03857421875
1.2274999000000002,-1.867477297782898,0.23403321206569672,10.10053825378418,-22.064208984375,-30.82275390625,19.744873046875
1.2324999,-1.1306617259979248,0.04010287672281265,10.064026832580566,-4.150390625,-31.92138671875,42.205810546875
1.2374999000000002,-0.1909375786781311,-0.7829039692878723,9.931747436523438,13.763427734375,-34.85107421875,56.732177734375
1.2424999,0.5512649416923523,-1.3263877630233765,9.584588050842285,10.040283203125,-22.613525390625,47.607421875
1.2474999000000002,1.0570400953292847,-1.4754267930984497,9.55585765838623,15.167236328125,-7.293701171875,42.3583984375
1.2524999,1.3419500589370728,-1.2755109071731567,9.586981773376465,16.021728515625,2.655029296875,38.360595703125
1.2574999000000002,1.5257049798965454,-0.8738836050033569,9.63187313079834,13.73291015625,6.500244140625,27.03857421875
1.2624999000000001,2.674323320388794,0.17058686912059784,9.657610893249512,0.732421875,39.337158203125,-40.771484375
1.2674999000000002,2.386420488357544,-0.1364694982767105,9.636063575744629,3.5400390625,40.6494140625,-50.323486328125
1.2724999000000001,1.557428240776062,-0.6093243360519409,9.642647743225098,0.518798828125,32.135009765625,-51.3916015625
1.2774999000000002,0.4991910457611084,-1.004966139793396,9.61212158203125,-3.5400390625,14.434814453125,-56.396484375
1.2824999000000001,-0.49978959560394287,-0.5662286877632141,9.888651847839355,-7.6904296875,-1.800537109375,-51.300048828125
1.2874999,-1.5502456426620483,-0.7882909178733826,9.889249801635742,-17.242431640625,-0.18310546875,-26.79443359375
1.2924999000000001,-2.072181463241577,-0.08559270948171616,9.922768592834473,-9.3994140625,-5.9814453125,2.593994140625
1.2974999,-2.3277626037597656,0.3423708379268646,10.232219696044922,-9.765625,-28.045654296875,28.961181640625
1.3024999000000002,-2.032677173614502,0.1951274424791336,10.072406768798828,-21.240234375,-33.0810546875,23.284912109375
1.3074999,-1.3066356182098389,0.05147533491253853,10.028712272644043,-8.6669921875,-31.3720703125,35.919189453125
1.3124999000000002,2.0638017654418945,0.36092591285705566,9.86351203918457,0.640869140625,7.415771484375,-14.556884765625
1.3174999,2.40736985206604,0.5021837949752808,9.800065994262695,-2.5634765625,23.773193359375,-33.782958984375
1.3224999000000002,2.5306711196899414,0.29568392038345337,9.674370765686035,0.518798828125,37.9638671875,-41.56494140625
1.3274999,2.301426410675049,-0.043095629662275314,9.650428771972656,3.662109375,40.10009765625,-52.3681640625
1.3324999000000002,1.5263035297393799,-0.5859808921813965,9.632472038269043,0.30517578125,31.55517578125,-53.5888671875
1.3374999,0.4878185987472534,-1.080383539199829,9.57441234588623,-2.960205078125,12.939453125,-56.121826171875
1.3424999000000002,-0.5626373887062073,-0.6715735793113708,9.829395294189453,-6.927490234375,-2.99072265625,-50.35400390625
1.3474999,-2.2164323329925537,-0.03232172131538391,9.925761222839355,-9.429931640625,-8.30078125,6.927490234375
1.3524999000000002,-2.403179883956909,0.4315548539161682,10.275315284729004,-11.383056640625,-30.303955078125,27.374267578125
1.3574999,-2.054823637008667,0.2998737692832947,10.126276016235352,-22.0947265625,-32.5927734375,20.8740234375
1.3624999000000002,0.45848962664604187,-1.2922704219818115,9.652822494506836,10.498046875,-24.10888671875,50.9033203125
1.3674999,1.0145429372787476,-1.4167689085006714,9.568427085876465,13.214111328125,-7.904052734375,44.647216796875
1.3724999000000002,1.4047977924346924,-1.2144588232040405,9.601945877075195,15.7470703125,3.173828125,41.44287109375
1.3774999,1.5975310802459717,-0.8289923667907715,9.619303703308105,13.275146484375,7.293701171875,30.57861328125
1.3824999000000002,1.8614917993545532,-0.3106476664543152,9.75936508178711,6.683349609375,5.645751953125,13.702392578125
1.3874999000000001,2.2391772270202637,0.2711433470249176,9.793481826782227,0,5.43212890625,-13.427734375
1.3924999000000002,2.567182779312134,0.37828385829925537,9.77013874053955,-2.8076171875,21.78955078125,-34.088134765625
1.3974999000000001,2.3780407905578613,-0.11252748221158981,9.637260437011719,3.23486328125,40.679931640625,-49.072265625
1.4024999000000002,1.569997787475586,-0.5668272376060486,9.650428771972656,0.152587890625,33.355712890625,-52.490234375
1.4074999000000001,0.5123591423034668,-0.9672574996948242,9.623494148254395,-2.9296875,14.70947265625,-54.931640625
1.4124999,-0.49380409717559814,-0.5638344883918762,9.880271911621094,-7.26318359375,-1.068115234375,-50.811767578125
1.4174999000000001,-1.5454572439193726,-0.7110779285430908,9.932944297790527,-17.08984375,-1.190185546875,-26.763916015625
1.4224999,-2.0667946338653564,-0.0628477931022644,9.935338973999023,-10.772705078125,-6.011962890625,0.823974609375
1.4274999000000002,-2.3044190406799316,0.35913026332855225,10.237606048583984,-10.894775390625,-28.3203125,28.778076171875
1.4324999,-1.9901801347732544,0.16340427100658417,10.120888710021973,-21.42333984375,-33.660888671875,24.322509765625
1.4374999000000002,-1.2725181579589844,-0.04728548228740692,10.017938613891602,-10.92529296875,-30.731201171875,33.63037109375
1.4424999,-0.27892449498176575,-0.8200140595436096,9.923966407775879,13.824462890625,-35.186767578125,56.060791015625
1.4474999000000002,0.5937620401382446,-1.4323312044143677,9.580398559570312,13.092041015625,-25.787353515625,53.070068359375
1.4524999,1.4221558570861816,-1.416170358657837,9.545083999633789,18.402099609375,4.45556640625,39.520263671875
1.4574999000000002,1.482010841369629,-0.9684545993804932,9.613917350769043,15.106201171875,7.904052734375,27.801513671875
1.4624999,1.6615760326385498,-0.36750996112823486,9.77253246307373,7.62939453125,4.974365234375,11.29150390625
1.4674999000000002,2.0404584407806396,0.26396074891090393,9.84376049041748,0.732421875,6.561279296875,-13.336181640625
1.4724999,2.4678235054016113,0.5279214978218079,9.841964721679688,-1.220703125,22.796630859375,-31.768798828125
1.4774999000000002,2.6455929279327393,0.29628247022628784,9.667786598205566,-0.091552734375,38.51318359375,-40.58837890625
1.4824999,2.4618380069732666,0.07541735470294952,9.694122314453125,2.655029296875,43.365478515625,-55.0537109375
1.4874999000000002,1.6915035247802734,-0.4357447028160095,9.668384552001953,0.30517578125,34.5458984375,-57.2509765625
1.4924999,0.6290764808654785,-0.9415197968482971,9.61451530456543,-2.74658203125,14.5263671875,-59.173583984375
1.4974999000000002,-0.4423287510871887,-0.6338648796081543,9.821614265441895,-6.256103515625,-1.03759765625,-56.060791015625
1.5024999,-1.547252893447876,-0.8475474119186401,9.904213905334473,-18.06640625,-3.90625,-31.585693359375
1.5074999000000002,-2.1487960815429688,-0.1759738177061081,9.851541519165039,-9.857177734375,-4.913330078125,-2.166748046875
1.5124999000000001,-2.1715409755706787,0.20709845423698425,10.105326652526855,-20.81298828125,-35.09521484375,25.390625
1.5174999000000002,-1.4778209924697876,0.07062894850969315,10.045472145080566,-9.6435546875,-32.470703125,34.271240234375
1.5224999000000001,2.0931308269500732,0.30885201692581177,9.82759952545166,0.244140625,4.547119140625,-10.009765625
1.5274999000000002,2.476203203201294,0.4878185987472534,9.788095474243164,-2.838134765625,18.61572265625,-31.982421875
1.5324999000000001,2.6360161304473877,0.24480712413787842,9.65222454071045,-0.54931640625,35.94970703125,-38.818359375
1.5374999000000003,2.451662540435791,-0.020949264988303185,9.655217170715332,3.082275390625,41.93115234375,-50.201416015625
1.5424999000000001,-0.3932476341724396,-0.5542576909065247,9.835380554199219,-6.134033203125,0.6103515625,-50.750732421875
1.5474999,-1.4856021404266357,-0.6829460263252258,9.943717956542969,-17.63916015625,-3.143310546875,-27.435302734375
1.5524999000000002,-2.075772762298584,-0.076015904545784,9.882067680358887,-11.29150390625,-4.547119140625,-0.9765625
1.5574999,-2.3259668350219727,0.345363587141037,10.217255592346191,-10.284423828125,-27.191162109375,27.435302734375
1.5624999000000002,-2.030282974243164,0.14065934717655182,10.117298126220703,-20.904541015625,-33.50830078125,24.749755859375
1.5674999,-1.3215993642807007,-0.08200141042470932,9.99220085144043,-12.786865234375,-29.632568359375,31.463623046875
1.5724999000000002,-0.3405751883983612,-0.8080430626869202,9.928754806518555,13.00048828125,-35.5224609375,55.419921875
1.5774999,0.5410895943641663,-1.4323312044143677,9.582792282104492,12.20703125,-27.28271484375,53.131103515625
1.5824999000000002,1.0779893398284912,-1.5622166395187378,9.458293914794922,16.387939453125,-12.0849609375,46.9970703125
1.5874999,1.3628993034362793,-1.4036006927490234,9.529520988464355,18.61572265625,3.448486328125,42.78564453125
1.5924999000000002,1.3628993034362793,-1.4036006927490234,9.529520988464355,18.61572265625,3.448486328125,42.78564453125
1.5974999,1.9686323404312134,0.2322375625371933,9.859322547912598,-0.06103515625,4.913330078125,-10.07080078125
1.6024999000000002,2.6647465229034424,0.22864626348018646,9.6618013381958,0.396728515625,37.353515625,-39.55078125
1.6074999,2.6647465229034424,0.22864626348018646,9.6618013381958,0.396728515625,37.353515625,-39.55078125
1.6124999000000002,2.543240785598755,0.07302315533161163,9.712677955627441,1.89208984375,45.074462890625,-56.0302734375
1.6174999,1.8309657573699951,-0.3687070608139038,9.662399291992188,-0.396728515625,37.200927734375,-57.098388671875
1.6224999000000002,0.7769184708595276,-0.8170213103294373,9.618106842041016,-3.204345703125,17.4560546875,-57.92236328125
1.6274999,-0.304063618183136,-0.5261258482933044,9.82759952545166,-5.645751953125,1.0986328125,-58.28857421875
1.6324999000000002,-1.4496891498565674,-0.7499836683273315,9.961674690246582,-18.524169921875,-3.84521484375,-33.69140625
1.6374999000000001,-2.075174331665039,-0.2388216257095337,9.852140426635742,-12.8173828125,-2.532958984375,-7.171630859375
1.6424999000000002,-2.385822057723999,0.11851298063993454,10.242993354797363,-8.48388671875,-25.5126953125,27.099609375
1.6474999000000001,-2.141014814376831,-0.03292027488350868,10.154407501220703,-19.561767578125,-35.82763671875,29.632568359375
1.6524999000000002,0.5183446407318115,-1.4496891498565674,9.571419715881348,14.404296875,-26.2451171875,53.52783203125
1.6574999000000001,0.5183446407318115,-1.4496891498565674,9.571419715881348,14.404296875,-26.2451171875,53.52783203125
1.6624999000000003,1.0911574363708496,-1.5765818357467651,9.45111083984375,19.195556640625,-10.833740234375,48.64501953125
1.6674999000000001,1.3443442583084106,-1.4185645580291748,9.545083999633789,20.355224609375,3.96728515625,43.39599609375
1.6724999,1.3652935028076172,-0.8607155084609985,9.656414031982422,15.7470703125,7.293701171875,31.8603515625
1.6774999000000002,1.5286977291107178,-0.19153612852096558,9.818022727966309,7.171630859375,4.7607421875,13.85498046875
1.6824999,1.8997989892959595,0.4291606545448303,9.916783332824707,-0.762939453125,3.753662109375,-10.406494140625
1.6874999000000002,2.408566951751709,0.7086837291717529,9.882665634155273,-0.91552734375,19.04296875,-28.472900390625
1.6924999,2.6557681560516357,0.3597288131713867,9.673172950744629,0.48828125,36.80419921875,-43.304443359375
1.6974999000000002,2.5510218143463135,0.16998831927776337,9.70549488067627,0.244140625,44.891357421875,-61.09619140625
1.7024999,1.8171991109848022,-0.3489548861980438,9.65222454071045,-1.77001953125,35.919189453125,-58.41064453125
1.7074999000000002,0.71766197681427,-0.8523358106613159,9.580398559570312,-4.241943359375,15.655517578125,-58.28857421875
1.7124999,-1.6813281774520874,-0.9181763529777527,9.827000617980957,-19.744873046875,-6.16455078125,-28.167724609375
1.7174999000000002,-2.2900538444519043,-0.2861070930957794,9.744400978088379,-12.5732421875,-6.591796875,2.01416015625
1.7224999,-2.4624364376068115,0.1843535304069519,10.183736801147461,-9.82666015625,-29.632568359375,28.350830078125
1.7274999000000002,-2.0673930644989014,0.09038111567497253,10.052056312561035,-21.697998046875,-33.3251953125,25.726318359375
1.7324999,-1.2413935661315918,-0.008978256024420261,9.971251487731934,-9.613037109375,-32.989501953125,42.236328125
1.7374999000000002,-0.25498247146606445,-0.8026561141014099,9.917980194091797,15.93017578125,-39.886474609375,61.70654296875
1.7424999,0.568622887134552,-1.4311341047286987,9.53969669342041,14.7705078125,-24.383544921875,55.877685546875
1.7474999000000002,1.0594342947006226,-1.6514005661010742,9.452308654785156,18.768310546875,-5.645751953125,51.69677734375
1.7524999,1.3078327178955078,-1.445499300956726,9.5809965133667,19.47021484375,5.706787109375,46.844482421875
1.7574999000000002,1.4335283041000366,-0.8906430602073669,9.622895240783691,14.95361328125,8.514404296875,33.843994140625
1.7624999000000001,1.7118542194366455,-0.24420857429504395,9.80904483795166,6.256103515625,6.500244140625,13.519287109375
1.7674999000000002,2.1595699787139893,0.3579331636428833,9.859322547912598,-0.9765625,5.828857421875,-13.48876953125
1.7724999000000001,-1.8471266031265259,-0.9409212470054626,9.843161582946777,-18.524169921875,-3.997802734375,-26.611328125
1.7774999000000002,-2.301426410675049,-0.16400282084941864,9.837775230407715,-11.962890625,-8.148193359375,4.5166015625
1.7824999000000001,-2.4636335372924805,0.17537526786327362,10.277111053466797,-10.528564453125,-31.25,30.609130859375
1.7874999000000003,-1.9764134883880615,-0.009576806798577309,10.049661636352539,-22.430419921875,-32.71484375,26.824951171875
1.7924999000000001,-1.0959458351135254,-0.05267243832349777,9.992799758911133,-7.415771484375,-33.87451171875,43.88427734375
1.7974999,-0.05626374110579491,-0.9361328482627869,9.8784761428833,16.693115234375,-36.9873046875,58.929443359375
1.8024999000000002,0.750582218170166,-1.4844050407409668,9.469666481018066,16.4794921875,-20.8740234375,53.497314453125
1.8074999,1.3545196056365967,-1.4502876996994019,9.583391189575195,19.83642578125,6.40869140625,42.54150390625
1.8124999000000002,1.3545196056365967,-1.4502876996994019,9.583391189575195,19.83642578125,6.40869140625,42.54150390625
1.8174999,1.4173674583435059,-0.8379706144332886,9.688735961914062,14.6484375,8.941650390625,27.923583984375
1.8224999000000002,1.655590534210205,-0.12090718746185303,9.885659217834473,4.8828125,5.126953125,7.50732421875
1.8274999,2.123058319091797,0.5153518915176392,9.904812812805176,-1.220703125,8.148193359375,-18.49365234375
1.8324999000000002,2.6132712364196777,0.6021417379379272,9.831191062927246,0.1220703125,27.16064453125,-34.393310546875
1.8374999,2.7557260990142822,0.36152446269989014,9.661202430725098,1.495361328125,41.961669921875,-52.42919921875
1.8424999000000002,1.5041571855545044,-0.43095630407333374,9.64923095703125,-2.716064453125,31.097412109375,-60.882568359375
1.8474999,0.3321954905986786,-0.8906430602073669,9.569623947143555,-4.57763671875,8.575439453125,-64.63623046875
1.8524999000000002,-0.9289502501487732,-0.5889736413955688,9.92097282409668,-12.6953125,-8.48388671875,-51.177978515625
1.8574999,-2.0638017654418945,-0.9397241473197937,9.742605209350586,-16.6015625,-4.425048828125,-20.263671875
1.8624999000000002,-1.9740192890167236,-0.11971008777618408,9.993996620178223,-21.30126953125,-32.470703125,28.228759765625
1.8674999,-1.049857497215271,-0.40282443165779114,9.978434562683105,1.678466796875,-37.17041015625,51.971435546875
1.8724999000000002,-0.023942016065120697,-0.9989806413650513,9.823410034179688,16.7236328125,-34.912109375,58.380126953125
1.8774999,0.7338228225708008,-1.349731206893921,9.539097785949707,14.068603515625,-16.815185546875,50.872802734375
1.8824999000000002,1.216254472732544,-1.326986312866211,9.557653427124023,19.195556640625,-1.28173828125,49.6826171875
1.8874999000000001,1.4550760984420776,-1.016338586807251,9.622895240783691,17.15087890625,6.89697265625,42.8466796875
1.8924999000000002,1.6502034664154053,-0.47405192255973816,9.700108528137207,11.932373046875,9.033203125,27.64892578125
1.8974999000000001,1.965639591217041,0.07003039866685867,9.852140426635742,2.655029296875,4.7607421875,4.547119140625
1.9024999000000002,2.426523447036743,0.5632359385490417,9.838373184204102,-1.5869140625,10.1318359375,-23.01025390625
1.9074999000000001,2.779668092727661,0.3728969097137451,9.724648475646973,-0.213623046875,29.937744140625,-37.9638671875
1.9124999000000003,2.7940332889556885,0.18076223134994507,9.658209800720215,1.220703125,42.54150390625,-53.802490234375
1.9174999000000001,0.09696517139673233,-0.8355764150619507,9.57441234588623,-4.852294921875,4.364013671875,-61.767578125
1.9224999,-1.1354501247406006,-0.6506243348121643,9.964667320251465,-15.533447265625,-8.23974609375,-43.76220703125
1.9274999000000002,-2.100313425064087,-0.6733692288398743,9.64564037322998,-15.838623046875,-2.5634765625,-12.8173828125
1.9324999,-2.408566951751709,-0.0628477931022644,9.984419822692871,-9.368896484375,-17.486572265625,16.876220703125
1.9374999000000002,-2.3930046558380127,-0.015562310814857483,10.119093894958496,-13.12255859375,-33.905029296875,29.449462890625
1.9424999,-1.7561469078063965,-0.15322890877723694,9.891644477844238,-21.05712890625,-31.43310546875,29.296875
1.9474999000000002,-0.8110358119010925,-0.6260837316513062,9.928155899047852,4.08935546875,-37.139892578125,52.06298828125
1.9524999,0.18974047899246216,-1.1839327812194824,9.701904296875,16.998291015625,-31.585693359375,56.182861328125
1.9574999000000002,0.8918401598930359,-1.460463047027588,9.470264434814453,16.11328125,-14.984130859375,49.86572265625
1.9624999,1.2988544702529907,-1.4221558570861816,9.525930404663086,20.5078125,-0.457763671875,47.576904296875
1.9674999000000002,1.447893500328064,-1.072602391242981,9.636063575744629,17.974853515625,9.002685546875,38.330078125
1.9724999,2.80899715423584,0.23283611238002777,9.653421401977539,1.861572265625,44.61669921875,-57.18994140625
1.9774999000000002,2.2200236320495605,-0.12389993667602539,9.687539100646973,-2.105712890625,42.022705078125,-63.690185546875
1.9824999,1.106719732284546,-0.6602011322975159,9.63187313079834,-3.41796875,22.674560546875,-61.920166015625
1.9874999000000002,-0.1107318252325058,-0.5225345492362976,9.478644371032715,-4.608154296875,1.251220703125,-65.155029296875
1.9924999,-1.335964560508728,-0.7960720658302307,9.952696800231934,-18.12744140625,-8.148193359375,-42.54150390625
1.9974999000000002,-2.2397756576538086,-0.4513070285320282,9.536704063415527,-13.97705078125,-4.0283203125,-10.19287109375
2.0024999,-2.519298791885376,-0.11372458189725876,10.140042304992676,-6.34765625,-19.22607421875,20.6298828125
2.0074999,-2.472611904144287,-0.22385786473751068,10.22383975982666,-14.617919921875,-34.881591796875,31.219482421875
2.0124999000000003,-1.7974469661712646,-0.26396074891090393,10.04068374633789,-17.608642578125,-33.02001953125,31.55517578125
2.0174999000000002,1.71245276927948,-0.25677812099456787,9.712677955627441,9.490966796875,7.293701171875,22.125244140625
2.0224999,2.078166961669922,0.25079262256622314,9.813833236694336,1.007080078125,4.119873046875,-3.72314453125
2.0274999,2.558803081512451,0.645237386226654,9.793481826782227,-1.52587890625,15.045166015625,-28.839111328125
2.0324999000000004,2.786850690841675,0.314238965511322,9.631275177001953,-0.579833984375,33.843994140625,-41.595458984375
2.0374999000000003,2.738368272781372,0.1759738177061081,9.648633003234863,1.3427734375,43.39599609375,-55.7861328125
2.0424999,2.0225019454956055,-0.29807811975479126,9.651026725769043,-1.495361328125,38.543701171875,-56.7626953125
2.0474999,0.900818407535553,-0.8242039084434509,9.626486778259277,-3.265380859375,18.280029296875,-55.084228515625
2.0524999,-0.262763649225235,-0.518943190574646,9.548674583435059,-4.638671875,-0.732421875,-56.21337890625
2.0574999000000003,-2.1799206733703613,-0.25258827209472656,9.616909980773926,-13.00048828125,-4.180908203125,-1.312255859375
2.0624999,-2.3965959548950195,0.08619125932455063,10.225635528564453,-7.720947265625,-23.162841796875,23.49853515625
2.0674999,-2.207453966140747,-0.10953472554683685,10.231022834777832,-16.357421875,-33.5693359375,28.228759765625
2.0724999,-1.4951789379119873,-0.19931729137897491,10.078392028808594,-14.95361328125,-30.82275390625,32.440185546875
2.0774999000000003,-0.5781996846199036,-0.8313865661621094,10.078392028808594,11.505126953125,-36.346435546875,54.107666015625
2.0824999,1.4616601467132568,-0.8667010068893433,9.625887870788574,15.350341796875,8.544921875,35.614013671875
2.0874999,1.6903064250946045,-0.2974795699119568,9.718663215637207,8.36181640625,6.65283203125,19.012451171875
2.0924999,2.0859482288360596,0.19452889263629913,9.814431190490723,-0.06103515625,4.69970703125,-8.72802734375
2.0974999000000003,2.5719711780548096,0.5488707423210144,9.812037467956543,-0.67138671875,19.073486328125,-29.266357421875
2.1024999,2.8185739517211914,0.2346317619085312,9.628880500793457,1.312255859375,36.712646484375,-40.1611328125
2.1074999,2.7102363109588623,0.12509703636169434,9.671378135681152,0.701904296875,44.830322265625,-58.04443359375
2.1124999,1.9512743949890137,-0.2825157940387726,9.668384552001953,-1.64794921875,36.895751953125,-59.87548828125
2.1174999000000003,0.811634361743927,-0.7846996188163757,9.61451530456543,-4.058837890625,16.510009765625,-58.929443359375
2.1224999,-0.33279404044151306,-0.4381389021873474,9.686341285705566,-4.730224609375,-1.28173828125,-58.990478515625
2.1274999,-1.5466543436050415,-0.8277952671051025,9.97065258026123,-18.798828125,-6.53076171875,-32.440185546875
2.1324999,-2.1781249046325684,-0.2663549482822418,9.71926212310791,-12.3291015625,-3.173828125,-2.9296875
2.1374999000000003,-2.4684219360351562,0.038307227194309235,10.253169059753418,-6.439208984375,-23.01025390625,26.30615234375
2.1424999000000002,-2.2457611560821533,-0.1693897694349289,10.199897766113281,-16.937255859375,-35.125732421875,31.1279296875
2.1474999,-1.5203180313110352,-0.23163901269435883,10.04068374633789,-14.22119140625,-31.43310546875,31.3720703125
2.1524999,-0.5416881442070007,-0.8762778043746948,10.04846477508545,13.519287109375,-34.7900390625,51.849365234375
2.1574999000000004,0.43993455171585083,-1.3880383968353271,9.670180320739746,13.3056640625,-23.834228515625,49.13330078125
2.1624999000000003,1.0546458959579468,-1.455674648284912,9.53969669342041,16.54052734375,-9.1552734375,45.501708984375
2.1674999,1.4036006927490234,-1.2964602708816528,9.586981773376465,18.646240234375,4.45556640625,41.778564453125
2.1724999,1.4802151918411255,-0.7852981686592102,9.648633003234863,14.70947265625,7.110595703125,31.219482421875
2.1774999000000004,1.6825252771377563,-0.1825578808784485,9.75517463684082,7.568359375,6.134033203125,14.617919921875
2.1824999000000003,2.054823637008667,0.35494041442871094,9.837176322937012,-0.213623046875,5.92041015625,-11.53564453125
2.1874999,2.521692991256714,0.6362590789794922,9.822212219238281,-0.091552734375,20.843505859375,-29.937744140625
2.1924999,2.735974073410034,0.3034650683403015,9.623494148254395,1.617431640625,36.9873046875,-42.54150390625
2.1974999,2.581547975540161,0.14664486050605774,9.697115898132324,0,42.78564453125,-61.34033203125
2.2024999000000003,1.7872716188430786,-0.31364041566848755,9.660005569458008,-2.288818359375,33.3251953125,-59.173583984375
2.2074999,0.641047477722168,-0.8684966564178467,9.587580680847168,-4.852294921875,13.24462890625,-58.135986328125
2.2124999,-0.5614402890205383,-0.5518634915351868,9.766547203063965,-5.4931640625,-3.692626953125,-54.229736328125
2.2174999,-1.7639280557632446,-0.9301473498344421,9.877877235412598,-18.707275390625,-7.965087890625,-25.69580078125
2.2224999000000003,-1.7639280557632446,-0.9301473498344421,9.877877235412598,-18.707275390625,-7.965087890625,-25.69580078125
2.2274999,0.48901569843292236,-1.3455413579940796,9.626486778259277,11.3525390625,-22.52197265625,50.262451171875
2.2324999,0.48901569843292236,-1.3455413579940796,9.626486778259277,11.3525390625,-22.52197265625,50.262451171875
2.2374999,1.035492181777954,-1.488594889640808,9.551667213439941,16.387939453125,-4.8828125,48.187255859375
2.2424999000000003,1.5340847969055176,-0.8050503134727478,9.632472038269043,13.671875,7.965087890625,34.423828125
2.2474999,1.8237831592559814,-0.24181437492370605,9.7605619430542,6.561279296875,6.622314453125,14.312744140625
2.2524999,2.231395959854126,0.2861070930957794,9.824606895446777,-0.91552734375,5.79833984375,-14.068603515625
2.2574999,2.692878246307373,0.4991910457611084,9.801262855529785,-0.1220703125,22.3388671875,-30.517578125
2.2624999000000003,2.8149826526641846,0.20709845423698425,9.63067626953125,0.9765625,38.4521484375,-43.88427734375
2.2674999000000002,-0.6482301354408264,-0.5512649416923523,9.86889934539795,-6.927490234375,-3.90625,-53.131103515625
2.2724999,-1.780089020729065,-0.9582792520523071,9.844358444213867,-17.913818359375,-5.615234375,-24.59716796875
2.2774999,-2.2679076194763184,-0.28969839215278625,9.843161582946777,-11.1083984375,-6.40869140625,4.150390625
2.2824999000000004,-2.4175450801849365,0.1256955862045288,10.23880386352539,-8.514404296875,-28.74755859375,31.005859375
2.2874999000000003,-1.9806033372879028,0.03890577703714371,10.055048942565918,-20.01953125,-33.5693359375,27.191162109375
2.2924999,-1.1869255304336548,-0.0586579404771328,9.999981880187988,-7.2021484375,-31.982421875,38.421630859375
2.2974999,-0.1933317929506302,-0.8379706144332886,9.941922187805176,16.387939453125,-34.7900390625,54.901123046875
2.3024999000000004,0.6482301354408264,-1.4215573072433472,9.555258750915527,12.87841796875,-19.622802734375,48.583984375
2.3074999000000003,1.1635819673538208,-1.622071623802185,9.534309387207031,18.798828125,-4.33349609375,45.0439453125
2.3124999,1.4131776094436646,-1.3940238952636719,9.610923767089844,17.425537109375,5.859375,39.36767578125
2.3174999,2.764704465866089,0.2687491476535797,9.644442558288574,2.13623046875,40.22216796875,-47.79052734375
2.3224999,2.500145196914673,0.09636662155389786,9.697115898132324,-0.6103515625,41.168212890625,-63.995361328125
2.3274999000000003,1.5831658840179443,-0.3902548849582672,9.650428771972656,-2.166748046875,28.900146484375,-59.14306640625
2.3324999,0.4058171808719635,-0.9582792520523071,9.558850288391113,-5.279541015625,10.55908203125,-62.835693359375
2.3374999,-0.8110358119010925,-0.6015431880950928,9.806650161743164,-8.819580078125,-6.927490234375,-52.8564453125
2.3424999,-1.9818004369735718,-1.0552444458007812,9.727043151855469,-17.242431640625,-7.01904296875,-23.25439453125
2.3474999000000003,-2.4869771003723145,-0.18794482946395874,9.79288387298584,-9.3994140625,-9.796142578125,8.7890625
2.3524999,-2.62823486328125,0.2663549482822418,10.17296314239502,-9.857177734375,-30.914306640625,31.55517578125
2.3574999,-2.147000312805176,0.15502455830574036,10.006566047668457,-20.8740234375,-33.905029296875,25.177001953125
2.3624999,-0.31783026456832886,-0.7870938181877136,9.96945571899414,16.082763671875,-35.614013671875,56.884765625
2.3674999000000003,0.535702645778656,-1.346139907836914,9.636661529541016,10.55908203125,-17.2119140625,47.760009765625
2.3724999,1.115697979927063,-1.4730325937271118,9.632472038269043,16.05224609375,-1.556396484375,46.051025390625
2.3774999,1.4832079410552979,-1.2419921159744263,9.657012939453125,15.19775390625,4.94384765625,42.144775390625
2.3824999,1.7046716213226318,-0.7224503755569458,9.68155288696289,12.63427734375,8.72802734375,30.1513671875
2.3874999000000003,1.9752163887023926,-0.21847090125083923,9.798270225524902,5.43212890625,7.01904296875,9.124755859375
2.3924999000000002,2.3762452602386475,0.39863458275794983,9.823410034179688,-0.30517578125,7.354736328125,-17.333984375
2.3974999,2.7275943756103516,0.4411316514015198,9.733028411865234,-0.274658203125,24.993896484375,-33.75244140625
2.4024999,0.32381579279899597,-1.0001777410507202,9.578003883361816,-4.638671875,10.07080078125,-57.55615234375
2.4074999000000004,-1.8932149410247803,-0.9391255974769592,9.798869132995605,-16.082763671875,-5.2490234375,-18.6767578125
2.4124999000000003,-2.319981336593628,-0.08738835901021957,9.88625717163086,-9.674072265625,-10.009765625,10.406494140625
2.4174999,-2.4157495498657227,0.3519476354122162,10.257957458496094,-10.986328125,-30.487060546875,29.9072265625
2.4224999,-1.9458874464035034,0.1999158412218094,10.068216323852539,-20.81298828125,-32.501220703125,24.2919921875
2.4274999000000004,-1.1552022695541382,0.07541735470294952,10.083779335021973,-2.74658203125,-33.477783203125,42.29736328125
2.4324999000000003,-0.1711854189634323,-0.7870938181877136,9.953893661499023,14.83154296875,-33.843994140625,54.38232421875
2.4374999,0.6308721303939819,-1.3491326570510864,9.605537414550781,10.31494140625,-17.7001953125,46.630859375
2.4424999,1.1534066200256348,-1.5424644947052002,9.583989143371582,16.357421875,-3.509521484375,44.158935546875
2.4474999,1.4496891498565674,-1.3275848627090454,9.606135368347168,15.716552734375,5.340576171875,39.459228515625
2.4524999000000003,1.5999252796173096,-0.8140285611152649,9.660005569458008,13.0615234375,8.514404296875,28.045654296875
2.4574999,1.8477251529693604,-0.2783259451389313,9.779715538024902,5.340576171875,6.103515625,7.843017578125
2.4624999,2.2661118507385254,0.32860419154167175,9.818621635437012,-0.457763671875,8.23974609375,-18.035888671875
2.4674999,1.492186188697815,-0.4531026780605316,9.665990829467773,-0.9765625,29.6630859375,-55.267333984375
2.4724999000000003,0.38307225704193115,-0.993593692779541,9.578003883361816,-4.302978515625,10.55908203125,-59.814453125
2.4774999,-0.7200561761856079,-0.6105214357376099,9.82999324798584,-9.063720703125,-5.4931640625,-50.506591796875
2.4824999,-2.4366986751556396,0.28072014451026917,10.240599632263184,-10.345458984375,-29.6630859375,32.073974609375
2.4874999,-2.0231003761291504,0.17298106849193573,10.073603630065918,-20.6298828125,-34.027099609375,25.848388671875
2.4924999000000003,-1.2545616626739502,0.0736217051744461,10.087968826293945,-3.662109375,-32.867431640625,38.787841796875
2.4974999,-0.2172738015651703,-0.7535749673843384,9.961075782775879,15.19775390625,-31.73828125,52.032470703125
2.5024999,0.6476315855979919,-1.3024457693099976,9.63187313079834,10.833740234375,-17.242431640625,45.745849609375
2.5074999,1.5592238903045654,-0.7990648150444031,9.676764488220215,12.908935546875,7.38525390625,25.238037109375
2.5124999000000003,1.7405846118927002,-0.2406172752380371,9.809642791748047,5.157470703125,5.035400390625,7.4462890625
2.5174999000000002,2.1302409172058105,0.41778820753097534,9.841365814208984,-0.54931640625,7.415771484375,-17.15087890625
2.5224999,2.4845829010009766,0.4878185987472534,9.777320861816406,-0.9765625,24.261474609375,-33.477783203125
2.5274999,2.5773582458496094,0.24121582508087158,9.640253067016602,0.48828125,36.895751953125,-45.196533203125
2.5324999000000004,2.318185806274414,-0.0628477931022644,9.641449928283691,1.5869140625,39.154052734375,-56.396484375
2.5374999000000003,1.4742296934127808,-0.608127236366272,9.611522674560547,-0.48828125,28.9306640625,-53.436279296875
2.5424999,0.3932476341724396,-1.1162965297698975,9.546878814697266,-3.814697265625,9.58251953125,-55.6640625
2.5474999,-0.7242460250854492,-0.6799532771110535,9.816226959228516,-7.843017578125,-5.7373046875,-46.051025390625
2.5524999000000004,-1.7830817699432373,-0.9205705523490906,9.804854393005371,-15.2587890625,-5.37109375,-17.669677734375
2.5574999000000003,-1.9482816457748413,0.3064578175544739,10.129268646240234,-19.927978515625,-31.73828125,22.918701171875
2.5624999,-1.1767501831054688,0.14065934717655182,10.148422241210938,-1.77001953125,-32.8369140625,42.510986328125
2.5674999,-0.2322375625371933,-0.7218518257141113,9.989806175231934,14.16015625,-32.562255859375,54.962158203125
2.5724999,0.5650315880775452,-1.2850877046585083,9.671378135681152,8.819580078125,-18.035888671875,46.20361328125
2.5774999000000003,1.0887632369995117,-1.4227544069290161,9.622296333312988,14.0380859375,-3.662109375,43.51806640625
2.5824999,1.4323312044143677,-1.227626919746399,9.62828254699707,14.7705078125,5.37109375,40.496826171875
2.5874999,1.6035165786743164,-0.7930793166160583,9.658209800720215,12.5732421875,8.23974609375,29.11376953125
2.5924999,1.8656816482543945,-0.3381809890270233,9.75397777557373,5.55419921875,6.16455078125,9.429931640625
2.5974999000000003,2.2643163204193115,0.21966800093650818,9.781511306762695,-0.244140625,7.75146484375,-16.9677734375
2.6024999,2.6150667667388916,0.34416648745536804,9.748590469360352,-0.030517578125,24.322509765625,-32.257080078125
2.6074999,2.6827030181884766,0.12629413604736328,9.621099472045898,0.457763671875,37.506103515625,-42.572021484375
2.6124999,1.5310919284820557,-0.5261258482933044,9.640851974487305,-0.6103515625,29.754638671875,-55.72509765625
2.6174999000000003,0.44771572947502136,-1.0504560470581055,9.576208114624023,-3.509521484375,10.68115234375,-57.403564453125
2.6224999,-0.6500257849693298,-0.6829460263252258,9.82879638671875,-8.026123046875,-4.0283203125,-49.346923828125
2.6274999,-1.7040730714797974,-0.943913996219635,9.819818496704102,-14.892578125,-4.57763671875,-21.78955078125
2.6324999,-2.2164323329925537,-0.1412578970193863,9.907206535339355,-8.056640625,-7.87353515625,6.2255859375
2.6374999000000003,-2.4181437492370605,0.345363587141037,10.234613418579102,-10.55908203125,-28.38134765625,31.951904296875
2.6424999000000002,-2.029684543609619,0.2190694510936737,10.10053825378418,-19.775390625,-33.69140625,25.390625
2.6474999,-1.2862848043441772,0.07003039866685867,10.099940299987793,-4.119873046875,-31.951904296875,36.376953125
2.6524999,-0.2795230448246002,-0.7451952695846558,9.989208221435547,14.6484375,-31.219482421875,52.06298828125
2.6574999000000004,0.6230909824371338,-1.2791022062301636,9.679159164428711,9.796142578125,-17.9443359375,45.745849609375
2.6624999000000003,1.202487826347351,-1.4419080018997192,9.625887870788574,14.007568359375,-3.570556640625,41.19873046875
2.6674999,1.5340847969055176,-1.2407950162887573,9.641449928283691,15.31982421875,6.9580078125,36.163330078125
2.6724999,1.7824832201004028,-0.322618693113327,9.746196746826172,6.439208984375,6.011962890625,6.9580078125
2.6774999000000004,2.102707624435425,0.2495955228805542,9.798270225524902,0.18310546875,8.270263671875,-16.937255859375
2.6824999000000003,2.4211363792419434,0.46327802538871765,9.768941879272461,0.701904296875,23.5595703125,-30.120849609375
2.6874999,2.515707492828369,0.22744916379451752,9.631275177001953,0.274658203125,35.33935546875,-41.473388671875
2.6924999,2.2840683460235596,0.04189852997660637,9.677961349487305,1.40380859375,38.63525390625,-58.7158203125
2.6974999,1.5173252820968628,-0.4752490520477295,9.628880500793457,-1.03759765625,28.839111328125,-58.10546875
2.7024999000000003,0.47225627303123474,-1.0576386451721191,9.5624418258667,-3.0517578125,10.31494140625,-56.640625
2.7074999,-0.6500257849693298,-0.7667431235313416,9.742605209350586,-6.8359375,-4.33349609375,-49.072265625
2.7124999,-1.7262194156646729,-0.9361328482627869,9.805453300476074,-14.09912109375,-7.26318359375,-20.538330078125
2.7174999,-2.3104045391082764,-0.10055647045373917,9.886856079101562,-8.6669921875,-9.674072265625,7.14111328125
2.7224999000000003,-2.470816135406494,0.46088382601737976,10.23880386352539,-11.993408203125,-29.23583984375,30.517578125
2.7274999,-2.0697872638702393,0.2825157940387726,10.153210639953613,-19.71435546875,-33.38623046875,22.8271484375
2.7324999,-0.41958385705947876,-0.7565677165985107,10.050260543823242,14.617919921875,-33.111572265625,54.840087890625
2.7374999,0.44173020124435425,-1.259350061416626,9.744999885559082,8.148193359375,-19.500732421875,46.875
2.7424999000000003,1.0402805805206299,-1.326986312866211,9.70429801940918,11.566162109375,-4.180908203125,43.426513671875
2.7474999,1.4844050407409668,-1.1192892789840698,9.640253067016602,14.16015625,5.584716796875,41.3818359375
2.7524999,1.6956933736801147,-0.7140706777572632,9.661202430725098,12.26806640625,7.904052734375,31.6162109375
2.7574999,1.955464243888855,-0.31364041566848755,9.70310115814209,6.744384765625,6.9580078125,11.566162109375
2.7624999000000003,2.2703018188476562,0.18794482946395874,9.746196746826172,-0.030517578125,6.317138671875,-14.617919921875
2.7674999000000002,2.5713725090026855,0.38486793637275696,9.746196746826172,-0.06103515625,20.8740234375,-29.296875
2.7724999,2.6162638664245605,0.14185644686222076,9.607931137084961,-0.152587890625,34.454345703125,-37.384033203125
2.7774999,2.387019157409668,-0.011372458189725876,9.660603523254395,1.708984375,38.9404296875,-52.55126953125
2.7824999000000004,1.6077064275741577,-0.46507367491722107,9.636063575744629,-0.732421875,30.914306640625,-53.192138671875
2.7874999000000003,0.5877765417098999,-0.9385270476341248,9.601945877075195,-2.86865234375,13.641357421875,-53.1005859375
2.7924999,-2.1104888916015625,-0.19572599232196808,9.849745750427246,-9.002685546875,-5.37109375,1.40380859375
2.7974999,-2.3786394596099854,0.2495955228805542,10.22144603729248,-9.1552734375,-24.505615234375,28.38134765625
2.8024999000000004,-1.4622586965560913,-0.15083470940589905,10.04068374633789,-9.552001953125,-30.21240234375,29.632568359375
2.8074999000000003,-0.5117605924606323,-0.8744821548461914,10.020332336425781,13.824462890625,-31.951904296875,50.140380859375
2.8124999,0.4495113790035248,-1.270722508430481,9.691728591918945,9.033203125,-21.1181640625,44.830322265625
2.8174999,1.1049240827560425,-1.2994530200958252,9.64923095703125,11.90185546875,-6.622314453125,39.764404296875
2.8224999,1.5269020795822144,-1.0935516357421875,9.641449928283691,15.777587890625,5.706787109375,36.895751953125
2.8274999000000003,1.5269020795822144,-1.0935516357421875,9.641449928283691,15.777587890625,5.706787109375,36.895751953125
2.8324999,1.6400281190872192,-0.690727174282074,9.698312759399414,12.8173828125,7.32421875,28.74755859375
2.8374999,1.8136078119277954,-0.28072014451026917,9.733627319335938,7.965087890625,6.9580078125,10.7421875
2.8424999,-2.1254525184631348,-0.2232593148946762,9.713275909423828,-8.7890625,-5.218505859375,-3.204345703125
2.8474999000000003,-2.1254525184631348,-0.2232593148946762,9.713275909423828,-8.7890625,-5.218505859375,-3.204345703125
2.8524999,-2.5234885215759277,0.22924481332302094,10.213066101074219,-8.30078125,-21.91162109375,26.092529296875
2.8574999,-2.3702597618103027,0.05626374110579491,10.180744171142578,-17.669677734375,-35.308837890625,27.28271484375
2.8624999,-1.777096152305603,-0.12629413604736328,10.113706588745117,-11.5966796875,-30.731201171875,27.40478515625
2.8674999000000003,-0.8852560520172119,-0.8248024582862854,10.125677108764648,13.427734375,-33.721923828125,51.971435546875
2.8724999,0.8505401611328125,-1.182137131690979,9.740809440612793,8.514404296875,-7.8125,41.595458984375
2.8774999,1.4000093936920166,-0.9235633015632629,9.651625633239746,13.946533203125,2.655029296875,40.46630859375
2.8824999,2.121861219406128,0.06883329898118973,9.770736694335938,1.46484375,4.5166015625,-4.852294921875
2.8874999000000003,2.426523447036743,0.42676645517349243,9.773730278015137,0.396728515625,13.397216796875,-24.5361328125
2.8924999000000002,2.5767595767974854,0.11252748221158981,9.600749015808105,-1.373291015625,29.510498046875,-34.454345703125
2.8974999,2.4917654991149902,-0.018555063754320145,9.63067626953125,2.01416015625,38.4521484375,-47.2412109375
2.9024999,1.9728221893310547,-0.4704606235027313,9.576208114624023,0.762939453125,34.576416015625,-51.727294921875
2.9074999000000004,1.0402805805206299,-0.9229647517204285,9.607333183288574,-0.091552734375,20.32470703125,-48.065185546875
2.9124999000000003,-0.03711012750864029,-0.9397241473197937,9.544485092163086,-3.753662109375,3.692626953125,-51.605224609375
2.9174999,-2.3732523918151855,0.06584054976701736,10.204686164855957,-9.09423828125,-18.12744140625,20.050048828125
2.9224999,-2.3732523918151855,0.06584054976701736,10.204686164855957,-9.09423828125,-18.12744140625,20.050048828125
2.9274999000000004,-2.2661118507385254,0.3321954905986786,10.214262962341309,-16.571044921875,-33.14208984375,27.557373046875
2.9324999000000003,-1.7477672100067139,0.05506663769483566,10.066421508789062,-16.693115234375,-29.754638671875,21.759033203125
2.9374999,-0.9133879542350769,-0.3818751573562622,10.104129791259766,9.46044921875,-32.3486328125,48.095703125
2.9424999,0.05626374110579491,-0.950498104095459,9.831789016723633,11.016845703125,-26.153564453125,49.1943359375
2.9474999,0.7703344225883484,-1.193509578704834,9.701904296875,7.598876953125,-11.5966796875,40.58837890625
2.9524999000000003,1.2886791229248047,-1.1073182821273804,9.66958236694336,13.946533203125,1.251220703125,38.482666015625
2.9574999,1.557428240776062,-0.8092401623725891,9.692925453186035,11.871337890625,5.096435546875,34.454345703125
2.9624999,2.3259668350219727,0.31783026456832886,9.798270225524902,0.762939453125,12.481689453125,-20.263671875
2.9674999,2.1134815216064453,-0.20530278980731964,9.642647743225098,1.190185546875,36.407470703125,-56.0302734375
2.9724999000000003,2.1134815216064453,-0.20530278980731964,9.642647743225098,1.190185546875,36.407470703125,-56.0302734375
2.9774999,1.2647370100021362,-0.6494272351264954,9.622296333312988,-0.06103515625,24.139404296875,-51.513671875
2.9824999,0.2585737705230713,-1.0654197931289673,9.563039779663086,-3.72314453125,8.148193359375,-55.206298828125
2.9874999,-0.8038532137870789,-0.7535749673843384,9.926360130310059,-11.29150390625,-5.523681640625,-43.304443359375
2.9924999000000003,-1.731606364250183,-0.8565256595611572,9.768342971801758,-10.955810546875,-3.2958984375,-16.4794921875
2.9974999,-2.2601263523101807,-0.11971008777618408,10.0580415725708,-7.354736328125,-10.6201171875,12.481689453125
3.0024999,-2.382829189300537,0.40462008118629456,10.229825019836426,-13.24462890625,-30.670166015625,30.76171875
3.0074999,-1.964442491531372,0.20350714027881622,10.063427925109863,-18.524169921875,-32.196044921875,21.453857421875
3.0124999000000003,-1.1917139291763306,0.03950432687997818,10.095749855041504,1.8310546875,-31.524658203125,40.069580078125
3.0174999000000002,-0.16519992053508759,-0.8050503134727478,9.90122127532959,13.48876953125,-28.045654296875,49.4384765625
3.0224999,0.6739677786827087,-1.2689268589019775,9.651625633239746,8.97216796875,-14.068603515625,41.534423828125
3.0274999,1.5119383335113525,-1.128267526626587,9.66539192199707,13.00048828125,4.45556640625,33.50830078125
3.0324999000000004,1.6274585723876953,-0.7098808288574219,9.720458984375,12.176513671875,6.439208984375,22.857666015625
3.0374999000000003,1.7717092037200928,-0.2819172441959381,9.801262855529785,5.645751953125,4.791259765625,3.875732421875
3.0424999,2.0847511291503906,0.33279404044151306,9.846753120422363,1.03759765625,7.38525390625,-16.2353515625
3.0474999,2.360682964324951,0.3758896589279175,9.738415718078613,0.335693359375,22.5830078125,-30.792236328125
3.0524999000000004,2.434903144836426,0.15921440720558167,9.611522674560547,0.1220703125,34.698486328125,-40.8935546875
3.0574999000000003,2.2236149311065674,-0.10175357013940811,9.603142738342285,2.62451171875,36.285400390625,-51.6357421875
3.0624999,1.4610615968704224,-0.6392518281936646,9.553462982177734,-0.030517578125,26.885986328125,-48.431396484375
3.0674999,0.4189853072166443,-1.081580638885498,9.548076629638672,-2.9296875,10.80322265625,-50.96435546875
3.0724999000000004,-0.6961141228675842,-0.7140706777572632,9.781511306762695,-7.537841796875,-6.134033203125,-44.403076171875
3.0774999000000003,-1.6843209266662598,-0.6613982319831848,9.845556259155273,-12.847900390625,-6.195068359375,-16.90673828125
3.0824999,-2.3050177097320557,0.11432313174009323,9.947309494018555,-10.955810546875,-10.894775390625,12.02392578125
3.0874999,2.5713725090026855,0.27892449498176575,9.75936508178711,0.518798828125,17.08984375,-26.7333984375
3.0924999,2.671330451965332,0.01735796220600605,9.603142738342285,-0.48828125,33.203125,-36.712646484375
3.0974999000000003,2.5234885215759277,-0.002992752008140087,9.655217170715332,-0.18310546875,39.9169921875,-51.513671875
3.1024999,0.8182184100151062,-0.8589198589324951,9.608530044555664,-1.708984375,17.913818359375,-54.99267578125
3.1074999,-0.22744916379451752,-0.6931213736534119,9.748590469360352,-7.232666015625,0.274658203125,-55.2978515625
3.1124999,-1.3431471586227417,-0.8176198601722717,9.893440246582031,-13.73291015625,-3.84521484375,-32.3486328125
3.1174999000000003,-2.009932279586792,-0.2998737692832947,9.824606895446777,-9.246826171875,-3.997802734375,-3.509521484375
3.1224999,-2.384026288986206,0.0065840547904372215,10.146028518676758,-9.307861328125,-23.040771484375,25.421142578125
3.1274999,-2.191891670227051,-0.0802057534456253,10.144830703735352,-17.76123046875,-34.637451171875,28.717041015625
3.1324999,-1.5610195398330688,-0.25318682193756104,9.989208221435547,-13.519287109375,-30.76171875,28.472900390625
3.1374999000000003,-0.5752069354057312,-0.8493430614471436,10.04188060760498,12.14599609375,-33.203125,47.91259765625
3.1424999000000002,0.44412440061569214,-1.2557587623596191,9.66958236694336,12.298583984375,-22.003173828125,47.576904296875
3.1474999,1.0989385843276978,-1.3353660106658936,9.603741645812988,14.70947265625,-8.880615234375,43.121337890625
3.1524999,1.469441294670105,-1.184531331062317,9.62828254699707,17.08984375,4.08935546875,39.276123046875
3.1574999000000004,1.5203180313110352,-0.7667431235313416,9.696516990661621,14.892578125,8.48388671875,31.005859375
3.1624999000000003,1.832162857055664,0.14484919607639313,9.837176322937012,1.556396484375,4.39453125,-6.134033203125
3.1674999,2.254140853881836,0.6344634294509888,9.858125686645508,0.091552734375,15.80810546875,-26.123046875
3.1724999,2.496553897857666,0.37229835987091064,9.671976089477539,0,31.494140625,-36.1328125
3.1774999000000004,2.5025393962860107,0.23343466222286224,9.64803409576416,-0.091552734375,39.55078125,-53.375244140625
3.1824999000000003,1.9776105880737305,-0.22744916379451752,9.63067626953125,-1.678466796875,36.1328125,-59.9365234375
3.1874999,0.9846154451370239,-0.8541314601898193,9.583391189575195,-2.01416015625,18.402099609375,-57.342529296875
3.1924999,-0.11192893236875534,-0.801459014415741,9.589975357055664,-5.859375,-0.18310546875,-57.861328125
3.1974999000000004,-1.30543851852417,-0.9217676520347595,9.915586471557617,-15.838623046875,-7.62939453125,-35.247802734375
3.2024999000000003,0.12689268589019775,-1.1522095203399658,9.753378868103027,12.02392578125,-25.81787109375,53.1005859375
3.2074999,0.8301894664764404,-1.20368492603302,9.67077922821045,10.43701171875,-9.6435546875,48.76708984375
3.2124999,1.3413515090942383,-0.9953893423080444,9.607333183288574,15.869140625,2.62451171875,47.119140625
3.2174999,1.5765818357467651,-0.6446388363838196,9.660603523254395,13.5498046875,7.99560546875,40.6494140625
3.2224999000000003,1.7950527667999268,-0.2364274114370346,9.694721221923828,10.31494140625,8.056640625,25.543212890625
3.2274999,2.094327926635742,0.047884032130241394,9.774328231811523,1.983642578125,3.72314453125,0
3.2324999,2.4690206050872803,0.4495113790035248,9.774927139282227,-0.885009765625,11.53564453125,-24.4140625
3.2374999,2.700061082839966,0.22086510062217712,9.660005569458008,-0.396728515625,28.80859375,-34.5458984375
3.2424999000000003,2.6366145610809326,0.10474632680416107,9.627683639526367,-0.67138671875,39.581298828125,-47.8515625
3.2474999,2.1051018238067627,-0.22924481332302094,9.643245697021484,-1.495361328125,39.12353515625,-55.206298828125
3.2524999,1.092953085899353,-0.6853402256965637,9.64564037322998,-1.312255859375,21.91162109375,-53.375244140625
3.2574999,-1.9506758451461792,-0.4513070285320282,9.743802070617676,-10.8642578125,-2.227783203125,-10.25390625
3.2624999000000003,-2.3924059867858887,-0.25498247146606445,10.149619102478027,-8.697509765625,-18.12744140625,18.6767578125
3.2674999000000002,-2.3062148094177246,0.020949264988303185,10.187328338623047,-16.2353515625,-34.942626953125,32.806396484375
3.2724999,-1.7363947629928589,-0.23523031175136566,10.043676376342773,-18.4326171875,-31.18896484375,25.2685546875
3.2774999,-0.7954735159873962,-0.4800374507904053,10.052654266357422,6.988525390625,-33.75244140625,44.61669921875
3.2824999000000004,1.3898340463638306,-1.389235496520996,9.569025993347168,18.798828125,1.708984375,44.49462890625
3.2874999000000003,1.4766238927841187,-1.015141487121582,9.648633003234863,16.11328125,8.7890625,36.9873046875
3.2924999,1.5394717454910278,-0.49380409717559814,9.729436874389648,11.688232421875,7.26318359375,23.284912109375
3.2974999,1.811812162399292,-0.0035913025494664907,9.84256362915039,3.143310546875,4.364013671875,0.457763671875
3.3024999000000004,2.6360161304473877,0.40940847992897034,9.746794700622559,1.220703125,30.45654296875,-33.14208984375
3.3074999000000003,2.692878246307373,0.2322375625371933,9.643245697021484,0.48828125,41.44287109375,-49.49951171875
3.3124999,2.2667105197906494,-0.061052143573760986,9.701305389404297,-2.227783203125,40.71044921875,-63.262939453125
3.3174999,1.3006501197814941,-0.5488707423210144,9.657610893249512,-1.0986328125,23.62060546875,-60.699462890625
3.3224999000000004,0.1759738177061081,-0.5991489887237549,9.556455612182617,-5.43212890625,4.364013671875,-62.896728515625
3.3274999000000003,-1.083974838256836,-0.8301894664764404,9.905410766601562,-15.838623046875,-6.378173828125,-45.379638671875
3.3324999,-2.0219032764434814,-0.6045359373092651,9.671378135681152,-10.1318359375,-5.67626953125,-16.326904296875
3.3374999,-2.564788579940796,-0.3776853084564209,10.055048942565918,-7.38525390625,-16.082763671875,16.571044921875
3.3424999,-2.565985679626465,-0.04668693244457245,10.190919876098633,-15.80810546875,-35.980224609375,36.224365234375
3.3474999000000003,-2.009333848953247,-0.18734627962112427,10.085575103759766,-18.06640625,-32.806396484375,24.871826171875
3.3524999,-1.0833762884140015,-0.406415730714798,10.129268646240234,7.171630859375,-34.210205078125,44.525146484375
3.3574999,0.010773907415568829,-0.950498104095459,9.883264541625977,13.427734375,-30.120849609375,53.131103515625
3.3624999,1.5221136808395386,-0.8696937561035156,9.668983459472656,14.09912109375,6.683349609375,39.825439453125
3.3674999000000003,1.6519991159439087,-0.40521863102912903,9.689932823181152,10.986328125,6.744384765625,26.91650390625
3.3724999,1.8974047899246216,-0.013168109580874443,9.78869342803955,3.23486328125,4.180908203125,4.547119140625
3.3774999,2.2828712463378906,0.47824180126190186,9.797672271728516,-0.885009765625,8.72802734375,-21.1181640625
3.3824999,2.6144683361053467,0.3447650372982025,9.680954933166504,-0.640869140625,26.30615234375,-33.75244140625
3.3874999000000003,2.6396074295043945,0.1586158573627472,9.621698379516602,-0.518798828125,39.36767578125,-47.119140625
3.3924999000000002,2.2403743267059326,-0.15682020783424377,9.655217170715332,-0.732421875,40.34423828125,-56.33544921875
3.3974999,2.2403743267059326,-0.15682020783424377,9.655217170715332,-0.732421875,40.34423828125,-56.33544921875
3.4024999,1.2964602708816528,-0.6165069341659546,9.656414031982422,-0.457763671875,24.810791015625,-51.33056640625
3.4074999000000004,0.1951274424791336,-0.7284358739852905,9.564237594604492,-5.035400390625,5.828857421875,-55.145263671875
3.4124999000000003,-0.9684545993804932,-0.7439981698989868,10.00836181640625,-14.46533203125,-5.55419921875,-40.252685546875
3.4174999,-2.322375535964966,0.17238251864910126,10.249577522277832,-15.472412109375,-34.637451171875,33.38623046875
3.4224999,-1.800439715385437,-0.0736217051744461,10.079588890075684,-19.59228515625,-31.036376953125,22.705078125
3.4274999000000004,-0.9175778031349182,-0.21368250250816345,10.085575103759766,4.08935546875,-32.440185546875,42.48046875
3.4324999000000003,0.1149216815829277,-0.9714473485946655,9.84615421295166,14.068603515625,-30.364990234375,53.619384765625
3.4374999,0.823006808757782,-1.3341689109802246,9.581595420837402,11.71875,-15.960693359375,48.431396484375
3.4424999,1.390432596206665,-1.0887632369995117,9.636661529541016,14.923095703125,6.500244140625,38.330078125
3.4474999000000004,1.390432596206665,-1.0887632369995117,9.636661529541016,14.923095703125,6.500244140625,38.330078125
3.4524999000000003,1.4844050407409668,-0.578798234462738,9.708487510681152,11.322021484375,6.16455078125,25.69580078125
3.4574999,1.7549498081207275,-0.08439560979604721,9.831789016723633,3.509521484375,3.7841796875,3.90625
3.4624999,2.1966800689697266,0.3824737071990967,9.829395294189453,-0.946044921875,9.82666015625,-20.721435546875
3.4674999,2.6168625354766846,0.3776853084564209,9.741408348083496,0.9765625,28.01513671875,-30.8837890625
3.4724999000000003,2.3127987384796143,-0.05267243832349777,9.68274974822998,-1.373291015625,41.900634765625,-60.85205078125
3.4774999,1.3754688501358032,-0.4812345504760742,9.667786598205566,-0.8544921875,27.099609375,-56.365966796875
3.4824999,0.2663549482822418,-0.6332663297653198,9.542689323425293,-4.82177734375,7.781982421875,-59.87548828125
3.4874999,-0.9032126069068909,-0.7529764175415039,9.966463088989258,-14.129638671875,-4.791259765625,-46.08154296875
3.4924999000000003,-1.8608932495117188,-0.6865373253822327,9.692327499389648,-11.04736328125,-3.021240234375,-18.49365234375
3.4974999,-2.3684639930725098,-0.42018240690231323,10.04307746887207,-7.720947265625,-12.451171875,12.115478515625
3.5024999,-2.4175450801849365,0.10594342648983002,10.239401817321777,-14.22119140625,-34.210205078125,35.308837890625
3.5074999,-1.9357120990753174,-0.1215057373046875,10.053253173828125,-18.707275390625,-32.71484375,25.69580078125
3.5124999000000003,-1.0534487962722778,-0.1472434103488922,10.098742485046387,3.509521484375,-32.745361328125,41.68701171875
3.5174999000000002,0.021547814831137657,-0.9289502501487732,9.871891975402832,14.34326171875,-30.33447265625,51.849365234375
3.5224999,1.2898762226104736,-1.4472949504852295,9.612719535827637,18.218994140625,-0.457763671875,44.3115234375
3.5274999,1.7154455184936523,-0.055665191262960434,9.839570045471191,3.662109375,4.119873046875,5.584716796875
3.5324999000000004,2.138620615005493,0.4884171485900879,9.836577415466309,-1.0986328125,8.514404296875,-19.378662109375
3.5374999000000003,2.5552117824554443,0.46507367491722107,9.717466354370117,0.06103515625,26.4892578125,-32.928466796875
3.5424999,2.632424831390381,0.25917232036590576,9.624092102050781,-0.9765625,39.1845703125,-49.041748046875
3.5474999,2.3026235103607178,-0.03711012750864029,9.659406661987305,-1.739501953125,40.71044921875,-60.36376953125
3.5524999000000004,1.3766659498214722,-0.5548562407493591,9.642048835754395,-1.251220703125,26.55029296875,-54.595947265625
3.5574999000000003,0.26815059781074524,-0.702099621295929,9.531915664672852,-4.302978515625,6.9580078125,-58.258056640625
3.5624999,-0.9552865028381348,-0.8254010081291199,9.938331604003906,-14.6484375,-6.622314453125,-43.365478515625
3.5674999,-1.9081788063049316,-0.6332663297653198,9.699509620666504,-10.772705078125,-4.5166015625,-14.70947265625
3.5724999000000004,-2.4199392795562744,-0.32680854201316833,10.08437728881836,-8.758544921875,-15.13671875,15.93017578125
3.5774999000000003,-2.3948001861572266,0.0999579206109047,10.257957458496094,-16.143798828125,-35.125732421875,33.87451171875
3.5824999,-0.9481038451194763,-0.2687491476535797,10.112509727478027,5.06591796875,-34.423828125,46.112060546875
3.5874999,0.10833762586116791,-0.9672574996948242,9.857526779174805,14.58740234375,-31.31103515625,55.11474609375
3.5924999,0.8421604633331299,-1.3126211166381836,9.592967987060547,12.481689453125,-13.397216796875,49.713134765625
3.5974999000000003,1.2988544702529907,-1.382651448249817,9.588777542114258,18.06640625,1.312255859375,46.32568359375
3.6024999,1.4305355548858643,-1.0432734489440918,9.640851974487305,15.44189453125,6.4697265625,39.215087890625
3.6074999,1.535880446434021,-0.5566518902778625,9.697115898132324,12.63427734375,7.781982421875,25.604248046875
3.6124999,1.7938556671142578,-0.07661445438861847,9.819219589233398,3.692626953125,4.791259765625,4.119873046875
3.6174999000000003,2.2433669567108154,0.39145198464393616,9.814431190490723,-1.068115234375,10.3759765625,-21.331787109375
3.6224999,2.6360161304473877,0.38486793637275696,9.710882186889648,0.54931640625,28.778076171875,-33.660888671875
3.6274999,2.6797101497650146,0.23283611238002777,9.652822494506836,-0.67138671875,40.22216796875,-50.201416015625
3.6324999,2.2918496131896973,-0.018555063754320145,9.692925453186035,-2.532958984375,40.52734375,-61.8896484375
3.6374999000000003,-2.4875755310058594,-0.41718965768814087,10.052654266357422,-8.819580078125,-15.9912109375,16.357421875
3.6424999000000002,-2.451063871383667,-0.05267243832349777,10.215459823608398,-16.29638671875,-35.5224609375,34.881591796875
3.6474999,-1.8908207416534424,-0.24660277366638184,10.070611000061035,-18.890380859375,-31.982421875,27.130126953125
3.6524999,-0.9349357485771179,-0.38905778527259827,10.089165687561035,6.011962890625,-35.125732421875,46.9970703125
3.6574999000000004,0.1604115068912506,-1.0223240852355957,9.832986831665039,15.0146484375,-30.181884765625,54.3212890625
3.6624999000000003,0.9074024558067322,-1.3096283674240112,9.604938507080078,13.946533203125,-12.51220703125,49.86572265625
3.6674999,1.3479355573654175,-1.3293805122375488,9.604340553283691,18.06640625,1.15966796875,45.654296875
3.6724999,1.446696400642395,-0.9654618501663208,9.655815124511719,15.9912109375,6.805419921875,38.26904296875
3.6774999000000004,1.5280991792678833,-0.4692635238170624,9.723451614379883,12.420654296875,7.99560546875,24.444580078125
3.6824999000000003,2.63362193107605,0.2603694200515747,9.651026725769043,-0.946044921875,40.252685546875,-52.276611328125
3.6874999,2.2020668983459473,-0.0520738884806633,9.671976089477539,-2.8076171875,40.252685546875,-60.6689453125
3.6924999,1.2078747749328613,-0.5680243372917175,9.666589736938477,-1.708984375,24.90234375,-58.380126953125
3.6974999000000004,0.08619125932455063,-0.5542576909065247,9.641449928283691,-5.31005859375,3.47900390625,-61.553955078125
3.7024999000000003,-1.1803414821624756,-0.8098387122154236,9.910798072814941,-16.082763671875,-6.866455078125,-41.839599609375
3.7074999,-2.032078742980957,-0.4866214990615845,9.724050521850586,-10.31494140625,-5.37109375,-11.016845703125
3.7124999,-2.5091233253479004,-0.2867056429386139,10.089764595031738,-9.246826171875,-20.477294921875,21.728515625
3.7174999,-2.3983914852142334,-0.19033902883529663,10.196306228637695,-17.578125,-36.651611328125,33.447265625
3.7224999000000003,-1.7836803197860718,-0.3100491166114807,10.047266960144043,-16.9677734375,-31.43310546875,27.9541015625
3.7274999,-0.8164227604866028,-0.6931213736534119,10.09934139251709,9.82666015625,-36.651611328125,50.9033203125
3.7324999,0.9157821536064148,-1.260547161102295,9.592369079589844,14.007568359375,-11.505126953125,53.03955078125
3.7374999,1.324592113494873,-1.1480196714401245,9.592369079589844,17.39501953125,1.983642578125,49.072265625
3.7424999000000003,1.446696400642395,-0.7511807680130005,9.641449928283691,15.625,7.781982421875,40.8935546875
3.7474999,1.5963339805603027,-0.27413609623908997,9.724648475646973,10.43701171875,7.75146484375,25.93994140625
3.7524999,1.9333178997039795,0.13108254969120026,9.831789016723633,1.46484375,3.997802734375,1.190185546875
3.7574999,2.425924777984619,0.5039794445037842,9.799467086791992,-1.495361328125,12.87841796875,-25.634765625
3.7624999000000003,2.7521347999572754,0.29388827085494995,9.692327499389648,0.67138671875,31.6162109375,-36.590576171875
3.7674999000000002,2.7269957065582275,0.16101007163524628,9.6803560256958,-0.213623046875,41.595458984375,-52.093505859375
3.7724999,2.166752576828003,-0.15263035893440247,9.706692695617676,-2.655029296875,40.6494140625,-59.112548828125
3.7774999,1.092953085899353,-0.6278793811798096,9.695918083190918,-2.410888671875,23.37646484375,-58.89892578125
3.7824999000000004,-0.031124621629714966,-0.524330198764801,9.73781681060791,-6.4697265625,1.708984375,-61.4013671875
3.7874999000000003,-1.2791022062301636,-0.7655459642410278,9.961674690246582,-16.021728515625,-5.126953125,-38.787841796875
3.7924999,-2.433706045150757,-0.24779987335205078,10.128670692443848,-8.30078125,-20.3857421875,22.15576171875
3.7974999,-2.2661118507385254,-0.22744916379451752,10.171167373657227,-17.547607421875,-35.614013671875,34.332275390625
3.8024999000000004,-1.6262614727020264,-0.37888240814208984,9.965864181518555,-17.120361328125,-31.158447265625,30.059814453125
3.8074999000000003,-0.6314706802368164,-0.8271966576576233,10.020332336425781,10.284423828125,-35.58349609375,49.224853515625
3.8124999,0.39564183354377747,-1.2689268589019775,9.636661529541016,14.739990234375,-26.0009765625,53.28369140625
3.8174999,1.0642226934432983,-1.4083890914916992,9.518747329711914,16.448974609375,-11.53564453125,49.530029296875
3.8224999000000004,1.4215573072433472,-1.3066356182098389,9.561842918395996,18.768310546875,2.62451171875,43.853759765625
3.8274999000000003,1.4778209924697876,-0.8547300100326538,9.664793968200684,16.66259765625,9.033203125,33.782958984375
3.8324999,1.5843629837036133,-0.2992752194404602,9.77672290802002,10.07080078125,7.32421875,18.280029296875
3.8374999,1.9297266006469727,0.17298106849193573,9.869498252868652,1.220703125,4.974365234375,-5.706787109375
3.8424999,2.433706045150757,0.596754789352417,9.858723640441895,-0.457763671875,18.585205078125,-28.167724609375
3.8474999000000003,2.713827610015869,0.3860650360584259,9.699509620666504,1.556396484375,34.881591796875,-38.26904296875
3.8524999,2.0033483505249023,-0.10654197633266449,9.706093788146973,-3.326416015625,38.665771484375,-64.75830078125
3.8574999,0.9002198576927185,-0.7218518257141113,9.604340553283691,-2.74658203125,19.134521484375,-64.453125
3.8624999,-0.25318682193756104,-0.608127236366272,9.77791976928711,-7.568359375,-1.922607421875,-62.896728515625
3.8674999000000003,-1.5185223817825317,-0.8954314589500427,9.849745750427246,-16.082763671875,-5.43212890625,-36.19384765625
3.8724999,-2.236783027648926,-0.40043023228645325,9.805453300476074,-9.521484375,-7.26318359375,-6.622314453125
3.8774999,-2.6180596351623535,-0.011971008032560349,10.128071784973145,-9.21630859375,-24.505615234375,28.045654296875
3.8824999,-2.390610456466675,-0.13706804811954498,10.120888710021973,-19.287109375,-37.4755859375,33.14208984375
3.8874999000000003,-1.6723499298095703,-0.24181437492370605,10.000580787658691,-11.505126953125,-32.470703125,33.0810546875
3.8924999000000002,-0.646434485912323,-0.9020155072212219,10.040084838867188,13.97705078125,-35.858154296875,52.490234375
3.8974999,0.3627215623855591,-1.3186066150665283,9.690531730651855,12.847900390625,-24.4140625,52.978515625
3.9024999,1.0211269855499268,-1.367687702178955,9.63187313079834,14.95361328125,-8.453369140625,49.560546875
3.9074999000000004,1.3880383968353271,-1.128267526626587,9.670180320739746,17.2119140625,3.997802734375,45.074462890625
3.9124999000000003,2.7664999961853027,0.3280056416988373,9.624092102050781,-1.068115234375,34.0576171875,-40.985107421875
3.9174999,2.6587610244750977,0.1711854189634323,9.665990829467773,-1.129150390625,42.6025390625,-55.877685546875
3.9224999,1.9039889574050903,-0.30885201692581177,9.658807754516602,-1.8310546875,37.445068359375,-57.92236328125
3.9274999000000004,0.7703344225883484,-0.9056068062782288,9.591172218322754,-2.44140625,16.204833984375,-57.55615234375
3.9324999000000003,-0.4189853072166443,-0.7032967209815979,9.822811126708984,-8.575439453125,-2.74658203125,-53.64990234375
3.9374999,-1.63344407081604,-0.8942343592643738,9.837775230407715,-14.434814453125,-5.126953125,-25.634765625
3.9424999,-2.2242133617401123,-0.25917232036590576,9.883264541625977,-8.9111328125,-8.514404296875,2.01416015625
3.9474999000000004,-2.472611904144287,0.2064998894929886,10.177152633666992,-12.0849609375,-27.557373046875,31.1279296875
3.9524999000000003,-2.0685901641845703,0.06763619929552078,10.141240119934082,-19.83642578125,-34.36279296875,28.167724609375
3.9574999,1.4233529567718506,-0.7799112200737,9.651625633239746,13.73291015625,7.6904296875,30.82275390625
3.9624999,1.624465823173523,-0.23343466222286224,9.778518676757812,6.34765625,4.5166015625,13.641357421875
3.9674999000000004,2.029684543609619,0.243011474609375,9.80904483795166,-0.640869140625,5.67626953125,-13.61083984375
3.9724999000000003,2.5025393962860107,0.47405192255973816,9.815628051757812,-0.244140625,21.942138671875,-29.937744140625
3.9774999,2.690484046936035,0.22086510062217712,9.644442558288574,0.823974609375,36.834716796875,-40.252685546875
3.9824999,2.5109190940856934,0.050876785069704056,9.697115898132324,0.06103515625,42.999267578125,-57.92236328125
3.9874999,1.710058569908142,-0.3381809890270233,9.679757118225098,-1.46484375,34.881591796875,-59.50927734375
3.9924999000000003,-0.4728548228740692,-0.6045359373092651,9.86351203918457,-9.21630859375,-2.86865234375,-54.8095703125
3.9974999,-1.5945383310317993,-0.9097966551780701,9.819818496704102,-13.7939453125,-3.35693359375,-26.519775390625
4.0024999,-2.1338322162628174,-0.2801215946674347,9.88625717163086,-8.331298828125,-6.7138671875,1.28173828125
4.0074999,-2.4157495498657227,0.12449848651885986,10.168174743652344,-10.467529296875,-27.679443359375,33.50830078125
4.0124999,-2.079364061355591,-0.03531447425484657,10.058639526367188,-18.890380859375,-35.430908203125,30.487060546875
4.0174999,-1.3527239561080933,-0.15442600846290588,10.012551307678223,-5.126953125,-30.914306640625,35.308837890625
4.022499900000001,-0.3292027413845062,-0.8762778043746948,9.965266227722168,15.472412109375,-32.501220703125,51.666259765625
4.0274999000000005,0.586579442024231,-1.301847219467163,9.65222454071045,11.16943359375,-19.59228515625,48.52294921875
4.0324999,0.586579442024231,-1.301847219467163,9.65222454071045,11.16943359375,-19.59228515625,48.52294921875
4.0374999,1.1665748357772827,-1.4024035930633545,9.634865760803223,15.7470703125,-4.486083984375,43.975830078125
4.0424999,1.4425065517425537,-1.1563993692398071,9.671976089477539,16.387939453125,6.04248046875,37.994384765625
4.0474999,1.4724340438842773,-0.6955155730247498,9.709086418151855,13.48876953125,7.080078125,27.252197265625
4.0524999,2.43011474609375,0.5512649416923523,9.78869342803955,-0.30517578125,22.247314453125,-30.609130859375
4.0574999,2.43011474609375,0.5512649416923523,9.78869342803955,-0.30517578125,22.247314453125,-30.609130859375
4.062499900000001,2.5707740783691406,0.31124621629714966,9.623494148254395,-0.732421875,35.797119140625,-42.78564453125
4.0674999000000005,2.3546974658966064,0.10115502029657364,9.693524360656738,-0.946044921875,40.771484375,-60.24169921875
4.0724999,1.5454572439193726,-0.414795458316803,9.651026725769043,-1.52587890625,30.517578125,-58.685302734375
4.0774999,0.4812345504760742,-1.0079588890075684,9.55825138092041,-3.0517578125,9.613037109375,-57.708740234375
4.0824999,-1.768117904663086,-0.9295487999916077,9.762357711791992,-11.65771484375,-5.7373046875,-18.24951171875
4.0874999,-1.768117904663086,-0.9295487999916077,9.762357711791992,-11.65771484375,-5.7373046875,-18.24951171875
4.0924999,-2.31758713722229,-0.1951274424791336,9.975440979003906,-8.575439453125,-11.53564453125,9.33837890625
4.0974999,-2.469619035720825,0.3842693865299225,10.249577522277832,-14.556884765625,-31.73828125,33.87451171875
4.1024999,-1.9925743341445923,0.22445641458034515,10.135852813720703,-19.622802734375,-33.447265625,24.871826171875
4.1074999000000005,-1.183334231376648,0.08379705995321274,10.134655952453613,-0.518798828125,-31.1279296875,38.726806640625
4.1124999,1.4514847993850708,-1.2234370708465576,9.624092102050781,15.228271484375,6.7138671875,41.961669921875
4.1174999,1.5520412921905518,-0.7667431235313416,9.661202430725098,12.725830078125,7.598876953125,30.120849609375
4.1224999,1.7932571172714233,-0.2849099934101105,9.765948295593262,5.096435546875,5.126953125,9.58251953125
4.1274999,2.184709072113037,0.22744916379451752,9.787496566772461,-0.946044921875,7.4462890625,-17.27294921875
4.1324999,2.585139274597168,0.3860650360584259,9.767744064331055,0.274658203125,24.017333984375,-30.120849609375
4.1374999,2.6599581241607666,0.18734627962112427,9.641449928283691,-0.335693359375,37.628173828125,-42.877197265625
4.1424999,2.3696610927581787,0.0071826050989329815,9.71926212310791,-0.6103515625,42.05322265625,-59.967041015625
4.147499900000001,1.4915876388549805,-0.4423287510871887,9.690531730651855,-0.885009765625,30.33447265625,-57.31201171875
4.1524999000000005,0.4291606545448303,-0.8918401598930359,9.557653427124023,-3.204345703125,10.1318359375,-57.4951171875
4.1574999,-0.7128735780715942,-0.7380126714706421,9.906009674072266,-11.505126953125,-4.425048828125,-48.492431640625
4.1624999,-1.1761516332626343,-0.06224924325942993,10.056844711303711,-1.007080078125,-30.731201171875,37.4755859375
4.1674999,-1.1761516332626343,-0.06224924325942993,10.056844711303711,-1.007080078125,-30.731201171875,37.4755859375
4.1724999,-0.12330138683319092,-0.8337807655334473,9.914389610290527,14.556884765625,-31.55517578125,51.26953125
4.1774999,0.7254431247711182,-1.294066071510315,9.609128952026367,10.55908203125,-17.333984375,46.875
4.1824999,1.27191960811615,-1.4945803880691528,9.604340553283691,17.547607421875,-2.410888671875,43.304443359375
4.187499900000001,1.4742296934127808,-1.2342109680175781,9.640851974487305,15.7470703125,6.683349609375,36.773681640625
4.1924999000000005,1.5412673950195312,-0.7745242714881897,9.678560256958008,13.092041015625,7.659912109375,24.871826171875
4.1974999,1.7393875122070312,-0.2388216257095337,9.809642791748047,4.791259765625,5.462646484375,5.67626953125
4.2024999,2.123058319091797,0.32022446393966675,9.812037467956543,-0.54931640625,9.21630859375,-18.280029296875
4.2074999,2.516305923461914,0.48602294921875,9.778518676757812,0.885009765625,25.604248046875,-30.303955078125
4.2124999,-2.4636335372924805,-0.29209262132644653,10.002376556396484,-8.148193359375,-13.0615234375,12.02392578125
4.2174999,-2.5701754093170166,0.35254621505737305,10.242993354797363,-15.350341796875,-33.721923828125,35.33935546875
4.2224999,-2.0685901641845703,0.14365209639072418,10.11669921875,-18.951416015625,-33.50830078125,24.84130859375
4.2274999,-1.22642982006073,0.03890577703714371,10.1568021774292,3.11279296875,-33.14208984375,42.510986328125
4.2324999000000005,-0.16579847037792206,-0.8104372620582581,9.949105262756348,14.068603515625,-33.477783203125,54.962158203125
4.2374999,0.657806932926178,-1.2653355598449707,9.64564037322998,9.429931640625,-16.387939453125,50.445556640625
4.2424999,1.2168530225753784,-1.4089876413345337,9.624092102050781,16.2353515625,-0.54931640625,47.91259765625
4.2474999,1.4814122915267944,-1.1234791278839111,9.661202430725098,14.16015625,5.889892578125,42.144775390625
4.2524999,1.6490063667297363,-0.6745663285255432,9.66958236694336,12.26806640625,8.11767578125,29.815673828125
4.2574999,1.8962076902389526,-0.22385786473751068,9.806650161743164,4.547119140625,5.889892578125,8.4228515625
4.2624999,2.293046712875366,0.28550854325294495,9.793481826782227,-1.03759765625,7.415771484375,-17.974853515625
4.2674999,2.6611552238464355,0.3794809579849243,9.743802070617676,0.152587890625,24.749755859375,-31.67724609375
4.272499900000001,2.697666883468628,0.2214636504650116,9.635464668273926,-0.885009765625,38.299560546875,-46.295166015625
4.2774999000000005,2.369062662124634,0.002394201699644327,9.697115898132324,-1.5869140625,41.717529296875,-60.638427734375
4.2824999,1.456871747970581,-0.47644615173339844,9.657012939453125,-1.03759765625,29.1748046875,-56.15234375
4.2874999,0.36332011222839355,-0.862511157989502,9.541492462158203,-2.960205078125,9.21630859375,-58.197021484375
4.2924999,-0.8343793153762817,-0.839766263961792,9.883264541625977,-12.359619140625,-6.072998046875,-46.112060546875
4.2974999,-1.8082208633422852,-0.8361749649047852,9.68694019317627,-10.711669921875,-4.608154296875,-17.059326171875
4.3024999,-2.321777105331421,-0.35434186458587646,9.988609313964844,-8.1787109375,-11.871337890625,11.932373046875
4.3074999,-2.3989901542663574,0.22086510062217712,10.20767879486084,-14.83154296875,-32.40966796875,34.3017578125
4.312499900000001,-1.920149803161621,0.0586579404771328,10.074202537536621,-18.218994140625,-32.3486328125,26.214599609375
4.3174999000000005,-1.083974838256836,-0.03292027488350868,10.11430549621582,1.953125,-32.318115234375,41.595458984375
4.3224999,1.456871747970581,-1.1893197298049927,9.652822494506836,15.045166015625,6.16455078125,38.177490234375
4.3274999,1.557428240776062,-0.7164648771286011,9.68155288696289,12.542724609375,7.99560546875,25.20751953125
4.3324999,1.7872716188430786,-0.20290859043598175,9.806650161743164,3.90625,4.7607421875,4.791259765625
4.3374999,2.20924973487854,0.3280056416988373,9.78869342803955,-0.640869140625,9.552001953125,-19.256591796875
4.3424999,2.5983073711395264,0.43275195360183716,9.750985145568848,0.8544921875,26.85546875,-31.55517578125
4.3474999,2.648585557937622,0.2795230448246002,9.637260437011719,-0.54931640625,39.031982421875,-48.583984375
4.352499900000001,2.3235726356506348,0.0628477931022644,9.708487510681152,-2.197265625,40.95458984375,-63.53759765625
4.3574999000000005,0.3172317147254944,-0.6979097723960876,9.544485092163086,-3.631591796875,7.568359375,-61.46240234375
4.3624999,-0.8954314589500427,-0.8451532125473022,9.904213905334473,-14.16015625,-6.89697265625,-47.943115234375
4.3674999,-1.8692729473114014,-0.7559691667556763,9.692327499389648,-10.68115234375,-4.364013671875,-17.27294921875
4.3724999,-2.408566951751709,-0.414795458316803,10.012551307678223,-8.30078125,-13.458251953125,13.24462890625
4.3774999,-2.4660277366638184,0.15442600846290588,10.24000072479248,-15.472412109375,-34.1796875,35.2783203125
4.3824999,-1.9698294401168823,-0.03292027488350868,10.062231063842773,-19.04296875,-33.3251953125,27.923583984375
4.3874999,-1.0899603366851807,-0.10115502029657364,10.107721328735352,3.41796875,-33.966064453125,43.9453125
4.3924999,-0.02214636653661728,-0.910993754863739,9.882067680358887,14.556884765625,-30.670166015625,52.520751953125
4.397499900000001,0.7589619159698486,-1.335964560508728,9.59835433959961,12.26806640625,-14.892578125,49.49951171875
4.4024999000000005,1.2407950162887573,-1.489791989326477,9.607333183288574,18.096923828125,-0.79345703125,46.44775390625
4.4074999,1.4101848602294922,-1.1540051698684692,9.640253067016602,15.716552734375,6.011962890625,38.9404296875
4.4124999,1.523909330368042,-0.6332663297653198,9.679757118225098,12.0849609375,7.568359375,25.390625
4.4174999,2.235585927963257,0.47584760189056396,9.82879638671875,-1.251220703125,8.6669921875,-20.32470703125
4.4224999,2.609081268310547,0.4297592043876648,9.731232643127441,-0.30517578125,27.03857421875,-34.912109375
4.4274999,2.6653449535369873,0.272938996553421,9.673771858215332,-0.579833984375,39.398193359375,-50.78125
4.4324999,2.2852654457092285,-0.05985504388809204,9.665990829467773,-1.89208984375,40.924072265625,-59.967041015625
4.437499900000001,1.324592113494873,-0.5973533391952515,9.651625633239746,-1.40380859375,27.313232421875,-55.572509765625
4.4424999000000005,0.2148796021938324,-0.7781155705451965,9.532513618469238,-3.997802734375,5.4931640625,-59.051513671875
4.4474999,-1.0115501880645752,-0.8942343592643738,9.944915771484375,-14.46533203125,-7.568359375,-41.412353515625
4.4524999,-1.911171555519104,-0.679354727268219,9.691129684448242,-10.43701171875,-4.39453125,-10.345458984375
4.4574999,-2.3756465911865234,-0.353743314743042,10.09934139251709,-8.209228515625,-16.05224609375,18.035888671875
4.4624999,-2.337938070297241,0.07182604819536209,10.216058731079102,-15.380859375,-34.027099609375,33.721923828125
4.4674999,-1.7932571172714233,-0.11432313174009323,10.049661636352539,-18.37158203125,-31.219482421875,27.496337890625
4.4724999,-0.9151836037635803,-0.31124621629714966,10.095749855041504,7.354736328125,-34.7900390625,47.18017578125
4.477499900000001,0.8200140595436096,-1.2384008169174194,9.638457298278809,11.688232421875,-12.8173828125,49.560546875
4.4824999000000005,1.6089035272598267,-0.4620809257030487,9.68274974822998,10.955810546875,8.148193359375,22.918701171875
4.4874999,1.8914192914962769,-0.005985504016280174,9.802460670471191,1.89208984375,3.692626953125,0.18310546875
4.4924999,2.3295583724975586,0.48602294921875,9.801861763000488,-1.0986328125,12.5732421875,-24.627685546875
4.4974999,2.625242233276367,0.36332011222839355,9.710882186889648,0.579833984375,30.303955078125,-35.0341796875
4.5024999,2.607285737991333,0.23822307586669922,9.684545516967773,0.030517578125,39.73388671875,-52.30712890625
4.5074999,2.1086931228637695,-0.10175357013940811,9.696516990661621,-2.349853515625,39.703369140625,-61.6455078125
4.5124999,1.1073182821273804,-0.6171054840087891,9.678560256958008,-2.044677734375,23.74267578125,-58.624267578125
4.5174999,0.03651157766580582,-0.558447539806366,9.533112525939941,-4.852294921875,2.5634765625,-61.4013671875
4.522499900000001,-1.1354501247406006,-0.8535329103469849,9.954492568969727,-15.68603515625,-6.622314453125,-40.4052734375
4.5274999000000005,-2.3535003662109375,-0.39384618401527405,10.126276016235352,-7.50732421875,-17.120361328125,20.294189453125
4.5324999,-2.2870612144470215,-0.12689268589019775,10.214861869812012,-15.777587890625,-34.85107421875,35.21728515625
4.5374999,-1.7268179655075073,-0.3298012912273407,10.050858497619629,-17.608642578125,-31.8603515625,30.21240234375
4.5424999,-0.801459014415741,-0.5608417391777039,10.087369918823242,9.033203125,-34.088134765625,47.42431640625
4.5474999,0.25079262256622314,-1.1300631761550903,9.765948295593262,14.373779296875,-25.299072265625,50.323486328125
4.5524999,0.9409212470054626,-1.3509283065795898,9.607333183288574,14.2822265625,-10.955810546875,47.576904296875
4.5574999,1.3736732006072998,-1.313219666481018,9.602544784545898,18.98193359375,2.38037109375,43.0908203125
4.562499900000001,1.86508309841156,0.15921440720558167,9.841365814208984,1.007080078125,4.180908203125,-4.7607421875
4.5674999000000005,2.3259668350219727,0.6859387755393982,9.850942611694336,-0.823974609375,15.960693359375,-27.130126953125
4.5724999,2.5534160137176514,0.4531026780605316,9.704896926879883,0.579833984375,31.890869140625,-37.9638671875
4.5774999,1.923741102218628,-0.13587094843387604,9.686341285705566,-3.326416015625,37.29248046875,-62.957763671875
4.5824999,0.884058952331543,-0.7613561153411865,9.615114212036133,-2.9296875,18.310546875,-60.36376953125
4.5874999,-0.23104046285152435,-0.6470330357551575,9.610325813293457,-5.615234375,-1.800537109375,-59.50927734375
4.5924999,-1.4371196031570435,-0.8930372595787048,9.897629737854004,-16.845703125,-7.843017578125,-32.958984375
4.5974999,-2.1535844802856445,-0.37648820877075195,9.706692695617676,-9.796142578125,-6.4697265625,-0.42724609375
4.602499900000001,-2.476801633834839,-0.011971008032560349,10.20648193359375,-9.063720703125,-24.261474609375,27.099609375
4.6074999000000005,-2.273893117904663,-0.1777694821357727,10.220248222351074,-18.00537109375,-36.102294921875,31.158447265625
4.6124999,-1.5765818357467651,-0.24420857429504395,10.06582260131836,-12.908935546875,-31.341552734375,32.470703125
4.6174999,-0.6320692300796509,-0.9038111567497253,10.098742485046387,14.678955078125,-36.529541015625,55.2978515625
4.6224999,0.3274070918560028,-1.2868833541870117,9.685144424438477,13.18359375,-24.139404296875,55.5419921875
4.6274999,0.9594763517379761,-1.2773065567016602,9.619303703308105,13.885498046875,-7.293701171875,52.093505859375
4.6324999,1.3838485479354858,-1.0797849893569946,9.605537414550781,17.242431640625,5.4931640625,47.332763671875
4.6374999,1.5556325912475586,-0.6248866319656372,9.660603523254395,14.46533203125,9.1552734375,36.346435546875
4.6424999,1.800439715385437,-0.2214636504650116,9.700706481933594,-3.448486328125,35.64453125,-61.431884765625
4.647499900000001,1.800439715385437,-0.2214636504650116,9.700706481933594,-3.448486328125,35.64453125,-61.431884765625
4.6524999000000005,0.6757634282112122,-0.7775170207023621,9.609726905822754,-4.0283203125,15.228271484375,-60.821533203125
4.6574999,-0.4213795065879822,-0.6434416770935059,9.82879638671875,-6.622314453125,-2.349853515625,-57.281494140625
4.6624999,-1.601720929145813,-0.9103952050209045,9.876082420349121,-16.204833984375,-5.859375,-28.167724609375
4.6674999,-2.1362264156341553,-0.42616790533065796,9.807847023010254,-10.040283203125,-6.40869140625,0.18310546875
4.6724999,-2.428318977355957,-0.018555063754320145,10.149619102478027,-8.331298828125,-25.421142578125,30.609130859375
4.6774999,-1.400607943534851,-0.24121582508087158,9.936535835266113,-10.589599609375,-30.792236328125,33.782958984375
4.6824999,-1.400607943534851,-0.24121582508087158,9.936535835266113,-10.589599609375,-30.792236328125,33.782958984375
4.687499900000001,-0.40282443165779114,-0.9421183466911316,9.979631423950195,15.350341796875,-34.24072265625,52.42919921875
4.6924999000000005,0.5345055460929871,-1.3563152551651,9.575610160827637,13.00048828125,-21.05712890625,51.1474609375
4.6974999,1.1288660764694214,-1.4053963422775269,9.5408935546875,17.791748046875,-5.7373046875,48.52294921875
4.7024999,1.4562731981277466,-1.2234370708465576,9.59476375579834,18.157958984375,7.781982421875,41.778564453125
4.7074999,1.5418659448623657,-0.6745663285255432,9.66419506072998,14.739990234375,9.1552734375,29.4189453125
4.7124999,1.755548357963562,-0.10594342648983002,9.786299705505371,6.011962890625,6.378173828125,10.43701171875
4.7174999,2.1529858112335205,0.38486793637275696,9.837176322937012,-1.068115234375,7.843017578125,-16.265869140625
4.7224999,2.557007312774658,0.5997475385665894,9.814431190490723,1.007080078125,24.5361328125,-30.609130859375
4.727499900000001,2.695871114730835,0.32202014327049255,9.658807754516602,2.410888671875,37.078857421875,-43.27392578125
4.7324999000000005,2.4361002445220947,0.15981295704841614,9.710882186889648,-2.105712890625,41.44287109375,-64.117431640625
4.7374999,0.46746787428855896,-0.8517372608184814,9.549273490905762,-5.43212890625,10.43701171875,-64.88037109375
4.7424999,-0.657806932926178,-0.6458359360694885,9.910199165344238,-8.6669921875,-5.7373046875,-56.060791015625
4.7474999,-1.8375498056411743,-1.0887632369995117,9.767146110534668,-16.29638671875,-6.622314453125,-24.200439453125
4.7524999,-2.318784236907959,-0.4100070297718048,9.898228645324707,-8.9111328125,-9.368896484375,5.615234375
4.7574999,-2.5564088821411133,0.05925649031996727,10.183736801147461,-9.6435546875,-29.72412109375,35.186767578125
4.7624999,-2.123656988143921,0.017956512048840523,10.011953353881836,-20.01953125,-36.31591796875,29.78515625
4.7674999,-1.3275848627090454,-0.031124621629714966,9.998785018920898,-3.35693359375,-32.5927734375,39.73388671875
4.772499900000001,-0.3148375153541565,-0.8182184100151062,9.925163269042969,16.632080078125,-34.271240234375,55.419921875
4.7774999000000005,0.5464765429496765,-1.3317747116088867,9.593565940856934,11.41357421875,-18.6767578125,50.933837890625
4.7824999,1.1037269830703735,-1.4867992401123047,9.586981773376465,17.486572265625,-1.64794921875,49.4384765625
4.7874999,1.4179660081863403,-1.245583415031433,9.639654159545898,16.143798828125,6.988525390625,42.633056640625
4.7924999,1.5831658840179443,-0.6560112833976746,9.668384552001953,12.420654296875,7.354736328125,29.876708984375
4.7974999,2.744353771209717,0.24181437492370605,9.62947940826416,1.190185546875,37.90283203125,-47.119140625
4.8024999,2.744353771209717,0.24181437492370605,9.62947940826416,1.190185546875,37.90283203125,-47.119140625
4.8074999,2.3732523918151855,0.06464344263076782,9.704896926879883,-2.86865234375,40.863037109375,-62.3779296875
4.812499900000001,1.4024035930633545,-0.363918662071228,9.689932823181152,-2.99072265625,27.923583984375,-57.4951171875
4.8174999000000005,0.24899697303771973,-0.8798691034317017,9.584588050842285,-6.195068359375,8.1787109375,-60.150146484375
4.8224999,-0.9127894043922424,-0.569819986820221,9.828198432922363,-10.589599609375,-6.805419921875,-46.0205078125
4.8274999,-1.9458874464035034,-1.0121487379074097,9.636063575744629,-15.228271484375,-5.706787109375,-15.228271484375
4.8324999,-2.301426410675049,-0.2944868206977844,9.748590469360352,-8.544921875,-11.3525390625,10.833740234375
4.8374999,-2.361281394958496,0.08559270948171616,10.067618370056152,-10.955810546875,-32.196044921875,35.58349609375
4.8424999,-1.8124107122421265,-0.05626374110579491,9.914987564086914,-20.111083984375,-32.71484375,28.350830078125
4.8474999,-0.9672574996948242,-0.1693897694349289,9.999382972717285,1.007080078125,-33.14208984375,44.036865234375
4.852499900000001,1.557428240776062,-0.5644330382347107,9.707290649414062,11.444091796875,7.6904296875,25.115966796875
4.8574999000000005,1.9087773561477661,-0.002992752008140087,9.84495735168457,1.77001953125,5.096435546875,0.152587890625
4.8624999,2.3499090671539307,0.4668693244457245,9.828198432922363,-0.9765625,13.12255859375,-22.918701171875
4.8674999,2.716820478439331,0.37888240814208984,9.727641105651855,3.2958984375,30.487060546875,-31.982421875
4.8724999,2.6797101497650146,0.20769700407981873,9.651026725769043,2.227783203125,39.764404296875,-52.459716796875
4.8774999,2.186504602432251,0.028131870552897453,9.712079048156738,-4.8828125,38.604736328125,-67.19970703125
4.8824999,1.1941081285476685,-0.3232172429561615,9.683348655700684,-4.913330078125,24.078369140625,-62.469482421875
4.8874999,0.11552023142576218,-0.6212953329086304,9.571419715881348,-6.744384765625,5.18798828125,-64.5751953125
4.8924999,-1.095347285270691,-0.7056909799575806,9.980229377746582,-15.68603515625,-7.87353515625,-43.64013671875
4.897499900000001,-1.8034324645996094,-0.1107318252325058,9.91738224029541,-19.6533203125,-33.477783203125,31.67724609375
4.9024999000000005,-0.8565256595611572,-0.2795230448246002,10.010157585144043,6.317138671875,-34.0576171875,47.332763671875
4.9074999,0.16579847037792206,-1.149815320968628,9.722254753112793,16.54052734375,-28.045654296875,52.91748046875
4.9124999,0.8248024582862854,-1.5526398420333862,9.515754699707031,18.402099609375,-10.009765625,52.581787109375
4.9174999,1.247977614402771,-1.590348482131958,9.580398559570312,21.514892578125,4.608154296875,49.285888671875
4.9224999,1.3946224451065063,-0.9900023937225342,9.668384552001953,15.228271484375,7.75146484375,36.2548828125
4.9274999,1.6531962156295776,-0.23702596127986908,9.775525093078613,7.2021484375,6.378173828125,17.059326171875
4.9324999,2.05123233795166,0.28072014451026917,9.871294021606445,-1.007080078125,5.18798828125,-8.270263671875
4.937499900000001,2.5324668884277344,0.5805938839912415,9.834183692932129,1.495361328125,18.85986328125,-25.665283203125
4.9424999000000005,2.7263972759246826,0.2346317619085312,9.676764488220215,5.67626953125,32.806396484375,-36.407470703125
4.9474999,-0.3274070918560028,-0.12988543510437012,9.528923034667969,-6.988525390625,-1.678466796875,-58.7158203125
4.9524999,-1.5454572439193726,-0.7523778676986694,9.821015357971191,-18.402099609375,-8.941650390625,-28.656005859375
4.9574999,-2.2206220626831055,-0.29628247022628784,9.503185272216797,-12.0849609375,-7.01904296875,-1.129150390625
4.9624999,-2.5270798206329346,-0.29628247022628784,10.109517097473145,-6.7138671875,-24.35302734375,26.397705078125
4.9674999,-2.2361843585968018,-0.2579752206802368,10.157401084899902,-17.913818359375,-37.261962890625,37.506103515625
4.9724999,-1.4514847993850708,-0.39624038338661194,10.028712272644043,-15.106201171875,-33.14208984375,37.9638671875
4.977499900000001,-0.45489832758903503,-0.9133879542350769,10.088567733764648,14.373779296875,-37.65869140625,56.33544921875
4.9824999000000005,0.4489128291606903,-1.512536883354187,9.637260437011719,17.242431640625,-22.857666015625,57.80029296875
4.9874999,0.9828197956085205,-1.601720929145813,9.537900924682617,21.91162109375,-1.5869140625,59.417724609375
4.9924999,1.303044319152832,-1.358709454536438,9.582193374633789,20.294189453125,8.97216796875,52.032470703125
4.9974999,1.912368655204773,0.05267243832349777,9.797672271728516,3.021240234375,6.378173828125,7.354736328125
5.0024999,2.42472767829895,0.43335050344467163,9.823410034179688,-1.190185546875,10.19287109375,-18.24951171875
5.0074999,2.8443117141723633,0.383670836687088,9.767146110534668,5.279541015625,27.984619140625,-30.09033203125
5.0124999,2.853289842605591,0.06404489278793335,9.627683639526367,6.256103515625,37.384033203125,-47.821044921875
5.0174999,2.433706045150757,0.076015904545784,9.700108528137207,-4.2724609375,38.665771484375,-69.580078125
5.022499900000001,1.4850035905838013,-0.10953472554683685,9.709086418151855,-8.1787109375,30.853271484375,-70.281982421875
5.0274999000000005,0.3423708379268646,-0.4141969084739685,9.613917350769043,-7.9345703125,10.040283203125,-69.427490234375
5.0324999,-0.8391677141189575,-0.44532153010368347,9.960477828979492,-11.566162109375,-8.11767578125,-51.513671875
5.0374999,-1.988384485244751,-0.9672574996948242,9.724050521850586,-17.730712890625,-6.77490234375,-19.989013671875
5.0424999,-2.5743653774261475,-0.20470423996448517,10.087968826293945,-9.82666015625,-31.585693359375,36.651611328125
5.0474999,-1.9853917360305786,-0.27234044671058655,9.960477828979492,-21.392822265625,-37.53662109375,36.7431640625
5.0524999,-1.0881646871566772,-0.28730419278144836,9.917980194091797,-3.0517578125,-34.881591796875,47.4853515625
5.0574999,-0.03950432687997818,-1.1504138708114624,9.856329917907715,18.73779296875,-33.5693359375,57.12890625
5.062499900000001,0.7080851793289185,-1.5598224401474,9.479243278503418,18.1884765625,-13.3056640625,56.396484375
5.0674999000000005,1.1881226301193237,-1.5939397811889648,9.53969669342041,22.8271484375,3.84521484375,56.21337890625
5.0724999,1.4616601467132568,-1.104325532913208,9.620500564575195,17.88330078125,10.43701171875,42.144775390625
5.0774999,1.7597382068634033,-0.304063618183136,9.731831550598145,8.209228515625,9.33837890625,20.111083984375
5.0824999,2.1811177730560303,0.19452889263629913,9.839570045471191,-0.152587890625,6.53076171875,-7.080078125
5.0874999,2.6449942588806152,0.44771572947502136,9.813833236694336,2.410888671875,19.989013671875,-25.87890625
5.0924999,2.846705913543701,0.18076223134994507,9.70310115814209,8.23974609375,33.87451171875,-35.64453125
5.0974999,2.6617536544799805,0.10295066982507706,9.651625633239746,3.35693359375,37.59765625,-60.211181640625
5.102499900000001,2.02848744392395,0.06823474913835526,9.713874816894531,-8.23974609375,35.70556640625,-75.408935546875
5.1074999000000005,0.9965864419937134,-0.12330138683319092,9.643844604492188,-8.056640625,22.491455078125,-73.760986328125
5.1124999,-1.4508862495422363,-0.6703764796257019,9.922170639038086,-17.486572265625,-10.467529296875,-36.468505859375
5.1174999,-2.3133974075317383,-0.6159083843231201,9.572616577148438,-11.993408203125,-9.21630859375,-5.889892578125
5.1224999,-2.6839001178741455,-0.3758896589279175,10.131064414978027,-6.072998046875,-21.759033203125,21.728515625
5.1274999,-2.517503023147583,-0.08200141042470932,10.125677108764648,-17.730712890625,-37.41455078125,38.87939453125
5.1324999,-1.766920804977417,-0.21847090125083923,10.014945983886719,-17.2119140625,-35.430908203125,37.41455078125
5.1374999,-0.7882909178733826,-0.6572083830833435,10.08318042755127,13.641357421875,-38.482666015625,56.915283203125
5.1424999,0.18734627962112427,-1.3563152551651,9.70310115814209,16.78466796875,-25.054931640625,57.12890625
5.147499900000001,0.8553285598754883,-1.5179238319396973,9.596558570861816,18.5546875,-4.241943359375,57.373046875
5.1524999000000005,1.357512354850769,-1.3449428081512451,9.609726905822754,19.805908203125,8.36181640625,53.192138671875
5.1574999,1.6753426790237427,-0.6380547285079956,9.696516990661621,12.6953125,10.3759765625,39.093017578125
5.1624999,2.0703859329223633,-0.011372458189725876,9.786299705505371,4.608154296875,7.781982421875,13.458251953125
5.1674999,2.515108823776245,0.32860419154167175,9.821015357971191,-0.67138671875,7.9345703125,-15.19775390625
5.1724999,0.5321113467216492,-0.2663549482822418,9.627683639526367,-8.11767578125,13.73291015625,-67.352294921875
5.1774999,-0.7092822790145874,-0.09457096457481384,9.686341285705566,-7.843017578125,-6.195068359375,-55.23681640625
5.1824999,-1.900996208190918,-0.7649474143981934,9.809642791748047,-19.561767578125,-9.368896484375,-22.674560546875
