# Time (seconds),Accel_X,Accel_Y,Accel_Z,Gyro_X,Gyro_Y,Gyro_Z
0.0024999,0.7858967185020447,-0.4207809567451477,9.790489196777344,-6.622314453125,0.732421875,0.274658203125
0.0074999,0.7858967185020447,-0.4207809567451477,9.790489196777344,-6.622314453125,0.732421875,0.274658203125
0.012499900000000001,0.6997054219245911,-0.3926490843296051,9.720458984375,2.99072265625,0.30517578125,-2.44140625
0.0174999,0.8176198601722717,-0.35733461380004883,9.896432876586914,3.570556640625,-0.79345703125,1.708984375
0.0224999,0.8427590131759644,-0.3776853084564209,9.787496566772461,-6.16455078125,0.42724609375,-0.396728515625
0.0274999,0.7841010689735413,-0.40043023228645325,9.664793968200684,3.662109375,-0.457763671875,-1.983642578125
0.0324999,0.922366201877594,-0.3968389332294464,9.797073364257812,2.38037109375,-0.18310546875,1.89208984375
0.0374999,0.8140285611152649,-0.4728548228740692,9.678560256958008,-6.195068359375,0.30517578125,-1.15966796875
0.0424999,0.7595604658126831,-0.4297592043876648,9.677363395690918,4.913330078125,-0.213623046875,-1.678466796875
0.0474999,0.8289923667907715,-0.37409400939941406,9.82640266418457,1.03759765625,-0.6103515625,2.288818359375
0.0524999,0.7811083197593689,-0.365115761756897,9.694721221923828,-5.645751953125,-0.091552734375,-1.495361328125
0.0574999,0.7757213711738586,-0.36332011222839355,9.715071678161621,5.584716796875,-0.48828125,-1.40380859375
0.0624999,0.8696937561035156,-0.35075053572654724,9.804854393005371,-0.3662109375,0.152587890625,2.38037109375
0.0674999,0.8571242094039917,-0.3860650360584259,9.676166534423828,-5.18798828125,0.6103515625,-1.556396484375
0.0724999,0.8457517623901367,-0.45429977774620056,9.716269493103027,6.317138671875,-0.701904296875,-1.373291015625
0.0774999,0.9421183466911316,-0.44592007994651794,9.807847023010254,-0.9765625,-0.18310546875,2.197265625
0.0824999,0.7972691655158997,-0.46627077460289,9.746196746826172,-3.84521484375,0.42724609375,-2.288818359375
0.0874999,0.7511807680130005,-0.4381389021873474,9.836577415466309,6.439208984375,-0.946044921875,-0.3662109375
0.0924999,0.8271966576576233,-0.3818751573562622,9.906607627868652,-3.0517578125,0.48828125,1.953125
0.0974999,0.7876923680305481,-0.4339490532875061,9.763554573059082,-3.448486328125,0.762939453125,-2.3193359375
0.1024999,0.7870938181877136,-0.4315548539161682,9.807847023010254,6.988525390625,-0.8544921875,0.1220703125
0.1074999,0.8906430602073669,-0.4878185987472534,9.870695114135742,-3.509521484375,0.1220703125,1.708984375
0.1124999,0.8595184087753296,-0.5596446394920349,9.718064308166504,-2.62451171875,0.42724609375,-2.44140625
0.1174999,0.8445546627044678,-0.5452794432640076,9.788095474243164,6.4697265625,-0.274658203125,0.274658203125
0.1224999,0.921169102191925,-0.5716156363487244,9.859322547912598,-4.57763671875,0.518798828125,1.5869140625
0.1274999,0.8439561128616333,-0.5746083855628967,9.722254753112793,-1.251220703125,0.42724609375,-2.838134765625
0.1324999,0.7966706156730652,-0.49619829654693604,9.813234329223633,6.28662109375,-1.007080078125,0.579833984375
0.1374999,0.7547720670700073,-0.4692635238170624,9.73661994934082,-0.885009765625,1.15966796875,-2.716064453125
0.1424999,0.7721300721168518,-0.37648820877075195,9.846753120422363,5.706787109375,-0.9765625,1.007080078125
0.1474999,0.8529343605041504,-0.4231751561164856,9.868300437927246,-5.096435546875,0.30517578125,0.823974609375
0.1524999,0.7715315222740173,-0.43694180250167847,9.717466354370117,0.396728515625,0,-2.8076171875
0.1574999,0.8421604633331299,-0.4213795065879822,9.833584785461426,5.279541015625,-0.640869140625,1.312255859375
0.1624999,0.9020155072212219,-0.4920084476470947,9.77672290802002,-6.195068359375,0.8544921875,0.701904296875
0.1674999,0.7894880175590515,-0.49320554733276367,9.652822494506836,1.434326171875,0.030517578125,-2.86865234375
0.1724999,0.8547300100326538,-0.46327802538871765,9.747393608093262,4.913330078125,-0.9765625,1.46484375
0.17749990000000002,0.8343793153762817,-0.497395396232605,9.698312759399414,-6.2255859375,0.42724609375,0.396728515625
0.1824999,0.6997054219245911,-0.4578910768032074,9.619303703308105,2.0751953125,0.1220703125,-2.62451171875
0.1874999,0.7739257216453552,-0.4124012291431427,9.765350341796875,3.90625,-0.396728515625,1.77001953125
0.1924999,0.7775170207023621,-0.39803603291511536,9.734225273132324,-6.317138671875,0.67138671875,0.1220703125
0.1974999,0.8337807655334473,-0.3256114423274994,9.809642791748047,3.173828125,-0.579833984375,1.983642578125
0.2024999,0.8655039072036743,-0.38067805767059326,9.73542308807373,-6.7138671875,1.251220703125,-0.3662109375
0.20749990000000001,0.7978677153587341,-0.4058171808719635,9.636661529541016,3.84521484375,-0.48828125,-2.197265625
0.2124999,0.9343371987342834,-0.4058171808719635,9.819818496704102,2.349853515625,-0.6103515625,1.983642578125
0.2174999,0.8846575021743774,-0.49619829654693604,9.71926212310791,-6.134033203125,0.823974609375,-0.762939453125
0.2224999,0.8092401623725891,-0.48243165016174316,9.690531730651855,4.241943359375,-0.42724609375,-1.89208984375
0.2274999,0.8906430602073669,-0.4572925269603729,9.867103576660156,1.495361328125,-0.030517578125,2.105712890625
0.2324999,0.8008604645729065,-0.46986207365989685,9.731232643127441,-5.615234375,0.579833984375,-1.068115234375
0.2374999,0.7631517648696899,-0.42018240690231323,9.724648475646973,5.4931640625,-0.79345703125,-1.678466796875
0.2424999,0.8690952062606812,-0.4279635548591614,9.66958236694336,-5.096435546875,0.67138671875,-1.922607421875
0.2474999,0.8433575630187988,-0.4752490520477295,9.720458984375,6.134033203125,-0.54931640625,-0.946044921875
0.2524999,0.9295487999916077,-0.43754035234451294,9.804854393005371,-1.220703125,-0.18310546875,2.227783203125
0.2574999,0.8439561128616333,-0.4704606235027313,9.709685325622559,-4.2724609375,0.457763671875,-2.13623046875
0.2624999,0.5135562419891357,-0.46507367491722107,9.555258750915527,6.103515625,-1.220703125,0.701904296875
0.2674999,0.3196259140968323,-0.788889467716217,9.638457298278809,6.53076171875,-7.415771484375,13.5498046875
0.2724999,-0.3363853394985199,-1.875258445739746,9.009979248046875,24.749755859375,-19.256591796875,18.096923828125
0.2774999,-0.46327802538871765,-1.5969325304031372,9.396044731140137,42.572021484375,-22.125244140625,41.259765625
0.2824999,-0.5823895931243896,-2.7736825942993164,9.08838939666748,15.56396484375,-24.871826171875,52.581787109375
0.28749990000000003,-0.4967968463897705,-1.7142484188079834,8.650250434875488,44.708251953125,-40.8935546875,58.77685546875
0.2924999,0.23283611238002777,-1.0336965322494507,8.714295387268066,20.32470703125,-54.8095703125,61.8896484375
0.2974999,1.5735890865325928,1.690904974937439,7.33703088760376,-3.11279296875,-62.8662109375,23.0712890625
0.3024999,2.234987258911133,3.075352191925049,7.784148216247559,8.514404296875,-64.605712890625,29.4189453125
0.3074999,2.3050177097320557,2.831143617630005,7.661445617675781,-25.054931640625,-54.718017578125,19.53125
0.3124999,3.3680431842803955,3.181295394897461,7.920019149780273,10.223388671875,-37.017822265625,24.139404296875
0.3174999,3.44765043258667,2.340930700302124,7.828441143035889,-24.688720703125,-5.157470703125,30.548095703125
0.3224999,4.094084739685059,1.1097124814987183,8.077438354492188,-15.5029296875,55.816650390625,-15.045166015625
0.3274999,3.7032315731048584,0.5015852451324463,8.231863975524902,-35.614013671875,82.916259765625,-19.195556640625
0.3324999,-1.7639280557632446,-1.955464243888855,10.389039993286133,6.317138671875,9.185791015625,-14.58740234375
0.3374999,-2.4211363792419434,-1.6172832250595093,10.038887977600098,7.75146484375,1.434326171875,0.732421875
0.3424999,-2.7054479122161865,-1.269525408744812,9.485827445983887,2.471923828125,-1.953125,-7.904052734375
0.34749990000000003,-2.3912088871002197,-0.667982280254364,9.661202430725098,2.960205078125,-18.035888671875,6.317138671875
0.35249990000000003,-1.7782933712005615,-0.2041056901216507,9.460687637329102,-6.317138671875,-22.125244140625,-5.0048828125
0.3574999,-0.7930793166160583,0.2106897532939911,10.064026832580566,-7.50732421875,-28.564453125,7.9345703125
0.3624999,0.08499415963888168,0.31603461503982544,9.834183692932129,-5.79833984375,-24.261474609375,-3.692626953125
0.3674999,0.08499415963888168,0.31603461503982544,9.834183692932129,-5.79833984375,-24.261474609375,-3.692626953125
0.3724999,2.2445640563964844,-0.7864952683448792,9.505578994750977,5.2490234375,0.091552734375,-6.4697265625
0.3774999,2.300827741622925,-0.961870551109314,9.746794700622559,-3.509521484375,7.38525390625,3.143310546875
0.3824999,2.0380642414093018,-0.9906009435653687,9.391256332397461,9.33837890625,10.040283203125,-7.01904296875
0.3874999,1.7639280557632446,-0.8487445116043091,9.746794700622559,-3.72314453125,12.39013671875,1.556396484375
0.3924999,1.2850877046585083,-0.6218938827514648,9.5223388671875,8.941650390625,10.8642578125,-6.7138671875
0.3974999,0.9271546006202698,-0.3974374830722809,9.940725326538086,-5.462646484375,7.6904296875,2.777099609375
0.4024999,0.33339259028434753,-0.14604631066322327,10.058639526367188,-7.2021484375,0.18310546875,4.180908203125
0.4074999,0.33339259028434753,-0.14604631066322327,10.058639526367188,-7.2021484375,0.18310546875,4.180908203125
0.41249990000000003,0.18555063009262085,-0.18315643072128296,9.73781681060791,5.279541015625,-3.631591796875,-3.875732421875
0.41749990000000003,0.2849099934101105,-0.21308395266532898,10.035895347595215,-7.62939453125,-4.180908203125,4.82177734375
0.4224999,1.128267526626587,-0.5057750940322876,9.549872398376465,2.716064453125,2.01416015625,-5.828857421875
0.4274999,1.128267526626587,-0.5057750940322876,9.549872398376465,2.716064453125,2.01416015625,-5.828857421875
0.4324999,1.1049240827560425,-0.38905778527259827,9.936535835266113,-0.79345703125,1.739501953125,4.57763671875
0.4374999,0.8708908557891846,-0.46806642413139343,9.543886184692383,0.6103515625,1.190185546875,-5.7373046875
0.4424999,0.8200140595436096,-0.3489548861980438,9.922170639038086,1.52587890625,-0.579833984375,4.8828125
0.4474999,0.7098808288574219,-0.45250412821769714,9.563039779663086,-2.777099609375,0.1220703125,-5.7373046875
0.4524999,0.7362170219421387,-0.3196259140968323,9.95329475402832,3.692626953125,-2.25830078125,5.55419921875
0.4574999,0.7511807680130005,-0.4429273009300232,9.583989143371582,-5.523681640625,-0.030517578125,-5.06591796875
0.4624999,0.9630676507949829,-0.4231751561164856,9.947309494018555,9.521484375,-0.9765625,4.33349609375
0.4674999,0.9343371987342834,-0.5608417391777039,9.61331844329834,-10.31494140625,3.326416015625,-4.82177734375
0.47249990000000003,0.9995791912078857,-0.47465047240257263,9.937732696533203,12.237548828125,-0.518798828125,3.60107421875
0.47749990000000003,0.9409212470054626,-0.568622887134552,9.679757118225098,-12.420654296875,3.570556640625,-3.90625
0.4824999,0.922366201877594,-0.43933600187301636,9.904213905334473,13.73291015625,-1.739501953125,2.13623046875
0.4874999,0.9319429993629456,-0.5105634927749634,9.727043151855469,-13.85498046875,2.3193359375,-2.38037109375
0.4924999,0.8277952671051025,-0.37888240814208984,9.851541519165039,14.068603515625,-3.2958984375,1.190185546875
0.4974999,0.8589198589324951,-0.4100070297718048,9.699509620666504,-14.0380859375,1.190185546875,-0.396728515625
0.5024999,0.7918822169303894,-0.3495534360408783,9.729436874389648,12.75634765625,-3.387451171875,-0.701904296875
0.5074999,0.8337807655334473,-0.4165911078453064,9.77133560180664,-12.0849609375,0.6103515625,1.190185546875
0.5124999,0.8439561128616333,-0.4225766062736511,9.642647743225098,10.162353515625,-2.288818359375,-2.471923828125
0.5174999,0.9181763529777527,-0.517746090888977,9.615114212036133,6.2255859375,-0.18310546875,-3.997802734375
0.5224999,1.0259153842926025,-0.5051765441894531,9.942521095275879,-3.021240234375,1.5869140625,3.814697265625
0.5274999,0.9301473498344421,-0.50876784324646,9.586383819580078,0.79345703125,1.190185546875,-5.096435546875
0.5324999,0.9391255974769592,-0.35673606395721436,9.907805442810059,2.685546875,0.3662109375,4.486083984375
0.5374999,0.851138710975647,-0.4387374520301819,9.530119895935059,-4.974365234375,1.64794921875,-5.218505859375
0.5424999,0.8547300100326538,-0.31184476613998413,9.884461402893066,7.87353515625,-1.312255859375,4.150390625
0.5474999,0.7966706156730652,-0.4626794755458832,9.570222854614258,-9.979248046875,1.251220703125,-4.058837890625
0.5524999,0.823006808757782,-0.4034229815006256,9.904812812805176,11.627197265625,-2.62451171875,2.99072265625
0.5574999,0.8738836050033569,-0.5297171473503113,9.701904296875,-12.908935546875,1.15966796875,-2.349853515625
0.5624999,0.8876502513885498,-0.4489128291606903,9.64683723449707,6.134033203125,-0.30517578125,-3.84521484375
0.5674999000000001,0.9714473485946655,-0.42616790533065796,9.955090522766113,-2.471923828125,0.6103515625,3.631591796875
0.5724999000000001,0.862511157989502,-0.43933600187301636,9.591172218322754,-0.67138671875,0.701904296875,-4.669189453125
0.5774999000000001,0.8942343592643738,-0.3250128924846649,9.905410766601562,4.730224609375,-0.518798828125,4.302978515625
0.5824999,0.8140285611152649,-0.42018240690231323,9.592967987060547,-7.62939453125,1.678466796875,-4.21142578125
0.5874999,0.8427590131759644,-0.3561375141143799,9.890447616577148,10.31494140625,-1.64794921875,3.11279296875
0.5924999,0.8732850551605225,-0.4854243993759155,9.684545516967773,-11.8408203125,1.708984375,-2.410888671875
0.5974999,0.8505401611328125,-0.44173020124435425,9.824606895446777,12.451171875,-2.105712890625,0.9765625
0.6024999,0.9355342984199524,-0.517746090888977,9.783905029296875,-11.71875,1.678466796875,0.1220703125
0.6074999,0.861314058303833,-0.45010992884635925,9.696516990661621,10.009765625,-1.40380859375,-1.922607421875
0.6124999,0.9493009448051453,-0.4902127981185913,9.931747436523438,-7.110595703125,0.701904296875,2.716064453125
0.6174999,0.8547300100326538,-0.4794389009475708,9.638457298278809,3.72314453125,-0.1220703125,-3.936767578125
0.6224999,0.8325836658477783,-0.48063600063323975,9.603741645812988,-4.547119140625,1.068115234375,-4.669189453125
0.6274999,0.8846575021743774,-0.3447650372982025,9.877877235412598,8.270263671875,-1.373291015625,3.326416015625
0.6324999,0.8948329091072083,-0.48901569843292236,9.646238327026367,-10.43701171875,2.044677734375,-2.960205078125
0.6374999,0.884058952331543,-0.395043283700943,9.827000617980957,11.871337890625,-1.64794921875,1.312255859375
0.6424999,0.9498994946479797,-0.5093663930892944,9.782708168029785,-11.688232421875,1.739501953125,-0.30517578125
0.6474999,0.8523358106613159,-0.4297592043876648,9.728240013122559,10.009765625,-1.52587890625,-1.953125
0.6524999,0.9367313981056213,-0.47884035110473633,9.935338973999023,-6.591796875,0.396728515625,2.50244140625
0.6574999,0.8505401611328125,-0.46746787428855896,9.64564037322998,2.99072265625,-0.3662109375,-4.0283203125
0.6624999,0.9199720025062561,-0.39564183354377747,9.952696800231934,1.8310546875,-0.579833984375,3.753662109375
0.6674999,0.8289923667907715,-0.46627077460289,9.636063575744629,-5.767822265625,1.251220703125,-4.058837890625
0.6724999,0.8391677141189575,-0.3627215623855591,9.880870819091797,9.185791015625,-1.556396484375,2.74658203125
0.6774999,0.8463503122329712,-0.4411316514015198,9.651625633239746,-11.260986328125,1.678466796875,-2.105712890625
0.6824999,0.9355342984199524,-0.44173020124435425,9.9371337890625,-2.25830078125,-0.091552734375,3.326416015625
0.6874999,0.8313865661621094,-0.47644615173339844,9.597756385803223,-2.3193359375,0.732421875,-4.119873046875
0.6924999000000001,0.900818407535553,-0.36152446269989014,9.893440246582031,6.500244140625,-1.28173828125,3.2958984375
0.6974999000000001,0.9115923047065735,-0.4728548228740692,9.637859344482422,-9.796142578125,1.373291015625,-2.685546875
0.7024999000000001,0.8972271084785461,-0.39564183354377747,9.771934509277344,11.23046875,-1.46484375,0.701904296875
0.7074999,0.9648633003234863,-0.4794389009475708,9.807249069213867,-10.25390625,1.40380859375,0.42724609375
0.7124999,0.8427590131759644,-0.4734533727169037,9.683348655700684,7.6904296875,-0.48828125,-2.50244140625
0.7174999,0.900818407535553,-0.4578910768032074,9.944316864013672,-3.5400390625,0.48828125,3.11279296875
0.7224999,0.7906851172447205,-0.48961424827575684,9.582792282104492,-1.15966796875,0.640869140625,-3.997802734375
0.7274999,0.8738836050033569,-0.3992331326007843,9.880870819091797,5.79833984375,-1.251220703125,3.23486328125
0.7324999,0.9032126069068909,-0.4213795065879822,9.960477828979492,-2.5634765625,-0.152587890625,3.082275390625
0.7374999,0.7990648150444031,-0.47225627303123474,9.637260437011719,-2.3193359375,0.762939453125,-3.936767578125
0.7424999,0.8798691034317017,-0.3800795078277588,9.91738224029541,7.080078125,-1.190185546875,2.899169921875
0.7474999,0.8972271084785461,-0.444722980260849,9.64923095703125,-9.82666015625,1.678466796875,-2.0751953125
0.7524999,0.8900445103645325,-0.3884592354297638,9.745597839355469,10.406494140625,-1.46484375,-0.213623046875
0.7574999,1.016338586807251,-0.47644615173339844,9.818621635437012,-8.392333984375,1.220703125,1.40380859375
0.7624999,0.8780734539031982,-0.47225627303123474,9.644442558288574,4.730224609375,-0.3662109375,-3.326416015625
0.7674999,0.9564836025238037,-0.4507084786891937,9.953893661499023,0.640869140625,-0.6103515625,3.326416015625
0.7724999,0.8457517623901367,-0.3968389332294464,9.894637107849121,8.941650390625,-1.434326171875,1.89208984375
0.7774999,0.8744821548461914,-0.4644751250743866,9.734225273132324,-10.3759765625,1.617431640625,-0.67138671875
0.7824999,0.8092401623725891,-0.42676645517349243,9.716867446899414,9.063720703125,-1.251220703125,-1.434326171875
0.7874999,0.9062053561210632,-0.4668693244457245,9.862914085388184,-5.06591796875,0.18310546875,2.716064453125
0.7924999,0.8086416125297546,-0.47644615173339844,9.583391189575195,0.091552734375,0.18310546875,-3.875732421875
0.7974999,0.9127894043922424,-0.424970805644989,9.8784761428833,5.340576171875,-1.28173828125,2.99072265625
0.8024999,1.0079588890075684,-0.46088382601737976,9.844358444213867,-8.209228515625,0.946044921875,1.312255859375
0.8074999,0.8601169586181641,-0.4668693244457245,9.692327499389648,4.33349609375,-0.48828125,-3.265380859375
0.8124999,0.9427168965339661,-0.43035775423049927,9.970054626464844,0.9765625,-0.518798828125,3.173828125
0.8174999000000001,0.8649053573608398,-0.518943190574646,9.707290649414062,-5.828857421875,1.28173828125,-3.143310546875
0.8224999000000001,0.7799112200737,-0.4471171796321869,9.694122314453125,7.354736328125,-0.885009765625,-2.5634765625
0.8274999000000001,0.8661024570465088,-0.406415730714798,9.90241813659668,-2.38037109375,0.152587890625,3.021240234375
0.8324999000000001,0.7960720658302307,-0.4596867263317108,9.596558570861816,-2.960205078125,0.762939453125,-3.60107421875
0.8374999,0.851138710975647,-0.4082113802433014,9.858723640441895,7.720947265625,-1.52587890625,1.922607421875
0.8424999,0.8924387097358704,-0.45669397711753845,9.66539192199707,-9.6435546875,1.52587890625,-0.8544921875
0.8474999,0.8667010068893433,-0.4423287510871887,9.680954933166504,8.6669921875,-1.3427734375,-1.434326171875
0.8524999,0.9642647504806519,-0.4578910768032074,9.824007987976074,-4.638671875,0.335693359375,2.685546875
0.8574999,0.8517372608184814,-0.4794389009475708,9.59177017211914,-0.885009765625,0.54931640625,-3.84521484375
0.8624999,0.912190854549408,-0.424970805644989,9.894637107849121,5.889892578125,-1.15966796875,2.532958984375
0.8674999,0.8720879554748535,-0.4381389021873474,9.655217170715332,-8.819580078125,1.40380859375,-1.312255859375
0.8724999,0.849941611289978,-0.38726213574409485,9.72165584564209,9.185791015625,-1.373291015625,-0.79345703125
0.8774999,0.8529343605041504,-0.4728548228740692,9.608530044555664,1.007080078125,0.030517578125,-3.60107421875
0.8824999,0.9582792520523071,-0.4465186297893524,9.911396026611328,4.791259765625,-0.885009765625,2.655029296875
0.8874999,0.900818407535553,-0.47824180126190186,9.643844604492188,-8.36181640625,1.190185546875,-1.800537109375
0.8924999,0.8667010068893433,-0.40880993008613586,9.747992515563965,9.429931640625,-1.495361328125,-0.579833984375
0.8974999,0.9469067454338074,-0.4291606545448303,9.820416450500488,-6.28662109375,0.91552734375,2.105712890625
0.9024999,0.8212111592292786,-0.4626794755458832,9.645041465759277,1.373291015625,-0.030517578125,-3.509521484375
0.9074999,0.9283517003059387,-0.4183867573738098,9.931747436523438,4.364013671875,-0.8544921875,2.50244140625
0.9124999,0.8792705535888672,-0.4423287510871887,9.656414031982422,-8.1787109375,1.28173828125,-1.739501953125
0.9174999,0.8547300100326538,-0.3758896589279175,9.751583099365234,9.063720703125,-1.312255859375,-0.457763671875
0.9224999,0.9427168965339661,-0.4106055796146393,9.822212219238281,-6.378173828125,0.8544921875,1.77001953125
0.9274999,0.821809709072113,-0.46806642413139343,9.64923095703125,1.3427734375,-0.091552734375,-3.662109375
0.9324999,0.933738648891449,-0.4297592043876648,9.922768592834473,4.425048828125,-0.762939453125,2.74658203125
0.9374999,0.8655039072036743,-0.3974374830722809,9.731831550598145,8.941650390625,-1.556396484375,-0.8544921875
0.9424999000000001,0.9487023949623108,-0.43754035234451294,9.82640266418457,-5.828857421875,0.54931640625,2.0751953125
0.9474999000000001,0.8236053586006165,-0.47884035110473633,9.67077922821045,0.579833984375,0.3662109375,-3.47900390625
0.9524999000000001,0.9139865040779114,-0.4489128291606903,9.970054626464844,5.18798828125,-0.9765625,2.593994140625
0.9574999000000001,0.8667010068893433,-0.46148237586021423,9.707889556884766,-8.514404296875,1.220703125,-1.3427734375
0.9624999,0.9295487999916077,-0.41718965768814087,9.820416450500488,-4.730224609375,0.762939453125,2.349853515625
0.9674999,0.8367735147476196,-0.4710591733455658,9.651026725769043,-0.885009765625,0.244140625,-3.326416015625
0.9724999,0.8367735147476196,-0.4710591733455658,9.651026725769043,-0.885009765625,0.244140625,-3.326416015625
0.9774999,0.8990227580070496,-0.4620809257030487,9.94970417022705,6.072998046875,-1.251220703125,2.044677734375
0.9824999,0.8984242081642151,-0.5183446407318115,9.815628051757812,-8.4228515625,1.220703125,-0.8544921875
0.9874999,0.8463503122329712,-0.4596867263317108,9.79288387298584,7.415771484375,-0.8544921875,-1.64794921875
0.9924999,0.8918401598930359,-0.46327802538871765,9.660005569458008,-2.593994140625,0.885009765625,-3.41796875
0.9974999,0.9026140570640564,-0.38486793637275696,9.877877235412598,7.232666015625,-0.9765625,1.617431640625
1.0024999,0.9528923034667969,-0.4465186297893524,9.783905029296875,-8.575439453125,1.129150390625,-0.06103515625
1.0074999000000002,0.8583213090896606,-0.43993455171585083,9.691728591918945,6.134033203125,-0.701904296875,-2.38037109375
1.0124999000000001,0.9463081955909729,-0.383670836687088,9.871294021606445,-0.579833984375,0.030517578125,2.838134765625
1.0174999000000002,0.9014169573783875,-0.47644615173339844,9.616311073303223,-4.852294921875,0.91552734375,-2.960205078125
1.0224999000000001,0.8786720037460327,-0.40043023228645325,9.781511306762695,8.4228515625,-1.251220703125,0.54931640625
1.0274999,0.9720458984375,-0.5147533416748047,9.801262855529785,-7.75146484375,1.068115234375,1.28173828125
1.0324999000000001,0.8074445128440857,-0.5009866952896118,9.685144424438477,3.84521484375,-0.54931640625,-2.99072265625
1.0374999,0.9127894043922424,-0.4291606545448303,9.906607627868652,2.227783203125,-0.457763671875,2.74658203125
1.0424999000000001,0.9056068062782288,-0.4010287821292877,9.838373184204102,7.720947265625,-1.068115234375,0.9765625
1.0474999,1.0001777410507202,-0.49619829654693604,9.79527759552002,-7.720947265625,1.03759765625,0.518798828125
1.0524999000000002,0.8481459617614746,-0.44532153010368347,9.690531730651855,4.39453125,-0.6103515625,-2.960205078125
1.0574999,0.9433154463768005,-0.3728969097137451,9.872490882873535,1.64794921875,-0.335693359375,2.716064453125
1.0624999000000002,0.8750807046890259,-0.38965633511543274,9.626486778259277,-6.53076171875,1.03759765625,-2.01416015625
1.0674999,0.829590916633606,-0.3190273642539978,9.740211486816406,8.148193359375,-1.007080078125,-0.457763671875
1.0724999000000002,0.8032546639442444,-0.46806642413139343,9.707889556884766,-0.030517578125,-0.030517578125,-3.173828125
1.0774999,0.871489405632019,-0.4644751250743866,9.956287384033203,5.584716796875,-0.91552734375,1.953125
1.0824999000000002,0.8834604024887085,-0.52552729845047,9.862914085388184,-7.8125,1.03759765625,-0.30517578125
1.0874999,0.8122329115867615,-0.47225627303123474,9.768342971801758,6.378173828125,-1.068115234375,-2.044677734375
1.0924999000000002,0.9319429993629456,-0.45908817648887634,9.884461402893066,-0.9765625,-0.030517578125,2.593994140625
1.0974999,0.9026140570640564,-0.4926069974899292,9.618705749511719,-4.69970703125,0.67138671875,-2.655029296875
1.1024999000000002,0.8810662031173706,-0.43754035234451294,9.731232643127441,7.904052734375,-0.9765625,0.396728515625
1.1074999,0.982221245765686,-0.48482584953308105,9.783905029296875,-6.40869140625,0.885009765625,1.190185546875
1.1124999000000002,0.8188169598579407,-0.4878185987472534,9.653421401977539,1.861572265625,-0.18310546875,-3.265380859375
1.1174999,0.8912416100502014,-0.4183867573738098,9.907206535339355,3.997802734375,-0.54931640625,2.288818359375
1.1224999000000002,0.8637082576751709,-0.46088382601737976,9.718064308166504,-7.38525390625,1.40380859375,-1.068115234375
1.1274999,0.8110358119010925,-0.37828385829925537,9.728838920593262,6.77490234375,-0.946044921875,-1.708984375
1.1324999000000002,0.8990227580070496,-0.4620809257030487,9.633668899536133,-3.23486328125,0.48828125,-2.86865234375
1.1374999000000001,0.8888474106788635,-0.4165911078453064,9.79288387298584,7.50732421875,-1.068115234375,0.885009765625
1.1424999000000002,0.9977835416793823,-0.507570743560791,9.835979461669922,-7.01904296875,0.9765625,1.068115234375
1.1474999000000001,0.8343793153762817,-0.4854243993759155,9.686341285705566,2.777099609375,-0.30517578125,-3.173828125
1.1524999000000002,0.9181763529777527,-0.4279635548591614,9.925163269042969,3.23486328125,-0.67138671875,2.62451171875
1.1574999000000001,0.8583213090896606,-0.4531026780605316,9.676764488220215,-7.26318359375,1.129150390625,-1.03759765625
1.1624999,0.8080430626869202,-0.3794809579849243,9.707889556884766,6.927490234375,-0.9765625,-1.64794921875
1.1674999000000001,0.9020155072212219,-0.39205053448677063,9.783307075500488,-2.685546875,0.274658203125,2.471923828125
1.1724999,0.8834604024887085,-0.46507367491722107,9.625887870788574,-3.204345703125,0.518798828125,-2.777099609375
1.1774999000000002,0.8804676532745361,-0.42197805643081665,9.79647445678711,7.476806640625,-1.007080078125,0.732421875
1.1824999,0.9965864419937134,-0.5033808946609497,9.84615421295166,-6.591796875,0.885009765625,1.068115234375
1.1874999000000002,0.839766263961792,-0.4800374507904053,9.711481094360352,2.410888671875,-0.152587890625,-2.8076171875
1.1924999,0.8637082576751709,-0.47465047240257263,9.73661994934082,-7.171630859375,0.9765625,-1.0986328125
1.1974999000000002,0.7852981686592102,-0.41120412945747375,9.739612579345703,6.7138671875,-1.03759765625,-1.739501953125
1.2024999,0.8804676532745361,-0.45908817648887634,9.625887870788574,-3.7841796875,0.6103515625,-2.593994140625
1.2074999000000002,0.8858546018600464,-0.41958385705947876,9.75397777557373,7.50732421875,-1.190185546875,0.335693359375
1.2124999,0.9923965930938721,-0.46088382601737976,9.820416450500488,-6.011962890625,0.9765625,1.312255859375
1.2174999000000002,0.8481459617614746,-0.4602852761745453,9.709685325622559,1.220703125,-0.06103515625,-2.8076171875
1.2224999,0.8906430602073669,-0.42616790533065796,9.938929557800293,4.364013671875,-0.48828125,1.922607421875
1.2274999000000002,0.8792705535888672,-0.48722004890441895,9.830592155456543,-7.354736328125,1.15966796875,-0.732421875
1.2324999,0.7906851172447205,-0.4423287510871887,9.747393608093262,5.92041015625,-1.129150390625,-2.25830078125
1.2374999000000002,0.9097966551780701,-0.4225766062736511,9.841964721679688,-0.335693359375,0.030517578125,2.62451171875
1.2424999,0.8888474106788635,-0.42377370595932007,9.566631317138672,-5.2490234375,0.8544921875,-2.105712890625
1.2474999000000002,0.8672995567321777,-0.46148237586021423,9.672574996948242,-0.579833984375,-0.091552734375,-3.021240234375
1.2524999,0.8906430602073669,-0.4596867263317108,9.898228645324707,6.134033203125,-1.007080078125,1.220703125
1.2574999000000002,0.9540894031524658,-0.5524620413780212,9.877279281616211,-7.110595703125,0.79345703125,0.1220703125
1.2624999000000001,0.8080430626869202,-0.49978959560394287,9.768941879272461,4.33349609375,-0.54931640625,-2.74658203125
1.2674999000000002,0.9277531504631042,-0.46148237586021423,9.916783332824707,2.25830078125,-0.518798828125,2.38037109375
1.2724999000000001,0.8505401611328125,-0.43095630407333374,9.667187690734863,-6.744384765625,1.373291015625,-1.373291015625
1.2774999000000002,0.8242039084434509,-0.3800795078277588,9.712677955627441,6.866455078125,-1.129150390625,-1.220703125
1.2824999000000001,0.8930372595787048,-0.424970805644989,9.65222454071045,-3.448486328125,0.79345703125,-2.62451171875
1.2874999,0.8637082576751709,-0.6380547285079956,9.083600997924805,6.103515625,-1.434326171875,1.373291015625
1.2924999000000001,0.4638765752315521,-1.4640543460845947,7.837419033050537,-34.423828125,-4.974365234375,42.6025390625
1.2974999,-0.9151836037635803,-0.8846575021743774,-0.39624038338661194,348.388671875,216.766357421875,502.197265625
1.3024999000000002,-0.7380126714706421,1.125873327255249,-2.45285964012146,246.795654296875,155.059814453125,304.62646484375
1.3074999,0.5770025849342346,2.472611904144287,-5.899911403656006,359.771728515625,-25.115966796875,275.054931640625
1.3124999000000002,1.8908207416534424,4.58848762512207,-8.11634349822998,235.83984375,-140.106201171875,105.89599609375
1.3174999,3.3016040325164795,6.102221488952637,-9.379284858703613,357.635498046875,-254.974365234375,31.036376953125
1.3224999000000002,3.993528366088867,7.738059997558594,-8.60655689239502,379.974365234375,-324.737548828125,-62.1337890625
1.3274999,4.151545524597168,8.02416706085205,-6.101024627685547,318.84765625,-347.442626953125,-152.4658203125
1.3324999000000002,4.093486309051514,7.498041152954102,-2.7527334690093994,272.94921875,-373.4130859375,-204.1015625
1.3374999,4.170699596405029,6.689399719238281,1.449090600013733,222.503662109375,-357.147216796875,-197.8759765625
1.3424999000000002,4.185663223266602,5.318718910217285,4.26826286315918,54.290771484375,-226.654052734375,-170.135498046875
1.3474999,4.885368347167969,5.275623321533203,6.675034523010254,65.948486328125,4.69970703125,8.941650390625
1.3524999000000002,4.879383087158203,6.115988254547119,6.0220160484313965,27.9541015625,29.205322265625,39.12353515625
1.3574999,3.9187095165252686,6.021417140960693,4.3640313148498535,-36.285400390625,19.317626953125,12.14599609375
1.3624999000000002,2.851494312286377,5.395333766937256,3.716399669647217,-101.9287109375,3.72314453125,-0.823974609375
1.3674999,1.9297266006469727,4.461595058441162,3.2824504375457764,-166.351318359375,-9.09423828125,-3.082275390625
1.3724999000000002,1.8183962106704712,4.156333923339844,3.6379895210266113,-218.8720703125,-3.5400390625,0.213623046875
1.3774999,1.9033904075622559,4.5842976570129395,4.620210647583008,-199.40185546875,59.722900390625,33.99658203125
1.3824999000000002,2.3367409706115723,4.879383087158203,5.3127336502075195,-163.51318359375,134.307861328125,59.87548828125
1.3874999000000001,2.589329242706299,5.54437255859375,6.1088056564331055,-206.60400390625,145.20263671875,32.3486328125
1.3924999000000002,2.5025393962860107,4.684255599975586,6.036381244659424,-244.384765625,153.01513671875,19.134521484375
1.3974999000000001,2.5779566764831543,4.001309394836426,5.918466567993164,-268.463134765625,164.459228515625,0.396728515625
1.4024999000000002,2.7222073078155518,3.642179250717163,5.808931827545166,-297.36328125,171.630859375,-5.18798828125
1.4074999000000001,3.691859006881714,-3.043030261993408,13.058574676513672,140.472412109375,53.131103515625,-149.261474609375
1.4124999,2.6342203617095947,-5.027225017547607,12.858658790588379,72.967529296875,-8.819580078125,-128.7841796875
1.4174999000000001,1.2246341705322266,-5.524620532989502,10.414777755737305,31.280517578125,-53.131103515625,-125.54931640625
1.4224999,0.021547814831137657,-4.597465991973877,7.038354396820068,-18.9208984375,-90.51513671875,-114.227294921875
1.4274999000000002,-0.5285200476646423,-3.2812533378601074,4.174889087677002,-30.70068359375,-103.485107421875,-101.86767578125
1.4324999,-0.9091981053352356,-1.7585411071777344,2.8586769104003906,-35.858154296875,-79.04052734375,-87.40234375
1.4374999000000002,-0.8571242094039917,-1.1635819673538208,3.024475336074829,-93.536376953125,32.440185546875,-64.39208984375
1.4424999,-0.761954665184021,-0.9828197956085205,5.584475517272949,-39.398193359375,122.74169921875,-46.7529296875
1.4474999000000002,-0.9050082564353943,-1.5747861862182617,8.44434928894043,21.087646484375,118.7744140625,-41.595458984375
1.4524999,-1.5041571855545044,-2.978985548019409,12.77725601196289,17.181396484375,-21.1181640625,-28.13720703125
1.4574999000000002,-1.8237831592559814,-2.959233283996582,12.6766996383667,7.4462890625,-22.52197265625,-6.53076171875
1.4624999,-1.9381062984466553,-2.3936030864715576,11.66574764251709,-6.591796875,-19.53125,-3.23486328125
1.4674999000000002,-1.5610195398330688,-1.3078327178955078,10.695497512817383,-18.585205078125,-20.08056640625,13.824462890625
1.4724999,-0.8152256608009338,-0.24001872539520264,9.877877235412598,-6.103515625,-25.7568359375,20.599365234375
1.4774999000000002,0.04908113554120064,0.6236895322799683,9.455899238586426,1.617431640625,-28.289794921875,3.41796875
1.4824999,0.9894038438796997,1.004966139793396,9.422979354858398,-9.58251953125,-24.444580078125,-2.960205078125
1.4874999000000002,1.7483657598495483,0.9463081955909729,9.304466247558594,-4.486083984375,-10.68115234375,6.744384765625
1.4924999,2.209848165512085,0.5530605912208557,9.287108421325684,2.105712890625,-1.220703125,-0.06103515625
1.4974999000000002,2.469619035720825,0.07481880486011505,9.528324127197266,-5.0048828125,3.90625,-8.087158203125
1.5024999,2.432508945465088,-0.40222588181495667,9.576807022094727,1.129150390625,8.636474609375,0.91552734375
1.5074999000000002,2.1296424865722656,-0.6260837316513062,9.64564037322998,6.256103515625,8.23974609375,-3.692626953125
1.5124999000000001,1.3293805122375488,-0.5452794432640076,9.818022727966309,1.861572265625,13.092041015625,5.584716796875
1.5174999000000002,0.8732850551605225,-0.3274070918560028,9.780912399291992,5.950927734375,2.716064453125,-0.701904296875
1.5224999000000001,0.23163901269435883,0.016160860657691956,9.797672271728516,4.180908203125,-7.32421875,-0.54931640625
1.5274999000000002,0.31543606519699097,0.0077811554074287415,9.9401273727417,-6.134033203125,-3.997802734375,-5.035400390625
1.5324999000000001,0.5009866952896118,-0.08619125932455063,9.808445930480957,-0.30517578125,-1.556396484375,6.195068359375
1.5374999000000003,0.6542156338691711,-0.11911153793334961,9.679757118225098,3.631591796875,-8.36181640625,-2.716064453125
1.5424999000000001,0.910993754863739,-0.1430535465478897,9.810839653015137,-5.950927734375,-1.556396484375,-4.669189453125
1.5474999,1.0636241436004639,-0.19812019169330597,9.637859344482422,1.64794921875,1.739501953125,6.89697265625
1.5524999000000002,1.1234791278839111,-0.18614917993545532,9.570821762084961,3.204345703125,-4.39453125,-3.7841796875
1.5574999,1.213860273361206,-0.1843535304069519,9.764751434326172,-5.889892578125,3.387451171875,-3.7841796875
1.5624999000000002,0.9636662006378174,-0.17298106849193573,9.625288963317871,5.43212890625,3.2958984375,6.04248046875
1.5674999,0.862511157989502,-0.16759411990642548,9.780313491821289,-0.54931640625,-2.5634765625,-6.8359375
1.5724999000000002,0.8259995579719543,-0.14365209639072418,9.82640266418457,-3.265380859375,4.45556640625,2.50244140625
1.5774999,0.8259995579719543,-0.14365209639072418,9.82640266418457,-3.265380859375,4.45556640625,2.50244140625
1.5824999000000002,0.7314286231994629,-0.14664486050605774,9.729436874389648,5.55419921875,-2.38037109375,3.11279296875
1.5874999,0.7212532758712769,-0.13168109953403473,9.94970417022705,-4.21142578125,-3.72314453125,-6.744384765625
1.5924999000000002,0.8301894664764404,-0.1604115068912506,9.9772367477417,-0.91552734375,2.471923828125,5.706787109375
1.5974999,0.7817068696022034,-0.15023615956306458,9.775525093078613,4.33349609375,-5.43212890625,-1.312255859375
1.6024999000000002,0.8672995567321777,-0.14185644686222076,9.776124000549316,3.84521484375,-2.99072265625,-1.983642578125
1.6074999,0.9379284977912903,-0.13766659796237946,9.9586820602417,-5.37109375,1.068115234375,-2.471923828125
1.6124999000000002,0.8248024582862854,-0.1735796183347702,9.636063575744629,4.486083984375,1.15966796875,5.7373046875
1.6174999,0.8194155097007751,-0.14604631066322327,9.764751434326172,-1.52587890625,-4.21142578125,-6.378173828125
1.6224999000000002,0.9193734526634216,-0.21667525172233582,9.804255485534668,-2.25830078125,3.143310546875,3.631591796875
1.6274999,0.8631097078323364,-0.1562216579914093,9.610923767089844,4.69970703125,-2.86865234375,-0.30517578125
1.6324999000000002,1.0085574388504028,-0.17417816817760468,9.93474006652832,-5.035400390625,-0.06103515625,-3.90625
1.6374999000000001,0.9983820915222168,-0.15322890877723694,9.573814392089844,3.84521484375,2.44140625,5.55419921875
1.6424999000000002,0.8810662031173706,-0.14664486050605774,9.658807754516602,4.69970703125,-1.77001953125,-0.06103515625
1.6474999000000001,0.9690531492233276,-0.1693897694349289,9.990405082702637,-5.035400390625,0.091552734375,-3.448486328125
1.6524999000000002,0.8750807046890259,-0.17896658182144165,9.663596153259277,3.90625,2.0751953125,5.37109375
1.6574999000000001,0.8463503122329712,-0.15322890877723694,9.86231517791748,-1.312255859375,-3.60107421875,-5.767822265625
1.6624999000000003,0.9133879542350769,-0.15801730751991272,9.88386344909668,-1.678466796875,3.021240234375,4.08935546875
1.6674999000000001,0.8307880163192749,-0.1472434103488922,9.684545516967773,3.936767578125,-3.143310546875,-1.64794921875
1.6724999,0.9660604000091553,-0.16998831927776337,9.947908401489258,-4.852294921875,0.6103515625,-1.708984375
1.6774999000000002,0.933738648891449,-0.16759411990642548,9.591172218322754,4.57763671875,1.03759765625,4.150390625
1.6824999,0.8786720037460327,-0.1604115068912506,9.688735961914062,2.197265625,-2.685546875,-4.08935546875
1.6874999000000002,0.8990227580070496,-0.12689268589019775,9.673172950744629,3.662109375,2.25830078125,4.791259765625
1.6924999,0.8990227580070496,-0.12689268589019775,9.673172950744629,3.662109375,2.25830078125,4.791259765625
1.6974999000000002,0.851138710975647,-0.1280897855758667,9.924564361572266,-1.708984375,-3.35693359375,-5.462646484375
1.7024999,0.9181763529777527,-0.11432313174009323,9.82640266418457,-0.274658203125,3.0517578125,4.547119140625
1.7074999000000002,0.7942764163017273,-0.12210428714752197,9.780313491821289,2.44140625,-3.265380859375,-3.448486328125
1.7124999,0.9487023949623108,-0.21787235140800476,9.941324234008789,-3.7841796875,1.922607421875,1.3427734375
1.7174999000000002,0.8678981065750122,-0.1735796183347702,9.586383819580078,4.21142578125,-1.129150390625,0.518798828125
1.7224999,0.993593692779541,-0.2603694200515747,9.880870819091797,-4.21142578125,-0.518798828125,-2.838134765625
1.7274999000000002,0.9780313968658447,-0.17238251864910126,9.553462982177734,3.7841796875,1.556396484375,3.814697265625
1.7324999,0.9546879529953003,-0.15502455830574036,9.82879638671875,-2.410888671875,-2.349853515625,-5.126953125
1.7374999000000002,0.9989806413650513,-0.09397241473197937,9.646238327026367,0.9765625,3.448486328125,4.608154296875
1.7424999,0.9726444482803345,-0.14425064623355865,9.833584785461426,-1.800537109375,3.35693359375,3.11279296875
1.7474999000000002,0.812831461429596,-0.1346738487482071,9.725846290588379,3.23486328125,-1.89208984375,-1.89208984375
1.7524999,0.9163807034492493,-0.24241292476654053,9.971850395202637,-3.7841796875,1.556396484375,-0.030517578125
1.7574999000000002,0.8152256608009338,-0.17058686912059784,9.597756385803223,4.21142578125,-0.1220703125,1.220703125
1.7624999000000001,0.8678981065750122,-0.13347674906253815,9.59177017211914,3.448486328125,1.617431640625,3.570556640625
1.7674999000000002,0.8732850551605225,-0.12330138683319092,9.852738380432129,-2.685546875,-2.410888671875,-4.425048828125
1.7724999000000001,0.9193734526634216,-0.0999579206109047,9.667786598205566,1.617431640625,2.62451171875,4.39453125
1.7774999000000002,0.8595184087753296,-0.09816227108240128,9.876680374145508,-0.42724609375,-3.265380859375,-4.5166015625
1.7824999000000001,0.9642647504806519,-0.14245499670505524,9.75517463684082,-0.54931640625,2.9296875,3.814697265625
1.7874999000000003,0.8738836050033569,-0.16400282084941864,9.804854393005371,1.77001953125,-2.685546875,-3.72314453125
1.7924999000000001,1.0283095836639404,-0.26575639843940735,9.862914085388184,-2.50244140625,2.3193359375,2.166748046875
1.7974999,0.9433154463768005,-0.22505496442317963,9.906607627868652,-3.753662109375,-0.335693359375,-1.556396484375
1.8024999000000002,0.8768763542175293,-0.11013327538967133,9.55585765838623,3.875732421875,1.251220703125,2.25830078125
1.8074999,0.8846575021743774,-0.11671733111143112,9.858125686645508,-3.265380859375,-1.77001953125,-2.899169921875
1.8124999000000002,0.871489405632019,-0.03172317147254944,9.55466079711914,3.173828125,2.166748046875,3.662109375
1.8174999,0.9103952050209045,-0.06883329898118973,9.882067680358887,-2.410888671875,-2.166748046875,-4.0283203125
1.8224999000000002,0.9457096457481384,-0.02693476900458336,9.701904296875,1.983642578125,2.8076171875,4.08935546875
1.8274999,0.9038111567497253,-0.08918401598930359,9.910798072814941,-1.220703125,-2.5634765625,-4.57763671875
1.8324999000000002,0.9672574996948242,-0.18974047899246216,9.785101890563965,0.823974609375,2.532958984375,4.058837890625
1.8374999,0.8451532125473022,-0.16639702022075653,9.86889934539795,0.06103515625,-2.74658203125,-4.33349609375
1.8424999000000002,0.9965864419937134,-0.20231004059314728,9.821015357971191,-1.708984375,1.8310546875,2.471923828125
1.8474999,0.8810662031173706,-0.11611878126859665,9.783905029296875,2.349853515625,-1.0986328125,-2.62451171875
1.8524999000000002,1.0109516382217407,-0.19871874153614044,9.92097282409668,-2.50244140625,1.52587890625,1.861572265625
1.8574999,0.8523358106613159,-0.11252748221158981,9.739612579345703,2.86865234375,-0.640869140625,-1.861572265625
1.8624999000000002,1.0211269855499268,-0.20889410376548767,9.972448348999023,-2.593994140625,0.885009765625,1.129150390625
1.8674999,0.8469488620758057,-0.11552023142576218,9.706093788146973,2.99072265625,-0.30517578125,-1.373291015625
1.8724999000000002,1.0247182846069336,-0.20949265360832214,10.032303810119629,-2.9296875,0.3662109375,0.48828125
1.8774999,0.8589198589324951,-0.1149216815829277,9.64564037322998,3.021240234375,-0.18310546875,-0.823974609375
1.8824999000000002,1.035492181777954,-0.22685061395168304,9.998186111450195,-2.99072265625,0.18310546875,0.091552734375
1.8874999000000001,1.035492181777954,-0.24660277366638184,9.929352760314941,-3.143310546875,-0.18310546875,-0.1220703125
1.8924999000000002,0.8696937561035156,-0.11791443079710007,9.521739959716797,3.326416015625,0,-0.152587890625
1.8974999000000001,1.0217255353927612,-0.24121582508087158,9.905410766601562,-3.0517578125,-0.030517578125,-0.274658203125
1.9024999000000002,0.8643068075180054,-0.10594342648983002,9.518148422241211,2.9296875,0.3662109375,-0.091552734375
1.9074999000000001,1.0127472877502441,-0.22744916379451752,9.925761222839355,-2.86865234375,-0.030517578125,-0.48828125
1.9124999000000003,0.8535329103469849,-0.10654197633266449,9.537900924682617,3.0517578125,0.457763671875,-0.1220703125
1.9174999000000001,1.0067617893218994,-0.22924481332302094,9.962871551513672,-2.838134765625,-0.1220703125,-0.18310546875
1.9224999,0.8056488633155823,-0.12330138683319092,9.640253067016602,2.899169921875,0.091552734375,-0.8544921875
1.9274999000000002,0.7721300721168518,-0.09217676520347595,9.68574333190918,2.62451171875,-0.1220703125,-1.03759765625
1.9324999,0.9313444495201111,-0.15981295704841614,9.963470458984375,-2.471923828125,0.335693359375,1.007080078125
1.9374999000000002,0.7811083197593689,-0.090979665517807,9.66958236694336,2.349853515625,-0.79345703125,-1.5869140625
1.9424999,0.945111095905304,-0.1867477297782898,9.807847023010254,-2.01416015625,0.701904296875,1.40380859375
1.9474999000000002,0.8301894664764404,-0.14065934717655182,9.6618013381958,1.953125,-0.823974609375,-2.227783203125
1.9524999,0.9636662006378174,-0.20769700407981873,9.721057891845703,-1.77001953125,0.9765625,1.861572265625
1.9574999000000002,0.8559271097183228,-0.1538274586200714,9.724050521850586,1.52587890625,-0.885009765625,-2.593994140625
1.9624999,0.9463081955909729,-0.1975216418504715,9.654019355773926,-1.190185546875,1.434326171875,2.410888671875
1.9674999000000002,0.8631097078323364,-0.13527239859104156,9.763554573059082,0.946044921875,-1.251220703125,-3.0517578125
1.9724999,0.921169102191925,-0.22445641458034515,9.619303703308105,-0.335693359375,1.5869140625,2.8076171875
1.9774999000000002,0.8661024570465088,-0.13108254969120026,9.793481826782227,0.244140625,-1.5869140625,-3.47900390625
1.9824999,0.943913996219635,-0.24839842319488525,9.650428771972656,0.30517578125,1.89208984375,2.86865234375
1.9874999000000002,0.9355342984199524,-0.1364694982767105,9.636063575744629,1.708984375,1.800537109375,2.777099609375
1.9924999,0.8954314589500427,-0.07661445438861847,9.928155899047852,-1.861572265625,-1.64794921875,-2.899169921875
1.9974999000000002,0.9074024558067322,-0.1149216815829277,9.657012939453125,2.166748046875,1.46484375,1.953125
2.0024999,0.9241618514060974,-0.13168109953403473,9.954492568969727,-2.288818359375,-1.3427734375,-2.166748046875
2.0074999,0.9217676520347595,-0.16340427100658417,9.588777542114258,2.5634765625,1.15966796875,1.28173828125
2.0124999000000003,0.9289502501487732,-0.19273324310779572,9.961674690246582,-2.655029296875,-0.885009765625,-1.068115234375
2.0174999000000002,0.9038111567497253,-0.23403321206569672,9.606734275817871,2.777099609375,0.42724609375,-0.152587890625
2.0224999,1.0019733905792236,-0.2346317619085312,9.989806175231934,-2.227783203125,-0.1220703125,0
2.0274999,0.9056068062782288,-0.2059013396501541,9.733028411865234,2.197265625,-0.030517578125,-1.251220703125
2.0324999000000004,1.060032844543457,-0.19692309200763702,9.906009674072266,-1.800537109375,0.79345703125,1.434326171875
2.0374999000000003,0.8439561128616333,-0.10235211998224258,9.710283279418945,0.30517578125,-1.312255859375,-3.265380859375
2.0424999,0.922366201877594,-0.12868833541870117,9.53849983215332,0.48828125,1.556396484375,2.532958984375
2.0474999,0.8637082576751709,-0.08140286058187485,9.783905029296875,-0.885009765625,-1.5869140625,-3.265380859375
2.0524999,0.9510966539382935,-0.090979665517807,9.53969669342041,1.556396484375,1.5869140625,2.288818359375
2.0574999000000003,0.9259575009346008,-0.10654197633266449,9.917980194091797,-1.8310546875,-1.495361328125,-2.5634765625
2.0624999,0.9445125460624695,-0.11671733111143112,9.563039779663086,2.288818359375,1.373291015625,1.52587890625
2.0674999,0.9157821536064148,-0.1867477297782898,9.989208221435547,-2.349853515625,-0.8544921875,-1.46484375
2.0724999,0.8762778043746948,-0.19572599232196808,9.641449928283691,2.38037109375,1.007080078125,-0.030517578125
2.0774999000000003,0.9756371974945068,-0.24001872539520264,10.062231063842773,-2.044677734375,-0.3662109375,0.213623046875
2.0824999,0.8876502513885498,-0.20290859043598175,9.817423820495605,2.105712890625,-0.335693359375,-1.77001953125
2.0874999,1.0241197347640991,-0.21428105235099792,9.927556991577148,-1.129150390625,0.701904296875,1.708984375
2.0924999,0.9600749015808105,-0.16759411990642548,9.654618263244629,0.152587890625,1.373291015625,2.655029296875
2.0974999000000003,0.8577227592468262,-0.10534487664699554,9.773131370544434,-0.48828125,-1.556396484375,-3.204345703125
2.1024999,0.912190854549408,-0.14425064623355865,9.496002197265625,1.434326171875,1.52587890625,2.349853515625
2.1074999,0.871489405632019,-0.12270283699035645,9.844358444213867,-1.46484375,-1.15966796875,-2.532958984375
2.1124999,0.9074024558067322,-0.16759411990642548,9.506776809692383,2.3193359375,0.885009765625,1.068115234375
2.1174999000000003,0.8984242081642151,-0.1999158412218094,9.955090522766113,-2.227783203125,-0.701904296875,-0.885009765625
2.1224999,0.8834604024887085,-0.22206220030784607,9.733627319335938,2.105712890625,0.54931640625,-0.67138671875
2.1274999,0.973242998123169,-0.22924481332302094,9.970054626464844,-1.708984375,0.06103515625,1.15966796875
2.1324999,0.8738836050033569,-0.1951274424791336,9.874286651611328,1.3427734375,-0.640869140625,-2.25830078125
2.1374999000000003,0.9762357473373413,-0.20231004059314728,9.790489196777344,-0.42724609375,0.823974609375,2.38037109375
2.1424999000000002,0.8858546018600464,-0.10235211998224258,9.82640266418457,-0.274658203125,-1.15966796875,-3.173828125
2.1474999,0.9193734526634216,-0.14425064623355865,9.534309387207031,1.03759765625,1.52587890625,2.288818359375
2.1524999,0.9319429993629456,-0.17298106849193573,9.93354320526123,-2.166748046875,-0.8544921875,-0.732421875
2.1574999000000004,0.9319429993629456,-0.17298106849193573,9.93354320526123,-2.166748046875,-0.8544921875,-0.732421875
2.1624999000000003,0.9229647517204285,-0.1885433793067932,9.741408348083496,2.166748046875,0.335693359375,-0.701904296875
2.1674999,0.9726444482803345,-0.18914192914962769,9.947309494018555,-1.373291015625,0.18310546875,1.15966796875
2.1724999,0.8978256583213806,-0.1604115068912506,9.914987564086914,0.885009765625,-0.42724609375,-2.532958984375
2.1774999000000004,0.9648633003234863,-0.15741875767707825,9.739612579345703,0.152587890625,0.91552734375,2.410888671875
2.1824999000000003,0.8816647529602051,-0.0867898091673851,9.849146842956543,-0.701904296875,-1.190185546875,-2.8076171875
2.1874999,0.910993754863739,-0.14903905987739563,9.516951560974121,1.556396484375,1.5869140625,2.227783203125
2.1924999,0.8738836050033569,-0.13347674906253815,9.877279281616211,-1.800537109375,-0.9765625,-1.77001953125
2.1974999,0.8678981065750122,-0.1867477297782898,9.548674583435059,2.105712890625,0.732421875,0.274658203125
2.2024999000000003,0.9648633003234863,-0.2017114907503128,9.99339771270752,-1.64794921875,-0.152587890625,0.54931640625
2.2074999,1.0013748407363892,-0.18614917993545532,9.90241813659668,-0.48828125,0.67138671875,2.13623046875
2.2124999,0.9074024558067322,-0.1149216815829277,9.898826599121094,-0.06103515625,-1.0986328125,-3.021240234375
2.2174999,0.921169102191925,-0.1388636976480484,9.558850288391113,1.28173828125,1.40380859375,2.25830078125
2.2224999000000003,0.8780734539031982,-0.09576806426048279,9.79408073425293,-1.861572265625,-1.0986328125,-2.01416015625
2.2274999,0.910993754863739,-0.15801730751991272,9.45111083984375,1.953125,0.8544921875,0.6103515625
2.2324999,0.9965864419937134,-0.18375498056411743,9.907805442810059,-1.800537109375,-0.396728515625,-0.030517578125
2.2374999,0.93254154920578,-0.2148796021938324,9.769539833068848,1.434326171875,-0.213623046875,-1.739501953125
2.2424999000000003,0.8882488012313843,-0.15562310814857483,9.893440246582031,-0.30517578125,-1.068115234375,-3.021240234375
2.2474999,0.8882488012313843,-0.15562310814857483,9.893440246582031,-0.30517578125,-1.068115234375,-3.021240234375
2.2524999,0.8960300087928772,-0.17836803197860718,9.55825138092041,1.3427734375,1.190185546875,2.227783203125
2.2574999,0.8571242094039917,-0.12509703636169434,9.79288387298584,-1.708984375,-1.03759765625,-1.983642578125
2.2624999000000003,0.8870517015457153,-0.17717093229293823,9.461286544799805,1.983642578125,1.03759765625,0.3662109375
2.2674999000000002,0.9145850539207458,-0.08439560979604721,9.929352760314941,-0.762939453125,-1.068115234375,-2.86865234375
2.2724999,0.8882488012313843,-0.15682020783424377,9.552266120910645,1.556396484375,1.129150390625,2.25830078125
2.2774999,0.8373720645904541,-0.08140286058187485,9.86650562286377,-1.800537109375,-1.007080078125,-1.40380859375
2.2824999000000004,0.8337807655334473,-0.1693897694349289,9.59596061706543,1.678466796875,0.3662109375,-0.091552734375
2.2874999000000003,0.8774749040603638,-0.15502455830574036,9.841365814208984,-1.220703125,0.1220703125,1.190185546875
2.2924999,0.839766263961792,-0.1885433793067932,9.839570045471191,0.54931640625,-0.8544921875,-2.410888671875
2.2974999,0.9331400990486145,-0.21308395266532898,9.706692695617676,0.640869140625,1.0986328125,2.44140625
2.3024999000000004,0.9133879542350769,-0.15023615956306458,9.91738224029541,-1.3427734375,-1.129150390625,-2.410888671875
2.3074999000000003,0.9481038451194763,-0.18974047899246216,9.546878814697266,2.044677734375,0.8544921875,1.251220703125
2.3124999,1.0079588890075684,-0.1496376097202301,9.932944297790527,-1.556396484375,-0.42724609375,-0.457763671875
2.3174999,0.9762357473373413,-0.16639702022075653,9.840767860412598,-0.274658203125,0.8544921875,2.044677734375
2.3224999,0.8792705535888672,-0.13347674906253815,9.939528465270996,-0.48828125,-1.251220703125,-2.8076171875
2.3274999000000003,0.8672995567321777,-0.18914192914962769,9.599552154541016,1.5869140625,1.251220703125,2.0751953125
2.3324999,0.8206126093864441,-0.11851298063993454,9.867103576660156,-1.739501953125,-0.823974609375,-1.64794921875
2.3374999,0.8505401611328125,-0.20889410376548767,9.598953247070312,1.739501953125,0.396728515625,-0.3662109375
2.3424999,0.8936358094215393,-0.17657238245010376,9.829395294189453,-0.762939453125,0.091552734375,1.3427734375
2.3474999000000003,0.889445960521698,-0.1711854189634323,9.815030097961426,0.18310546875,-0.823974609375,-2.5634765625
2.3524999,0.9594763517379761,-0.24361002445220947,9.660005569458008,1.03759765625,1.28173828125,2.410888671875
2.3574999,0.9355342984199524,-0.15562310814857483,9.897629737854004,-1.617431640625,-0.9765625,-2.288818359375
2.3624999,0.9522937536239624,-0.21966800093650818,9.57979965209961,1.77001953125,0.701904296875,0.518798828125
2.3674999000000003,0.9941922426223755,-0.1364694982767105,9.8784761428833,-1.434326171875,0.1220703125,0.48828125
2.3724999,0.9277531504631042,-0.13587094843387604,9.821614265441895,0.6103515625,-0.48828125,-2.105712890625
2.3774999,0.8858546018600464,-0.11851298063993454,9.964667320251465,-1.495361328125,-1.0986328125,-2.685546875
2.3824999,0.8906430602073669,-0.14484919607639313,9.547477722167969,1.922607421875,1.0986328125,1.190185546875
2.3874999000000003,0.9493009448051453,-0.09636662155389786,9.912593841552734,-1.617431640625,-0.244140625,-0.1220703125
2.3924999000000002,0.9253589510917664,-0.14065934717655182,9.690531730651855,0.8544921875,0.030517578125,-1.617431640625
2.3974999,0.9720458984375,-0.16819266974925995,9.801262855529785,0.152587890625,1.190185546875,2.197265625
2.4024999,0.9103952050209045,-0.15562310814857483,9.845556259155273,-1.64794921875,-0.48828125,-0.701904296875
2.4074999000000004,0.8702923059463501,-0.18974047899246216,9.606734275817871,1.220703125,0.030517578125,-1.556396484375
2.4124999000000003,0.9229647517204285,-0.1909375786781311,9.756970405578613,0.030517578125,0.946044921875,2.044677734375
2.4174999,0.8864531517028809,-0.15083470940589905,9.889848709106445,-0.946044921875,-1.220703125,-2.86865234375
2.4224999,0.8852560520172119,-0.18076223134994507,9.4636812210083,1.89208984375,1.373291015625,1.556396484375
2.4274999000000004,0.9097966551780701,-0.1885433793067932,9.607931137084961,1.129150390625,-0.152587890625,-1.190185546875
2.4324999000000003,0.9427168965339661,-0.17657238245010376,9.781511306762695,0,0.640869140625,1.953125
2.4374999,0.8852560520172119,-0.12749123573303223,9.914389610290527,-0.762939453125,-1.251220703125,-2.777099609375
2.4424999,0.872686505317688,-0.15801730751991272,9.495404243469238,1.800537109375,1.3427734375,1.64794921875
2.4474999,0.9313444495201111,-0.12270283699035645,9.86650562286377,-1.678466796875,-0.762939453125,-0.8544921875
2.4524999000000003,0.9044097065925598,-0.1999158412218094,9.63187313079834,1.251220703125,-0.335693359375,-1.434326171875
2.4574999,0.9534908533096313,-0.19931729137897491,9.798270225524902,-0.030517578125,0.91552734375,2.0751953125
2.4624999,0.8972271084785461,-0.15502455830574036,9.936535835266113,-1.068115234375,-1.3427734375,-2.899169921875
2.4674999,0.8804676532745361,-0.1885433793067932,9.5007905960083,1.800537109375,1.251220703125,1.5869140625
2.4724999000000003,0.9540894031524658,-0.11192893236875534,9.897629737854004,-1.46484375,-0.762939453125,-0.457763671875
2.4774999,0.9259575009346008,-0.18974047899246216,9.640253067016602,1.03759765625,-0.213623046875,-1.678466796875
2.4824999,0.8744821548461914,-0.2172738015651703,9.505578994750977,0.823974609375,-0.579833984375,-2.105712890625
2.4874999,0.9582792520523071,-0.14425064623355865,9.604938507080078,0.8544921875,1.190185546875,2.197265625
2.4924999000000003,0.910993754863739,-0.09636662155389786,9.763554573059082,-1.434326171875,-0.946044921875,-2.288818359375
2.4974999,0.9127894043922424,-0.16519992053508759,9.41759204864502,1.434326171875,1.15966796875,0.946044921875
2.5024999,0.9151836037635803,-0.07781155407428741,9.596558570861816,-1.251220703125,0.030517578125,0.54931640625
2.5074999,0.9044097065925598,-0.17657238245010376,9.470264434814453,0.030517578125,-0.457763671875,-2.105712890625
2.5124999000000003,0.9283517003059387,-0.2148796021938324,9.416994094848633,1.251220703125,0.91552734375,2.288818359375
2.5174999000000002,0.8649053573608398,-0.181959331035614,9.660603523254395,-1.40380859375,-1.251220703125,-2.0751953125
2.5224999,0.9074024558067322,-0.28311434388160706,9.424176216125488,1.495361328125,0.91552734375,0.152587890625
2.5274999,0.9044097065925598,-0.15801730751991272,9.61571216583252,-0.42724609375,-0.79345703125,-2.471923828125
2.5324999000000004,0.9085995554924011,-0.17896658182144165,9.478644371032715,1.40380859375,1.556396484375,2.197265625
2.5374999000000003,0.9397241473197937,-0.12868833541870117,9.838972091674805,-1.739501953125,-0.762939453125,-1.46484375
2.5424999,0.9050082564353943,-0.18974047899246216,9.64923095703125,1.312255859375,-0.030517578125,-0.79345703125
2.5474999,0.921169102191925,-0.12449848651885986,9.747992515563965,0.18310546875,0.79345703125,1.739501953125
2.5524999000000004,0.9020155072212219,-0.06404489278793335,9.728240013122559,-0.8544921875,-1.129150390625,-2.74658203125
2.5574999000000003,0.8667010068893433,-0.10354922711849213,9.29189682006836,1.708984375,1.312255859375,1.556396484375
2.5624999,0.9127894043922424,-0.13766659796237946,9.582193374633789,-1.5869140625,-1.312255859375,-2.166748046875
2.5674999,0.9002198576927185,-0.16160862147808075,9.226056098937988,1.678466796875,0.885009765625,0.762939453125
2.5724999,0.9516952037811279,-0.1951274424791336,9.396642684936523,1.068115234375,0.335693359375,-0.640869140625
2.5774999000000003,0.9349357485771179,-0.1322796493768692,9.450512886047363,0.335693359375,0.823974609375,1.52587890625
2.5824999,0.8876502513885498,-0.10534487664699554,9.437943458557129,-1.007080078125,-1.495361328125,-2.716064453125
2.5874999,0.839766263961792,-0.16998831927776337,9.083600997924805,1.861572265625,1.220703125,1.678466796875
2.5924999,0.8858546018600464,-0.060453593730926514,9.353547096252441,-1.28173828125,-0.18310546875,-0.274658203125
2.5974999000000003,0.8589198589324951,-0.22266076505184174,9.354744911193848,0.42724609375,-0.579833984375,-2.3193359375
2.6024999,0.9080010056495667,-0.19812019169330597,9.50737476348877,1.15966796875,1.15966796875,2.349853515625
2.6074999,0.8427590131759644,-0.15502455830574036,9.904213905334473,-1.739501953125,-1.0986328125,-1.861572265625
2.6124999,0.9133879542350769,-0.2346317619085312,9.691129684448242,1.52587890625,0.42724609375,-0.06103515625
2.6174999000000003,0.945111095905304,-0.1149216815829277,9.745597839355469,-0.9765625,-0.79345703125,-2.655029296875
2.6224999,0.912190854549408,-0.15322890877723694,9.427168846130371,1.739501953125,1.46484375,1.678466796875
2.6274999,0.9894038438796997,-0.09816227108240128,9.741408348083496,-1.40380859375,-0.579833984375,-0.6103515625
2.6324999,0.9151836037635803,-0.2495955228805542,9.47265911102295,0.518798828125,-0.18310546875,-1.64794921875
2.6374999000000003,0.9510966539382935,-0.21308395266532898,9.533711433410645,0.8544921875,1.220703125,2.197265625
2.6424999000000002,0.8738836050033569,-0.06643909960985184,9.379883766174316,-0.54931640625,0.244140625,1.3427734375
2.6474999,0.9415197968482971,-0.08559270948171616,9.457097053527832,-0.8544921875,-1.0986328125,-2.593994140625
2.6524999,0.9229647517204285,-0.11013327538967133,9.306262016296387,1.800537109375,1.129150390625,1.617431640625
2.6574999000000004,0.9917980432510376,-0.076015904545784,9.791088104248047,-1.40380859375,-0.518798828125,-0.823974609375
2.6624999000000003,0.9181763529777527,-0.2364274114370346,9.552266120910645,0.8544921875,-0.3662109375,-1.617431640625
2.6674999,0.8631097078323364,-0.19213469326496124,9.674370765686035,-1.678466796875,-1.129150390625,-2.349853515625
2.6724999,0.889445960521698,-0.21787235140800476,9.331999778747559,1.40380859375,0.79345703125,0.06103515625
2.6774999000000004,0.8475474119186401,-0.0802057534456253,9.446322441101074,-0.42724609375,0.091552734375,1.129150390625
2.6824999000000003,0.922366201877594,-0.11611878126859665,9.479841232299805,-0.701904296875,-1.190185546875,-2.44140625
2.6874999,0.9014169573783875,-0.14784196019172668,9.297284126281738,1.953125,1.495361328125,1.52587890625
2.6924999,0.970848798751831,-0.11192893236875534,9.642048835754395,-1.434326171875,-0.30517578125,-0.8544921875
2.6974999,0.9056068062782288,-0.2561795711517334,9.52353572845459,0.091552734375,0,-1.708984375
2.7024999000000003,0.943913996219635,-0.22864626348018646,9.534309387207031,1.007080078125,1.434326171875,2.105712890625
2.7074999,0.8529343605041504,-0.19871874153614044,9.758167266845703,-1.861572265625,-1.129150390625,-1.89208984375
2.7124999,0.9050082564353943,-0.2519897222518921,9.497200012207031,1.251220703125,0.885009765625,0.06103515625
2.7174999,0.8493430614471436,-0.10594342648983002,9.551667213439941,-0.091552734375,0.3662109375,1.46484375
2.7224999000000003,0.9295487999916077,-0.10115502029657364,9.41519832611084,-1.0986328125,-0.518798828125,-0.06103515625
2.7274999,0.9331400990486145,-0.2777273952960968,9.41400146484375,-0.06103515625,-0.701904296875,-2.197265625
2.7324999,0.9469067454338074,-0.20709845423698425,9.50498104095459,1.40380859375,1.190185546875,2.197265625
2.7374999,1.0031704902648926,-0.2082955539226532,9.832986831665039,-1.800537109375,-0.79345703125,-1.46484375
2.7424999000000003,0.9487023949623108,-0.2256535142660141,9.670180320739746,1.220703125,0.30517578125,-0.8544921875
2.7474999,0.9487023949623108,-0.12509703636169434,9.59476375579834,0.518798828125,0.762939453125,1.77001953125
2.7524999,0.8738836050033569,-0.1149216815829277,9.600150108337402,-1.52587890625,-1.251220703125,-2.471923828125
2.7574999,0.8361749649047852,-0.10534487664699554,9.246406555175781,1.708984375,0.91552734375,0.732421875
2.7624999000000003,0.8361749649047852,-0.053270988166332245,9.383475303649902,-0.6103515625,0,0.67138671875
2.7674999000000002,0.8678981065750122,-0.10534487664699554,9.363123893737793,-0.518798828125,-1.129150390625,-2.410888671875
2.7724999,0.8678981065750122,-0.10534487664699554,9.363123893737793,-0.518798828125,-1.129150390625,-2.410888671875
2.7774999,0.8942343592643738,-0.15981295704841614,9.221267700195312,1.64794921875,1.251220703125,1.678466796875
2.7824999000000004,0.9080010056495667,-0.25677812099456787,9.460687637329102,0.48828125,-0.244140625,-1.5869140625
2.7874999000000003,0.9534908533096313,-0.21607670187950134,9.496601104736328,1.251220703125,1.0986328125,2.0751953125
2.7924999,0.8834604024887085,-0.2124854028224945,9.723451614379883,-1.708984375,-1.190185546875,-1.800537109375
2.7974999,0.9074024558067322,-0.22026655077934265,9.46727180480957,1.3427734375,0.42724609375,-0.244140625
2.8024999000000004,0.9002198576927185,-0.0933738648891449,9.514557838439941,-1.220703125,-1.0986328125,-2.410888671875
2.8074999000000003,0.9002198576927185,-0.0933738648891449,9.514557838439941,-1.220703125,-1.0986328125,-2.410888671875
2.8124999,0.8732850551605225,-0.18315643072128296,9.2033109664917,1.800537109375,0.9765625,0.9765625
2.8174999,0.8876502513885498,-0.0933738648891449,9.45111083984375,-0.91552734375,-0.42724609375,0.48828125
2.8224999,0.8924387097358704,-0.21308395266532898,9.431957244873047,-0.244140625,-0.579833984375,-2.166748046875
2.8274999000000003,0.9151836037635803,-0.23403321206569672,9.353547096252441,1.52587890625,1.312255859375,1.800537109375
2.8324999,0.7948749661445618,-0.375291109085083,9.058462142944336,-4.8828125,-1.77001953125,1.5869140625
2.8374999,0.3555389642715454,-1.5957354307174683,7.169436931610107,-44.708251953125,-6.439208984375,35.64453125
2.8424999,-1.4736311435699463,-3.451840400695801,3.1633388996124268,155.21240234375,-129.2724609375,765.93017578125
2.8474999000000003,-3.0310592651367188,-2.0907366275787354,1.1438298225402832,501.556396484375,-129.486083984375,686.4013671875
2.8524999,-2.6809072494506836,-0.7661445140838623,1.2886791229248047,581.329345703125,-65.4296875,394.59228515625
2.8574999,-1.2862848043441772,1.974617838859558,0.30047231912612915,522.735595703125,-188.507080078125,155.914306640625
2.8624999,1.4131776094436646,4.701014995574951,0.7823054194450378,386.962890625,-319.76318359375,3.509521484375
2.8674999000000003,5.498284339904785,6.863577842712402,0.8834604024887085,384.429931640625,-381.2255859375,-99.090576171875
2.8724999,8.726266860961914,8.654440879821777,0.3034650683403015,413.75732421875,-339.84375,-171.844482421875
2.8774999,10.920552253723145,9.57201862335205,0.5482721924781799,363.739013671875,-306.884765625,-253.204345703125
2.8824999,6.719925403594971,5.364208698272705,1.269525408744812,186.920166015625,-142.7001953125,-197.20458984375
2.8874999000000003,3.7187938690185547,3.8367083072662354,3.3488895893096924,81.817626953125,-37.750244140625,-99.06005859375
2.8924999000000002,2.892195701599121,3.8947675228118896,4.013280391693115,14.7705078125,0,-69.7021484375
2.8974999,2.5121161937713623,4.437653064727783,4.729745388031006,-43.853759765625,15.716552734375,-22.15576171875
2.9024999,2.3367409706115723,5.173271179199219,4.674678802490234,-97.96142578125,22.15576171875,19.8974609375
2.9074999000000004,2.3032219409942627,5.974730491638184,4.565144062042236,-153.01513671875,16.78466796875,48.614501953125
2.9124999000000003,2.3517045974731445,6.480505466461182,4.468777656555176,-202.728271484375,17.242431640625,85.662841796875
2.9174999,2.0488381385803223,6.930615425109863,4.392162799835205,-235.748291015625,37.750244140625,109.80224609375
2.9224999,1.8525135517120361,7.265803813934326,4.811747074127197,-263.24462890625,62.31689453125,82.09228515625
2.9274999000000004,1.5885528326034546,8.024765968322754,4.886565685272217,-299.25537109375,90.75927734375,43.670654296875
2.9324999000000003,1.7621324062347412,9.178771018981934,6.031592845916748,-305.023193359375,75.225830078125,44.952392578125
2.9374999,2.166752576828003,9.160215377807617,6.585850238800049,-275.360107421875,55.633544921875,85.174560546875
2.9424999,2.810194253921509,9.077016830444336,7.8332295417785645,-305.48095703125,113.46435546875,90.75927734375
2.9474999,4.408323764801025,5.518634796142578,8.224681854248047,-360.7177734375,147.857666015625,66.89453125
2.9524999000000003,4.880579948425293,4.0743327140808105,7.772775650024414,-365.3564453125,142.608642578125,87.066650390625
2.9574999,5.0900726318359375,3.1304187774658203,7.44417142868042,-384.979248046875,184.661865234375,66.89453125
2.9624999,3.205237627029419,1.9626468420028687,8.644864082336426,-435.699462890625,204.681396484375,37.994384765625
2.9674999,3.3919851779937744,0.8110358119010925,10.429740905761719,-402.923583984375,265.228271484375,45.654296875
2.9724999000000003,2.911947727203369,-1.5658079385757446,12.361263275146484,-172.9736328125,340.75927734375,-15.13671875
2.9774999,2.4438812732696533,-4.223371982574463,13.737929344177246,-10.07080078125,253.72314453125,-112.335205078125
2.9824999,1.106719732284546,-6.744466304779053,13.293805122375488,-41.961669921875,170.47119140625,-131.011962890625
2.9874999,-0.6667851805686951,-8.26478385925293,10.916362762451172,-44.708251953125,127.50244140625,-133.48388671875
2.9924999000000003,-3.535637378692627,-7.690176010131836,4.129399299621582,-45.41015625,75.50048828125,-143.402099609375
2.9974999,-4.466981887817383,-6.691793918609619,2.227206230163574,-16.021728515625,59.295654296875,-141.632080078125
3.0024999,-5.209184169769287,-6.028599739074707,1.9410990476608276,7.568359375,37.445068359375,-139.46533203125
3.0074999,-5.780201435089111,-5.652111530303955,3.0807390213012695,41.473388671875,8.9111328125,-122.1923828125
3.0124999000000003,-6.122572422027588,-5.541379928588867,4.812345504760742,73.760986328125,-13.7939453125,-119.5068359375
3.0174999000000002,-6.072892665863037,-5.264250755310059,6.889315605163574,65.7958984375,-30.975341796875,-127.716064453125
3.0224999,-5.698798656463623,-4.499902248382568,8.436568260192871,36.68212890625,-76.96533203125,-121.15478515625
3.0274999,-4.827907562255859,-3.444657802581787,9.384073257446289,15.93017578125,-105.28564453125,-116.790771484375
3.0324999000000004,-3.625419855117798,-2.2703018188476562,9.871891975402832,10.07080078125,-111.38916015625,-101.409912109375
3.0374999000000003,-2.145803213119507,-1.371279001235962,9.718064308166504,26.641845703125,-119.873046875,-79.833984375
3.0424999,5.6012349128723145,-2.5947160720825195,11.915942192077637,46.173095703125,-61.431884765625,-12.786865234375
3.0474999,6.274604320526123,-2.4133553504943848,11.549030303955078,45.318603515625,-50.78125,-3.265380859375
3.0524999000000004,6.1519012451171875,-1.876455545425415,10.599729537963867,34.942626953125,-49.896240234375,-6.195068359375
3.0574999000000003,5.4659624099731445,-0.9564836025238037,9.75517463684082,17.730712890625,-34.72900390625,-0.54931640625
3.0624999,4.642955780029297,-0.046088382601737976,9.217676162719727,12.908935546875,-23.345947265625,-2.197265625
3.0674999,3.7403416633605957,0.7769184708595276,9.281123161315918,-3.143310546875,-1.556396484375,-4.638671875
3.0724999000000004,3.09151291847229,1.2653355598449707,9.587580680847168,-8.6669921875,16.632080078125,3.326416015625
3.0774999000000003,2.7078421115875244,1.423951506614685,9.845556259155273,-15.045166015625,27.2216796875,-3.173828125
3.0824999,2.3726539611816406,1.1749545335769653,10.086771965026855,-26.2451171875,37.322998046875,3.143310546875
3.0874999,2.278681516647339,0.6404489278793335,10.002974510192871,-26.397705078125,46.9970703125,3.082275390625
3.0924999,2.0715830326080322,0.013766659423708916,10.058639526367188,-33.99658203125,52.642822265625,-1.15966796875
3.0974999000000003,-0.7499836683273315,-2.3116016387939453,9.100958824157715,15.44189453125,-20.233154296875,5.37109375
3.1024999,-0.5261258482933044,-2.1577742099761963,9.25299072265625,10.772705078125,-18.310546875,2.01416015625
3.1074999,-0.11432313174009323,-1.8758569955825806,9.43255615234375,16.9677734375,-22.552490234375,5.096435546875
3.1124999,0.36152446269989014,-1.4850035905838013,9.677961349487305,13.275146484375,-22.216796875,-3.997802734375
3.1174999000000003,0.8577227592468262,-1.1390414237976074,9.871294021606445,11.29150390625,-18.5546875,3.5400390625
3.1224999,1.5957354307174683,-0.5602431893348694,10.043676376342773,0.91552734375,-8.636474609375,1.068115234375
3.1274999,1.9117701053619385,-0.47584760189056396,9.88745403289795,4.69970703125,-3.96728515625,0.3662109375
3.1324999,1.854907751083374,-0.45489832758903503,9.940725326538086,-5.859375,3.96728515625,-2.166748046875
3.1374999000000003,1.9458874464035034,-0.6446388363838196,9.834183692932129,-1.15966796875,5.767822265625,1.129150390625
3.1424999000000002,1.7729063034057617,-0.7254431247711182,9.86111831665039,-7.171630859375,10.833740234375,-5.340576171875
3.1474999,1.6148890256881714,-0.945111095905304,9.824007987976074,-7.171630859375,11.71875,4.364013671875
3.1524999,1.392826795578003,-1.0534487962722778,9.725247383117676,-3.84521484375,8.880615234375,-2.410888671875
3.1574999000000004,1.0947487354278564,-1.2096704244613647,9.749788284301758,-8.7890625,10.6201171875,0.9765625
3.1624999000000003,0.9217676520347595,-1.3479355573654175,9.615114212036133,0.213623046875,5.2490234375,0.8544921875
3.1674999,0.6446388363838196,-1.4532804489135742,9.660005569458008,-5.7373046875,5.706787109375,-0.79345703125
3.1724999,0.6290764808654785,-1.5652093887329102,9.595361709594727,2.655029296875,-0.457763671875,2.197265625
3.1774999000000004,0.5141547918319702,-1.4963760375976562,9.620500564575195,-1.190185546875,0.244140625,-2.86865234375
3.1824999000000003,0.6937199234962463,-1.3323732614517212,9.558850288391113,2.960205078125,-4.791259765625,-3.753662109375
3.1874999,0.8056488633155823,-1.2856862545013428,9.677961349487305,0.42724609375,-2.74658203125,2.960205078125
3.1924999,0.9989806413650513,-1.1689690351486206,9.572616577148438,5.401611328125,-6.04248046875,-2.74658203125
3.1974999000000004,1.0127472877502441,-1.116895079612732,9.773131370544434,-1.983642578125,-0.640869140625,1.129150390625
3.2024999000000003,1.113303780555725,-1.0432734489440918,9.808445930480957,-3.84521484375,1.77001953125,-0.640869140625
3.2074999,1.2515689134597778,-1.092953085899353,9.753378868103027,3.72314453125,-2.13623046875,1.251220703125
3.2124999,1.139639973640442,-1.0402805805206299,9.798869132995605,-3.90625,3.2958984375,-2.471923828125
3.2174999,1.1917139291763306,-1.1581950187683105,9.759963035583496,1.251220703125,0.274658203125,2.838134765625
3.2224999000000003,1.1306617259979248,-1.092953085899353,9.696516990661621,-2.044677734375,2.74658203125,-3.448486328125
3.2274999,1.106719732284546,-1.2306196689605713,9.718663215637207,-0.8544921875,1.617431640625,3.11279296875
3.2324999,1.080383539199829,-1.1558008193969727,9.577404975891113,0.30517578125,0.3662109375,-3.387451171875
3.2374999,1.0001777410507202,-1.2180501222610474,9.549872398376465,2.38037109375,-1.46484375,-2.532958984375
3.2424999000000003,0.9014169573783875,-1.2384008169174194,9.759963035583496,-3.265380859375,2.197265625,1.64794921875
3.2474999,0.9696516990661621,-1.2713210582733154,9.624691009521484,3.90625,-2.74658203125,-1.312255859375
3.2524999,0.8343793153762817,-1.246780514717102,9.77672290802002,-3.60107421875,2.44140625,0.30517578125
3.2574999,0.9738415479660034,-1.2587515115737915,9.6803560256958,4.08935546875,-2.838134765625,-0.244140625
3.2624999000000003,0.861314058303833,-1.1887211799621582,9.774927139282227,-3.41796875,2.01416015625,-0.762939453125
3.2674999000000002,1.0085574388504028,-1.1893197298049927,9.690531730651855,3.90625,-2.655029296875,1.251220703125
3.2724999,0.9343371987342834,-1.116895079612732,9.767744064331055,-3.387451171875,2.227783203125,-1.739501953125
3.2774999,1.0564415454864502,-1.1737574338912964,9.691129684448242,2.899169921875,-2.105712890625,1.556396484375
3.2824999000000004,1.025316834449768,-1.1552022695541382,9.720458984375,-1.3427734375,0.8544921875,-2.960205078125
3.2874999000000003,1.0127472877502441,-1.1761516332626343,9.694122314453125,-0.701904296875,0.9765625,2.8076171875
3.2924999,1.05105459690094,-1.1085153818130493,9.68813705444336,0.91552734375,-0.54931640625,-3.143310546875
3.2974999,1.0055646896362305,-1.1797429323196411,9.800664901733398,-1.64794921875,1.556396484375,2.593994140625
3.3024999000000004,1.027711033821106,-1.1456254720687866,9.700706481933594,1.220703125,-0.67138671875,-2.960205078125
3.3074999000000003,0.9846154451370239,-1.1863269805908203,9.802460670471191,-1.861572265625,1.739501953125,2.410888671875
3.3124999,0.9983820915222168,-1.1683704853057861,9.607931137084961,1.861572265625,-1.373291015625,-2.685546875
3.3174999,0.9534908533096313,-1.192312479019165,9.773131370544434,-2.044677734375,1.46484375,2.44140625
3.3224999000000004,0.9840168952941895,-1.1785458326339722,9.595361709594727,2.288818359375,-2.288818359375,-2.532958984375
3.3274999000000003,0.9534908533096313,-1.2078747749328613,9.79647445678711,-2.044677734375,1.708984375,1.983642578125
3.3324999,0.9846154451370239,-1.2168530225753784,9.808445930480957,-1.861572265625,1.8310546875,2.044677734375
3.3374999,1.0420763492584229,-1.1701661348342896,9.619303703308105,2.50244140625,-2.288818359375,-2.44140625
3.3424999,1.01753568649292,-1.2018892765045166,9.790489196777344,-2.25830078125,1.953125,2.01416015625
3.3474999000000003,1.07379949092865,-1.1516109704971313,9.603741645812988,2.349853515625,-1.89208984375,-2.288818359375
3.3524999,1.0408791303634644,-1.1863269805908203,9.780313491821289,-2.44140625,2.288818359375,1.861572265625
3.3574999,1.0791864395141602,-1.1581950187683105,9.593565940856934,2.0751953125,-1.15966796875,-2.38037109375
3.3624999,1.0295066833496094,-1.1881226301193237,9.785101890563965,-2.410888671875,2.5634765625,2.044677734375
3.3674999000000003,1.0426748991012573,-1.1851298809051514,9.59596061706543,2.197265625,-1.556396484375,-2.471923828125
3.3724999,0.9929951429367065,-1.2078747749328613,9.778518676757812,-2.105712890625,2.01416015625,2.197265625
3.3774999,0.9977835416793823,-1.2108675241470337,9.633070945739746,1.77001953125,-1.220703125,-2.44140625
3.3824999,0.9684545993804932,-1.2521674633026123,9.77253246307373,-1.5869140625,1.495361328125,2.166748046875
3.3874999000000003,1.0109516382217407,-1.1336544752120972,9.615114212036133,0.701904296875,-1.129150390625,-2.777099609375
3.3924999000000002,1.0109516382217407,-1.1336544752120972,9.615114212036133,0.701904296875,-1.129150390625,-2.777099609375
3.3974999,1.0091559886932373,-1.2419921159744263,9.64564037322998,0.18310546875,0.335693359375,2.227783203125
3.4024999,1.0097545385360718,-1.136048674583435,9.607333183288574,0.18310546875,-0.48828125,-2.8076171875
3.4074999000000004,1.039083480834961,-1.2964602708816528,9.728240013122559,0.6103515625,-0.030517578125,2.38037109375
3.4124999000000003,1.0097545385360718,-1.1851298809051514,9.724050521850586,-0.823974609375,0.42724609375,-2.655029296875
3.4174999,1.0732009410858154,-1.3066356182098389,9.825204849243164,1.0986328125,-0.48828125,1.983642578125
3.4224999,0.9900023937225342,-1.2012907266616821,9.783905029296875,-1.861572265625,1.251220703125,-2.3193359375
3.4274999000000004,1.0648212432861328,-1.2629413604736328,9.740809440612793,1.5869140625,-0.48828125,1.5869140625
3.4324999000000003,0.9498994946479797,-1.1528080701828003,9.712677955627441,-2.44140625,1.708984375,-1.861572265625
3.4374999,0.912190854549408,-1.127070426940918,9.672574996948242,-2.899169921875,2.105712890625,-1.03759765625
3.4424999,0.8804676532745361,-1.157596468925476,9.717466354370117,-2.8076171875,1.983642578125,-0.152587890625
3.4474999000000004,0.8804676532745361,-1.157596468925476,9.717466354370117,-2.8076171875,1.983642578125,-0.152587890625
3.4524999000000003,1.036689281463623,-1.2156559228897095,9.624092102050781,3.35693359375,-2.74658203125,-0.518798828125
3.4574999,0.9403226971626282,-1.1994950771331787,9.804255485534668,-2.960205078125,1.953125,0.396728515625
3.4624999,1.071405291557312,-1.2461819648742676,9.634267807006836,2.74658203125,-2.13623046875,-1.3427734375
3.4674999,1.0336965322494507,-1.217451572418213,9.837176322937012,-2.25830078125,1.953125,1.46484375
3.4724999000000003,1.0935516357421875,-1.2054805755615234,9.626486778259277,2.105712890625,-1.983642578125,-1.953125
3.4774999,1.047463297843933,-1.1875240802764893,9.763554573059082,-1.434326171875,1.8310546875,1.983642578125
3.4824999,1.0636241436004639,-1.1186907291412354,9.591172218322754,0.823974609375,-0.946044921875,-2.5634765625
3.4874999,1.0211269855499268,-1.2012907266616821,9.666589736938477,-0.3662109375,1.129150390625,2.13623046875
3.4924999000000003,1.0001777410507202,-1.1264718770980835,9.608530044555664,-0.579833984375,0.579833984375,-2.410888671875
3.4974999,1.0821791887283325,-1.1665748357772827,9.64803409576416,2.01416015625,-1.64794921875,-1.861572265625
3.5024999,1.028908133506775,-1.1605892181396484,9.79288387298584,-1.220703125,1.40380859375,1.861572265625
3.5074999,1.0187327861785889,-1.0755951404571533,9.657012939453125,0.396728515625,-0.640869140625,-2.50244140625
3.5124999000000003,1.0145429372787476,-1.1851298809051514,9.753378868103027,0.3662109375,0.42724609375,2.01416015625
3.5174999000000002,0.943913996219635,-1.1192892789840698,9.6803560256958,-1.129150390625,0.640869140625,-2.227783203125
3.5224999,1.016338586807251,-1.173158884048462,9.7605619430542,-1.8310546875,1.77001953125,1.3427734375
3.5274999,1.0468647480010986,-1.1306617259979248,9.63187313079834,1.129150390625,-1.52587890625,-2.3193359375
3.5324999000000004,1.0133458375930786,-1.2120646238327026,9.73542308807373,-0.18310546875,0.54931640625,1.922607421875
3.5374999000000003,0.9660604000091553,-1.1432312726974487,9.668384552001953,-0.518798828125,-0.335693359375,-2.349853515625
3.5424999,1.0271124839782715,-1.2659341096878052,9.727641105651855,1.52587890625,-0.42724609375,1.64794921875
3.5474999,0.9056068062782288,-1.1851298809051514,9.712079048156738,-2.166748046875,1.129150390625,-1.373291015625
3.5524999000000004,1.0642226934432983,-1.2384008169174194,9.651625633239746,2.685546875,-1.861572265625,0.06103515625
3.5574999000000003,0.9720458984375,-1.1683704853057861,9.747393608093262,-2.5634765625,1.495361328125,0.030517578125
3.5624999,1.0301052331924438,-1.1623848676681519,9.764751434326172,-1.64794921875,1.46484375,1.40380859375
3.5674999,1.037886381149292,-1.1091139316558838,9.624092102050781,0.8544921875,-1.190185546875,-2.288818359375
3.5724999000000004,1.0307037830352783,-1.2042834758758545,9.745597839355469,0.152587890625,0.732421875,1.8310546875
3.5774999000000003,0.950498104095459,-1.1390414237976074,9.66958236694336,-1.28173828125,0.335693359375,-2.105712890625
3.5824999,1.0414776802062988,-1.2401964664459229,9.694721221923828,2.227783203125,-1.0986328125,0.9765625
3.5874999,0.93254154920578,-1.1971008777618408,9.733028411865234,-2.166748046875,1.129150390625,-0.8544921875
3.5924999,1.05105459690094,-1.2348095178604126,9.59596061706543,2.44140625,-1.739501953125,-0.48828125
3.5974999000000003,0.9768342971801758,-1.1929110288619995,9.775525093078613,-2.13623046875,1.8310546875,1.068115234375
3.6024999,1.0444705486297607,-1.1605892181396484,9.59715747833252,1.64794921875,-1.708984375,-1.922607421875
3.6074999,0.9953893423080444,-1.225232720375061,9.778518676757812,-0.48828125,0.79345703125,2.01416015625
3.6124999,0.9487023949623108,-1.1306617259979248,9.68155288696289,-0.30517578125,-0.396728515625,-2.197265625
3.6174999000000003,0.8786720037460327,-1.1563993692398071,9.742605209350586,-2.197265625,0.9765625,-1.129150390625
3.6224999,1.0492589473724365,-1.206079125404358,9.642048835754395,2.410888671875,-1.708984375,-0.30517578125
3.6274999,0.9840168952941895,-1.1617863178253174,9.7791166305542,-2.3193359375,1.739501953125,0.701904296875
3.6324999,1.0983400344848633,-1.1228805780410767,9.597756385803223,1.861572265625,-1.434326171875,-1.89208984375
3.6374999000000003,1.071405291557312,-1.1869255304336548,9.780912399291992,-0.823974609375,1.129150390625,1.77001953125
3.6424999000000002,1.0235211849212646,-1.0965443849563599,9.685144424438477,-0.79345703125,0,-2.288818359375
3.6474999,1.0648212432861328,-1.206079125404358,9.737217903137207,1.800537109375,-0.579833984375,1.312255859375
3.6524999,0.9403226971626282,-1.1426327228546143,9.745597839355469,-2.288818359375,1.220703125,-0.885009765625
3.6574999000000004,1.0594342947006226,-1.2222399711608887,9.636661529541016,2.197265625,-1.251220703125,-0.518798828125
3.6624999000000003,0.9672574996948242,-1.1749545335769653,9.77253246307373,-1.922607421875,1.708984375,0.762939453125
3.6674999,1.0181342363357544,-1.1581950187683105,9.615114212036133,1.556396484375,-1.190185546875,-1.8310546875
3.6724999,0.9941922426223755,-1.204882025718689,9.77672290802002,0,0.518798828125,1.89208984375
3.6774999000000004,1.0223240852355957,-1.2318167686462402,9.700706481933594,2.166748046875,-1.129150390625,0.732421875
3.6824999000000003,0.922366201877594,-1.1785458326339722,9.764153480529785,-2.044677734375,1.129150390625,-0.54931640625
3.6874999,1.0576386451721191,-1.2156559228897095,9.61451530456543,2.0751953125,-1.312255859375,-0.885009765625
3.6924999,0.9977835416793823,-1.1755530834197998,9.734225273132324,-1.40380859375,1.495361328125,1.28173828125
3.6974999000000004,1.0295066833496094,-1.1276689767837524,9.619902610778809,0.732421875,-0.762939453125,-2.01416015625
3.7024999000000003,1.0576386451721191,-1.1971008777618408,9.706692695617676,0.3662109375,0.3662109375,1.89208984375
3.7074999,0.9403226971626282,-1.1294646263122559,9.686341285705566,-1.708984375,0.885009765625,-1.434326171875
3.7124999,1.0797849893569946,-1.2198457717895508,9.64923095703125,2.50244140625,-1.434326171875,-0.091552734375
3.7174999,0.960673451423645,-1.20368492603302,9.780313491821289,-2.410888671875,1.617431640625,0.54931640625
3.7224999000000003,1.0696096420288086,-1.1917139291763306,9.638457298278809,1.678466796875,-1.373291015625,-1.678466796875
3.7274999,1.0408791303634644,-1.2587515115737915,9.807847023010254,-0.244140625,0.457763671875,1.64794921875
3.7324999,0.9846154451370239,-1.1965023279190063,9.716269493103027,-0.640869140625,-0.091552734375,-1.953125
3.7374999,1.0019733905792236,-1.1318588256835938,9.634267807006836,0.42724609375,-0.762939453125,-2.105712890625
3.7424999000000003,1.0785878896713257,-1.1971008777618408,9.68933391571045,1.251220703125,-0.18310546875,1.251220703125
3.7474999,0.9882067441940308,-1.1354501247406006,9.749189376831055,-1.983642578125,1.190185546875,-0.9765625
3.7524999,1.1103110313415527,-1.2108675241470337,9.672574996948242,2.25830078125,-1.40380859375,-0.48828125
3.7574999,1.0313023328781128,-1.1797429323196411,9.766547203063965,-1.861572265625,1.495361328125,1.03759765625
3.7624999000000003,1.0522516965866089,-1.2372037172317505,9.751583099365234,0.213623046875,0.67138671875,1.495361328125
3.7674999000000002,0.9379284977912903,-1.1797429323196411,9.709685325622559,-1.129150390625,0.67138671875,-1.556396484375
3.7724999,1.0773907899856567,-1.2521674633026123,9.653421401977539,2.13623046875,-1.28173828125,0.244140625
3.7774999,0.9576807022094727,-1.2012907266616821,9.757569313049316,-1.953125,1.46484375,0.640869140625
3.7824999000000004,1.0480618476867676,-1.1701661348342896,9.596558570861816,1.46484375,-1.220703125,-1.739501953125
3.7874999000000003,1.0696096420288086,-1.2054805755615234,9.767146110534668,-0.06103515625,0.18310546875,1.5869140625
3.7924999,0.9684545993804932,-1.1569979190826416,9.703699111938477,-1.0986328125,0.518798828125,-1.800537109375
3.7974999,1.1013327836990356,-1.2449848651885986,9.658807754516602,1.861572265625,-0.8544921875,0.030517578125
3.8024999000000004,0.9714473485946655,-1.2000936269760132,9.765350341796875,-1.983642578125,1.52587890625,0.54931640625
3.8074999000000003,1.0558429956436157,-1.1689690351486206,9.603741645812988,1.495361328125,-1.434326171875,-1.708984375
3.8124999,1.0642226934432983,-1.2132617235183716,9.764153480529785,-0.06103515625,0.48828125,1.556396484375
3.8174999,0.9241618514060974,-1.148618221282959,9.718663215637207,-1.373291015625,0.48828125,-1.40380859375
3.8224999000000004,1.0678139925003052,-1.2629413604736328,9.67077922821045,1.77001953125,-0.823974609375,-0.152587890625
3.8274999000000003,0.9570821523666382,-1.1994950771331787,9.725846290588379,-1.800537109375,1.861572265625,0.885009765625
3.8324999,1.0229226350784302,-1.1857284307479858,9.601346969604492,0.885009765625,-1.068115234375,-2.044677734375
3.8374999,1.0678139925003052,-1.194706678390503,9.730634689331055,0.79345703125,-0.152587890625,1.46484375
3.8424999,0.9277531504631042,-1.1222820281982422,9.754576683044434,-1.556396484375,0.8544921875,-1.03759765625
3.8474999000000003,1.0438719987869263,-1.2270283699035645,9.727641105651855,1.922607421875,-1.190185546875,-0.42724609375
3.8524999,0.9133879542350769,-1.1863269805908203,9.757569313049316,-1.40380859375,1.373291015625,1.28173828125
3.8574999,0.9959878921508789,-1.1414356231689453,9.70549488067627,-1.983642578125,1.312255859375,-0.48828125
3.8624999,1.1426327228546143,-1.247977614402771,9.620500564575195,2.044677734375,-1.373291015625,-1.129150390625
3.8674999000000003,1.0540473461151123,-1.2677297592163086,9.77013874053955,-0.8544921875,0.91552734375,1.28173828125
3.8724999,1.0115501880645752,-1.258152961730957,9.664793968200684,-0.030517578125,-0.518798828125,-2.166748046875
3.8774999,1.0552444458007812,-1.2946646213531494,9.695918083190918,1.8310546875,-0.823974609375,0.67138671875
3.8824999,0.9295487999916077,-1.1432312726974487,9.719860076904297,-1.89208984375,1.46484375,-0.06103515625
3.8874999000000003,1.0336965322494507,-1.159990668296814,9.643245697021484,1.312255859375,-1.129150390625,-1.434326171875
3.8924999000000002,0.9738415479660034,-1.1534066200256348,9.743204116821289,-0.274658203125,0.67138671875,1.495361328125
3.8974999,0.9074024558067322,-1.1150994300842285,9.68574333190918,-0.762939453125,0.274658203125,-1.89208984375
3.9024999,0.9965864419937134,-1.2198457717895508,9.633070945739746,1.861572265625,-1.46484375,0.152587890625
3.9074999000000004,0.8768763542175293,-1.1330559253692627,9.734824180603027,-1.64794921875,1.64794921875,0.640869140625
3.9124999000000003,1.0259153842926025,-1.1414356231689453,9.780912399291992,0.335693359375,0.396728515625,1.556396484375
3.9174999,0.9421183466911316,-1.0959458351135254,9.773730278015137,-1.40380859375,0.91552734375,-1.03759765625
3.9224999,0.9421183466911316,-1.0959458351135254,9.773730278015137,-1.40380859375,0.91552734375,-1.03759765625
3.9274999000000004,1.071405291557312,-1.224035620689392,9.739612579345703,1.8310546875,-1.678466796875,-0.732421875
3.9324999000000003,0.9355342984199524,-1.2246341705322266,9.784503936767578,-1.03759765625,1.251220703125,1.373291015625
3.9374999,0.9493009448051453,-1.1941081285476685,9.668384552001953,0.030517578125,-0.640869140625,-2.197265625
3.9424999,0.9959878921508789,-1.2360066175460815,9.66958236694336,1.434326171875,-0.67138671875,1.007080078125
3.9474999000000004,0.9103952050209045,-1.0863690376281738,9.719860076904297,-1.678466796875,1.373291015625,-0.1220703125
3.9524999000000003,1.026513934135437,-1.1540051698684692,9.649829864501953,1.373291015625,-1.129150390625,-1.5869140625
3.9574999,0.9798270463943481,-1.158793568611145,9.758167266845703,-0.091552734375,0.91552734375,1.800537109375
3.9624999,0.9020155072212219,-1.1605892181396484,9.695918083190918,-1.007080078125,-0.030517578125,-1.5869140625
3.9674999000000004,0.9941922426223755,-1.2761094570159912,9.626486778259277,1.678466796875,-1.28173828125,-0.1220703125
3.9724999000000003,0.9702502489089966,-1.1815385818481445,9.59177017211914,0.42724609375,-0.91552734375,-2.105712890625
3.9774999,1.0773907899856567,-1.1540051698684692,9.636661529541016,1.007080078125,-0.244140625,1.40380859375
3.9824999,0.9977835416793823,-1.1348515748977661,9.768941879272461,-1.617431640625,1.0986328125,-0.640869140625
3.9874999,1.1318588256835938,-1.2419921159744263,9.683348655700684,1.495361328125,-1.007080078125,-1.28173828125
3.9924999000000003,1.0570400953292847,-1.2731167078018188,9.815628051757812,-0.762939453125,1.220703125,1.5869140625
3.9974999,0.9738415479660034,-1.256955862045288,9.70429801940918,-0.54931640625,0.091552734375,-1.77001953125
4.0024999,0.9702502489089966,-1.1426327228546143,9.62828254699707,0.762939453125,-0.885009765625,-2.01416015625
4.0074999,1.0169371366500854,-1.1408370733261108,9.73781681060791,0.579833984375,0.18310546875,1.46484375
4.0124999,0.950498104095459,-1.1085153818130493,9.787496566772461,-1.46484375,0.91552734375,-0.762939453125
4.0174999,1.0821791887283325,-1.2348095178604126,9.707889556884766,1.739501953125,-1.3427734375,-0.9765625
4.022499900000001,0.9630676507949829,-1.2395979166030884,9.683947563171387,-0.48828125,-0.48828125,-1.861572265625
4.0274999000000005,0.9630676507949829,-1.2395979166030884,9.683947563171387,-0.48828125,-0.48828125,-1.861572265625
4.0324999,1.0678139925003052,-1.2737152576446533,9.618705749511719,1.708984375,-1.251220703125,0.335693359375
4.0374999,0.9205705523490906,-1.1420341730117798,9.696516990661621,-1.434326171875,1.556396484375,0.6103515625
4.0424999,1.0181342363357544,-1.138442873954773,9.597756385803223,0.79345703125,-1.190185546875,-2.105712890625
4.0474999,1.0570400953292847,-1.139639973640442,9.694721221923828,0.701904296875,0.48828125,1.495361328125
4.0524999,0.9798270463943481,-1.1276689767837524,9.758167266845703,-1.556396484375,0.823974609375,-0.701904296875
4.0574999,1.0989385843276978,-1.2324153184890747,9.68274974822998,1.89208984375,-1.739501953125,-1.129150390625
4.062499900000001,1.0199298858642578,-1.2671312093734741,9.776124000549316,-0.701904296875,1.190185546875,1.495361328125
4.0674999000000005,0.9546879529953003,-1.237802267074585,9.683348655700684,-0.885009765625,0.213623046875,-1.708984375
4.0724999,1.0247182846069336,-1.2934675216674805,9.633668899536133,1.556396484375,-0.6103515625,0.274658203125
4.0774999,0.9115923047065735,-1.128267526626587,9.668384552001953,-1.708984375,1.77001953125,0.8544921875
4.0824999,0.9600749015808105,-1.0875661373138428,9.797073364257812,-1.40380859375,0.91552734375,-0.579833984375
4.0874999,1.1127052307128906,-1.192312479019165,9.712079048156738,1.220703125,-1.28173828125,-1.129150390625
4.0924999,1.0187327861785889,-1.2216414213180542,9.832387924194336,-0.244140625,1.03759765625,1.5869140625
4.0974999,0.9313444495201111,-1.235408067703247,9.779715538024902,-0.91552734375,0.67138671875,-1.617431640625
4.1024999,1.0330979824066162,-1.3138182163238525,9.693524360656738,1.556396484375,-1.220703125,-0.1220703125
4.1074999000000005,0.884058952331543,-1.2653355598449707,9.711481094360352,-1.068115234375,1.52587890625,1.190185546875
4.1124999,0.9780313968658447,-1.2120646238327026,9.623494148254395,0.06103515625,-0.54931640625,-2.166748046875
4.1174999,1.061229944229126,-1.215057373046875,9.636063575744629,1.129150390625,-0.091552734375,1.068115234375
4.1224999,1.0157400369644165,-1.103128433227539,9.697115898132324,-1.495361328125,1.15966796875,0.1220703125
4.1274999,1.1007342338562012,-1.1139023303985596,9.667786598205566,1.15966796875,-1.708984375,-1.861572265625
4.1324999,1.1192892789840698,-1.1593921184539795,9.780313491821289,0.396728515625,0.640869140625,1.46484375
4.1374999,1.0109516382217407,-1.1288660764694214,9.768342971801758,-1.40380859375,0.6103515625,-0.91552734375
4.1424999,1.0989385843276978,-1.2617442607879639,9.728838920593262,1.739501953125,-1.617431640625,-0.732421875
4.147499900000001,1.003769040107727,-1.2557587623596191,9.761159896850586,-0.732421875,1.190185546875,1.3427734375
4.1524999000000005,0.9373299479484558,-1.247977614402771,9.634865760803223,-0.54931640625,-0.335693359375,-2.13623046875
4.1574999,1.0127472877502441,-1.290474772453308,9.59177017211914,1.64794921875,-1.312255859375,0.213623046875
4.1624999,0.9720458984375,-1.1097124814987183,9.774927139282227,-1.312255859375,1.220703125,-0.274658203125
4.1674999,1.0767922401428223,-1.1671733856201172,9.732429504394531,1.190185546875,-1.5869140625,-1.678466796875
4.1724999,1.0767922401428223,-1.2018892765045166,9.840767860412598,0.1220703125,1.068115234375,1.800537109375
4.1774999,0.9983820915222168,-1.1438298225402832,9.780912399291992,-1.312255859375,0.762939453125,-1.0986328125
4.1824999,1.106719732284546,-1.238999366760254,9.725846290588379,1.556396484375,-1.40380859375,-0.701904296875
4.187499900000001,0.9564836025238037,-1.2072762250900269,9.64564037322998,-0.48828125,-0.396728515625,-1.953125
4.1924999000000005,1.0181342363357544,-1.2473790645599365,9.59057331085205,1.556396484375,-0.823974609375,0.30517578125
4.1974999,0.872686505317688,-1.170764684677124,9.619902610778809,-1.28173828125,1.312255859375,0.946044921875
4.2024999,0.9475052952766418,-1.1605892181396484,9.584588050842285,0.152587890625,-0.762939453125,-2.0751953125
4.2074999,1.0187327861785889,-1.1982979774475098,9.668983459472656,1.129150390625,-0.42724609375,1.007080078125
4.2124999,0.9469067454338074,-1.1378443241119385,9.775525093078613,-1.434326171875,1.190185546875,-0.1220703125
4.2174999,1.070208191871643,-1.1683704853057861,9.734225273132324,0.91552734375,-1.129150390625,-1.495361328125
4.2224999,1.0690110921859741,-1.1929110288619995,9.803058624267578,0.54931640625,0.244140625,1.617431640625
4.2274999,1.0001777410507202,-1.1402385234832764,9.780912399291992,-1.312255859375,0.579833984375,-1.068115234375
4.2324999000000005,1.1127052307128906,-1.1887211799621582,9.697713851928711,1.3427734375,-1.617431640625,-0.946044921875
4.2374999,1.0007762908935547,-1.2120646238327026,9.75517463684082,-0.30517578125,1.28173828125,1.46484375
4.2424999,0.9582792520523071,-1.1839327812194824,9.714473724365234,-0.885009765625,0.091552734375,-1.953125
4.2474999,0.8852560520172119,-1.194706678390503,9.75936508178711,-0.9765625,1.434326171875,1.129150390625
4.2524999,0.9229647517204285,-1.194706678390503,9.687539100646973,-0.091552734375,-1.03759765625,-2.197265625
4.2574999,1.0181342363357544,-1.2078747749328613,9.645041465759277,1.3427734375,-0.244140625,0.91552734375
4.2624999,0.9169792532920837,-1.104325532913208,9.678560256958008,-1.3427734375,1.312255859375,0.518798828125
4.2674999,1.027711033821106,-1.1593921184539795,9.59596061706543,0.762939453125,-1.64794921875,-1.953125
4.272499900000001,1.0791864395141602,-1.170764684677124,9.664793968200684,0.8544921875,0.3662109375,1.3427734375
4.2774999000000005,0.9888052940368652,-1.1402385234832764,9.75936508178711,-1.46484375,1.220703125,-0.457763671875
4.2824999,1.0887632369995117,-1.2066776752471924,9.707290649414062,1.251220703125,-1.556396484375,-1.556396484375
4.2874999,1.0684125423431396,-1.217451572418213,9.791088104248047,0.152587890625,0.6103515625,1.739501953125
4.2924999,0.9977835416793823,-1.1803414821624756,9.747992515563965,-1.03759765625,0.30517578125,-1.03759765625
4.2974999,1.1097124814987183,-1.2186486721038818,9.692925453186035,1.434326171875,-1.52587890625,-0.9765625
4.3024999,1.004966139793396,-1.2348095178604126,9.721057891845703,-0.30517578125,1.129150390625,1.617431640625
4.3074999,0.8906430602073669,-1.2090718746185303,9.707889556884766,-1.15966796875,1.678466796875,1.15966796875
4.312499900000001,0.9534908533096313,-1.217451572418213,9.633070945739746,-0.1220703125,-0.732421875,-2.227783203125
4.3174999000000005,1.0558429956436157,-1.2180501222610474,9.59835433959961,1.52587890625,-0.732421875,0.640869140625
4.3224999,1.0384849309921265,-1.1563993692398071,9.59057331085205,0.54931640625,-1.03759765625,-2.25830078125
4.3274999,1.0851719379425049,-1.158793568611145,9.668983459472656,1.220703125,-0.30517578125,1.0986328125
4.3324999,0.9870096445083618,-1.1468225717544556,9.777320861816406,-1.373291015625,1.007080078125,-0.1220703125
4.3374999,0.1628057211637497,-0.9570821523666382,8.182783126831055,-3.23486328125,-1.40380859375,-0.152587890625
4.3424999,-1.9572598934173584,-1.1001356840133667,6.8821330070495605,-262.3291015625,-0.54931640625,135.07080078125
4.3474999,-4.349067211151123,-3.0807390213012695,4.973954200744629,-63.4765625,-92.742919921875,366.058349609375
4.352499900000001,-5.238513469696045,-4.36343240737915,3.6822822093963623,375.762939453125,-501.556396484375,389.984130859375
4.3574999000000005,-0.06584054976701736,-1.7369933128356934,6.081871032714844,168.212890625,-261.199951171875,46.142578125
4.3624999,4.939836502075195,3.3057940006256104,8.481459617614746,56.5185546875,-81.23779296875,-33.355712890625
4.3674999,9.844358444213867,8.227075576782227,11.854889869689941,0.640869140625,10.07080078125,-75.592041015625
4.3724999,12.844892501831055,9.844358444213867,13.761871337890625,-53.070068359375,98.541259765625,-76.35498046875
4.3774999,13.709797859191895,8.544307708740234,13.93006420135498,-28.533935546875,147.3388671875,-92.864990234375
4.3824999,12.342708587646484,5.020042419433594,12.074557304382324,20.5078125,180.633544921875,-116.0888671875
4.3874999,9.689932823181152,1.61069917678833,9.138069152832031,33.0810546875,189.300537109375,-108.2763671875
4.3924999,6.357802391052246,-1.0749965906143188,6.076483726501465,27.252197265625,144.95849609375,-76.568603515625
4.397499900000001,3.3674447536468506,-2.3995885848999023,3.997119665145874,12.451171875,113.4033203125,-49.957275390625
4.4024999000000005,1.0301052331924438,-3.135805606842041,3.494337320327759,-1.46484375,115.814208984375,-35.70556640625
4.4074999,-0.47824180126190186,-3.7229835987091064,4.479551315307617,-2.74658203125,148.62060546875,-22.88818359375
4.4124999,-1.1216834783554077,-4.392761707305908,6.540958881378174,37.353515625,170.71533203125,-24.749755859375
4.4174999,-2.74076247215271,-0.6769605278968811,9.47146224975586,97.076416015625,-57.55615234375,29.815673828125
4.4224999,-2.3546974658966064,1.5933412313461304,8.307879447937012,13.458251953125,-15.350341796875,25.115966796875
4.4274999,-1.50355863571167,2.5468320846557617,8.051700592041016,-8.85009765625,-16.54052734375,22.430419921875
4.4324999,-0.37169981002807617,3.357269287109375,7.987056732177734,-4.0283203125,-53.192138671875,5.523681640625
4.437499900000001,0.7781155705451965,2.8197710514068604,8.389283180236816,-1.953125,-37.872314453125,-4.241943359375
4.4424999000000005,1.611896276473999,2.0266916751861572,8.825027465820312,0.244140625,-17.39501953125,2.288818359375
4.4474999,2.2415714263916016,0.8649053573608398,9.209297180175781,-2.838134765625,-15.716552734375,-0.79345703125
4.4524999,2.4821887016296387,0.15083470940589905,9.429563522338867,-3.753662109375,-4.608154296875,-12.63427734375
4.4574999,2.4175450801849365,-0.9343371987342834,9.638457298278809,-1.52587890625,15.869140625,-10.009765625
4.4624999,2.252345323562622,-1.115697979927063,9.658807754516602,-1.8310546875,14.70947265625,-8.23974609375
4.4674999,2.0213048458099365,-0.945111095905304,9.715670585632324,2.532958984375,18.890380859375,-6.134033203125
4.4724999,1.6178817749023438,-0.6159083843231201,9.734225273132324,1.40380859375,14.984130859375,-2.166748046875
4.477499900000001,1.2108675241470337,-0.3034650683403015,9.800664901733398,-0.67138671875,11.199951171875,1.64794921875
4.4824999000000005,0.7906851172447205,-0.09277531504631042,9.84256362915039,-0.946044921875,5.67626953125,1.373291015625
4.4874999,0.4818331003189087,-0.07242459803819656,9.881468772888184,0.579833984375,0.213623046875,-0.091552734375
4.4924999,0.3663128614425659,-0.14784196019172668,9.952696800231934,0.79345703125,-4.241943359375,0.152587890625
4.4974999,0.43335050344467163,-0.22445641458034515,9.928155899047852,0.18310546875,-5.67626953125,1.373291015625
4.5024999,0.6596025824546814,-0.25318682193756104,9.849745750427246,1.007080078125,-5.2490234375,1.800537109375
4.5074999,0.9768342971801758,-0.20949265360832214,9.786299705505371,0.701904296875,-3.7841796875,-0.030517578125
4.5124999,1.2617442607879639,-0.15682020783424377,9.690531730651855,-0.48828125,1.251220703125,-0.79345703125
4.5174999,0.9133879542350769,-0.33997663855552673,9.888052940368652,-0.48828125,-2.777099609375,0.6103515625
4.522499900000001,0.9798270463943481,-0.2759317457675934,9.79527759552002,0.6103515625,-0.396728515625,0.274658203125
4.5274999000000005,1.1605892181396484,-0.2106897532939911,9.79527759552002,-0.3662109375,0.701904296875,-1.312255859375
4.5324999,1.1779472827911377,-0.1604115068912506,9.701904296875,0.274658203125,2.44140625,-0.274658203125
4.5374999,1.2336124181747437,-0.181959331035614,9.730035781860352,-0.48828125,0.946044921875,-1.373291015625
4.5424999,1.1569979190826416,-0.1975216418504715,9.696516990661621,0.274658203125,1.5869140625,-0.396728515625
4.5474999,1.1318588256835938,-0.23523031175136566,9.761758804321289,-0.274658203125,-0.244140625,-0.18310546875
4.5524999,1.0438719987869263,-0.2322375625371933,9.750985145568848,0.518798828125,-0.48828125,0.91552734375
4.5574999,1.061229944229126,-0.2555810213088989,9.801262855529785,0.091552734375,-2.227783203125,0.152587890625
4.562499900000001,1.2330138683319092,-0.17537526786327362,9.678560256958008,-1.28173828125,3.23486328125,-0.8544921875
4.5674999000000005,1.2330138683319092,-0.17537526786327362,9.678560256958008,-1.28173828125,3.23486328125,-0.8544921875
4.5724999,1.114500880241394,-0.1604115068912506,9.691129684448242,-0.823974609375,2.8076171875,0.9765625
4.5774999,1.0229226350784302,-0.2663549482822418,9.739612579345703,0.06103515625,-1.03759765625,0.3662109375
4.5824999,0.8756792545318604,-0.3298012912273407,9.79647445678711,2.044677734375,-3.753662109375,0.579833984375
4.5874999,0.8942343592643738,-0.39624038338661194,9.834183692932129,0.640869140625,-3.84521484375,-1.46484375
4.5924999,0.9852139949798584,-0.2950853705406189,9.782109260559082,0.8544921875,-0.030517578125,-0.885009765625
4.5974999,1.136048674583435,-0.20350714027881622,9.744400978088379,-1.861572265625,2.50244140625,0.335693359375
4.602499900000001,1.2186486721038818,-0.16160862147808075,9.767146110534668,0.732421875,1.220703125,0.518798828125
4.6074999000000005,1.191115379333496,-0.27712884545326233,9.865307807922363,1.8310546875,-3.2958984375,-1.495361328125
4.6124999,1.113303780555725,-0.2801215946674347,9.806051254272461,1.89208984375,-1.373291015625,-2.227783203125
4.6174999,1.1264718770980835,-0.24839842319488525,9.732429504394531,-0.579833984375,0.79345703125,-1.64794921875
4.6224999,1.1228805780410767,-0.166995570063591,9.683947563171387,-2.8076171875,2.9296875,1.434326171875
4.6274999,1.0965443849563599,-0.152031809091568,9.683947563171387,-1.3427734375,2.25830078125,2.288818359375
4.6324999,1.0229226350784302,-0.2759317457675934,9.749189376831055,2.0751953125,-3.143310546875,-0.06103515625
4.6374999,0.9911994934082031,-0.3256114423274994,9.757569313049316,2.899169921875,-2.532958984375,-2.86865234375
4.6424999,0.9977835416793823,-0.32022446393966675,9.75517463684082,-0.732421875,1.739501953125,-3.2958984375
4.647499900000001,1.0283095836639404,-0.23822307586669922,9.68155288696289,-2.197265625,3.570556640625,1.190185546875
4.6524999000000005,1.0845733880996704,-0.18076223134994507,9.730634689331055,-2.0751953125,0.885009765625,3.021240234375
4.6574999,1.062427043914795,-0.23163901269435883,9.783307075500488,2.593994140625,-2.288818359375,0.946044921875
4.6624999,1.0905588865280151,-0.243011474609375,9.840168952941895,-0.54931640625,3.84521484375,-3.692626953125
4.6674999,1.0905588865280151,-0.243011474609375,9.840168952941895,-0.54931640625,3.84521484375,-3.692626953125
4.6724999,1.1456254720687866,-0.2801215946674347,9.752182006835938,-1.739501953125,2.655029296875,1.46484375
4.6774999,1.1605892181396484,-0.1586158573627472,9.771934509277344,-1.007080078125,-1.190185546875,3.326416015625
4.6824999,1.1180921792984009,-0.2693476974964142,9.742006301879883,1.77001953125,-2.899169921875,0.885009765625
4.687499900000001,1.0971429347991943,-0.30526071786880493,9.728838920593262,1.190185546875,-0.518798828125,-3.936767578125
4.6924999000000005,1.0594342947006226,-0.2711433470249176,9.725846290588379,-0.762939453125,3.47900390625,-3.0517578125
4.6974999,1.0899603366851807,-0.24660277366638184,9.695320129394531,-0.732421875,1.5869140625,1.800537109375
4.7024999,1.0773907899856567,-0.18734627962112427,9.748590469360352,-0.244140625,-1.251220703125,2.5634765625
4.7074999,1.0923545360565186,-0.25677812099456787,9.78989028930664,1.190185546875,-1.64794921875,-0.579833984375
4.7124999,1.0797849893569946,-0.27712884545326233,9.780912399291992,0.3662109375,0.67138671875,-4.058837890625
4.7174999,1.061229944229126,-0.2454056739807129,9.731831550598145,0.244140625,2.8076171875,-0.701904296875
4.7224999,1.0570400953292847,-0.28072014451026917,9.765948295593262,2.227783203125,-2.288818359375,-2.960205078125
4.727499900000001,1.0420763492584229,-0.24181437492370605,9.788095474243164,0.54931640625,1.495361328125,-3.2958984375
4.7324999000000005,1.0995371341705322,-0.22685061395168304,9.749788284301758,-1.953125,3.204345703125,2.777099609375
4.7374999,1.092953085899353,-0.1693897694349289,9.767744064331055,-1.190185546875,-1.129150390625,3.7841796875
4.7424999,1.1324573755264282,-0.27054479718208313,9.724050521850586,3.0517578125,-4.82177734375,-2.105712890625
4.7474999,1.1504138708114624,-0.1933317929506302,9.752182006835938,-0.06103515625,2.50244140625,-6.011962890625
4.7524999,1.1276689767837524,-0.28072014451026917,9.793481826782227,-1.617431640625,8.087158203125,2.25830078125
4.7574999,1.1516109704971313,-0.18136078119277954,9.816226959228516,0.30517578125,-4.180908203125,5.096435546875
4.7624999,1.092953085899353,-0.25079262256622314,9.764153480529785,2.50244140625,-6.77490234375,-2.105712890625
4.7674999,1.1001356840133667,-0.1801636815071106,9.82879638671875,-1.800537109375,6.378173828125,-5.584716796875
4.772499900000001,1.0893617868423462,-0.30466216802597046,9.766547203063965,-1.52587890625,8.270263671875,3.35693359375
4.7774999000000005,1.0666168928146362,-0.25318682193756104,9.789292335510254,2.105712890625,-6.011962890625,-2.960205078125
4.7824999,1.0648212432861328,-0.20290859043598175,9.779715538024902,-2.74658203125,8.36181640625,-2.8076171875
4.7874999,1.0905588865280151,-0.292691171169281,9.710283279418945,0.030517578125,1.953125,3.631591796875
4.7924999,1.1013327836990356,-0.24001872539520264,9.662399291992188,2.50244140625,-7.476806640625,-0.518798828125
4.7974999,1.1192892789840698,-0.181959331035614,9.64564037322998,-1.373291015625,2.74658203125,-3.814697265625
4.8024999,1.0743980407714844,-0.2645592987537384,9.662399291992188,2.166748046875,-4.974365234375,1.15966796875
4.8074999,1.0678139925003052,-0.24660277366638184,9.758766174316406,0.732421875,-2.044677734375,-3.23486328125
4.812499900000001,1.0636241436004639,-0.25258827209472656,9.869498252868652,-2.38037109375,6.195068359375,-0.396728515625
4.8174999000000005,1.0618284940719604,-0.29209262132644653,9.872490882873535,1.068115234375,-1.739501953125,3.021240234375
4.8224999,1.0570400953292847,-0.26156654953956604,9.833584785461426,1.77001953125,-4.5166015625,-2.044677734375
4.8274999,1.0779893398284912,-0.2059013396501541,9.853337287902832,-2.3193359375,4.364013671875,-2.44140625
4.8324999,1.0348936319351196,-0.27473464608192444,9.81024169921875,0.213623046875,2.105712890625,3.326416015625
4.8374999,1.0444705486297607,-0.25438392162323,9.679159164428711,2.01416015625,-5.0048828125,-1.03759765625
4.8424999,1.0708067417144775,-0.18315643072128296,9.762357711791992,-1.556396484375,2.13623046875,-3.265380859375
4.8474999,1.025316834449768,-0.24600422382354736,9.713275909423828,-0.3662109375,3.47900390625,3.387451171875
4.852499900000001,1.0899603366851807,-0.2537853717803955,9.667187690734863,1.77001953125,-4.913330078125,-0.18310546875
4.8574999000000005,1.0983400344848633,-0.2082955539226532,9.740211486816406,-0.9765625,0.67138671875,-4.21142578125
4.8624999,1.1318588256835938,-0.2693476974964142,9.726444244384766,1.739501953125,-4.5166015625,0.640869140625
4.8674999,1.1234791278839111,-0.1975216418504715,9.783905029296875,-0.67138671875,-0.213623046875,-4.57763671875
4.8724999,1.0911574363708496,-0.22445641458034515,9.822212219238281,-0.732421875,5.615234375,2.8076171875
4.8774999,1.0857704877853394,-0.24839842319488525,9.733028411865234,1.617431640625,-3.997802734375,1.220703125
4.8824999,1.0618284940719604,-0.20231004059314728,9.764751434326172,-0.579833984375,-0.762939453125,-4.94384765625
4.8874999,1.0217255353927612,-0.2472013235092163,9.799467086791992,-0.823974609375,5.523681640625,2.86865234375
4.8924999,1.0223240852355957,-0.28311434388160706,9.6989107131958,1.52587890625,-3.936767578125,1.617431640625
4.897499900000001,1.0271124839782715,-0.21667525172233582,9.752182006835938,-0.8544921875,-0.762939453125,-4.974365234375
4.9024999000000005,1.025316834449768,-0.25258827209472656,9.802460670471191,-0.701904296875,5.218505859375,3.11279296875
4.9074999,1.0654197931289673,-0.2669534981250763,9.707889556884766,1.556396484375,-4.2724609375,0.8544921875
4.9124999,1.0857704877853394,-0.1867477297782898,9.77253246307373,-0.9765625,-0.1220703125,-4.852294921875
4.9174999,1.1013327836990356,-0.24660277366638184,9.800065994262695,-0.274658203125,4.791259765625,3.936767578125
4.9224999,1.1091139316558838,-0.18555063009262085,9.787496566772461,-1.251220703125,1.46484375,-4.364013671875
4.9274999,1.0749965906143188,-0.24779987335205078,9.768941879272461,0.244140625,3.631591796875,4.45556640625
4.9324999,1.0642226934432983,-0.2561795711517334,9.696516990661621,0.9765625,-5.218505859375,-2.105712890625
4.937499900000001,1.0528502464294434,-0.19572599232196808,9.77791976928711,-1.28173828125,3.387451171875,-2.655029296875
4.9424999000000005,1.0672154426574707,-0.2777273952960968,9.750985145568848,1.0986328125,1.861572265625,4.82177734375
4.9474999,1.0851719379425049,-0.22744916379451752,9.73781681060791,-0.030517578125,-4.669189453125,-4.150390625
4.9524999,1.0845733880996704,-0.1951274424791336,9.847352027893066,-0.91552734375,4.7607421875,0.091552734375
4.9574999,1.0767922401428223,-0.25737667083740234,9.753378868103027,1.739501953125,-0.91552734375,3.60107421875
4.9624999,1.0755951404571533,-0.18136078119277954,9.774328231811523,-1.007080078125,-2.86865234375,-5.37109375
4.9674999,1.0432734489440918,-0.2585737705230713,9.79408073425293,-0.244140625,5.279541015625,2.99072265625
4.9724999,1.0558429956436157,-0.2795230448246002,9.644442558288574,1.617431640625,-3.7841796875,0.579833984375
4.977499900000001,1.037886381149292,-0.22924481332302094,9.773131370544434,-1.678466796875,0.244140625,-4.364013671875
4.9824999000000005,1.0672154426574707,-0.23523031175136566,9.747992515563965,0.244140625,-4.94384765625,-3.082275390625
4.9874999,1.0785878896713257,-0.1885433793067932,9.856928825378418,-1.373291015625,3.7841796875,-0.67138671875
4.9924999,1.113303780555725,-0.2759317457675934,9.773131370544434,2.197265625,-0.335693359375,3.35693359375
4.9974999,1.0995371341705322,-0.17717093229293823,9.798869132995605,-1.28173828125,-3.0517578125,-5.218505859375
5.0024999,1.0995371341705322,-0.24600422382354736,9.804255485534668,0.213623046875,4.974365234375,3.570556640625
5.0074999,1.0905588865280151,-0.24121582508087158,9.692925453186035,1.28173828125,-3.814697265625,-0.8544921875
5.0124999,1.095347285270691,-0.2082955539226532,9.823410034179688,-1.617431640625,1.861572265625,-2.899169921875
5.0174999,1.094150185585022,-0.29867666959762573,9.707889556884766,1.953125,2.13623046875,4.45556640625
5.022499900000001,1.1162965297698975,-0.21547815203666687,9.726444244384766,-0.823974609375,-4.119873046875,-4.791259765625
5.0274999000000005,1.0761936902999878,-0.2561795711517334,9.806650161743164,-0.3662109375,4.94384765625,2.38037109375
5.0324999,1.0708067417144775,-0.26755204796791077,9.668983459472656,1.739501953125,-2.86865234375,0.48828125
5.0374999,1.060032844543457,-0.19931729137897491,9.855731010437012,-2.197265625,0.701904296875,-3.509521484375
5.0424999,1.048660397529602,-0.2346317619085312,9.788095474243164,-0.579833984375,4.8828125,2.38037109375
5.0474999,1.07379949092865,-0.24361002445220947,9.640253067016602,1.5869140625,-3.11279296875,-0.030517578125
5.0524999,1.0307037830352783,-0.20889410376548767,9.814431190490723,-2.01416015625,0.79345703125,-2.86865234375
5.0574999,1.072602391242981,-0.2825157940387726,9.692327499389648,2.166748046875,1.953125,4.0283203125
5.062499900000001,1.0732009410858154,-0.21009120345115662,9.753378868103027,-1.068115234375,-4.0283203125,-4.82177734375
5.0674999000000005,1.0743980407714844,-0.243011474609375,9.774927139282227,0.06103515625,4.57763671875,3.204345703125
5.0724999,1.0887632369995117,-0.2513911724090576,9.673172950744629,1.3427734375,-3.72314453125,-1.556396484375
5.0774999,1.0570400953292847,-0.1885433793067932,9.858125686645508,-1.708984375,2.5634765625,-1.40380859375
5.0824999,1.0755951404571533,-0.30945056676864624,9.677363395690918,2.349853515625,0.518798828125,2.74658203125
5.0874999,1.0462661981582642,-0.19812019169330597,9.839570045471191,-1.77001953125,-2.105712890625,-4.45556640625
5.0924999,1.0791864395141602,-0.27712884545326233,9.774328231811523,0.9765625,4.180908203125,4.33349609375
5.0974999,1.0420763492584229,-0.22505496442317963,9.86889934539795,-0.762939453125,4.119873046875,1.3427734375
5.102499900000001,1.0696096420288086,-0.2603694200515747,9.724050521850586,1.77001953125,-2.532958984375,-0.06103515625
5.1074999000000005,1.0067617893218994,-0.22685061395168304,9.849745750427246,-2.13623046875,0.823974609375,-2.349853515625
5.1124999,1.0606313943862915,-0.2968810200691223,9.66958236694336,1.953125,1.28173828125,3.570556640625
5.1174999,1.035492181777954,-0.22445641458034515,9.783307075500488,-1.495361328125,-3.2958984375,-4.608154296875
5.1224999,1.1001356840133667,-0.2651578485965729,9.740809440612793,1.007080078125,4.0283203125,3.72314453125
5.1274999,1.0875661373138428,-0.18076223134994507,9.71926212310791,0.274658203125,-4.33349609375,-3.509521484375
5.1324999,1.0749965906143188,-0.2148796021938324,9.864110946655273,-0.732421875,3.997802734375,1.800537109375
5.1374999,1.0887632369995117,-0.25438392162323,9.70429801940918,1.312255859375,-2.532958984375,-0.457763671875
5.1424999,1.0546458959579468,-0.23762452602386475,9.913191795349121,-1.708984375,1.52587890625,-1.5869140625
5.147499900000001,1.0797849893569946,-0.3645172119140625,9.712079048156738,2.3193359375,0.701904296875,2.62451171875
5.1524999000000005,1.0809820890426636,-0.22685061395168304,9.870695114135742,-1.8310546875,-1.861572265625,-3.72314453125
5.1574999,1.0779893398284912,-0.15083470940589905,9.726444244384766,-1.007080078125,-3.814697265625,-4.150390625
5.1624999,1.1204863786697388,-0.18076223134994507,9.739013671875,0.54931640625,4.39453125,3.021240234375
5.1674999,1.0959458351135254,-0.14844051003456116,9.649829864501953,0.518798828125,-4.241943359375,-2.62451171875
5.1724999,1.0761936902999878,-0.19153612852096558,9.803657531738281,-0.823974609375,3.2958984375,1.068115234375
5.1774999,1.081580638885498,-0.2561795711517334,9.640253067016602,1.495361328125,-2.655029296875,-0.396728515625
5.1824999,1.0319008827209473,-0.24480712413787842,9.835979461669922,-1.617431640625,1.46484375,-1.251220703125
5.187499900000001,1.0552444458007812,-0.30526071786880493,9.667187690734863,2.105712890625,0.1220703125,1.64794921875
5.1924999000000005,1.0396820306777954,-0.23343466222286224,9.857526779174805,-1.800537109375,-0.9765625,-3.021240234375
5.1974999,1.0696096420288086,-0.2998737692832947,9.641449928283691,1.861572265625,2.3193359375,3.11279296875
5.2024999,1.0636241436004639,-0.1777694821357727,9.78989028930664,-1.434326171875,-3.23486328125,-3.814697265625
5.2074999,1.0636241436004639,-0.1777694821357727,9.78989028930664,-1.434326171875,-3.23486328125,-3.814697265625
5.2124999,1.082777738571167,-0.25917232036590576,9.650428771972656,1.312255859375,3.448486328125,3.41796875
5.2174999,1.105522632598877,-0.19871874153614044,9.79527759552002,0.42724609375,4.21142578125,2.9296875
5.2224999,1.0708067417144775,-0.19572599232196808,9.731831550598145,0.091552734375,-3.84521484375,-2.8076171875
5.227499900000001,1.0983400344848633,-0.21308395266532898,9.898826599121094,-0.30517578125,3.570556640625,1.708984375
5.2324999000000005,1.081580638885498,-0.25318682193756104,9.706093788146973,0.79345703125,-2.3193359375,-1.495361328125
5.2374999,1.0384849309921265,-0.22625206410884857,9.875483512878418,-1.03759765625,2.38037109375,0.518798828125
5.2424999,1.0564415454864502,-0.2932897210121155,9.650428771972656,1.46484375,-1.77001953125,-0.18310546875
5.2474999,1.0019733905792236,-0.22864626348018646,9.82999324798584,-1.434326171875,0.67138671875,-0.9765625
5.2524999,1.0594342947006226,-0.31184476613998413,9.670180320739746,1.89208984375,0.213623046875,1.129150390625
5.2574999,1.0313023328781128,-0.243011474609375,9.890447616577148,-1.8310546875,-0.42724609375,-1.800537109375
5.2624999,1.0767922401428223,-0.30047231912612915,9.68694019317627,1.678466796875,1.312255859375,2.25830078125
