# Time (seconds),Accel_X,Accel_Y,Accel_Z,Gyro_X,Gyro_Y,Gyro_Z
0.0024999,0.518943190574646,-0.30705636739730835,9.61331844329834,0.091552734375,0.9765625,-2.471923828125
0.0074999,0.4159925580024719,-0.2992752194404602,9.945513725280762,5.37109375,-0.518798828125,-0.244140625
0.012499900000000001,0.3076549172401428,-0.29149407148361206,9.640253067016602,-5.645751953125,-0.823974609375,1.77001953125
0.0174999,0.4776432514190674,-0.2651578485965729,9.553462982177734,1.190185546875,0.701904296875,-2.50244140625
0.0224999,0.34835633635520935,-0.2472013235092163,9.940725326538086,4.82177734375,0.701904296875,0.48828125
0.0274999,0.25019407272338867,-0.21368250250816345,9.619303703308105,-5.4931640625,0.3662109375,1.220703125
0.0324999,0.45190557837486267,-0.23822307586669922,9.64803409576416,2.197265625,-0.274658203125,-2.8076171875
0.0374999,0.31124621629714966,-0.2717418968677521,9.566033363342285,-6.28662109375,-0.91552734375,0.6103515625
0.0424999,0.5327098965644836,-0.32202014327049255,9.663596153259277,4.21142578125,2.25830078125,-2.410888671875
0.0474999,0.36332011222839355,-0.27473464608192444,9.944316864013672,2.50244140625,0.30517578125,1.495361328125
0.0524999,0.3471592366695404,-0.2902969419956207,9.569623947143555,-5.950927734375,-0.48828125,0.18310546875
0.0574999,0.5440823435783386,-0.2950853705406189,9.791686058044434,4.913330078125,1.89208984375,-2.44140625
0.0624999,0.3280056416988373,-0.24779987335205078,10.006566047668457,1.220703125,0.1220703125,1.77001953125
0.0674999,0.4058171808719635,-0.2645592987537384,9.576807022094727,-5.55419921875,-1.312255859375,-0.6103515625
0.0724999,0.5752069354057312,-0.3256114423274994,9.84615421295166,5.767822265625,0.54931640625,-2.471923828125
0.0774999,0.3357867896556854,-0.27054479718208313,9.895833969116211,0,-0.823974609375,1.739501953125
0.0824999,0.45908817648887634,-0.3058592677116394,9.876680374145508,6.317138671875,-0.274658203125,-0.79345703125
0.0874999,0.27473464608192444,-0.2711433470249176,9.719860076904297,-4.425048828125,-0.18310546875,2.044677734375
0.0924999,0.5135562419891357,-0.29628247022628784,9.556455612182617,-1.617431640625,-0.335693359375,-2.3193359375
0.0974999,0.42437225580215454,-0.24839842319488525,9.943120002746582,6.011962890625,0.457763671875,-0.335693359375
0.1024999,0.42437225580215454,-0.24839842319488525,9.943120002746582,6.011962890625,0.457763671875,-0.335693359375
0.1074999,0.314238965511322,-0.2753331959247589,9.733627319335938,-4.974365234375,-0.3662109375,1.8310546875
0.1124999,0.5327098965644836,-0.28311434388160706,9.595361709594727,0.54931640625,1.129150390625,-2.44140625
0.1174999,0.4207809567451477,-0.24121582508087158,9.964069366455078,5.0048828125,-0.30517578125,0.1220703125
0.1224999,0.31124621629714966,-0.25318682193756104,9.640851974487305,-5.92041015625,-1.251220703125,1.28173828125
0.1274999,0.5363011956214905,-0.2902969419956207,9.703699111938477,4.8828125,2.50244140625,-2.38037109375
0.1324999,0.34656068682670593,-0.243011474609375,9.982624053955078,1.922607421875,0.823974609375,1.52587890625
0.1374999,0.36571431159973145,-0.2693476974964142,9.567828178405762,-5.55419921875,0.67138671875,-0.152587890625
0.1424999,0.558447539806366,-0.25318682193756104,9.829395294189453,4.730224609375,-0.335693359375,-2.288818359375
0.1474999,0.3423708379268646,-0.26994624733924866,9.929352760314941,0.152587890625,-0.732421875,1.8310546875
0.1524999,0.4339490532875061,-0.33039984107017517,9.519346237182617,-5.584716796875,-0.54931640625,-0.518798828125
0.1574999,0.4076128304004669,-0.29807811975479126,9.557653427124023,-4.45556640625,-0.762939453125,-1.434326171875
0.1624999,0.4692635238170624,-0.28072014451026917,9.947309494018555,6.256103515625,1.007080078125,-1.678466796875
0.1674999,0.22685061395168304,-0.2849099934101105,9.929352760314941,-2.227783203125,-0.244140625,2.410888671875
0.1724999,0.47644615173339844,-0.28072014451026917,9.62828254699707,-3.35693359375,0.396728515625,-1.40380859375
0.17749990000000002,0.49619829654693604,-0.3082534670829773,9.968857765197754,6.2255859375,0.274658203125,-1.312255859375
0.1824999,0.3058592677116394,-0.304063618183136,9.79527759552002,-3.509521484375,-0.885009765625,2.044677734375
0.1874999,0.5416881442070007,-0.29149407148361206,9.551667213439941,-2.0751953125,0,-1.953125
0.1924999,0.4507084786891937,-0.3274070918560028,9.928155899047852,6.103515625,-0.091552734375,-0.732421875
0.1974999,0.29209262132644653,-0.25917232036590576,9.77672290802002,-4.57763671875,-0.3662109375,1.983642578125
0.2024999,0.5261258482933044,-0.27712884545326233,9.61571216583252,-1.190185546875,-1.52587890625,-2.44140625
0.20749990000000001,0.4273650050163269,-0.28311434388160706,9.99459457397461,5.55419921875,-0.42724609375,-0.213623046875
0.2124999,0.2717418968677521,-0.24121582508087158,9.628880500793457,-5.67626953125,-0.30517578125,1.190185546875
0.2174999,0.4405331015586853,-0.23104046285152435,9.652822494506836,1.5869140625,0.396728515625,-2.716064453125
0.2224999,0.33698388934135437,-0.25977087020874023,9.978434562683105,3.692626953125,-0.091552734375,0.8544921875
0.2274999,0.272938996553421,-0.22685061395168304,9.602544784545898,-6.439208984375,-1.068115234375,0.823974609375
0.2324999,0.5027823448181152,-0.2992752194404602,9.672574996948242,2.99072265625,-0.06103515625,-2.62451171875
0.2374999,0.3621230125427246,-0.30047231912612915,9.926360130310059,2.655029296875,-0.8544921875,1.3427734375
0.2424999,0.3405751883983612,-0.28311434388160706,9.557653427124023,-6.40869140625,-1.312255859375,0.396728515625
0.2474999,0.5464765429496765,-0.31364041566848755,9.73661994934082,4.241943359375,0.152587890625,-2.44140625
0.2524999,0.3315969407558441,-0.2603694200515747,9.98681354522705,1.129150390625,-0.48828125,1.861572265625
0.2574999,0.3968389332294464,-0.2537853717803955,9.567230224609375,-5.706787109375,-0.3662109375,0.06103515625
0.2624999,0.4405331015586853,-0.2717418968677521,9.45111083984375,-4.730224609375,-0.152587890625,-0.640869140625
0.2674999,0.5291185975074768,-0.34177228808403015,9.805453300476074,6.011962890625,1.0986328125,-1.861572265625
0.2724999,0.24839842319488525,-0.23343466222286224,9.894038200378418,-1.251220703125,-0.762939453125,1.953125
0.2774999,0.4058171808719635,-0.2579752206802368,9.582193374633789,-4.486083984375,-0.701904296875,-1.190185546875
0.2824999,0.4770447015762329,-0.3381809890270233,10.017938613891602,6.28662109375,0.518798828125,-1.312255859375
0.28749990000000003,0.2555810213088989,-0.2753331959247589,9.872490882873535,-2.777099609375,-0.701904296875,1.983642578125
0.2924999,0.5267243981361389,-0.3016694188117981,9.612719535827637,-2.960205078125,-1.190185546875,-1.861572265625
0.2974999,0.4908113479614258,-0.3531447649002075,9.950302124023438,6.378173828125,0.640869140625,-0.8544921875
0.3024999,0.31184476613998413,-0.25677812099456787,9.799467086791992,-3.96728515625,-0.091552734375,1.861572265625
0.3074999,0.5446808934211731,-0.28311434388160706,9.612719535827637,-2.3193359375,-1.03759765625,-2.349853515625
0.3124999,0.43035775423049927,-0.30945056676864624,9.995792388916016,6.072998046875,0.518798828125,-0.42724609375
0.3174999,0.5105634927749634,-0.2801215946674347,9.573814392089844,0.274658203125,1.64794921875,-2.50244140625
0.3224999,0.36810851097106934,-0.2861070930957794,9.965266227722168,3.11279296875,-0.213623046875,1.312255859375
0.3274999,0.35015198588371277,-0.24779987335205078,9.577404975891113,-6.439208984375,-0.8544921875,0.48828125
0.3324999,0.5674257874488831,-0.3010708689689636,9.695918083190918,4.0283203125,-0.244140625,-2.62451171875
0.3374999,0.37229835987091064,-0.2717418968677521,9.954492568969727,2.25830078125,-0.274658203125,1.40380859375
0.3424999,0.38127660751342773,-0.24779987335205078,9.53849983215332,-5.7373046875,-0.152587890625,0.030517578125
0.34749990000000003,0.3477577865123749,-0.2801215946674347,9.914987564086914,0.244140625,0.030517578125,1.953125
0.35249990000000003,0.4405331015586853,-0.27413609623908997,9.52473258972168,-5.157470703125,-0.457763671875,-0.518798828125
0.3574999,0.5602431893348694,-0.35913026332855225,9.837775230407715,5.55419921875,0.274658203125,-1.983642578125
0.3624999,0.2890998423099518,-0.2537853717803955,9.886856079101562,-0.701904296875,-0.701904296875,1.953125
0.3674999,0.4165911078453064,-0.2472013235092163,9.564835548400879,-4.791259765625,0.152587890625,-1.068115234375
0.3724999,0.4812345504760742,-0.3315969407558441,9.962273597717285,6.134033203125,0.732421875,-1.495361328125
0.3774999,0.22685061395168304,-0.23163901269435883,9.910798072814941,-2.44140625,-0.244140625,2.349853515625
0.3824999,0.4644751250743866,-0.26336219906806946,9.634267807006836,-3.41796875,-0.823974609375,-1.708984375
0.3874999,0.4620809257030487,-0.34416648745536804,9.955689430236816,6.103515625,0.3662109375,-1.220703125
0.3924999,0.27473464608192444,-0.2513911724090576,9.781511306762695,-3.23486328125,-0.06103515625,2.105712890625
0.3974999,0.5213374495506287,-0.2825157940387726,9.539097785949707,-2.0751953125,0.6103515625,-1.953125
0.4024999,0.5404910445213318,-0.2711433470249176,9.622296333312988,-0.823974609375,0.762939453125,-1.8310546875
0.4074999,0.43514615297317505,-0.31543606519699097,9.998186111450195,5.645751953125,0.54931640625,-0.091552734375
0.41249990000000003,0.34356793761253357,-0.25737667083740234,9.671976089477539,-4.94384765625,-0.1220703125,1.312255859375
0.41749990000000003,0.5141547918319702,-0.25737667083740234,9.600749015808105,0.8544921875,0.9765625,-2.349853515625
0.4224999,0.37888240814208984,-0.2783259451389313,9.95209789276123,4.669189453125,-0.1220703125,0.42724609375
0.4274999,0.2687491476535797,-0.21667525172233582,9.632472038269043,-6.16455078125,-0.54931640625,1.0986328125
0.4324999,0.4531026780605316,-0.23523031175136566,9.671378135681152,2.50244140625,0.518798828125,-2.685546875
0.4374999,0.3513490855693817,-0.28790274262428284,9.971850395202637,3.72314453125,-0.06103515625,0.701904296875
0.4424999,0.2992752194404602,-0.24361002445220947,9.59177017211914,-5.79833984375,0,0.67138671875
0.4474999,0.5219359993934631,-0.29807811975479126,9.66419506072998,3.143310546875,0.1220703125,-2.532958984375
0.4524999,0.3585317134857178,-0.27653029561042786,9.955090522766113,2.044677734375,-0.274658203125,1.46484375
0.4574999,0.34596213698387146,-0.24600422382354736,9.566033363342285,-6.16455078125,0.06103515625,0.335693359375
0.4624999,0.424970805644989,-0.2687491476535797,9.563039779663086,-5.43212890625,0,-0.18310546875
0.4674999,0.5835866928100586,-0.3519476354122162,9.845556259155273,5.18798828125,0.457763671875,-2.197265625
0.47249990000000003,0.33937808871269226,-0.2561795711517334,9.926959037780762,-0.518798828125,-0.274658203125,1.922607421875
0.47749990000000003,0.4381389021873474,-0.24241292476654053,9.552865028381348,-5.126953125,1.40380859375,-0.48828125
0.4824999,0.24181437492370605,-0.23104046285152435,9.94970417022705,-1.922607421875,-0.8544921875,2.13623046875
0.4874999,0.4626794755458832,-0.2669534981250763,9.655815124511719,-3.84521484375,-0.823974609375,-1.708984375
0.4924999,0.4902127981185913,-0.35434186458587646,9.99100399017334,6.011962890625,-0.1220703125,-1.28173828125
0.4974999,0.28790274262428284,-0.2603694200515747,9.818022727966309,-3.2958984375,-1.03759765625,2.044677734375
0.5024999,0.5351040959358215,-0.27892449498176575,9.550470352172852,-2.74658203125,0.54931640625,-1.89208984375
0.5074999,0.4489128291606903,-0.34416648745536804,9.898228645324707,6.195068359375,0.518798828125,-0.6103515625
0.5124999,0.518943190574646,-0.28371289372444153,9.5809965133667,-0.885009765625,0.457763671875,-2.3193359375
0.5174999,0.4225766062736511,-0.3100491166114807,9.97364616394043,5.79833984375,0.06103515625,-0.06103515625
0.5224999,0.32860419154167175,-0.26156654953956604,9.726444244384766,-5.218505859375,-0.79345703125,1.5869140625
0.5274999,0.518943190574646,-0.26575639843940735,9.630077362060547,-0.152587890625,-0.213623046875,-2.44140625
0.5324999,0.3902548849582672,-0.2861070930957794,10.014945983886719,5.218505859375,0.244140625,0.396728515625
0.5374999,0.26575639843940735,-0.22924481332302094,9.66958236694336,-5.79833984375,-0.244140625,1.0986328125
0.5424999,0.4507084786891937,-0.22864626348018646,9.691129684448242,2.25830078125,0.9765625,-2.50244140625
0.5474999,0.3280056416988373,-0.27473464608192444,10.002974510192871,4.241943359375,0.274658203125,1.03759765625
0.5524999,0.284311443567276,-0.2124854028224945,9.648633003234863,-6.103515625,-0.48828125,0.640869140625
0.5574999,0.5015852451324463,-0.28072014451026917,9.671976089477539,3.72314453125,0.213623046875,-2.960205078125
0.5624999,0.34596213698387146,-0.2388216257095337,9.5007905960083,-6.011962890625,-0.335693359375,0.396728515625
0.5674999000000001,0.35015198588371277,-0.2621650993824005,9.9371337890625,1.52587890625,-0.457763671875,1.617431640625
0.5724999000000001,0.4159925580024719,-0.2585737705230713,9.528324127197266,-5.889892578125,-0.335693359375,-0.244140625
0.5774999000000001,0.5859808921813965,-0.3513490855693817,9.792284965515137,5.035400390625,0.06103515625,-2.25830078125
0.5824999,0.34177228808403015,-0.25258827209472656,9.880271911621094,-0.42724609375,-0.335693359375,2.166748046875
0.5874999,0.436343252658844,-0.25438392162323,9.493608474731445,-4.486083984375,0.18310546875,-0.54931640625
0.5924999,0.5165489912033081,-0.33997663855552673,9.9000244140625,5.584716796875,0.396728515625,-1.861572265625
0.5974999,0.24181437492370605,-0.22744916379451752,9.964069366455078,-1.64794921875,-0.79345703125,2.01416015625
0.6024999,0.4321534037590027,-0.2687491476535797,9.676764488220215,-3.753662109375,0,-1.3427734375
0.6074999,0.47884035110473633,-0.35015198588371277,10.02691650390625,6.65283203125,0.518798828125,-1.46484375
0.6124999,0.26815059781074524,-0.26396074891090393,9.88745403289795,-3.173828125,-0.8544921875,1.922607421875
0.6174999,0.5219359993934631,-0.292691171169281,9.567230224609375,-2.9296875,0.1220703125,-1.678466796875
0.6224999,0.46148237586021423,-0.3429693877696991,9.947309494018555,6.16455078125,0.091552734375,-0.9765625
0.6274999,0.5213374495506287,-0.2759317457675934,9.606734275817871,-1.312255859375,-0.06103515625,-2.044677734375
0.6324999,0.41718965768814087,-0.2932897210121155,9.96825885772705,5.79833984375,-0.152587890625,-0.244140625
0.6374999,0.3148375153541565,-0.24600422382354736,9.706093788146973,-5.31005859375,-1.068115234375,1.5869140625
0.6424999,0.5093663930892944,-0.27413609623908997,9.566631317138672,0.274658203125,0.06103515625,-2.62451171875
0.6474999,0.3902548849582672,-0.2759317457675934,9.909002304077148,5.31005859375,-0.091552734375,0.244140625
0.6524999,0.2759317457675934,-0.22266076505184174,9.582193374633789,-5.859375,-0.732421875,1.373291015625
0.6574999,0.456095427274704,-0.22924481332302094,9.618705749511719,1.28173828125,-0.244140625,-2.74658203125
0.6624999,0.345363587141037,-0.25977087020874023,9.985017776489258,3.72314453125,-0.79345703125,0.79345703125
0.6674999,0.28730419278144836,-0.2190694510936737,9.653421401977539,-6.40869140625,-0.91552734375,0.8544921875
0.6724999,0.5153518915176392,-0.31184476613998413,9.694721221923828,3.570556640625,1.556396484375,-2.593994140625
0.6774999,0.5153518915176392,-0.31184476613998413,9.694721221923828,3.570556640625,1.556396484375,-2.593994140625
0.6824999,0.37409400939941406,-0.2890998423099518,9.967061996459961,3.021240234375,0.06103515625,1.434326171875
0.6874999,0.456095427274704,-0.28072014451026917,9.550470352172852,-4.974365234375,-0.3662109375,-0.8544921875
0.6924999000000001,0.456095427274704,-0.28072014451026917,9.550470352172852,-4.974365234375,-0.3662109375,-0.8544921875
0.6974999000000001,0.5339069962501526,-0.3519476354122162,9.9000244140625,5.79833984375,0.213623046875,-1.89208984375
0.7024999000000001,0.2495955228805542,-0.22505496442317963,9.932944297790527,-1.64794921875,-0.396728515625,2.227783203125
0.7074999,0.43095630407333374,-0.2603694200515747,9.602544784545898,-3.72314453125,1.03759765625,-1.434326171875
0.7124999,0.47644615173339844,-0.3298012912273407,10.011354446411133,6.2255859375,0.18310546875,-1.373291015625
0.7174999,0.27054479718208313,-0.2669534981250763,9.872490882873535,-2.86865234375,-0.6103515625,2.288818359375
0.7224999,0.28550854325294495,-0.24899697303771973,9.764153480529785,-4.486083984375,-0.579833984375,2.044677734375
0.7274999,0.28550854325294495,-0.24899697303771973,9.764153480529785,-4.486083984375,-0.579833984375,2.044677734375
0.7324999,0.518943190574646,-0.27653029561042786,9.568427085876465,-1.5869140625,0.152587890625,-2.166748046875
0.7374999,0.4225766062736511,-0.2735375463962555,9.935338973999023,5.523681640625,-0.1220703125,-0.30517578125
0.7424999,0.31184476613998413,-0.25258827209472656,9.712677955627441,-5.4931640625,-1.007080078125,1.708984375
0.7474999,0.5093663930892944,-0.26994624733924866,9.622296333312988,0.3662109375,-0.213623046875,-2.532958984375
0.7524999,0.38127660751342773,-0.26575639843940735,9.979631423950195,5.0048828125,-0.396728515625,0.18310546875
0.7574999,0.2753331959247589,-0.2124854028224945,9.657012939453125,-6.011962890625,-1.312255859375,1.28173828125
0.7624999,0.45190557837486267,-0.21667525172233582,9.625887870788574,1.983642578125,1.03759765625,-2.655029296875
0.7674999,0.35015198588371277,-0.2232593148946762,9.963470458984375,4.39453125,0.762939453125,0.762939453125
0.7724999,0.2867056429386139,-0.22206220030784607,9.601945877075195,-5.615234375,0.79345703125,1.068115234375
0.7774999,0.5153518915176392,-0.3016694188117981,9.657610893249512,3.0517578125,-0.3662109375,-2.899169921875
0.7824999,0.35075053572654724,-0.27892449498176575,9.55466079711914,-5.950927734375,0.823974609375,0.48828125
0.7874999,0.5494692921638489,-0.30705636739730835,9.727641105651855,4.5166015625,1.28173828125,-2.44140625
0.7924999,0.3315969407558441,-0.23403321206569672,9.975440979003906,1.40380859375,0.396728515625,1.708984375
0.7974999,0.3860650360584259,-0.2406172752380371,9.5408935546875,-5.767822265625,0.79345703125,0.152587890625
0.8024999,0.5542576909065247,-0.3166331648826599,9.809642791748047,4.8828125,-0.8544921875,-2.25830078125
0.8074999,0.3190273642539978,-0.25498247146606445,9.889848709106445,-0.213623046875,-0.457763671875,1.708984375
0.8124999,0.4189853072166443,-0.28311434388160706,9.512762069702148,-4.852294921875,0.274658203125,-0.732421875
0.8174999000000001,0.5129576921463013,-0.3405751883983612,9.8970308303833,5.706787109375,-0.48828125,-1.953125
0.8224999000000001,0.24899697303771973,-0.2519897222518921,9.940725326538086,-1.953125,-0.732421875,1.953125
0.8274999000000001,0.436343252658844,-0.2932897210121155,9.613917350769043,-3.570556640625,0.6103515625,-1.312255859375
0.8324999000000001,0.4884171485900879,-0.34656068682670593,10.031106948852539,6.072998046875,-0.457763671875,-1.3427734375
0.8374999,0.2651578485965729,-0.2998737692832947,9.885659217834473,-3.387451171875,-0.91552734375,2.044677734375
0.8424999,0.4405331015586853,-0.33698388934135437,10.006566047668457,6.40869140625,0.030517578125,-0.823974609375
0.8474999,0.2663549482822418,-0.26575639843940735,9.822212219238281,-4.39453125,-0.42724609375,2.105712890625
0.8524999,0.5045779943466187,-0.2932897210121155,9.626486778259277,-1.434326171875,0.244140625,-2.105712890625
0.8574999,0.4076128304004669,-0.262763649225235,9.97065258026123,5.4931640625,-0.48828125,0.030517578125
0.8624999,0.3124433159828186,-0.25258827209472656,9.694721221923828,-5.615234375,-0.579833984375,1.800537109375
0.8674999,0.5099649429321289,-0.25438392162323,9.564835548400879,0.732421875,0.579833984375,-2.62451171875
0.8724999,0.39145198464393616,-0.22445641458034515,9.910199165344238,5.2490234375,-0.030517578125,0.244140625
0.8774999,0.29388827085494995,-0.21009120345115662,9.589376449584961,-6.16455078125,-0.67138671875,1.434326171875
0.8824999,0.2998737692832947,-0.2555810213088989,9.580398559570312,-6.103515625,-0.396728515625,0.823974609375
0.8874999,0.5237316489219666,-0.3214215636253357,9.649829864501953,3.448486328125,0.701904296875,-2.685546875
0.8924999,0.5524620413780212,-0.28790274262428284,9.750985145568848,4.2724609375,-0.274658203125,-2.5634765625
0.8974999,0.3357867896556854,-0.2298433631658554,9.992799758911133,0.9765625,-0.54931640625,1.617431640625
0.9024999,0.4040215313434601,-0.25318682193756104,9.578003883361816,-5.828857421875,0.67138671875,0.030517578125
0.9074999,0.5680243372917175,-0.2974795699119568,9.86231517791748,5.4931640625,0.732421875,-2.105712890625
0.9124999,0.33039984107017517,-0.26336219906806946,9.928155899047852,-0.244140625,-0.3662109375,1.708984375
0.9174999,0.4255693554878235,-0.29568392038345337,9.550470352172852,-5.126953125,-0.152587890625,-1.03759765625
0.9224999,0.5141547918319702,-0.3190273642539978,9.931148529052734,6.04248046875,0.1220703125,-1.64794921875
0.9274999,0.24361002445220947,-0.26575639843940735,9.959280967712402,-2.0751953125,-0.6103515625,2.349853515625
0.9324999,0.4471171796321869,-0.3292027413845062,9.648633003234863,-3.90625,-0.3662109375,-1.52587890625
0.9374999,0.4908113479614258,-0.333991140127182,9.984419822692871,6.40869140625,-0.244140625,-1.739501953125
0.9424999000000001,0.2885012924671173,-0.33339259028434753,9.835979461669922,-3.326416015625,-1.52587890625,1.983642578125
0.9474999000000001,0.28969839215278625,-0.2849099934101105,9.739013671875,-4.730224609375,-1.312255859375,1.922607421875
0.9524999000000001,0.5183446407318115,-0.3058592677116394,9.569623947143555,-1.0986328125,0.640869140625,-2.288818359375
0.9574999000000001,0.42377370595932007,-0.23702596127986908,9.961075782775879,5.859375,0.762939453125,-0.335693359375
0.9624999,0.2669534981250763,-0.27653029561042786,9.620500564575195,-6.378173828125,-0.91552734375,1.28173828125
0.9674999,0.4602852761745453,-0.21368250250816345,9.649829864501953,2.50244140625,1.983642578125,-2.25830078125
0.9724999,0.3519476354122162,-0.21128830313682556,9.99100399017334,3.72314453125,-0.3662109375,0.732421875
0.9774999,0.30705636739730835,-0.26815059781074524,9.606135368347168,-6.011962890625,-1.251220703125,0.518798828125
0.9824999,0.5225345492362976,-0.2454056739807129,9.646238327026367,3.692626953125,0.640869140625,-2.5634765625
0.9874999,0.5410895943641663,-0.26336219906806946,9.728838920593262,4.241943359375,0.213623046875,-2.166748046875
0.9924999,0.3292027413845062,-0.2717418968677521,9.960477828979492,0.91552734375,-0.42724609375,1.617431640625
0.9974999,0.40521863102912903,-0.2711433470249176,9.547477722167969,-5.950927734375,-0.579833984375,-0.457763671875
1.0024999,0.5764040350914001,-0.31124621629714966,9.823410034179688,5.43212890625,0.579833984375,-1.922607421875
1.0074999000000002,0.34596213698387146,-0.29209262132644653,9.875483512878418,-0.42724609375,-0.06103515625,2.0751953125
1.0124999000000001,0.4423287510871887,-0.27413609623908997,9.501988410949707,-4.974365234375,0.18310546875,-1.03759765625
1.0174999000000002,0.5291185975074768,-0.322618693113327,9.88625717163086,5.92041015625,0.18310546875,-1.739501953125
1.0224999000000001,0.24660277366638184,-0.25318682193756104,9.916783332824707,-1.678466796875,-0.06103515625,2.288818359375
1.0274999,0.44173020124435425,-0.27054479718208313,9.628880500793457,-4.150390625,-0.30517578125,-1.129150390625
1.0324999000000001,0.48063600063323975,-0.33039984107017517,9.993996620178223,6.195068359375,0.42724609375,-1.495361328125
1.0374999,0.2669534981250763,-0.272938996553421,9.803657531738281,-3.204345703125,-0.6103515625,1.89208984375
1.0424999000000001,0.32022446393966675,-0.24241292476654053,9.698312759399414,-5.43212890625,-0.54931640625,1.708984375
1.0474999,0.5111620426177979,-0.26156654953956604,9.592369079589844,0.396728515625,0.06103515625,-2.62451171875
1.0524999000000002,0.3824737071990967,-0.25498247146606445,9.922170639038086,5.340576171875,0.48828125,0.274658203125
1.0574999,0.27712884545326233,-0.22685061395168304,9.603741645812988,-5.218505859375,-0.396728515625,1.129150390625
1.0624999000000002,0.4471171796321869,-0.22625206410884857,9.616311073303223,1.922607421875,1.03759765625,-2.410888671875
1.0674999,0.3471592366695404,-0.2406172752380371,9.974244117736816,4.150390625,0.48828125,0.91552734375
1.0724999000000002,0.2795230448246002,-0.22385786473751068,9.598953247070312,-6.16455078125,0.06103515625,0.762939453125
1.0774999,0.5069721937179565,-0.29209262132644653,9.674370765686035,3.509521484375,1.312255859375,-2.655029296875
1.0824999000000002,0.3321954905986786,-0.27892449498176575,9.546878814697266,-6.134033203125,-0.091552734375,0.42724609375
1.0874999,0.535702645778656,-0.3100491166114807,9.73542308807373,4.21142578125,0.213623046875,-2.593994140625
1.0924999000000002,0.3172317147254944,-0.25258827209472656,9.979631423950195,1.251220703125,-0.396728515625,1.617431640625
1.0974999,0.38726213574409485,-0.25258827209472656,9.545681953430176,-5.889892578125,-0.030517578125,0.1220703125
1.1024999000000002,0.5602431893348694,-0.322618693113327,9.77791976928711,5.31005859375,0.213623046875,-2.13623046875
1.1074999,0.33279404044151306,-0.262763649225235,9.849146842956543,-0.244140625,-0.54931640625,1.678466796875
1.1124999000000002,0.43694180250167847,-0.2669534981250763,9.451709747314453,-4.608154296875,0.18310546875,-1.0986328125
1.1174999,0.5279214978218079,-0.3345896899700165,9.855133056640625,5.92041015625,0.396728515625,-1.800537109375
1.1224999000000002,0.25079262256622314,-0.21966800093650818,9.915586471557617,-1.617431640625,-0.762939453125,2.166748046875
1.1274999,0.4411316514015198,-0.2693476974964142,9.633070945739746,-4.241943359375,0.244140625,-1.0986328125
1.1324999000000002,0.47584760189056396,-0.32860419154167175,10.043676376342773,6.40869140625,0.823974609375,-1.373291015625
1.1374999000000001,0.2651578485965729,-0.2777273952960968,9.920374870300293,-3.173828125,-0.030517578125,2.044677734375
1.1424999000000002,0.5123591423034668,-0.2861070930957794,9.633668899536133,-1.28173828125,0.30517578125,-2.197265625
1.1474999000000001,0.4189853072166443,-0.2861070930957794,9.995792388916016,6.072998046875,0.54931640625,-0.396728515625
1.1524999000000002,0.31603461503982544,-0.272938996553421,9.744400978088379,-4.974365234375,-0.42724609375,1.678466796875
1.1574999000000001,0.5129576921463013,-0.2902969419956207,9.616311073303223,0.946044921875,1.922607421875,-2.410888671875
1.1624999,0.38905778527259827,-0.28311434388160706,9.946112632751465,5.401611328125,0.6103515625,0.30517578125
1.1674999000000001,0.27473464608192444,-0.2454056739807129,9.607931137084961,-5.828857421875,-0.30517578125,1.434326171875
1.1724999,0.4554968774318695,-0.2322375625371933,9.593565940856934,1.46484375,0.67138671875,-2.50244140625
1.1774999000000002,0.3489548861980438,-0.24480712413787842,9.945513725280762,4.150390625,0.91552734375,0.8544921875
1.1824999,0.2950853705406189,-0.23044191300868988,9.602544784545898,-6.103515625,0.6103515625,0.91552734375
1.1874999000000002,0.5201402902603149,-0.30466216802597046,9.670180320739746,2.99072265625,0,-2.99072265625
1.1924999,0.3621230125427246,-0.28371289372444153,9.548076629638672,-5.4931640625,0.396728515625,0.48828125
1.1974999000000002,0.5620388388633728,-0.3058592677116394,9.747992515563965,4.7607421875,1.03759765625,-2.349853515625
1.2024999,0.35015198588371277,-0.24839842319488525,9.988609313964844,1.5869140625,0.030517578125,1.800537109375
1.2074999000000002,0.40222588181495667,-0.25258827209472656,9.57201862335205,-5.615234375,0.1220703125,-0.1220703125
1.2124999,0.5692214369773865,-0.322618693113327,9.846753120422363,5.157470703125,0.9765625,-2.166748046875
1.2174999000000002,0.3357867896556854,-0.26096799969673157,9.924564361572266,-0.335693359375,-0.06103515625,1.983642578125
1.2224999,0.42377370595932007,-0.28371289372444153,9.548674583435059,-5.31005859375,-0.885009765625,-0.946044921875
1.2274999000000002,0.5195417404174805,-0.33698388934135437,9.930550575256348,5.615234375,0.6103515625,-1.89208984375
1.2324999,0.23822307586669922,-0.24361002445220947,9.949105262756348,-1.678466796875,0.091552734375,2.197265625
1.2374999000000002,0.42676645517349243,-0.2759317457675934,9.632472038269043,-3.7841796875,0.3662109375,-1.373291015625
1.2424999,0.4818331003189087,-0.31783026456832886,10.004171371459961,6.28662109375,0.274658203125,-1.434326171875
1.2474999000000002,0.46148237586021423,-0.30945056676864624,9.908403396606445,6.34765625,0.8544921875,-0.8544921875
1.2524999,0.2849099934101105,-0.2472013235092163,9.774927139282227,-4.119873046875,0.091552734375,2.13623046875
1.2574999000000002,0.5171475410461426,-0.28072014451026917,9.616311073303223,-1.617431640625,-0.091552734375,-2.25830078125
1.2624999000000001,0.4159925580024719,-0.26815059781074524,9.999382972717285,6.04248046875,0.640869140625,-0.48828125
1.2674999000000002,0.3082534670829773,-0.25498247146606445,9.700108528137207,-5.37109375,0.06103515625,1.8310546875
1.2724999000000001,0.5123591423034668,-0.2825157940387726,9.556455612182617,-0.091552734375,-0.18310546875,-2.5634765625
1.2774999000000002,0.3998316824436188,-0.25737667083740234,9.882665634155273,4.974365234375,-0.30517578125,0.030517578125
1.2824999000000001,0.2825157940387726,-0.2651578485965729,9.552865028381348,-5.92041015625,-1.129150390625,1.495361328125
1.2874999,0.46567222476005554,-0.2645592987537384,9.596558570861816,1.77001953125,0.335693359375,-2.777099609375
1.2924999000000001,0.33937808871269226,-0.24899697303771973,9.960477828979492,4.302978515625,0.06103515625,0.640869140625
1.2974999,0.36750996112823486,-0.24241292476654053,9.988011360168457,2.86865234375,0.244140625,0.885009765625
1.3024999000000002,0.36750996112823486,-0.24241292476654053,9.988011360168457,2.86865234375,0.244140625,0.885009765625
1.3074999,0.33279404044151306,-0.27413609623908997,9.585186958312988,-5.92041015625,-0.54931640625,0.244140625
1.3124999000000002,0.5380968451499939,-0.2735375463962555,9.761758804321289,4.730224609375,0.885009765625,-2.62451171875
1.3174999,0.3363853394985199,-0.2346317619085312,10.013150215148926,1.434326171875,-0.030517578125,1.495361328125
1.3224999000000002,0.38726213574409485,-0.25677812099456787,9.569623947143555,-6.04248046875,-0.67138671875,-0.091552734375
1.3274999,0.5734112858772278,-0.30466216802597046,9.831789016723633,5.4931640625,0.946044921875,-2.349853515625
1.3324999000000002,0.35075053572654724,-0.2783259451389313,9.883264541625977,-0.335693359375,-0.18310546875,1.922607421875
1.3374999,0.44412440061569214,-0.31364041566848755,9.481637001037598,-5.0048828125,-0.152587890625,-0.54931640625
1.3424999000000002,0.5398924946784973,-0.33099839091300964,9.835979461669922,6.34765625,0.946044921875,-1.739501953125
1.3474999,0.262763649225235,-0.2735375463962555,9.886856079101562,-1.220703125,-0.1220703125,2.044677734375
1.3524999000000002,0.4231751561164856,-0.31603461503982544,9.585186958312988,-3.692626953125,0.54931640625,-1.312255859375
1.3574999,0.46627077460289,-0.262763649225235,10.034697532653809,6.28662109375,0.701904296875,-0.91552734375
1.3624999000000002,0.5165489912033081,-0.3208230137825012,9.643245697021484,-0.48828125,1.617431640625,-2.25830078125
1.3674999,0.42018240690231323,-0.2298433631658554,9.99339771270752,6.04248046875,0.885009765625,-0.213623046875
1.3724999000000002,0.31783026456832886,-0.3208230137825012,9.724648475646973,-5.279541015625,-0.274658203125,1.8310546875
1.3774999,0.5273229479789734,-0.2717418968677521,9.567828178405762,0.18310546875,0.91552734375,-2.288818359375
1.3824999000000002,0.4129997789859772,-0.24779987335205078,9.944915771484375,5.37109375,0.518798828125,0.518798828125
1.3874999000000001,0.28550854325294495,-0.304063618183136,9.59835433959961,-5.645751953125,0.244140625,1.52587890625
1.3924999000000002,0.4620809257030487,-0.2364274114370346,9.648633003234863,1.77001953125,0.518798828125,-2.593994140625
1.3974999000000001,0.3256114423274994,-0.2298433631658554,10.022727012634277,4.180908203125,0.518798828125,0.823974609375
1.4024999000000002,0.33698388934135437,-0.3010708689689636,9.549872398376465,-5.9814453125,-0.091552734375,0.48828125
1.4074999000000001,0.5416881442070007,-0.2603694200515747,9.695918083190918,4.82177734375,1.708984375,-2.716064453125
1.4124999,0.3405751883983612,-0.26396074891090393,9.983820915222168,1.3427734375,0.091552734375,1.5869140625
1.4174999000000001,0.3758896589279175,-0.2867056429386139,9.575011253356934,-5.859375,-0.244140625,0.1220703125
1.4224999,0.5668272376060486,-0.2759317457675934,9.86111831665039,5.4931640625,1.0986328125,-2.25830078125
1.4274999000000002,0.3489548861980438,-0.3082534670829773,9.911994934082031,-0.06103515625,0.335693359375,1.922607421875
1.4324999,0.4345476031303406,-0.3321954905986786,9.497797966003418,-4.39453125,0.732421875,-0.640869140625
1.4374999000000002,0.5392939448356628,-0.3034650683403015,9.81263542175293,6.072998046875,0.701904296875,-1.983642578125
1.4424999,0.4800374507904053,-0.28072014451026917,10.018536567687988,6.16455078125,0.640869140625,-0.885009765625
1.4474999000000002,0.2759317457675934,-0.30526071786880493,9.81024169921875,-4.150390625,-0.457763671875,1.983642578125
1.4524999,0.50876784324646,-0.30885201692581177,9.621099472045898,-1.52587890625,-0.396728515625,-1.953125
1.4574999000000002,0.41120412945747375,-0.23163901269435883,9.965266227722168,6.317138671875,0.396728515625,-0.244140625
1.4624999,0.292691171169281,-0.2974795699119568,9.786299705505371,-5.035400390625,-0.06103515625,1.861572265625
1.4674999000000002,0.5267243981361389,-0.2849099934101105,9.61571216583252,-0.762939453125,-1.28173828125,-2.899169921875
1.4724999,0.42437225580215454,-0.24001872539520264,10.001777648925781,5.2490234375,-0.030517578125,0.06103515625
1.4774999000000002,0.32381579279899597,-0.30226796865463257,9.671378135681152,-5.645751953125,-0.152587890625,1.40380859375
1.4824999,0.4866214990615845,-0.22924481332302094,9.643245697021484,1.40380859375,0.42724609375,-2.62451171875
1.4874999000000002,0.35733461380004883,-0.21667525172233582,10.02452278137207,4.364013671875,0.1220703125,0.67138671875
1.4924999,0.3280056416988373,-0.2992752194404602,9.583989143371582,-6.378173828125,-1.03759765625,0.518798828125
1.4974999000000002,0.5386953949928284,-0.2998737692832947,9.697115898132324,3.936767578125,0.8544921875,-2.8076171875
1.5024999,0.3597288131713867,-0.29388827085494995,9.989208221435547,2.105712890625,-0.640869140625,1.52587890625
1.5074999000000002,0.35673606395721436,-0.29628247022628784,9.592369079589844,-6.2255859375,-0.67138671875,0.274658203125
1.5124999000000001,0.5494692921638489,-0.3172317147254944,9.831191062927246,4.241943359375,-0.67138671875,-2.655029296875
1.5174999000000002,0.34177228808403015,-0.2974795699119568,9.99220085144043,0.6103515625,-0.762939453125,1.5869140625
1.5224999000000001,0.5740098357200623,-0.3345896899700165,9.816825866699219,5.615234375,0.54931640625,-2.166748046875
1.5274999000000002,0.3232172429561615,-0.25019407272338867,9.877877235412598,-0.6103515625,-0.3662109375,1.77001953125
1.5324999000000001,0.4141969084739685,-0.24241292476654053,9.498994827270508,-4.39453125,0.06103515625,-0.8544921875
1.5374999000000003,0.22445641458034515,-0.23702596127986908,9.923966407775879,-1.89208984375,-0.518798828125,1.89208984375
1.5424999000000001,0.4471171796321869,-0.2801215946674347,9.625887870788574,-3.692626953125,-0.06103515625,-1.40380859375
1.5474999,0.4908113479614258,-0.3411737382411957,10.010157585144043,6.195068359375,0.152587890625,-1.373291015625
1.5524999000000002,0.29388827085494995,-0.28550854325294495,9.812037467956543,-3.143310546875,-1.03759765625,1.861572265625
1.5574999,0.5404910445213318,-0.30047231912612915,9.566033363342285,-2.0751953125,0.67138671875,-1.861572265625
1.5624999000000002,0.4578910768032074,-0.31783026456832886,9.923367500305176,6.317138671875,0.152587890625,-0.701904296875
1.5674999,0.27892449498176575,-0.25318682193756104,9.756970405578613,-4.425048828125,0.030517578125,1.922607421875
1.5724999000000002,0.5069721937179565,-0.2783259451389313,9.608530044555664,-1.03759765625,-0.457763671875,-2.349853515625
1.5774999,0.4100070297718048,-0.292691171169281,9.99339771270752,5.7373046875,-0.213623046875,-0.18310546875
1.5824999000000002,0.314238965511322,-0.26815059781074524,9.697713851928711,-5.340576171875,-0.79345703125,1.434326171875
1.5874999,0.5147533416748047,-0.28371289372444153,9.603142738342285,0.48828125,1.312255859375,-2.44140625
1.5924999000000002,0.39145198464393616,-0.2735375463962555,9.9401273727417,4.974365234375,-0.152587890625,0.48828125
1.5974999,0.4644751250743866,-0.2495955228805542,9.642048835754395,1.64794921875,0.244140625,-2.838134765625
1.6024999000000002,0.36332011222839355,-0.24899697303771973,9.988011360168457,4.058837890625,0.213623046875,0.762939453125
1.6074999,0.2932897210121155,-0.2472013235092163,9.62947940826416,-6.317138671875,1.03759765625,1.0986328125
1.6124999000000002,0.5147533416748047,-0.3016694188117981,9.671976089477539,3.204345703125,0.244140625,-2.685546875
1.6174999,0.3794809579849243,-0.2783259451389313,9.97484302520752,2.960205078125,-0.18310546875,1.46484375
1.6224999000000002,0.34835633635520935,-0.2885012924671173,9.589376449584961,-6.011962890625,0.701904296875,0.579833984375
1.6274999,0.5422866940498352,-0.31364041566848755,9.790489196777344,4.5166015625,1.434326171875,-2.349853515625
1.6324999000000002,0.3321954905986786,-0.25917232036590576,10.051457405090332,1.617431640625,0.42724609375,1.708984375
1.6374999000000001,0.36810851097106934,-0.27892449498176575,9.618106842041016,-5.401611328125,-0.640869140625,-0.396728515625
1.6424999000000002,0.5524620413780212,-0.3274070918560028,9.861717224121094,5.279541015625,1.0986328125,-2.166748046875
1.6474999000000001,0.333991140127182,-0.28072014451026917,9.937732696533203,-0.152587890625,-0.335693359375,2.044677734375
1.6524999000000002,0.4291606545448303,-0.292691171169281,9.525331497192383,-5.67626953125,-0.8544921875,-0.640869140625
1.6574999000000001,0.2759317457675934,-0.2519897222518921,9.925163269042969,-1.190185546875,-0.518798828125,2.01416015625
1.6624999000000003,0.4339490532875061,-0.28730419278144836,9.603142738342285,-4.180908203125,0.213623046875,-1.0986328125
1.6674999000000001,0.5045779943466187,-0.3082534670829773,10.00716495513916,6.40869140625,0.67138671875,-1.495361328125
1.6724999,0.26815059781074524,-0.26396074891090393,9.911994934082031,-3.021240234375,-0.579833984375,2.0751953125
1.6774999000000002,0.5165489912033081,-0.2974795699119568,9.645041465759277,-3.692626953125,-0.823974609375,-1.800537109375
1.6824999,0.28550854325294495,-0.26096799969673157,9.777320861816406,-3.753662109375,-0.8544921875,1.8310546875
1.6874999000000002,0.5135562419891357,-0.29807811975479126,9.565434455871582,-1.28173828125,0.244140625,-2.349853515625
1.6924999,0.4141969084739685,-0.26994624733924866,9.911994934082031,6.195068359375,0.457763671875,-0.701904296875
1.6974999000000002,0.29388827085494995,-0.2669534981250763,9.719860076904297,-4.94384765625,-0.701904296875,1.800537109375
1.7024999,0.5171475410461426,-0.3016694188117981,9.549273490905762,-0.3662109375,1.190185546875,-2.166748046875
1.7074999000000002,0.4255693554878235,-0.25258827209472656,9.889848709106445,5.584716796875,0.823974609375,0.06103515625
1.7124999,0.31364041566848755,-0.2795230448246002,9.585784912109375,-5.18798828125,-0.3662109375,1.556396484375
1.7174999000000002,0.4866214990615845,-0.2472013235092163,9.545681953430176,1.15966796875,0.8544921875,-2.532958984375
1.7224999,0.3561375141143799,-0.20709845423698425,9.96945571899414,4.638671875,-0.213623046875,0.48828125
1.7274999000000002,0.2663549482822418,-0.21308395266532898,9.655217170715332,-6.04248046875,-0.518798828125,1.251220703125
1.7324999,0.46806642413139343,-0.2322375625371933,9.6989107131958,2.716064453125,0.762939453125,-2.62451171875
1.7374999000000002,0.37169981002807617,-0.2256535142660141,10.019734382629395,3.326416015625,-0.06103515625,0.946044921875
1.7424999,0.32441434264183044,-0.2885012924671173,9.613917350769043,-6.378173828125,-0.1220703125,0.8544921875
1.7474999000000002,0.5267243981361389,-0.2932897210121155,9.702502250671387,3.7841796875,0.946044921875,-2.44140625
1.7524999,0.3489548861980438,-0.26396074891090393,9.979631423950195,1.922607421875,-0.06103515625,1.46484375
1.7574999000000002,0.32860419154167175,-0.2950853705406189,9.537900924682617,-6.072998046875,-0.518798828125,0.091552734375
1.7624999000000001,0.31364041566848755,-0.2585737705230713,9.952696800231934,0.701904296875,-0.396728515625,1.556396484375
1.7674999000000002,0.5099649429321289,-0.27234044671058655,9.898228645324707,6.34765625,1.03759765625,-1.708984375
1.7724999000000001,0.24181437492370605,-0.28131869435310364,9.898826599121094,-1.953125,0,2.0751953125
1.7774999000000002,0.456095427274704,-0.29388827085494995,9.63187313079834,-3.509521484375,0.701904296875,-1.220703125
1.7824999000000001,0.49380409717559814,-0.2890998423099518,10.014945983886719,6.744384765625,0.701904296875,-1.28173828125
1.7874999000000003,0.2867056429386139,-0.3172317147254944,9.85034465789795,-3.11279296875,-0.42724609375,1.953125
1.7924999000000001,0.5249287486076355,-0.31543606519699097,9.608530044555664,-3.082275390625,-1.312255859375,-1.983642578125
1.7974999,0.46148237586021423,-0.28072014451026917,9.932944297790527,6.4697265625,0.518798828125,-0.823974609375
1.8024999000000002,0.28730419278144836,-0.26575639843940735,9.768941879272461,-4.302978515625,-0.1220703125,1.89208984375
1.8074999,0.5213374495506287,-0.23702596127986908,9.573814392089844,-1.495361328125,-0.701904296875,-2.105712890625
1.8124999000000002,0.40701428055763245,-0.28072014451026917,9.926959037780762,5.035400390625,0.3662109375,0.244140625
1.8174999,0.29867666959762573,-0.24001872539520264,9.652822494506836,-5.767822265625,-0.762939453125,1.28173828125
1.8224999000000002,0.4620809257030487,-0.2388216257095337,9.682151794433594,0.244140625,-1.556396484375,-2.838134765625
1.8274999,0.3381809890270233,-0.26755204796791077,10.046669006347656,3.631591796875,-0.579833984375,0.701904296875
1.8324999000000002,0.3381809890270233,-0.26755204796791077,10.046669006347656,3.631591796875,-0.579833984375,0.701904296875
1.8374999,0.25498247146606445,-0.24001872539520264,9.686341285705566,-5.9814453125,-1.007080078125,0.946044921875
1.8424999000000002,0.3669114112854004,-0.28790274262428284,9.9586820602417,3.082275390625,-0.244140625,1.15966796875
1.8474999,0.3405751883983612,-0.2777273952960968,9.564237594604492,-6.28662109375,-0.3662109375,0.54931640625
1.8524999000000002,0.5476736426353455,-0.2974795699119568,9.690531730651855,4.33349609375,1.8310546875,-2.410888671875
1.8574999,0.353743314743042,-0.2537853717803955,9.536105155944824,-6.256103515625,-0.457763671875,0.1220703125
1.8624999000000002,0.5374982953071594,-0.3076549172401428,9.771934509277344,4.69970703125,-0.8544921875,-2.410888671875
1.8674999,0.3208230137825012,-0.27234044671058655,9.907206535339355,0.48828125,-0.946044921875,1.77001953125
1.8724999000000002,0.4225766062736511,-0.27892449498176575,9.504382133483887,-5.55419921875,-0.8544921875,-0.762939453125
1.8774999,0.558447539806366,-0.34596213698387146,9.84495735168457,5.67626953125,0.030517578125,-2.0751953125
1.8824999000000002,0.3010708689689636,-0.25019407272338867,9.9185791015625,-1.190185546875,-0.30517578125,2.0751953125
1.8874999000000001,0.4297592043876648,-0.2717418968677521,9.59476375579834,-4.69970703125,-0.640869140625,-1.0986328125
1.8924999000000002,0.5069721937179565,-0.3208230137825012,10.028712272644043,5.9814453125,0.1220703125,-1.77001953125
1.8974999000000001,0.2537853717803955,-0.2585737705230713,9.97065258026123,-2.593994140625,-0.42724609375,2.044677734375
1.9024999000000002,0.4944026470184326,-0.2944868206977844,9.673172950744629,-3.5400390625,-0.8544921875,-1.739501953125
1.9074999000000001,0.49380409717559814,-0.3429693877696991,10.022128105163574,6.317138671875,0.762939453125,-1.15966796875
1.9124999000000003,0.29388827085494995,-0.27653029561042786,9.832387924194336,-3.60107421875,-0.213623046875,2.0751953125
1.9174999000000001,0.5117605924606323,-0.2902969419956207,9.620500564575195,-0.54931640625,1.708984375,-2.3193359375
1.9224999,0.41359832882881165,-0.284311443567276,9.99220085144043,5.79833984375,0.091552734375,-0.152587890625
1.9274999000000002,0.30945056676864624,-0.2801215946674347,9.701904296875,-5.31005859375,-0.3662109375,1.495361328125
1.9324999,0.4884171485900879,-0.26396074891090393,9.622895240783691,0.9765625,1.52587890625,-2.3193359375
1.9374999000000002,0.353743314743042,-0.24361002445220947,9.983820915222168,4.82177734375,-0.30517578125,0.518798828125
1.9424999,0.25318682193756104,-0.21847090125083923,9.654019355773926,-6.072998046875,-0.30517578125,1.251220703125
1.9474999000000002,0.4339490532875061,-0.23702596127986908,9.657012939453125,2.01416015625,0.06103515625,-2.5634765625
1.9524999,0.3387795388698578,-0.24660277366638184,9.97603988647461,4.08935546875,0.79345703125,0.885009765625
1.9574999000000002,0.28311434388160706,-0.2669534981250763,9.594164848327637,-5.4931640625,0.48828125,0.91552734375
1.9624999,0.5069721937179565,-0.3130418658256531,9.677363395690918,3.47900390625,0.396728515625,-2.532958984375
1.9674999000000002,0.3345896899700165,-0.25677812099456787,9.94970417022705,1.220703125,-0.640869140625,1.46484375
1.9724999,0.4040215313434601,-0.2795230448246002,9.540295600891113,-6.134033203125,-1.190185546875,-0.18310546875
1.9774999000000002,0.5781996846199036,-0.322618693113327,9.806650161743164,5.79833984375,1.312255859375,-2.166748046875
1.9824999,0.35254621505737305,-0.28371289372444153,9.874884605407715,-0.213623046875,-0.579833984375,1.800537109375
1.9874999000000002,0.45190557837486267,-0.30945056676864624,9.492411613464355,-5.401611328125,-1.068115234375,-1.129150390625
1.9924999,0.5410895943641663,-0.32441434264183044,9.86351203918457,6.866455078125,1.617431640625,-1.800537109375
1.9974999000000002,0.2753331959247589,-0.2651578485965729,9.91977596282959,-1.3427734375,0.335693359375,2.166748046875
2.0024999,0.47884035110473633,-0.3010708689689636,10.025120735168457,6.927490234375,1.495361328125,-0.91552734375
2.0074999,0.28790274262428284,-0.30466216802597046,9.84256362915039,-3.72314453125,0.152587890625,2.044677734375
2.0124999000000003,0.5219359993934631,-0.3298012912273407,9.642048835754395,-1.708984375,0.244140625,-2.105712890625
2.0174999000000002,0.4297592043876648,-0.24001872539520264,10.002974510192871,6.04248046875,0.6103515625,-0.30517578125
2.0224999,0.3124433159828186,-0.304063618183136,9.77013874053955,-5.18798828125,0.06103515625,2.044677734375
2.0274999,0.5386953949928284,-0.30047231912612915,9.619902610778809,-0.152587890625,0.1220703125,-2.5634765625
2.0324999000000004,0.42616790533065796,-0.228047713637352,9.952696800231934,5.43212890625,0.1220703125,-0.091552734375
2.0374999000000003,0.31842881441116333,-0.29867666959762573,9.61451530456543,-5.7373046875,-0.18310546875,1.52587890625
2.0424999,0.4776432514190674,-0.19812019169330597,9.57441234588623,1.5869140625,0.42724609375,-2.50244140625
2.0474999,0.353743314743042,-0.20051439106464386,9.965864181518555,4.150390625,0.06103515625,0.640869140625
2.0524999,0.2687491476535797,-0.21847090125083923,9.637260437011719,-6.317138671875,-0.6103515625,0.9765625
2.0574999000000003,0.48063600063323975,-0.24241292476654053,9.704896926879883,2.044677734375,-1.190185546875,-2.8076171875
2.0624999,0.333991140127182,-0.31603461503982544,9.599552154541016,-5.67626953125,-0.030517578125,0.518798828125
2.0674999,0.535702645778656,-0.3130418658256531,9.709685325622559,4.33349609375,0.640869140625,-2.62451171875
2.0724999,0.3447650372982025,-0.2753331959247589,9.974244117736816,1.800537109375,-0.091552734375,1.495361328125
2.0774999000000003,0.34656068682670593,-0.2753331959247589,9.548076629638672,-6.011962890625,-0.8544921875,-0.213623046875
2.0824999,0.3172317147254944,-0.24779987335205078,9.819818496704102,-0.67138671875,-1.03759765625,1.983642578125
2.0874999,0.42616790533065796,-0.2364274114370346,9.431957244873047,-4.57763671875,0.30517578125,-0.9765625
2.0924999,0.4991910457611084,-0.2777273952960968,9.85034465789795,6.103515625,0.946044921875,-1.861572265625
2.0974999000000003,0.24480712413787842,-0.22924481332302094,9.868300437927246,-2.3193359375,-0.274658203125,2.197265625
2.1024999,0.30047231912612915,-0.30945056676864624,9.86351203918457,-3.2958984375,0.06103515625,2.105712890625
2.1074999,0.5380968451499939,-0.3315969407558441,9.639654159545898,-2.105712890625,-0.701904296875,-2.105712890625
2.1124999,0.4471171796321869,-0.33279404044151306,9.996390342712402,6.40869140625,0.885009765625,-0.732421875
2.1174999000000003,0.2783259451389313,-0.27413609623908997,9.825204849243164,-4.33349609375,0.18310546875,1.922607421875
2.1224999,0.5081692934036255,-0.2950853705406189,9.656414031982422,-1.0986328125,0.152587890625,-2.288818359375
2.1274999,0.4118026793003082,-0.2585737705230713,10.011953353881836,5.79833984375,0.823974609375,-0.244140625
2.1324999,0.31364041566848755,-0.2603694200515747,9.700108528137207,-5.126953125,-0.213623046875,1.617431640625
2.1374999000000003,0.4985924959182739,-0.2561795711517334,9.57860279083252,0.732421875,0.18310546875,-2.74658203125
2.1424999000000002,0.37888240814208984,-0.2322375625371933,9.907206535339355,5.06591796875,-0.6103515625,0.30517578125
2.1474999,0.2663549482822418,-0.22206220030784607,9.569623947143555,-6.072998046875,-0.67138671875,1.373291015625
2.1524999,0.4507084786891937,-0.2256535142660141,9.595361709594727,1.64794921875,-0.579833984375,-2.74658203125
2.1574999000000004,0.35434186458587646,-0.22266076505184174,9.956886291503906,3.936767578125,-0.518798828125,0.79345703125
2.1624999000000003,0.2974795699119568,-0.2555810213088989,9.604340553283691,-6.65283203125,-0.48828125,0.91552734375
2.1674999,0.5273229479789734,-0.304063618183136,9.682151794433594,3.11279296875,-0.152587890625,-2.8076171875
2.1724999,0.3902548849582672,-0.2777273952960968,9.958083152770996,2.777099609375,0.030517578125,1.312255859375
2.1774999000000004,0.3579331636428833,-0.31603461503982544,9.575610160827637,-6.195068359375,0.1220703125,0.701904296875
2.1824999000000003,0.5542576909065247,-0.30047231912612915,9.761159896850586,4.486083984375,0.54931640625,-2.74658203125
2.1874999,0.33339259028434753,-0.2603694200515747,10.011953353881836,1.434326171875,-0.244140625,1.617431640625
2.1924999,0.38486793637275696,-0.27712884545326233,9.577404975891113,-5.43212890625,0.457763671875,-0.06103515625
2.1974999,0.5542576909065247,-0.304063618183136,9.817423820495605,4.8828125,0.885009765625,-2.227783203125
2.2024999000000003,0.33937808871269226,-0.28730419278144836,9.872490882873535,-0.274658203125,0.030517578125,2.044677734375
2.2074999,0.4339490532875061,-0.31842881441116333,9.442731857299805,-4.974365234375,0.335693359375,-0.762939453125
2.2124999,0.5392939448356628,-0.314238965511322,9.785101890563965,6.4697265625,0.48828125,-2.166748046875
2.2174999,0.2753331959247589,-0.2579752206802368,9.84376049041748,-1.556396484375,-0.3662109375,2.166748046875
2.2224999000000003,0.42856210470199585,-0.2867056429386139,9.531915664672852,-3.96728515625,0.3662109375,-1.068115234375
2.2274999,0.5081692934036255,-0.25438392162323,9.947908401489258,5.79833984375,-0.335693359375,-1.64794921875
2.2324999,0.29209262132644653,-0.28072014451026917,9.876082420349121,-3.41796875,-0.732421875,2.227783203125
2.2374999,0.5446808934211731,-0.3274070918560028,9.581595420837402,-2.44140625,1.068115234375,-1.46484375
2.2424999000000003,0.5279214978218079,-0.26755204796791077,9.9586820602417,6.195068359375,0.335693359375,-1.007080078125
2.2474999,0.3250128924846649,-0.3190273642539978,9.792284965515137,-4.119873046875,-0.67138671875,1.89208984375
2.2524999,0.5398924946784973,-0.3082534670829773,9.583391189575195,-1.5869140625,-0.335693359375,-2.13623046875
2.2574999,0.4357447028160095,-0.2472013235092163,9.952696800231934,5.859375,0.762939453125,-0.518798828125
2.2624999000000003,0.2867056429386139,-0.30945056676864624,9.73542308807373,-5.126953125,0.6103515625,2.044677734375
2.2674999000000002,0.5135562419891357,-0.29568392038345337,9.575610160827637,-0.152587890625,0.48828125,-2.349853515625
2.2724999,0.4016273319721222,-0.2555810213088989,9.946710586547852,5.096435546875,-0.67138671875,0.030517578125
2.2774999,0.30466216802597046,-0.304063618183136,9.64803409576416,-5.79833984375,-0.762939453125,1.739501953125
2.2824999000000004,0.46746787428855896,-0.2214636504650116,9.618705749511719,1.46484375,0.9765625,-2.471923828125
2.2874999000000003,0.46327802538871765,-0.2106897532939911,9.647436141967773,3.0517578125,0.42724609375,-2.62451171875
2.2924999,0.3776853084564209,-0.25677812099456787,9.877877235412598,3.265380859375,-0.3662109375,1.03759765625
2.2974999,0.3495534360408783,-0.2495955228805542,9.449316024780273,-6.256103515625,-0.06103515625,0.732421875
2.3024999000000004,0.5608417391777039,-0.2825157940387726,9.493608474731445,3.936767578125,1.3427734375,-2.50244140625
2.3074999000000003,0.3818751573562622,-0.2585737705230713,9.806051254272461,2.25830078125,0.30517578125,1.373291015625
2.3124999,0.35254621505737305,-0.2537853717803955,9.444527626037598,-5.79833984375,-0.42724609375,0.18310546875
2.3174999,0.5321113467216492,-0.2849099934101105,9.725247383117676,4.669189453125,0.3662109375,-2.3193359375
2.3224999,0.31124621629714966,-0.26755204796791077,9.9371337890625,0.732421875,-0.3662109375,1.861572265625
2.3274999000000003,0.39205053448677063,-0.27413609623908997,9.539097785949707,-5.584716796875,0.274658203125,-0.244140625
2.3324999,0.5536591410636902,-0.34416648745536804,9.801861763000488,5.706787109375,0.823974609375,-1.953125
2.3374999,0.42377370595932007,-0.2801215946674347,9.493009567260742,-5.126953125,-0.42724609375,-1.0986328125
2.3424999,0.5105634927749634,-0.33758243918418884,9.912593841552734,5.67626953125,-0.42724609375,-1.77001953125
2.3474999000000003,0.24121582508087158,-0.2585737705230713,9.928155899047852,-2.349853515625,-0.91552734375,2.25830078125
2.3524999,0.4596867263317108,-0.2950853705406189,9.63067626953125,-3.60107421875,0.30517578125,-1.52587890625
2.3574999,0.4967968463897705,-0.34356793761253357,10.02571964263916,6.072998046875,-0.152587890625,-1.5869140625
2.3624999,0.30466216802597046,-0.30526071786880493,9.8784761428833,-3.2958984375,-0.579833984375,2.197265625
2.3674999000000003,0.5446808934211731,-0.32441434264183044,9.631275177001953,-2.01416015625,0.946044921875,-1.800537109375
2.3724999,0.4734533727169037,-0.345363587141037,10.00716495513916,5.950927734375,-0.42724609375,-1.007080078125
2.3774999,0.28790274262428284,-0.26815059781074524,9.79647445678711,-4.638671875,-1.495361328125,1.922607421875
2.3824999,0.5093663930892944,-0.28311434388160706,9.618106842041016,-0.823974609375,0.79345703125,-2.105712890625
2.3874999000000003,0.4076128304004669,-0.262763649225235,9.966463088989258,5.950927734375,0.640869140625,-0.274658203125
2.3924999000000002,0.29807811975479126,-0.26156654953956604,9.73542308807373,-5.126953125,-0.732421875,1.708984375
2.3974999,0.2777273952960968,-0.2561795711517334,9.637859344482422,-5.950927734375,-0.579833984375,1.40380859375
2.4024999,0.45250412821769714,-0.23163901269435883,9.627683639526367,1.52587890625,-0.640869140625,-2.9296875
2.4074999000000004,0.34356793761253357,-0.2388216257095337,9.967061996459961,3.96728515625,-0.79345703125,0.640869140625
2.4124999000000003,0.28371289372444153,-0.2214636504650116,9.625887870788574,-6.65283203125,-0.67138671875,1.129150390625
2.4174999,0.5045779943466187,-0.3010708689689636,9.676764488220215,2.5634765625,-0.06103515625,-2.74658203125
2.4224999,0.3776853084564209,-0.2908954918384552,9.9185791015625,3.0517578125,0.335693359375,1.3427734375
2.4274999000000004,0.33937808871269226,-0.3076549172401428,9.525331497192383,-5.523681640625,-0.213623046875,0.54931640625
2.4324999000000003,0.5309142470359802,-0.3196259140968323,9.671976089477539,3.96728515625,-0.244140625,-2.62451171875
2.4374999,0.5309142470359802,-0.3196259140968323,9.671976089477539,3.96728515625,-0.244140625,-2.62451171875
2.4424999,0.32202014327049255,-0.25019407272338867,9.95209789276123,1.556396484375,-0.701904296875,1.3427734375
2.4474999,0.35673606395721436,-0.25079262256622314,9.542689323425293,-6.2255859375,-0.457763671875,-0.030517578125
2.4524999000000003,0.5374982953071594,-0.3274070918560028,9.821614265441895,5.79833984375,-0.3662109375,-1.983642578125
2.4574999,0.2693476974964142,-0.24181437492370605,9.877877235412598,-1.3427734375,-0.579833984375,2.227783203125
2.4624999,0.41120412945747375,-0.26336219906806946,9.536105155944824,-4.425048828125,-0.79345703125,-1.251220703125
2.4674999,0.4812345504760742,-0.3058592677116394,9.972448348999023,5.859375,-0.18310546875,-1.52587890625
2.4724999000000003,0.2495955228805542,-0.2663549482822418,9.906009674072266,-2.685546875,-0.91552734375,2.25830078125
2.4774999,0.5045779943466187,-0.3298012912273407,9.646238327026367,-3.814697265625,-1.0986328125,-2.01416015625
2.4824999,0.4884171485900879,-0.3298012912273407,9.991601943969727,6.65283203125,0.885009765625,-1.0986328125
2.4874999,0.3034650683403015,-0.28730419278144836,9.800664901733398,-3.72314453125,0.152587890625,2.197265625
2.4924999000000003,0.5363011956214905,-0.3058592677116394,9.573814392089844,-1.495361328125,0.9765625,-2.197265625
2.4974999,0.43694180250167847,-0.25977087020874023,9.913790702819824,5.889892578125,-0.1220703125,-0.54931640625
2.5024999,0.5105634927749634,-0.28131869435310364,9.585186958312988,-0.244140625,0.823974609375,-2.227783203125
2.5074999,0.39803603291511536,-0.24899697303771973,9.967061996459961,5.615234375,0.67138671875,0.091552734375
2.5124999000000003,0.2902969419956207,-0.28131869435310364,9.648633003234863,-5.55419921875,-0.244140625,1.678466796875
2.5174999000000002,0.46088382601737976,-0.2561795711517334,9.613917350769043,1.03759765625,0.335693359375,-2.685546875
2.5224999,0.34356793761253357,-0.22026655077934265,9.97364616394043,4.425048828125,0.1220703125,0.579833984375
2.5274999,0.2579752206802368,-0.23044191300868988,9.640851974487305,-6.34765625,-0.274658203125,1.190185546875
2.5324999000000004,0.4800374507904053,-0.24241292476654053,9.66539192199707,2.410888671875,0.1220703125,-2.532958984375
2.5374999000000003,0.37648820877075195,-0.23822307586669922,9.919178009033203,3.173828125,-0.213623046875,1.129150390625
2.5424999,0.3298012912273407,-0.29388827085494995,9.514557838439941,-6.65283203125,-1.434326171875,0.48828125
2.5474999,0.5321113467216492,-0.28550854325294495,9.616311073303223,3.96728515625,0.8544921875,-2.593994140625
2.5524999000000004,0.3357867896556854,-0.25498247146606445,9.929951667785645,2.166748046875,-0.030517578125,1.52587890625
2.5574999000000003,0.33279404044151306,-0.27413609623908997,9.555258750915527,-6.195068359375,-0.701904296875,0.1220703125
2.5624999,0.4016273319721222,-0.2944868206977844,9.588777542114258,-5.706787109375,-0.48828125,-0.640869140625
2.5674999,0.5506663918495178,-0.3100491166114807,9.897629737854004,5.31005859375,-0.3662109375,-2.13623046875
2.5724999,0.3034650683403015,-0.28371289372444153,9.955090522766113,-0.91552734375,-0.885009765625,2.227783203125
2.5774999000000003,0.4183867573738098,-0.314238965511322,9.607333183288574,-4.791259765625,-0.701904296875,-1.190185546875
2.5824999,0.5015852451324463,-0.2693476974964142,9.999981880187988,5.767822265625,-0.6103515625,-1.983642578125
2.5874999,0.2406172752380371,-0.2711433470249176,9.973047256469727,-2.655029296875,-1.007080078125,2.227783203125
2.5924999,0.4626794755458832,-0.3214215636253357,9.647436141967773,-3.753662109375,0.213623046875,-1.495361328125
2.5974999000000003,0.4950011968612671,-0.28311434388160706,10.017339706420898,6.744384765625,0.79345703125,-1.3427734375
2.6024999,0.28790274262428284,-0.3387795388698578,9.834183692932129,-3.47900390625,-0.335693359375,2.105712890625
2.6074999,0.5273229479789734,-0.3321954905986786,9.622296333312988,-2.044677734375,0.18310546875,-1.953125
2.6124999,0.44352585077285767,-0.2645592987537384,10.011953353881836,5.9814453125,0.396728515625,-0.732421875
2.6174999000000003,0.5171475410461426,-0.28730419278144836,9.510367393493652,0.79345703125,0.54931640625,-2.410888671875
2.6224999,0.3818751573562622,-0.24121582508087158,9.888052940368652,4.547119140625,-0.213623046875,0.396728515625
2.6274999,0.27653029561042786,-0.2585737705230713,9.603741645812988,-6.16455078125,-0.701904296875,1.15966796875
2.6324999,0.44592007994651794,-0.2082955539226532,9.644442558288574,1.89208984375,0.152587890625,-2.532958984375
2.6374999000000003,0.3387795388698578,-0.22206220030784607,10.013150215148926,3.936767578125,0.42724609375,1.03759765625
2.6424999000000002,0.34656068682670593,-0.3130418658256531,9.59476375579834,-6.103515625,-0.1220703125,-0.030517578125
2.6474999,0.4016273319721222,-0.2687491476535797,9.572616577148438,-5.92041015625,-0.67138671875,-0.152587890625
2.6524999,0.5764040350914001,-0.30945056676864624,9.819219589233398,5.218505859375,0.396728515625,-2.227783203125
2.6574999000000004,0.3411737382411957,-0.2777273952960968,9.889848709106445,-0.18310546875,0.030517578125,2.01416015625
2.6624999000000003,0.424970805644989,-0.25737667083740234,9.5007905960083,-4.8828125,-0.9765625,-0.67138671875
2.6674999,0.5207388401031494,-0.3082534670829773,9.849146842956543,5.767822265625,0.54931640625,-1.922607421875
2.6724999,0.23523031175136566,-0.21607670187950134,9.890447616577148,-1.40380859375,-0.518798828125,1.983642578125
2.6774999000000004,0.4100070297718048,-0.2406172752380371,9.578003883361816,-3.753662109375,0.396728515625,-1.40380859375
2.6824999000000003,0.4836287498474121,-0.31184476613998413,9.964667320251465,6.378173828125,0.54931640625,-1.40380859375
2.6874999,0.27234044671058655,-0.28131869435310364,9.872490882873535,-2.685546875,-0.48828125,2.0751953125
2.6924999,0.5404910445213318,-0.32381579279899597,9.600150108337402,-2.777099609375,0.6103515625,-1.861572265625
2.6974999,0.5069721937179565,-0.363918662071228,9.988609313964844,6.28662109375,0.18310546875,-1.068115234375
2.7024999000000003,0.43514615297317505,-0.2932897210121155,10.020332336425781,5.7373046875,-0.18310546875,-0.3662109375
2.7074999,0.30466216802597046,-0.25737667083740234,9.788095474243164,-4.852294921875,-0.640869140625,1.64794921875
2.7124999,0.5195417404174805,-0.2908954918384552,9.617507934570312,-0.457763671875,0.396728515625,-2.655029296875
2.7174999,0.40940847992897034,-0.27653029561042786,9.968857765197754,5.55419921875,0.396728515625,0.152587890625
2.7224999000000003,0.304063618183136,-0.25977087020874023,9.642647743225098,-5.55419921875,-0.42724609375,1.373291015625
2.7274999,0.47644615173339844,-0.21966800093650818,9.63187313079834,1.007080078125,-0.30517578125,-2.8076171875
2.7324999,0.3471592366695404,-0.22744916379451752,10.011953353881836,4.2724609375,-0.518798828125,0.701904296875
2.7374999,0.2621650993824005,-0.2017114907503128,9.673771858215332,-6.256103515625,-0.244140625,1.28173828125
2.7424999000000003,0.4710591733455658,-0.2645592987537384,9.717466354370117,2.044677734375,-0.54931640625,-3.0517578125
2.7474999,0.36810851097106934,-0.28790274262428284,9.985616683959961,2.960205078125,-0.213623046875,1.0986328125
2.7524999,0.3280056416988373,-0.29867666959762573,9.595361709594727,-5.401611328125,0.06103515625,0.823974609375
2.7574999,0.5410895943641663,-0.33518823981285095,9.715071678161621,3.692626953125,0.152587890625,-2.86865234375
2.7624999000000003,0.3531447649002075,-0.2849099934101105,10.002376556396484,1.77001953125,-0.701904296875,1.52587890625
2.7674999000000002,0.35913026332855225,-0.2753331959247589,9.586981773376465,-6.317138671875,-0.3662109375,0.42724609375
2.7724999,0.5530605912208557,-0.3148375153541565,9.82999324798584,4.913330078125,0.640869140625,-2.50244140625
2.7774999,0.3423708379268646,-0.28072014451026917,9.944915771484375,0.701904296875,-0.18310546875,1.556396484375
2.7824999000000004,0.43754035234451294,-0.28969839215278625,9.518148422241211,-4.852294921875,0.06103515625,-0.42724609375
2.7874999000000003,0.5692214369773865,-0.3531447649002075,9.800664901733398,5.4931640625,0.06103515625,-2.166748046875
2.7924999,0.3076549172401428,-0.26156654953956604,9.86351203918457,-0.91552734375,-0.213623046875,2.01416015625
2.7974999,0.41539400815963745,-0.2687491476535797,9.525331497192383,-4.69970703125,-0.457763671875,-0.79345703125
2.8024999000000004,0.2190694510936737,-0.2537853717803955,9.9185791015625,-1.983642578125,-0.457763671875,1.953125
2.8074999000000003,0.45489832758903503,-0.29209262132644653,9.627683639526367,-2.9296875,0.6103515625,-1.46484375
2.8124999,0.4704606235027313,-0.3298012912273407,9.999382972717285,6.65283203125,0.457763671875,-1.03759765625
2.8174999,0.284311443567276,-0.2711433470249176,9.833584785461426,-3.570556640625,-0.030517578125,2.044677734375
2.8224999,0.5321113467216492,-0.2890998423099518,9.617507934570312,-1.678466796875,1.251220703125,-1.922607421875
2.8274999000000003,0.4465186297893524,-0.29568392038345337,9.99339771270752,6.134033203125,-0.030517578125,-0.8544921875
2.8324999,0.29807811975479126,-0.24660277366638184,9.812037467956543,-4.364013671875,-1.220703125,1.556396484375
2.8374999,0.524330198764801,-0.2902969419956207,9.628880500793457,-0.54931640625,1.556396484375,-2.288818359375
2.8424999,0.4255693554878235,-0.28550854325294495,9.97364616394043,5.584716796875,0.274658203125,0.030517578125
2.8474999000000003,0.3124433159828186,-0.28969839215278625,9.657012939453125,-5.31005859375,-0.244140625,1.739501953125
2.8524999,0.49140989780426025,-0.2795230448246002,9.581595420837402,0.18310546875,-0.823974609375,-2.899169921875
2.8574999,0.35254621505737305,-0.2651578485965729,9.958083152770996,4.913330078125,-0.335693359375,0.396728515625
2.8624999,0.25977087020874023,-0.228047713637352,9.64564037322998,-5.92041015625,-0.732421875,1.52587890625
2.8674999000000003,0.44412440061569214,-0.24361002445220947,9.67077922821045,2.593994140625,1.46484375,-2.62451171875
2.8724999,0.35494041442871094,-0.2519897222518921,9.98681354522705,3.47900390625,-0.79345703125,0.885009765625
2.8774999,0.5165489912033081,-0.3274070918560028,9.667187690734863,3.265380859375,-0.518798828125,-2.777099609375
2.8824999,0.5374982953071594,-0.2885012924671173,9.778518676757812,4.33349609375,0,-2.471923828125
2.8874999000000003,0.32202014327049255,-0.25258827209472656,9.998785018920898,0.946044921875,-0.54931640625,1.708984375
2.8924999000000002,0.40222588181495667,-0.2669534981250763,9.559449195861816,-5.43212890625,0.640869140625,-0.06103515625
2.8974999,0.5704185366630554,-0.33758243918418884,9.848548889160156,5.950927734375,1.251220703125,-2.13623046875
2.9024999,0.3447650372982025,-0.28790274262428284,9.907206535339355,-0.335693359375,-0.1220703125,1.800537109375
2.9074999000000004,0.4495113790035248,-0.3076549172401428,9.542689323425293,-4.669189453125,0.213623046875,-0.885009765625
2.9124999000000003,0.5392939448356628,-0.3387795388698578,9.941922187805176,5.7373046875,-0.06103515625,-1.739501953125
2.9174999,0.26396074891090393,-0.26994624733924866,9.9586820602417,-2.0751953125,-0.30517578125,1.953125
2.9224999,0.456095427274704,-0.3076549172401428,9.644442558288574,-3.96728515625,0.091552734375,-1.434326171875
2.9274999000000004,0.5147533416748047,-0.333991140127182,9.536105155944824,-1.89208984375,0.8544921875,-1.5869140625
2.9324999000000003,0.44352585077285767,-0.2974795699119568,9.8970308303833,6.2255859375,-0.030517578125,-0.67138671875
2.9374999,0.27413609623908997,-0.25258827209472656,9.740809440612793,-4.57763671875,-0.79345703125,1.800537109375
2.9424999,0.5165489912033081,-0.28072014451026917,9.581595420837402,-1.03759765625,0.091552734375,-2.197265625
2.9474999,0.43035775423049927,-0.24660277366638184,9.963470458984375,6.4697265625,0.823974609375,-0.152587890625
2.9524999000000003,0.3321954905986786,-0.2890998423099518,9.731232643127441,-5.18798828125,0.091552734375,1.5869140625
2.9574999,0.5303156971931458,-0.2944868206977844,9.625887870788574,0.579833984375,0.335693359375,-2.716064453125
2.9624999,0.4040215313434601,-0.24779987335205078,9.996390342712402,5.096435546875,0.579833984375,0.48828125
2.9674999,0.2717418968677521,-0.2645592987537384,9.643844604492188,-5.92041015625,-0.18310546875,1.434326171875
2.9724999000000003,0.4644751250743866,-0.23283611238002777,9.651026725769043,1.556396484375,0.335693359375,-2.685546875
2.9774999,0.33518823981285095,-0.23163901269435883,9.983820915222168,4.2724609375,0.579833984375,0.9765625
2.9824999,0.3411737382411957,-0.28550854325294495,9.610923767089844,-6.4697265625,-0.67138671875,0.335693359375
2.9874999,0.5398924946784973,-0.26575639843940735,9.815030097961426,4.486083984375,0.1220703125,-2.685546875
2.9924999000000003,0.33099839091300964,-0.2472013235092163,10.053253173828125,1.28173828125,-0.396728515625,1.678466796875
2.9974999,0.3968389332294464,-0.2825157940387726,9.61331844329834,-5.828857421875,-0.18310546875,-0.213623046875
3.0024999,0.5752069354057312,-0.30945056676864624,9.874884605407715,5.584716796875,0.1220703125,-2.166748046875
3.0074999,0.35733461380004883,-0.2968810200691223,9.946112632751465,-0.06103515625,-0.152587890625,2.044677734375
3.0124999000000003,0.44352585077285767,-0.3190273642539978,9.548076629638672,-5.0048828125,0.030517578125,-0.8544921875
3.0174999000000002,0.5303156971931458,-0.30705636739730835,9.923367500305176,6.500244140625,1.190185546875,-1.922607421875
3.0224999,0.2495955228805542,-0.2687491476535797,9.956287384033203,-1.8310546875,-0.152587890625,2.197265625
3.0274999,0.4106055796146393,-0.3190273642539978,9.62947940826416,-4.302978515625,-0.762939453125,-1.40380859375
3.0324999000000004,0.5063736438751221,-0.3447650372982025,9.643844604492188,-2.99072265625,-0.8544921875,-2.01416015625
3.0374999000000003,0.5063736438751221,-0.3447650372982025,9.643844604492188,-2.99072265625,-0.8544921875,-2.01416015625
3.0424999,0.4159925580024719,-0.25318682193756104,9.985017776489258,6.04248046875,0.79345703125,-0.30517578125
3.0474999,0.31124621629714966,-0.2968810200691223,9.694721221923828,-4.82177734375,-0.1220703125,1.8310546875
3.0524999000000004,0.5207388401031494,-0.2603694200515747,9.551667213439941,-0.396728515625,-0.732421875,-2.50244140625
3.0574999000000003,0.4106055796146393,-0.23163901269435883,9.88745403289795,4.913330078125,-0.091552734375,0
3.0624999,0.29209262132644653,-0.25258827209472656,9.583989143371582,-6.04248046875,-0.54931640625,1.373291015625
3.0674999,0.4620809257030487,-0.1885433793067932,9.625887870788574,1.190185546875,-0.274658203125,-2.593994140625
3.0724999000000004,0.27234044671058655,-0.2232593148946762,9.68574333190918,-5.9814453125,-0.54931640625,0.9765625
3.0774999000000003,0.4842272996902466,-0.25977087020874023,9.692925453186035,2.960205078125,0.8544921875,-2.5634765625
3.0824999,0.3693056106567383,-0.29628247022628784,9.965266227722168,3.143310546875,0,1.068115234375
3.0874999,0.3214215636253357,-0.2687491476535797,9.545083999633789,-6.195068359375,0.213623046875,0.48828125
3.0924999,0.5201402902603149,-0.31184476613998413,9.693524360656738,3.875732421875,-0.1220703125,-2.685546875
3.0974999000000003,0.3106476664543152,-0.2651578485965729,9.979631423950195,1.556396484375,-0.579833984375,1.617431640625
3.1024999,0.35015198588371277,-0.25917232036590576,9.5809965133667,-5.889892578125,-0.030517578125,0
3.1074999,0.5428852438926697,-0.30226796865463257,9.807249069213867,4.974365234375,-0.030517578125,-2.471923828125
3.1124999,0.33518823981285095,-0.25498247146606445,9.904812812805176,0.335693359375,-0.701904296875,1.77001953125
3.1174999000000003,0.44173020124435425,-0.2555810213088989,9.470863342285156,-5.31005859375,0.244140625,-0.579833984375
3.1224999,0.4165911078453064,-0.2645592987537384,9.551667213439941,-4.39453125,-0.701904296875,-1.220703125
3.1274999,0.48482584953308105,-0.33937808871269226,9.996390342712402,6.011962890625,-0.152587890625,-1.678466796875
3.1324999,0.25019407272338867,-0.2795230448246002,9.93474006652832,-2.50244140625,-0.91552734375,1.983642578125
3.1374999000000003,0.5063736438751221,-0.314238965511322,9.66958236694336,-3.23486328125,0.518798828125,-1.312255859375
3.1424999000000002,0.49320554733276367,-0.3621230125427246,10.052056312561035,6.40869140625,0.701904296875,-0.91552734375
3.1474999,0.3058592677116394,-0.28730419278144836,9.8784761428833,-3.96728515625,-0.335693359375,1.953125
3.1524999,0.5285200476646423,-0.30286651849746704,9.664793968200684,-1.953125,-0.274658203125,-2.105712890625
3.1574999000000004,0.42018240690231323,-0.31842881441116333,10.037092208862305,6.16455078125,0.54931640625,-0.213623046875
3.1624999000000003,0.27892449498176575,-0.2585737705230713,9.818022727966309,-4.638671875,-0.244140625,1.5869140625
3.1674999,0.4991910457611084,-0.2849099934101105,9.638457298278809,-0.6103515625,0.18310546875,-2.62451171875
3.1724999,0.38905778527259827,-0.2885012924671173,9.955090522766113,5.340576171875,0.1220703125,0
3.1774999000000004,0.29149407148361206,-0.2621650993824005,9.612719535827637,-5.67626953125,-0.30517578125,1.46484375
3.1824999000000003,0.46627077460289,-0.23702596127986908,9.549273490905762,1.3427734375,1.007080078125,-2.593994140625
3.1874999,0.2603694200515747,-0.21308395266532898,9.632472038269043,-5.9814453125,-0.701904296875,1.068115234375
3.1924999,0.4818331003189087,-0.23762452602386475,9.686341285705566,2.471923828125,0.42724609375,-2.777099609375
3.1974999000000004,0.3884592354297638,-0.2753331959247589,10.004171371459961,3.326416015625,-0.640869140625,1.007080078125
3.2024999000000003,0.35494041442871094,-0.25019407272338867,9.602544784545898,-6.378173828125,-0.54931640625,0.732421875
3.2074999,0.5650315880775452,-0.31124621629714966,9.718663215637207,4.180908203125,1.373291015625,-2.532958984375
3.2124999,0.37469255924224854,-0.27413609623908997,9.976638793945312,2.25830078125,-0.335693359375,1.40380859375
3.2174999,0.36750996112823486,-0.26994624733924866,9.583391189575195,-5.92041015625,-0.518798828125,0.06103515625
3.2224999000000003,0.5536591410636902,-0.3082534670829773,9.821614265441895,5.0048828125,0.518798828125,-2.5634765625
3.2274999,0.3387795388698578,-0.27054479718208313,9.978434562683105,0.8544921875,-0.48828125,1.678466796875
3.2324999,0.4273650050163269,-0.27054479718208313,9.57321548461914,-5.43212890625,0.091552734375,-0.48828125
3.2374999,0.5656301379203796,-0.3471592366695404,9.874286651611328,5.828857421875,0.701904296875,-2.01416015625
3.2424999000000003,0.3148375153541565,-0.2651578485965729,9.943717956542969,-0.640869140625,-0.06103515625,2.197265625
3.2474999,0.4387374520301819,-0.3561375141143799,9.982624053955078,6.4697265625,0.640869140625,-0.6103515625
3.2524999,0.2890998423099518,-0.2669534981250763,9.79647445678711,-4.180908203125,-0.396728515625,1.8310546875
3.2574999,0.518943190574646,-0.2992752194404602,9.607333183288574,-0.579833984375,-0.518798828125,-2.471923828125
3.2624999000000003,0.4165911078453064,-0.3172317147254944,9.971251487731934,5.828857421875,0.48828125,-0.091552734375
3.2674999000000002,0.32620999217033386,-0.2777273952960968,9.656414031982422,-5.2490234375,0.48828125,1.5869140625
3.2724999,0.5009866952896118,-0.2645592987537384,9.569623947143555,0.396728515625,1.068115234375,-2.288818359375
3.2774999,0.26575639843940735,-0.20530278980731964,9.61331844329834,-5.67626953125,0.030517578125,1.068115234375
3.2824999000000004,0.44352585077285767,-0.21368250250816345,9.651625633239746,2.105712890625,0.030517578125,-2.685546875
3.2874999000000003,0.33997663855552673,-0.2603694200515747,9.979631423950195,3.7841796875,-0.54931640625,0.823974609375
3.2924999,0.2932897210121155,-0.22924481332302094,9.607931137084961,-6.2255859375,-0.457763671875,0.732421875
3.2974999,0.5099649429321289,-0.30047231912612915,9.678560256958008,3.753662109375,1.373291015625,-2.410888671875
3.3024999000000004,0.35913026332855225,-0.27054479718208313,9.964069366455078,2.50244140625,0.06103515625,1.52587890625
3.3074999000000003,0.34177228808403015,-0.262763649225235,9.548076629638672,-6.134033203125,-0.42724609375,-0.06103515625
3.3124999,0.5446808934211731,-0.3106476664543152,9.765350341796875,4.608154296875,0.335693359375,-2.74658203125
3.3174999,0.33339259028434753,-0.26755204796791077,9.950302124023438,1.068115234375,-0.213623046875,1.953125
3.3224999000000004,0.4165911078453064,-0.262763649225235,9.516353607177734,-5.43212890625,0,-0.274658203125
3.3274999000000003,0.5758054852485657,-0.33937808871269226,9.770736694335938,5.615234375,1.0986328125,-2.227783203125
3.3324999,0.33099839091300964,-0.2603694200515747,9.830592155456543,-0.30517578125,0,2.044677734375
3.3374999,0.24121582508087158,-0.2232593148946762,9.913790702819824,-1.77001953125,-0.3662109375,2.0751953125
3.3424999,0.4578910768032074,-0.25917232036590576,9.622895240783691,-3.84521484375,-0.213623046875,-1.28173828125
3.3474999000000003,0.4967968463897705,-0.3387795388698578,10.00955867767334,6.072998046875,0.091552734375,-1.312255859375
3.3524999,0.2908954918384552,-0.27892449498176575,9.839570045471191,-3.082275390625,-0.640869140625,2.0751953125
3.3574999,0.5386953949928284,-0.30526071786880493,9.576208114624023,-1.89208984375,1.28173828125,-1.861572265625
3.3624999,0.5057750940322876,-0.28550854325294495,9.627683639526367,-1.5869140625,-0.42724609375,-2.197265625
3.3674999000000003,0.4040215313434601,-0.31124621629714966,10.017339706420898,5.950927734375,-0.091552734375,-0.244140625
3.3724999,0.2998737692832947,-0.2561795711517334,9.698312759399414,-5.43212890625,-0.640869140625,1.77001953125
3.3774999,0.36332011222839355,-0.25438392162323,9.960477828979492,4.852294921875,-0.48828125,0.152587890625
3.3824999,0.2555810213088989,-0.20769700407981873,9.643844604492188,-6.134033203125,-0.946044921875,1.28173828125
3.3874999000000003,0.44831427931785583,-0.2082955539226532,9.68813705444336,2.01416015625,0.8544921875,-2.655029296875
3.3924999000000002,0.3423708379268646,-0.2645592987537384,10.004770278930664,3.936767578125,0.30517578125,0.79345703125
3.3974999,0.3034650683403015,-0.22505496442317963,9.650428771972656,-5.889892578125,-0.274658203125,0.885009765625
3.4024999,0.52552729845047,-0.2968810200691223,9.680954933166504,3.265380859375,0.152587890625,-2.655029296875
3.4074999000000004,0.37828385829925537,-0.2801215946674347,9.952696800231934,2.5634765625,0,1.251220703125
3.4124999000000003,0.345363587141037,-0.2663549482822418,9.5223388671875,-5.9814453125,0.42724609375,0.48828125
3.4174999,0.5494692921638489,-0.3106476664543152,9.722254753112793,4.69970703125,0.823974609375,-2.3193359375
3.4224999,0.3315969407558441,-0.2759317457675934,9.935338973999023,0.9765625,-0.48828125,1.739501953125
3.4274999000000004,0.4189853072166443,-0.2693476974964142,9.5223388671875,-5.615234375,-0.91552734375,-0.579833984375
3.4324999000000003,0.5901707410812378,-0.34835633635520935,9.782109260559082,5.126953125,-0.48828125,-2.38037109375
3.4374999,0.5428852438926697,-0.34656068682670593,9.930550575256348,5.9814453125,0.885009765625,-1.64794921875
3.4424999,0.25737667083740234,-0.25438392162323,9.967659950256348,-1.739501953125,0.3662109375,2.044677734375
3.4474999000000004,0.456095427274704,-0.28072014451026917,9.665990829467773,-3.41796875,1.15966796875,-1.434326171875
3.4524999000000003,0.47884035110473633,-0.3561375141143799,10.014945983886719,6.256103515625,0.701904296875,-1.251220703125
3.4574999,0.2711433470249176,-0.2783259451389313,9.823410034179688,-3.143310546875,-0.091552734375,2.044677734375
3.4624999,0.5081692934036255,-0.2968810200691223,9.525930404663086,-2.13623046875,1.15966796875,-1.8310546875
3.4674999,0.42856210470199585,-0.3214215636253357,9.877877235412598,6.439208984375,0.762939453125,-0.79345703125
3.4724999000000003,0.2651578485965729,-0.23942017555236816,9.732429504394531,-4.39453125,-0.18310546875,1.678466796875
3.4774999,0.49559974670410156,-0.26396074891090393,9.59177017211914,-1.129150390625,-0.91552734375,-2.288818359375
3.4824999,0.406415730714798,-0.28790274262428284,10.016142845153809,5.828857421875,-0.030517578125,-0.06103515625
3.4874999,0.30885201692581177,-0.25917232036590576,9.762955665588379,-5.218505859375,-0.396728515625,1.46484375
3.4924999000000003,0.37469255924224854,-0.272938996553421,10.016741752624512,5.18798828125,0.457763671875,0.579833984375
3.4974999,0.27054479718208313,-0.22026655077934265,9.666589736938477,-5.645751953125,-0.274658203125,1.40380859375
3.5024999,0.44592007994651794,-0.23702596127986908,9.658807754516602,1.678466796875,-0.3662109375,-2.685546875
3.5074999,0.3357867896556854,-0.2669534981250763,9.970054626464844,4.08935546875,-0.06103515625,1.068115234375
3.5124999000000003,0.2759317457675934,-0.24600422382354736,9.592967987060547,-6.34765625,-0.396728515625,0.732421875
3.5174999000000002,0.5009866952896118,-0.3172317147254944,9.689932823181152,3.204345703125,-0.091552734375,-2.86865234375
3.5224999,0.35015198588371277,-0.29388827085494995,9.948506355285645,2.716064453125,-0.274658203125,1.434326171875
3.5274999,0.3477577865123749,-0.2801215946674347,9.5809965133667,-6.256103515625,-0.30517578125,0.3662109375
3.5324999000000004,0.5494692921638489,-0.31603461503982544,9.77133560180664,4.33349609375,-0.42724609375,-2.593994140625
3.5374999000000003,0.33758243918418884,-0.26336219906806946,9.974244117736816,1.0986328125,-0.274658203125,1.89208984375
3.5424999,0.40940847992897034,-0.25258827209472656,9.53969669342041,-5.584716796875,1.46484375,-0.152587890625
3.5474999,0.5596446394920349,-0.3429693877696991,9.807847023010254,5.7373046875,1.068115234375,-2.38037109375
3.5524999000000004,0.4118026793003082,-0.27054479718208313,9.499593734741211,-4.57763671875,0.762939453125,-0.823974609375
3.5574999000000003,0.49978959560394287,-0.3298012912273407,9.881468772888184,6.011962890625,0.518798828125,-1.739501953125
3.5624999,0.23702596127986908,-0.22744916379451752,9.906009674072266,-1.983642578125,-0.06103515625,2.197265625
3.5674999,0.4620809257030487,-0.25438392162323,9.604938507080078,-3.7841796875,0.091552734375,-1.46484375
3.5724999000000004,0.5045779943466187,-0.33039984107017517,10.014945983886719,6.591796875,1.0986328125,-1.40380859375
3.5774999000000003,0.3034650683403015,-0.26575639843940735,9.873687744140625,-3.021240234375,-0.30517578125,2.166748046875
3.5824999,0.5536591410636902,-0.2998737692832947,9.632472038269043,-2.01416015625,0.67138671875,-1.77001953125
3.5874999,0.4704606235027313,-0.33279404044151306,10.026318550109863,6.34765625,0.396728515625,-0.9765625
3.5924999,0.30466216802597046,-0.25258827209472656,9.833584785461426,-4.7607421875,-0.946044921875,1.89208984375
3.5974999000000003,0.5285200476646423,-0.2801215946674347,9.651026725769043,-0.91552734375,-0.946044921875,-2.62451171875
3.6024999,0.30705636739730835,-0.27234044671058655,9.715670585632324,-5.37109375,-0.640869140625,1.52587890625
3.6074999,0.22924481332302094,-0.21368250250816345,9.655217170715332,-5.767822265625,-0.30517578125,1.129150390625
3.6124999,0.22924481332302094,-0.21368250250816345,9.655217170715332,-5.767822265625,-0.30517578125,1.129150390625
3.6174999000000003,0.4345476031303406,-0.21667525172233582,9.68274974822998,2.197265625,1.3427734375,-2.410888671875
3.6224999,0.3298012912273407,-0.25019407272338867,9.979631423950195,3.5400390625,-0.06103515625,0.946044921875
3.6274999,0.2932897210121155,-0.228047713637352,9.61451530456543,-6.28662109375,-0.8544921875,0.579833984375
3.6324999,0.5207388401031494,-0.3064578175544739,9.679159164428711,3.5400390625,-0.30517578125,-2.685546875
3.6374999000000003,0.3519476354122162,-0.2759317457675934,9.961674690246582,2.50244140625,-0.640869140625,1.373291015625
3.6424999000000002,0.3405751883983612,-0.27054479718208313,9.537302017211914,-5.767822265625,-0.48828125,0.091552734375
3.6474999,0.5363011956214905,-0.3106476664543152,9.785700798034668,4.2724609375,-0.54931640625,-2.471923828125
3.6524999,0.32022446393966675,-0.2651578485965729,9.980229377746582,0.42724609375,-0.54931640625,1.64794921875
3.6574999000000004,0.40940847992897034,-0.25917232036590576,9.5624418258667,-5.92041015625,-1.007080078125,-0.54931640625
3.6624999000000003,0.42377370595932007,-0.2495955228805542,9.467870712280273,-4.638671875,-0.79345703125,-1.007080078125
3.6674999,0.42377370595932007,-0.2495955228805542,9.467870712280273,-4.638671875,-0.79345703125,-1.007080078125
3.6724999,0.4985924959182739,-0.31543606519699097,9.90122127532959,6.072998046875,-0.213623046875,-1.678466796875
3.6774999000000004,0.23702596127986908,-0.22026655077934265,9.834183692932129,-2.105712890625,-0.579833984375,1.953125
3.6824999000000003,0.4704606235027313,-0.26156654953956604,9.573814392089844,-3.35693359375,0.1220703125,-1.495361328125
3.6874999,0.46986207365989685,-0.3208230137825012,9.931148529052734,6.378173828125,-0.030517578125,-1.068115234375
3.6924999,0.2735375463962555,-0.25737667083740234,9.77672290802002,-3.814697265625,-0.762939453125,1.8310546875
3.6974999000000004,0.5105634927749634,-0.28969839215278625,9.585784912109375,-3.021240234375,-1.739501953125,-2.227783203125
3.7024999000000003,0.4159925580024719,-0.3315969407558441,9.97603988647461,6.103515625,-0.030517578125,-0.3662109375
3.7074999,0.2861070930957794,-0.25258827209472656,9.794678688049316,-4.45556640625,-0.274658203125,1.861572265625
3.7124999,0.5207388401031494,-0.28311434388160706,9.61212158203125,-0.946044921875,-0.3662109375,-2.532958984375
3.7174999,0.42197805643081665,-0.28371289372444153,9.916184425354004,5.645751953125,0.213623046875,0.1220703125
3.7224999000000003,0.4866214990615845,-0.24420857429504395,9.525331497192383,1.373291015625,0.579833984375,-2.5634765625
3.7274999,0.3561375141143799,-0.27473464608192444,9.921571731567383,4.730224609375,0.396728515625,0.67138671875
3.7324999,0.26096799969673157,-0.21966800093650818,9.640851974487305,-5.767822265625,-0.06103515625,1.220703125
3.7374999,0.47644615173339844,-0.25677812099456787,9.672574996948242,2.44140625,-0.79345703125,-2.899169921875
3.7424999000000003,0.3776853084564209,-0.2711433470249176,9.995792388916016,3.41796875,-0.67138671875,1.068115234375
3.7474999,0.34656068682670593,-0.24779987335205078,9.579200744628906,-6.53076171875,0.030517578125,0.823974609375
3.7524999,0.558447539806366,-0.3190273642539978,9.702502250671387,3.2958984375,0.54931640625,-2.3193359375
3.7574999,0.3603273630142212,-0.2795230448246002,9.978434562683105,1.8310546875,0.244140625,1.556396484375
3.7624999000000003,0.3495534360408783,-0.28311434388160706,9.907805442810059,0.18310546875,-0.18310546875,1.800537109375
3.7674999000000002,0.44831427931785583,-0.27054479718208313,9.493009567260742,-5.401611328125,-0.42724609375,-0.732421875
3.7724999,0.28371289372444153,-0.23343466222286224,9.829395294189453,-1.495361328125,-0.640869140625,2.0751953125
3.7774999,0.4339490532875061,-0.27413609623908997,9.531316757202148,-4.45556640625,-0.823974609375,-1.5869140625
3.7824999000000004,0.48901569843292236,-0.3357867896556854,9.941922187805176,6.195068359375,1.129150390625,-1.434326171875
3.7874999000000003,0.25498247146606445,-0.2621650993824005,9.855731010437012,-2.685546875,-0.030517578125,2.0751953125
3.7924999,0.5039794445037842,-0.29149407148361206,9.584588050842285,-3.448486328125,-0.42724609375,-1.922607421875
3.7974999,0.4710591733455658,-0.3363853394985199,9.964069366455078,6.16455078125,0.030517578125,-1.03759765625
3.8024999000000004,0.2801215946674347,-0.24480712413787842,9.785101890563965,-4.058837890625,-0.701904296875,2.197265625
3.8074999000000003,0.5213374495506287,-0.2849099934101105,9.608530044555664,-1.77001953125,-0.79345703125,-2.288818359375
3.8124999,0.4255693554878235,-0.30466216802597046,10.002376556396484,5.859375,-0.6103515625,-0.640869140625
3.8174999,0.3208230137825012,-0.2555810213088989,9.709685325622559,-5.06591796875,-1.0986328125,1.678466796875
3.8224999000000004,0.5279214978218079,-0.284311443567276,9.567230224609375,0.152587890625,0.06103515625,-2.471923828125
3.8274999000000003,0.40940847992897034,-0.2795230448246002,9.883264541625977,5.43212890625,0.335693359375,0.1220703125
3.8324999,0.4704606235027313,-0.23163901269435883,9.588777542114258,1.190185546875,-0.457763671875,-2.777099609375
3.8374999,0.3645172119140625,-0.25258827209472656,9.975440979003906,3.814697265625,-0.54931640625,0.823974609375
3.8424999,0.304063618183136,-0.21428105235099792,9.643844604492188,-6.317138671875,-0.823974609375,0.8544921875
3.8474999000000003,0.5315127968788147,-0.29628247022628784,9.682151794433594,2.349853515625,-0.579833984375,-2.74658203125
3.8524999,0.3992331326007843,-0.27413609623908997,9.956287384033203,2.99072265625,0.091552734375,1.28173828125
3.8574999,0.36810851097106934,-0.2687491476535797,9.534908294677734,-5.79833984375,1.0986328125,0.396728515625
3.8624999,0.5704185366630554,-0.31364041566848755,9.715071678161621,4.241943359375,0.335693359375,-2.532958984375
3.8674999000000003,0.3531447649002075,-0.2651578485965729,9.962871551513672,1.46484375,-0.06103515625,1.64794921875
3.8724999,0.4207809567451477,-0.2555810213088989,9.525930404663086,-5.79833984375,-0.762939453125,-0.42724609375
3.8774999,0.5907692909240723,-0.3471592366695404,9.824606895446777,5.828857421875,1.03759765625,-2.01416015625
3.8824999,0.35254621505737305,-0.25917232036590576,9.86889934539795,-0.091552734375,-0.091552734375,1.861572265625
3.8874999000000003,0.45250412821769714,-0.25737667083740234,9.496002197265625,-4.974365234375,-0.79345703125,-0.79345703125
3.8924999000000002,0.4668693244457245,-0.27712884545326233,9.623494148254395,-3.936767578125,-0.30517578125,-1.251220703125
3.8974999,0.4920084476470947,-0.3603273630142212,10.022128105163574,6.16455078125,0.335693359375,-1.251220703125
3.9024999,0.2932897210121155,-0.2908954918384552,9.85034465789795,-3.41796875,-0.396728515625,2.105712890625
3.9074999000000004,0.5452794432640076,-0.3280056416988373,9.617507934570312,-2.716064453125,-0.701904296875,-1.8310546875
3.9124999000000003,0.4596867263317108,-0.3513490855693817,9.979631423950195,6.134033203125,0.18310546875,-0.732421875
3.9174999,0.30226796865463257,-0.26994624733924866,9.80904483795166,-4.547119140625,-0.54931640625,1.800537109375
3.9224999,0.5015852451324463,-0.2651578485965729,9.61212158203125,0.6103515625,-0.335693359375,-2.74658203125
3.9274999000000004,0.36092591285705566,-0.27892449498176575,9.992799758911133,4.730224609375,-0.42724609375,0.335693359375
3.9324999000000003,0.4572925269603729,-0.2537853717803955,9.68694019317627,2.38037109375,0.701904296875,-2.74658203125
3.9374999,0.353743314743042,-0.25737667083740234,9.965864181518555,3.387451171875,-0.274658203125,1.068115234375
3.9424999,0.31124621629714966,-0.25438392162323,9.575610160827637,-6.16455078125,-0.244140625,0.640869140625
3.9474999000000004,0.5207388401031494,-0.3196259140968323,9.6618013381958,4.0283203125,0.67138671875,-2.86865234375
3.9524999000000003,0.3381809890270233,-0.26755204796791077,9.944915771484375,2.38037109375,0.1220703125,1.434326171875
3.9574999,0.345363587141037,-0.272938996553421,9.514557838439941,-5.859375,0.42724609375,0.244140625
3.9624999,0.5446808934211731,-0.3315969407558441,9.776124000549316,4.8828125,-0.1220703125,-2.227783203125
3.9674999000000004,0.33339259028434753,-0.2819172441959381,9.891644477844238,0.42724609375,-0.54931640625,1.89208984375
3.9724999000000003,0.43754035234451294,-0.28550854325294495,9.4822359085083,-5.126953125,-0.3662109375,-0.579833984375
3.9774999,0.5668272376060486,-0.3489548861980438,9.792284965515137,6.072998046875,0.8544921875,-1.983642578125
3.9824999,0.29867666959762573,-0.24181437492370605,9.860519409179688,-1.3427734375,-0.091552734375,1.983642578125
3.9874999,0.49619829654693604,-0.3292027413845062,9.990405082702637,6.439208984375,1.220703125,-1.312255859375
3.9924999000000003,0.2513911724090576,-0.2555810213088989,9.8599214553833,-2.8076171875,0.030517578125,2.349853515625
3.9974999,0.5039794445037842,-0.2950853705406189,9.603741645812988,-3.387451171875,0.30517578125,-1.77001953125
4.0024999,0.28550854325294495,-0.2687491476535797,9.78869342803955,-3.72314453125,-0.335693359375,1.983642578125
4.0074999,0.524330198764801,-0.3106476664543152,9.608530044555664,-0.8544921875,0.79345703125,-2.3193359375
4.0124999,0.42437225580215454,-0.3208230137825012,9.99339771270752,6.04248046875,0.213623046875,-0.244140625
4.0174999,0.3172317147254944,-0.262763649225235,9.709086418151855,-5.126953125,-0.79345703125,1.800537109375
4.022499900000001,0.5219359993934631,-0.27234044671058655,9.552266120910645,-0.335693359375,-0.732421875,-2.62451171875
4.0274999000000005,0.4040215313434601,-0.2711433470249176,9.88625717163086,5.279541015625,0.518798828125,0.091552734375
4.0324999,0.2974795699119568,-0.2346317619085312,9.566033363342285,-5.523681640625,0.152587890625,1.40380859375
4.0374999,0.46746787428855896,-0.24420857429504395,9.595361709594727,1.312255859375,-0.335693359375,-2.838134765625
4.0424999,0.5273229479789734,-0.29209262132644653,9.68574333190918,3.692626953125,0.9765625,-2.716064453125
4.0474999,0.38726213574409485,-0.26156654953956604,9.967061996459961,2.9296875,-0.152587890625,1.40380859375
4.0524999,0.35434186458587646,-0.2759317457675934,9.544485092163086,-6.011962890625,0.274658203125,0.335693359375
4.0574999,0.5512649416923523,-0.3250128924846649,9.756970405578613,4.82177734375,1.46484375,-2.410888671875
4.062499900000001,0.34177228808403015,-0.28072014451026917,10.011953353881836,1.52587890625,-0.030517578125,1.708984375
4.0674999000000005,0.4183867573738098,-0.26096799969673157,9.575610160827637,-5.79833984375,0.762939453125,-0.274658203125
4.0724999,0.586579442024231,-0.3429693877696991,9.873088836669922,5.157470703125,-0.18310546875,-2.349853515625
4.0774999,0.3429693877696991,-0.24600422382354736,9.908403396606445,-0.732421875,-0.8544921875,1.922607421875
4.0824999,0.44173020124435425,-0.2645592987537384,9.519346237182617,-5.157470703125,-1.129150390625,-1.251220703125
4.0874999,0.518943190574646,-0.3363853394985199,9.898228645324707,5.9814453125,0.42724609375,-1.77001953125
4.0924999,0.24420857429504395,-0.2454056739807129,9.883264541625977,-2.01416015625,-0.1220703125,2.13623046875
4.0974999,0.4908113479614258,-0.3345896899700165,9.95748519897461,6.89697265625,0.946044921875,-1.28173828125
4.1024999,0.29628247022628784,-0.2693476974964142,9.818621635437012,-3.265380859375,0.030517578125,2.288818359375
4.1074999000000005,0.5345055460929871,-0.2908954918384552,9.557653427124023,-2.899169921875,-1.03759765625,-1.922607421875
4.1124999,0.4471171796321869,-0.32202014327049255,9.952696800231934,6.04248046875,0.244140625,-0.732421875
4.1174999,0.28550854325294495,-0.2472013235092163,9.747992515563965,-4.5166015625,-0.213623046875,2.166748046875
4.1224999,0.5141547918319702,-0.29209262132644653,9.582193374633789,-1.129150390625,-0.396728515625,-2.227783203125
4.1274999,0.406415730714798,-0.2944868206977844,9.903017044067383,5.523681640625,0.42724609375,-0.152587890625
4.1324999,0.31184476613998413,-0.28131869435310364,9.61451530456543,-5.37109375,0.30517578125,1.64794921875
4.1374999,0.48243165016174316,-0.25677812099456787,9.528923034667969,1.190185546875,0.274658203125,-2.593994140625
4.1424999,0.3621230125427246,-0.25737667083740234,9.925761222839355,4.57763671875,0.274658203125,0.48828125
4.147499900000001,0.2717418968677521,-0.20350714027881622,9.609726905822754,-6.256103515625,-0.18310546875,1.220703125
4.1524999000000005,0.4794389009475708,-0.2495955228805542,9.647436141967773,2.532958984375,0.579833984375,-2.50244140625
4.1574999,0.3579331636428833,-0.2579752206802368,9.500192642211914,-6.2255859375,-0.42724609375,-0.152587890625
4.1624999,0.5524620413780212,-0.31124621629714966,9.788095474243164,5.0048828125,0.640869140625,-2.349853515625
4.1674999,0.333991140127182,-0.262763649225235,9.892242431640625,0.335693359375,-0.762939453125,1.739501953125
4.1724999,0.4339490532875061,-0.2717418968677521,9.491812705993652,-5.615234375,-0.396728515625,-0.67138671875
4.1774999,0.5476736426353455,-0.3555389642715454,9.824606895446777,5.767822265625,-0.213623046875,-1.800537109375
4.1824999,0.272938996553421,-0.24181437492370605,9.87967300415039,-1.556396484375,-0.3662109375,2.0751953125
4.187499900000001,0.43694180250167847,-0.27473464608192444,9.575610160827637,-4.180908203125,0.6103515625,-1.434326171875
4.1924999000000005,0.48961424827575684,-0.32381579279899597,10.008959770202637,5.9814453125,-0.18310546875,-1.46484375
4.1974999,0.2537853717803955,-0.26575639843940735,9.868300437927246,-2.9296875,-0.48828125,2.0751953125
4.2024999,0.44592007994651794,-0.3280056416988373,9.985616683959961,6.40869140625,-0.18310546875,-0.762939453125
4.2074999,0.27234044671058655,-0.25019407272338867,9.810839653015137,-4.364013671875,-0.823974609375,2.01416015625
4.2124999,0.5195417404174805,-0.27473464608192444,9.643844604492188,-1.617431640625,0.701904296875,-2.0751953125
4.2174999,0.424970805644989,-0.28371289372444153,10.019135475158691,5.889892578125,0.152587890625,-0.274658203125
4.2224999,0.3232172429561615,-0.2651578485965729,9.767744064331055,-5.4931640625,-0.91552734375,1.678466796875
4.2274999,0.3232172429561615,-0.2651578485965729,9.767744064331055,-5.4931640625,-0.91552734375,1.678466796875
4.2324999000000005,0.5165489912033081,-0.272938996553421,9.663596153259277,0.030517578125,-0.274658203125,-2.593994140625
4.2374999,0.38067805767059326,-0.2783259451389313,10.030508041381836,5.096435546875,0.06103515625,0.335693359375
4.2424999,0.2908954918384552,-0.2106897532939911,9.57979965209961,-6.439208984375,-0.396728515625,1.068115234375
4.2474999,0.32381579279899597,-0.2663549482822418,9.965864181518555,0.579833984375,-0.518798828125,1.739501953125
4.2524999,0.4165911078453064,-0.26575639843940735,9.524134635925293,-5.645751953125,-0.213623046875,-0.244140625
4.2574999,0.568622887134552,-0.3405751883983612,9.785101890563965,5.67626953125,0.3662109375,-2.044677734375
4.2624999,0.31124621629714966,-0.23582886159420013,9.825204849243164,-0.8544921875,-0.152587890625,1.922607421875
4.2674999,0.4405331015586853,-0.24241292476654053,9.476848602294922,-4.425048828125,-0.030517578125,-1.03759765625
4.272499900000001,0.5081692934036255,-0.3130418658256531,9.931148529052734,6.317138671875,0.48828125,-1.556396484375
4.2774999000000005,0.25438392162323,-0.2172738015651703,9.855133056640625,-2.227783203125,-0.30517578125,2.0751953125
4.2824999,0.4950011968612671,-0.28131869435310364,9.592369079589844,-3.265380859375,-0.18310546875,-1.708984375
4.2874999,0.47584760189056396,-0.3345896899700165,9.934141159057617,6.2255859375,-0.091552734375,-1.007080078125
4.2924999,0.42197805643081665,-0.31184476613998413,9.934141159057617,6.04248046875,-0.1220703125,-0.701904296875
4.2974999,0.3058592677116394,-0.26755204796791077,9.763554573059082,-5.035400390625,-0.701904296875,1.983642578125
4.3024999,0.5207388401031494,-0.2735375463962555,9.622895240783691,0.42724609375,2.288818359375,-2.197265625
4.3074999,0.40701428055763245,-0.27234044671058655,9.985017776489258,5.67626953125,0.91552734375,0.06103515625
4.312499900000001,0.3082534670829773,-0.23582886159420013,9.647436141967773,-5.55419921875,0.396728515625,1.434326171875
4.3174999000000005,0.4752490520477295,-0.2256535142660141,9.63067626953125,1.40380859375,0.3662109375,-2.532958984375
4.3224999,0.5099649429321289,-0.3064578175544739,9.712677955627441,2.74658203125,0,-2.5634765625
4.3274999,0.5099649429321289,-0.3064578175544739,9.712677955627441,2.74658203125,0,-2.5634765625
4.3324999,0.3758896589279175,-0.28730419278144836,9.99339771270752,3.021240234375,0.030517578125,1.28173828125
4.3374999,0.34596213698387146,-0.30526071786880493,9.585784912109375,-5.92041015625,0.762939453125,0.42724609375
4.3424999,0.34177228808403015,-0.26396074891090393,10.00716495513916,1.03759765625,-0.48828125,1.64794921875
4.3474999,0.4106055796146393,-0.25498247146606445,9.567230224609375,-5.37109375,-0.6103515625,-0.48828125
4.352499900000001,0.5811924338340759,-0.3274070918560028,9.838373184204102,6.011962890625,1.3427734375,-2.13623046875
4.3574999000000005,0.33758243918418884,-0.2561795711517334,9.916783332824707,-0.30517578125,-0.152587890625,1.861572265625
4.3624999,0.43993455171585083,-0.26994624733924866,9.5408935546875,-4.913330078125,-0.396728515625,-1.03759765625
4.3674999,0.518943190574646,-0.33698388934135437,9.961075782775879,5.55419921875,-0.54931640625,-1.77001953125
4.3724999,0.24839842319488525,-0.2454056739807129,9.97603988647461,-2.44140625,-0.732421875,2.044677734375
4.3774999,0.47465047240257263,-0.2819172441959381,9.685144424438477,-3.60107421875,0,-1.495361328125
4.3824999,0.497395396232605,-0.3447650372982025,10.075399398803711,6.011962890625,-0.6103515625,-1.373291015625
4.3874999,0.30047231912612915,-0.28072014451026917,9.880870819091797,-3.631591796875,-0.946044921875,2.044677734375
4.3924999,0.5428852438926697,-0.31783026456832886,9.631275177001953,-1.861572265625,0.91552734375,-1.8310546875
4.397499900000001,0.44771572947502136,-0.3208230137825012,9.949105262756348,6.28662109375,0.79345703125,-0.946044921875
4.4024999000000005,0.41778820753097534,-0.2651578485965729,9.898826599121094,5.55419921875,-0.518798828125,-0.244140625
4.4074999,0.3064578175544739,-0.24600422382354736,9.561244010925293,-5.828857421875,-1.495361328125,1.312255859375
4.4124999,0.47644615173339844,-0.22505496442317963,9.533112525939941,0.9765625,0.54931640625,-2.716064453125
4.4174999,0.3387795388698578,-0.21368250250816345,9.898826599121094,4.669189453125,-0.06103515625,0.640869140625
4.4224999,0.2519897222518921,-0.18734627962112427,9.61331844329834,-6.134033203125,-0.335693359375,0.9765625
4.4274999,0.4644751250743866,-0.2555810213088989,9.66539192199707,2.685546875,0.030517578125,-2.74658203125
4.4324999,0.3561375141143799,-0.25677812099456787,9.9586820602417,3.5400390625,0.091552734375,1.28173828125
4.437499900000001,0.3208230137825012,-0.28131869435310364,9.559449195861816,-5.828857421875,0.30517578125,0.3662109375
4.4424999000000005,0.5422866940498352,-0.3208230137825012,9.714473724365234,4.150390625,0.42724609375,-2.5634765625
4.4474999,0.33698388934135437,-0.26755204796791077,9.988609313964844,1.64794921875,0,1.708984375
4.4524999,0.38127660751342773,-0.2603694200515747,9.567230224609375,-5.462646484375,0.579833984375,-0.152587890625
4.4574999,0.5668272376060486,-0.3172317147254944,9.847352027893066,5.523681640625,1.03759765625,-2.410888671875
4.4624999,0.3298012912273407,-0.24779987335205078,9.950302124023438,0.06103515625,0.06103515625,1.8310546875
4.4674999,0.42377370595932007,-0.2687491476535797,9.57201862335205,-4.94384765625,0.3662109375,-0.79345703125
4.4724999,0.5183446407318115,-0.33099839091300964,9.960477828979492,5.950927734375,0.42724609375,-1.861572265625
4.477499900000001,0.23343466222286224,-0.24480712413787842,9.99100399017334,-1.617431640625,-0.42724609375,2.227783203125
4.4824999000000005,0.42856210470199585,-0.2753331959247589,9.665990829467773,-3.84521484375,0.1220703125,-1.190185546875
4.4874999,0.46507367491722107,-0.33758243918418884,10.050260543823242,6.2255859375,0.1220703125,-1.373291015625
4.4924999,0.2585737705230713,-0.2795230448246002,9.872490882873535,-3.265380859375,-0.54931640625,2.105712890625
4.4974999,0.5159504413604736,-0.3280056416988373,9.636063575744629,-2.655029296875,0.335693359375,-2.044677734375
4.5024999,0.45190557837486267,-0.3429693877696991,9.989208221435547,6.103515625,-0.1220703125,-0.67138671875
4.5074999,0.3010708689689636,-0.272938996553421,9.824606895446777,-4.364013671875,-0.48828125,1.953125
4.5124999,0.5380968451499939,-0.2992752194404602,9.636661529541016,-0.9765625,0,-2.471923828125
4.5174999,0.43514615297317505,-0.2885012924671173,10.00836181640625,5.950927734375,0.518798828125,-0.152587890625
4.522499900000001,0.3711012601852417,-0.25438392162323,9.980828285217285,3.41796875,-0.42724609375,1.129150390625
4.5274999000000005,0.322618693113327,-0.2561795711517334,9.566033363342285,-6.317138671875,-0.06103515625,0.48828125
4.5324999,0.5392939448356628,-0.30885201692581177,9.667786598205566,3.96728515625,0.79345703125,-2.471923828125
4.5374999,0.35494041442871094,-0.25498247146606445,9.941324234008789,1.800537109375,-0.42724609375,1.52587890625
4.5424999,0.37648820877075195,-0.2663549482822418,9.5007905960083,-5.9814453125,-0.3662109375,-0.18310546875
4.5474999,0.569819986820221,-0.3232172429561615,9.763554573059082,5.4931640625,1.3427734375,-2.105712890625
4.5524999,0.3429693877696991,-0.2753331959247589,9.910199165344238,0.30517578125,0.244140625,2.01416015625
4.5574999,0.5452794432640076,-0.33518823981285095,9.898228645324707,6.011962890625,0.244140625,-1.861572265625
4.562499900000001,0.4339490532875061,-0.2687491476535797,9.619303703308105,-4.8828125,-0.3662109375,-1.373291015625
4.5674999000000005,0.49140989780426025,-0.32441434264183044,10.031704902648926,6.591796875,0.79345703125,-1.251220703125
4.5724999,0.2651578485965729,-0.2717418968677521,9.862914085388184,-2.86865234375,-0.42724609375,2.13623046875
4.5774999,0.5249287486076355,-0.3034650683403015,9.615114212036133,-2.410888671875,0.762939453125,-2.25830078125
4.5824999,0.46567222476005554,-0.3130418658256531,9.95209789276123,6.317138671875,0.6103515625,-0.732421875
4.5874999,0.2908954918384552,-0.23523031175136566,9.75278091430664,-4.5166015625,-0.244140625,2.044677734375
4.5924999,0.5201402902603149,-0.272938996553421,9.575610160827637,-0.79345703125,0.8544921875,-2.38037109375
4.5974999,0.414795458316803,-0.2717418968677521,9.955090522766113,6.28662109375,0.579833984375,-0.091552734375
4.602499900000001,0.31184476613998413,-0.2513911724090576,9.679757118225098,-5.06591796875,-0.3662109375,1.556396484375
4.6074999000000005,0.4884171485900879,-0.24779987335205078,9.588777542114258,0.213623046875,-0.274658203125,-2.62451171875
4.6124999,0.34356793761253357,-0.2579752206802368,9.961674690246582,3.875732421875,0.30517578125,0.91552734375
4.6174999,0.29149407148361206,-0.272938996553421,9.591172218322754,-5.9814453125,0.091552734375,0.885009765625
4.6224999,0.5225345492362976,-0.32680854201316833,9.695918083190918,3.47900390625,0.457763671875,-2.62451171875
4.6274999,0.3471592366695404,-0.27054479718208313,9.995193481445312,2.044677734375,-0.579833984375,1.46484375
4.6324999,0.3513490855693817,-0.2621650993824005,9.566033363342285,-6.317138671875,-1.0986328125,0.06103515625
4.6374999,0.5506663918495178,-0.29867666959762573,9.82640266418457,4.7607421875,0.30517578125,-2.410888671875
4.6424999,0.557250440120697,-0.3489548861980438,9.881468772888184,5.55419921875,-0.030517578125,-2.0751953125
4.647499900000001,0.2932897210121155,-0.25737667083740234,9.932345390319824,-1.251220703125,-0.244140625,1.983642578125
4.6524999000000005,0.49799394607543945,-0.33518823981285095,9.993996620178223,5.950927734375,-1.03759765625,-1.800537109375
4.6574999,0.26156654953956604,-0.2693476974964142,9.899425506591797,-2.8076171875,-1.220703125,1.983642578125
4.6624999,0.5081692934036255,-0.30705636739730835,9.609128952026367,-3.021240234375,0.8544921875,-1.739501953125
4.6674999,0.47584760189056396,-0.3387795388698578,9.971850395202637,6.134033203125,-0.1220703125,-1.129150390625
4.6724999,0.2944868206977844,-0.26575639843940735,9.79408073425293,-4.08935546875,-0.823974609375,2.197265625
4.6774999,0.5249287486076355,-0.30047231912612915,9.576807022094727,-1.800537109375,-0.67138671875,-2.044677734375
4.6824999,0.42437225580215454,-0.28969839215278625,9.959878921508789,6.072998046875,0.885009765625,-0.396728515625
4.687499900000001,0.29807811975479126,-0.2669534981250763,9.721057891845703,-5.340576171875,0.396728515625,1.89208984375
4.6924999000000005,0.49559974670410156,-0.27413609623908997,9.600150108337402,-0.152587890625,-0.8544921875,-2.410888671875
4.6974999,0.3711012601852417,-0.2711433470249176,9.982025146484375,4.8828125,-0.54931640625,0.1220703125
4.7024999,0.2693476974964142,-0.2472013235092163,9.652822494506836,-5.92041015625,-0.8544921875,1.129150390625
4.7074999,0.45848962664604187,-0.2495955228805542,9.658807754516602,1.77001953125,1.129150390625,-2.0751953125
4.7124999,0.31783026456832886,-0.2651578485965729,10.001178741455078,1.0986328125,0.18310546875,1.953125
4.7174999,0.39863458275794983,-0.2585737705230713,9.55466079711914,-5.462646484375,0.30517578125,-0.640869140625
4.7224999,0.5476736426353455,-0.322618693113327,9.832986831665039,5.645751953125,0.54931640625,-2.166748046875
4.727499900000001,0.29388827085494995,-0.24600422382354736,9.888052940368652,-0.79345703125,-0.762939453125,1.953125
4.7324999000000005,0.41958385705947876,-0.27413609623908997,9.514557838439941,-5.0048828125,-0.67138671875,-1.068115234375
4.7374999,0.4902127981185913,-0.3345896899700165,9.941922187805176,6.744384765625,1.03759765625,-1.617431640625
4.7424999,0.24121582508087158,-0.2621650993824005,9.911994934082031,-2.3193359375,-0.42724609375,2.0751953125
4.7474999,0.52552729845047,-0.3166331648826599,9.6618013381958,-2.25830078125,0.06103515625,-2.166748046875
4.7524999,0.4279635548591614,-0.30945056676864624,10.02571964263916,6.28662109375,0.213623046875,-0.335693359375
4.7574999,0.29388827085494995,-0.2801215946674347,9.783905029296875,-5.0048828125,-0.152587890625,1.983642578125
4.7624999,0.5015852451324463,-0.2867056429386139,9.59177017211914,-0.30517578125,-0.213623046875,-2.410888671875
4.7674999,0.3926490843296051,-0.2519897222518921,9.909002304077148,5.37109375,0.9765625,0.244140625
4.772499900000001,0.28550854325294495,-0.24779987335205078,9.564835548400879,-5.706787109375,0.885009765625,1.8310546875
4.7774999000000005,0.28550854325294495,-0.24779987335205078,9.564835548400879,-5.706787109375,0.885009765625,1.8310546875
4.7824999,0.4620809257030487,-0.2406172752380371,9.537302017211914,1.220703125,-0.6103515625,-2.74658203125
4.7874999,0.34356793761253357,-0.2513911724090576,9.915586471557617,4.547119140625,0.030517578125,0.640869140625
4.7924999,0.26994624733924866,-0.25318682193756104,9.604340553283691,-6.134033203125,-0.06103515625,1.068115234375
4.7974999,0.32381579279899597,-0.2801215946674347,9.894637107849121,-0.091552734375,0.06103515625,2.044677734375
4.8024999,0.43275195360183716,-0.2890998423099518,9.509170532226562,-4.638671875,1.03759765625,-0.8544921875
4.8074999,0.517746090888977,-0.32620999217033386,9.90122127532959,6.04248046875,0.152587890625,-1.800537109375
4.812499900000001,0.24779987335205078,-0.25917232036590576,9.92097282409668,-2.227783203125,-0.48828125,2.197265625
4.8174999000000005,0.46567222476005554,-0.30945056676864624,9.620500564575195,-3.84521484375,-0.30517578125,-1.373291015625
4.8224999,0.4902127981185913,-0.34416648745536804,9.968857765197754,6.591796875,0.3662109375,-1.312255859375
4.8274999,0.45190557837486267,-0.292691171169281,9.926360130310059,6.256103515625,0.67138671875,-0.67138671875
4.8324999,0.2998737692832947,-0.25079262256622314,9.746794700622559,-4.669189453125,-0.091552734375,1.922607421875
4.8374999,0.5374982953071594,-0.2777273952960968,9.610923767089844,-0.3662109375,1.129150390625,-2.471923828125
4.8424999,0.4315548539161682,-0.2651578485965729,9.990405082702637,5.828857421875,1.3427734375,0.06103515625
4.8474999,0.3315969407558441,-0.28730419278144836,9.685144424438477,-5.2490234375,0.48828125,1.800537109375
4.852499900000001,0.4908113479614258,-0.2711433470249176,9.63067626953125,0.885009765625,-0.518798828125,-2.593994140625
4.8574999000000005,0.3663128614425659,-0.2472013235092163,10.00716495513916,4.638671875,0.1220703125,0.6103515625
4.8624999,0.26156654953956604,-0.2172738015651703,9.637260437011719,-6.195068359375,0.030517578125,1.0986328125
4.8674999,0.4710591733455658,-0.25977087020874023,9.675567626953125,2.593994140625,0.18310546875,-2.8076171875
4.8724999,0.3519476354122162,-0.23283611238002777,9.95329475402832,2.960205078125,-0.54931640625,1.0986328125
4.8774999,0.30526071786880493,-0.2777273952960968,9.553462982177734,-6.195068359375,-0.579833984375,0.6103515625
4.8824999,0.4321534037590027,-0.2944868206977844,9.519346237182617,-4.608154296875,0.6103515625,-0.67138671875
4.8874999,0.5291185975074768,-0.333991140127182,9.880271911621094,6.103515625,0.274658203125,-1.861572265625
4.8924999,0.2495955228805542,-0.25498247146606445,9.926959037780762,-1.556396484375,-0.42724609375,1.953125
4.897499900000001,0.4273650050163269,-0.2968810200691223,9.604340553283691,-3.84521484375,0.823974609375,-1.129150390625
4.9024999000000005,0.47405192255973816,-0.3100491166114807,10.016142845153809,6.561279296875,0.335693359375,-1.220703125
4.9074999,0.25438392162323,-0.28311434388160706,9.875483512878418,-3.35693359375,-0.518798828125,2.166748046875
4.9124999,0.5057750940322876,-0.32680854201316833,9.634267807006836,-3.082275390625,-0.67138671875,-2.01416015625
4.9174999,0.4411316514015198,-0.29807811975479126,10.003573417663574,6.28662109375,0,-0.67138671875
4.9224999,0.5057750940322876,-0.3172317147254944,9.613917350769043,-1.312255859375,0.244140625,-2.410888671875
4.9274999,0.41120412945747375,-0.25079262256622314,9.982624053955078,5.92041015625,0.9765625,0.091552734375
4.9324999,0.30226796865463257,-0.2908954918384552,9.668384552001953,-5.462646484375,0.18310546875,2.01416015625
4.937499900000001,0.4920084476470947,-0.2663549482822418,9.576208114624023,0.335693359375,-0.42724609375,-2.471923828125
4.9424999000000005,0.365115761756897,-0.2124854028224945,9.964069366455078,5.06591796875,0.18310546875,0.42724609375
4.9474999,0.26994624733924866,-0.22864626348018646,9.625288963317871,-5.950927734375,-0.457763671875,1.3427734375
4.9524999,0.46327802538871765,-0.2346317619085312,9.667187690734863,2.44140625,0.54931640625,-2.86865234375
4.9574999,0.3603273630142212,-0.21188685297966003,9.99100399017334,3.692626953125,0.18310546875,1.129150390625
4.9624999,0.3076549172401428,-0.27413609623908997,9.601945877075195,-6.40869140625,0.18310546875,0.9765625
4.9674999,0.5183446407318115,-0.26815059781074524,9.701305389404297,3.41796875,0.152587890625,-2.716064453125
4.9724999,0.33997663855552673,-0.2388216257095337,9.991601943969727,2.044677734375,0.091552734375,1.556396484375
4.977499900000001,0.34177228808403015,-0.2908954918384552,9.564835548400879,-5.523681640625,0.885009765625,0.30517578125
4.9824999000000005,0.5452794432640076,-0.2795230448246002,9.831789016723633,5.157470703125,0.030517578125,-2.74658203125
4.9874999,0.33758243918418884,-0.2861070930957794,9.985017776489258,0.30517578125,-0.3662109375,1.64794921875
4.9924999,0.43335050344467163,-0.33698388934135437,9.571419715881348,-5.340576171875,0.54931640625,-0.3662109375
4.9974999,0.5656301379203796,-0.2867056429386139,9.889848709106445,5.67626953125,-0.152587890625,-2.044677734375
5.0024999,0.29628247022628784,-0.30047231912612915,9.932944297790527,-1.46484375,-0.335693359375,1.953125
5.0074999,0.41359832882881165,-0.2950853705406189,9.563638687133789,-3.448486328125,1.46484375,-0.885009765625
5.0124999,0.48303020000457764,-0.2944868206977844,9.97065258026123,6.317138671875,0.030517578125,-1.800537109375
5.0174999,0.23762452602386475,-0.3058592677116394,9.853337287902832,-2.899169921875,-0.6103515625,2.0751953125
5.022499900000001,0.4878185987472534,-0.3363853394985199,9.575011253356934,-3.11279296875,-0.701904296875,-1.77001953125
5.0274999000000005,0.4770447015762329,-0.27413609623908997,9.939528465270996,5.92041015625,-0.18310546875,-1.068115234375
5.0324999,0.2890998423099518,-0.2950853705406189,9.7791166305542,-4.730224609375,-1.0986328125,2.105712890625
5.0374999,0.5333084464073181,-0.31364041566848755,9.595361709594727,-1.434326171875,0.396728515625,-2.01416015625
5.0424999,0.3016694188117981,-0.2902969419956207,9.632472038269043,-6.011962890625,-0.48828125,1.28173828125
5.0474999,0.46806642413139343,-0.2190694510936737,9.626486778259277,1.5869140625,-0.30517578125,-2.960205078125
5.0524999,0.34835633635520935,-0.21787235140800476,9.95748519897461,3.997802734375,-0.640869140625,0.701904296875
5.0574999,0.2777273952960968,-0.25917232036590576,9.582792282104492,-6.256103515625,-0.701904296875,0.91552734375
5.062499900000001,0.5009866952896118,-0.2388216257095337,9.616909980773926,3.7841796875,1.617431640625,-2.62451171875
5.0674999000000005,0.37169981002807617,-0.243011474609375,9.917980194091797,2.9296875,0.6103515625,1.46484375
5.0724999,0.3411737382411957,-0.28969839215278625,9.546280860900879,-5.92041015625,0.396728515625,0.54931640625
5.0774999,0.5374982953071594,-0.228047713637352,9.777320861816406,4.364013671875,0.396728515625,-2.44140625
5.0824999,0.3321954905986786,-0.2537853717803955,10.042478561401367,1.190185546875,0.06103515625,1.708984375
5.0874999,0.23702596127986908,-0.26096799969673157,9.965864181518555,-1.89208984375,-0.091552734375,2.288818359375
5.0924999,0.4297592043876648,-0.29388827085494995,9.64923095703125,-4.241943359375,-0.732421875,-1.40380859375
5.0974999,0.48482584953308105,-0.2687491476535797,10.019734382629395,6.439208984375,0.579833984375,-1.40380859375
5.102499900000001,0.27473464608192444,-0.3256114423274994,9.861717224121094,-3.448486328125,-0.274658203125,2.166748046875
5.1074999000000005,0.524330198764801,-0.3280056416988373,9.585784912109375,-2.50244140625,0.396728515625,-1.556396484375
5.1124999,0.45848962664604187,-0.26815059781074524,9.952696800231934,6.40869140625,0.9765625,-0.701904296875
5.1174999,0.272938996553421,-0.3010708689689636,9.767744064331055,-4.058837890625,0.48828125,1.8310546875
5.1224999,0.5021837949752808,-0.30226796865463257,9.567828178405762,-0.518798828125,1.40380859375,-2.105712890625
5.1274999,0.4578910768032074,-0.18614917993545532,9.640851974487305,1.983642578125,-0.1220703125,-2.593994140625
5.1324999,0.35434186458587646,-0.19452889263629913,10.007762908935547,3.72314453125,-0.335693359375,0.823974609375
5.1374999,0.30705636739730835,-0.2621650993824005,9.636063575744629,-5.92041015625,-0.213623046875,0.885009765625
5.1424999,0.5213374495506287,-0.25917232036590576,9.68933391571045,3.753662109375,0.67138671875,-2.74658203125
5.147499900000001,0.3794809579849243,-0.2693476974964142,9.989208221435547,2.349853515625,-0.457763671875,1.251220703125
5.1524999000000005,0.3423708379268646,-0.30466216802597046,9.552266120910645,-6.256103515625,-1.40380859375,0.18310546875
5.1574999,0.5398924946784973,-0.25498247146606445,9.791686058044434,4.150390625,-0.244140625,-2.5634765625
5.1624999,0.33279404044151306,-0.2735375463962555,9.97484302520752,0.823974609375,-0.54931640625,1.617431640625
5.1674999,0.3621230125427246,-0.2890998423099518,9.768342971801758,-0.213623046875,-0.06103515625,1.89208984375
5.1724999,0.4495113790035248,-0.2998737692832947,9.355941772460938,-4.638671875,-0.213623046875,-0.91552734375
5.1774999,0.5345055460929871,-0.2885012924671173,9.780912399291992,6.2255859375,0.518798828125,-1.77001953125
5.1824999,0.24480712413787842,-0.26156654953956604,9.839570045471191,-1.983642578125,-0.42724609375,2.166748046875
5.187499900000001,0.4381389021873474,-0.2795230448246002,9.603142738342285,-3.997802734375,-0.244140625,-1.312255859375
5.1924999000000005,0.47644615173339844,-0.29867666959762573,10.030508041381836,6.2255859375,0.274658203125,-1.373291015625
5.1974999,0.2603694200515747,-0.3148375153541565,9.870695114135742,-3.173828125,-0.701904296875,2.044677734375
5.2024999,0.5111620426177979,-0.314238965511322,9.633668899536133,-3.11279296875,-0.8544921875,-2.044677734375
5.2074999,0.44352585077285767,-0.3148375153541565,9.955090522766113,6.317138671875,0.48828125,-0.946044921875
5.2124999,0.27413609623908997,-0.2585737705230713,9.780912399291992,-4.21142578125,-0.1220703125,1.953125
5.2174999,0.5081692934036255,-0.2585737705230713,9.594164848327637,-1.15966796875,0.396728515625,-2.227783203125
5.2224999,0.2825157940387726,-0.23762452602386475,9.633070945739746,-5.92041015625,-0.18310546875,1.495361328125
5.227499900000001,0.46746787428855896,-0.228047713637352,9.649829864501953,1.5869140625,0.3662109375,-2.777099609375
5.2324999000000005,0.37169981002807617,-0.24480712413787842,10.004770278930664,4.180908203125,0.396728515625,0.823974609375
5.2374999,0.30286651849746704,-0.24420857429504395,9.62828254699707,-6.195068359375,0.67138671875,1.190185546875
5.2424999,0.5147533416748047,-0.31783026456832886,9.664793968200684,3.2958984375,0.396728515625,-2.5634765625
5.2474999,0.3794809579849243,-0.2890998423099518,9.910199165344238,2.838134765625,-0.030517578125,1.28173828125
5.2524999,0.34356793761253357,-0.2944868206977844,9.502586364746094,-6.256103515625,-0.79345703125,0.335693359375
