# Time (seconds),Accel_X,Accel_Y,Accel_Z,Gyro_X,Gyro_Y,Gyro_Z
0.0024999,0.04728548228740692,-0.08499415963888168,9.825204849243164,0.67138671875,-1.312255859375,3.570556640625
0.0074999,0.25917232036590576,-0.23163901269435883,9.048286437988281,-1.556396484375,0.42724609375,-4.180908203125
0.012499900000000001,0.058059390634298325,0.020949264988303185,9.93474006652832,2.044677734375,0.518798828125,3.72314453125
0.0174999,0.33698388934135437,-0.08319851011037827,9.081805229187012,-2.532958984375,-1.129150390625,-4.119873046875
0.0224999,0.12090718746185303,0.21368250250816345,9.872490882873535,2.9296875,1.861572265625,3.41796875
0.0274999,0.3711012601852417,0.03890577703714371,9.238625526428223,-3.265380859375,-2.899169921875,-3.021240234375
0.0324999,0.13587094843387604,0.1951274424791336,9.874286651611328,3.631591796875,3.326416015625,2.44140625
0.0374999,0.2735375463962555,-0.1107318252325058,9.526528358459473,-3.41796875,-3.692626953125,-2.25830078125
0.0424999,0.10115502029657364,-0.031124621629714966,9.862914085388184,3.47900390625,4.119873046875,0.6103515625
0.0474999,0.21128830313682556,-0.2298433631658554,9.732429504394531,-2.960205078125,-4.21142578125,-0.701904296875
0.0524999,0.1430535465478897,-0.14245499670505524,9.6989107131958,2.655029296875,4.150390625,-0.701904296875
0.0574999,0.17717093229293823,-0.12629413604736328,9.742605209350586,-2.13623046875,-3.753662109375,1.007080078125
0.0624999,0.23283611238002777,-0.08379705995321274,9.366117477416992,1.739501953125,3.570556640625,-2.227783203125
0.0674999,0.11611878126859665,-0.02513911761343479,9.6803560256958,-0.762939453125,-2.86865234375,2.471923828125
0.0724999,0.2585737705230713,-0.1346738487482071,9.072827339172363,0.152587890625,2.62451171875,-3.47900390625
0.0774999,0.033518824726343155,-0.05386953800916672,9.775525093078613,0.579833984375,-1.52587890625,3.509521484375
0.0824999,0.22625206410884857,-0.25917232036590576,9.026140213012695,-1.312255859375,0.79345703125,-3.875732421875
0.0874999,0.016759412363171577,0.0071826050989329815,9.90241813659668,1.77001953125,0.091552734375,3.997802734375
0.0924999,0.28790274262428284,-0.1454477459192276,9.065644264221191,-2.593994140625,-0.885009765625,-4.08935546875
0.0974999,0.09217676520347595,0.22505496442317963,9.896432876586914,2.960205078125,1.708984375,3.47900390625
0.1024999,0.36990416049957275,0.041299980133771896,9.203909873962402,-3.387451171875,-2.288818359375,-3.509521484375
0.1074999,0.1215057373046875,0.292691171169281,9.891045570373535,3.47900390625,3.021240234375,2.716064453125
0.1124999,0.284311443567276,-0.04249707981944084,9.473258018493652,-3.509521484375,-3.60107421875,-2.105712890625
0.1174999,0.08319851011037827,0.10654197633266449,9.904812812805176,3.5400390625,3.72314453125,1.434326171875
0.1224999,0.2082955539226532,-0.2017114907503128,9.706692695617676,-3.265380859375,-4.119873046875,-0.8544921875
0.1274999,0.12629413604736328,-0.05925649031996727,9.809642791748047,2.960205078125,4.119873046875,-0.244140625
0.1324999,0.19393034279346466,-0.14784196019172668,9.752182006835938,-2.38037109375,-4.21142578125,0.9765625
0.1374999,0.19393034279346466,-0.14784196019172668,9.752182006835938,-2.38037109375,-4.21142578125,0.9765625
0.1424999,0.23523031175136566,-0.04010287672281265,9.460089683532715,2.197265625,3.814697265625,-1.77001953125
0.1474999,0.15322890877723694,-0.030526071786880493,9.667187690734863,-1.434326171875,-3.265380859375,2.288818359375
0.1524999,0.28072014451026917,-0.05985504388809204,9.10874080657959,0.579833984375,2.9296875,-2.99072265625
0.1574999,0.06823474913835526,-0.026336219161748886,9.707889556884766,0.091552734375,-1.89208984375,3.41796875
0.1624999,0.2579752206802368,-0.18495208024978638,9.03870964050293,-0.762939453125,1.312255859375,-3.84521484375
0.1674999,0.03711012750864029,0.026336219161748886,9.8784761428833,1.46484375,-0.48828125,3.875732421875
0.1724999,0.29568392038345337,-0.13706804811954498,9.060855865478516,-2.197265625,-0.335693359375,-4.08935546875
0.17749990000000002,0.10295066982507706,0.23702596127986908,9.949105262756348,2.532958984375,1.190185546875,3.814697265625
0.1824999,0.3944447338581085,0.05506663769483566,9.160215377807617,-2.960205078125,-1.89208984375,-3.448486328125
0.1874999,0.14185644686222076,0.3663128614425659,9.91738224029541,3.448486328125,2.50244140625,2.99072265625
0.1924999,0.3447650372982025,0.023942016065120697,9.404424667358398,-3.509521484375,-3.23486328125,-2.62451171875
0.1974999,0.1322796493768692,0.20530278980731964,9.937732696533203,3.72314453125,3.570556640625,1.739501953125
0.2024999,0.26396074891090393,-0.18375498056411743,9.671378135681152,-3.387451171875,-3.875732421875,-1.007080078125
0.20749990000000001,0.1628057211637497,-0.026336219161748886,9.88506031036377,3.35693359375,4.241943359375,0.213623046875
0.2124999,0.24660277366638184,-0.19632454216480255,9.781511306762695,-2.8076171875,-4.0283203125,0.335693359375
0.2174999,0.25438392162323,-0.0586579404771328,9.558850288391113,2.38037109375,3.997802734375,-1.556396484375
0.2224999,0.20709845423698425,-0.06883329898118973,9.721057891845703,-1.77001953125,-3.387451171875,1.89208984375
0.2274999,0.3148375153541565,-0.05626374110579491,9.214085578918457,1.03759765625,3.11279296875,-3.0517578125
0.2324999,0.12629413604736328,-0.03411737456917763,9.731232643127441,-0.30517578125,-2.349853515625,3.021240234375
0.2374999,0.30286651849746704,-0.15981295704841614,9.097966194152832,-0.396728515625,1.77001953125,-3.7841796875
0.2424999,0.07541735470294952,-0.013168109580874443,9.90361499786377,0.9765625,-0.885009765625,3.814697265625
0.2474999,0.31124621629714966,-0.1604115068912506,9.089587211608887,-1.800537109375,-0.030517578125,-4.119873046875
0.2524999,0.11252748221158981,0.15023615956306458,10.003573417663574,2.288818359375,0.885009765625,3.631591796875
0.2574999,0.4082113802433014,0.016160860657691956,9.181164741516113,-2.74658203125,-1.495361328125,-3.96728515625
0.2624999,0.16160862147808075,0.30286651849746704,9.965864181518555,3.173828125,2.349853515625,3.082275390625
0.2674999,0.3884592354297638,0.04369417950510979,9.427767753601074,-3.326416015625,-2.838134765625,-2.99072265625
0.2724999,0.16340427100658417,0.19393034279346466,9.998785018920898,3.5400390625,3.41796875,1.983642578125
0.2774999,0.2932897210121155,-0.14844051003456116,9.728240013122559,-3.23486328125,-3.84521484375,-1.5869140625
0.2824999,0.15921440720558167,-0.058059390634298325,9.967659950256348,3.326416015625,3.936767578125,0.3662109375
0.28749990000000003,0.25917232036590576,-0.20949265360832214,9.873088836669922,-2.74658203125,-3.96728515625,-0.030517578125
0.2924999,0.22744916379451752,-0.13706804811954498,9.686341285705566,2.410888671875,4.058837890625,-1.220703125
0.2974999,0.22206220030784607,-0.0975637212395668,9.810839653015137,-1.77001953125,-3.72314453125,1.46484375
0.3024999,0.3058592677116394,-0.10773907601833344,9.336788177490234,1.190185546875,3.2958984375,-2.593994140625
0.3074999,0.14006079733371735,-0.047884032130241394,9.77013874053955,-0.518798828125,-2.471923828125,2.99072265625
0.3124999,0.30526071786880493,-0.19572599232196808,9.144054412841797,-0.152587890625,2.0751953125,-3.631591796875
0.3174999,0.06763619929552078,-0.06344634294509888,9.913191795349121,0.946044921875,-1.190185546875,3.570556640625
0.3224999,0.2777273952960968,-0.25318682193756104,9.11113452911377,-1.678466796875,0.48828125,-4.2724609375
0.3274999,0.07781155407428741,0.0586579404771328,10.004171371459961,2.044677734375,0.48828125,3.814697265625
0.3324999,0.3585317134857178,-0.09157821536064148,9.163806915283203,-2.62451171875,-1.251220703125,-3.96728515625
0.3374999,0.13287819921970367,0.2454056739807129,9.944915771484375,3.021240234375,1.922607421875,3.326416015625
0.3424999,0.38307225704193115,0.015562310814857483,9.342175483703613,-3.23486328125,-2.74658203125,-3.23486328125
0.34749990000000003,0.1430535465478897,0.1975216418504715,9.948506355285645,3.41796875,3.326416015625,2.25830078125
0.35249990000000003,0.27413609623908997,-0.1388636976480484,9.611522674560547,-3.47900390625,-3.692626953125,-1.983642578125
0.3574999,0.10354922711849213,-0.04369417950510979,9.92097282409668,3.35693359375,3.997802734375,0.8544921875
0.3624999,0.21188685297966003,-0.24420857429504395,9.770736694335938,-2.899169921875,-4.180908203125,-0.30517578125
0.3674999,0.13946224749088287,-0.15801730751991272,9.713275909423828,2.685546875,4.21142578125,-0.79345703125
0.3724999,0.17238251864910126,-0.13287819921970367,9.73661994934082,-2.227783203125,-3.90625,1.190185546875
0.3774999,0.22685061395168304,-0.10833762586116791,9.368511199951172,1.556396484375,3.631591796875,-2.410888671875
0.3824999,0.10953472554683685,-0.03292027488350868,9.68694019317627,-0.8544921875,-2.99072265625,2.593994140625
0.3874999,0.2555810213088989,-0.15502455830574036,9.103952407836914,0.152587890625,2.5634765625,-3.570556640625
0.3924999,0.03651157766580582,-0.053270988166332245,9.807249069213867,0.48828125,-1.708984375,3.5400390625
0.3974999,0.23163901269435883,-0.2651578485965729,9.061454772949219,-1.15966796875,1.007080078125,-4.21142578125
0.4024999,0.028730420395731926,0.018555063754320145,9.926360130310059,1.708984375,-0.274658203125,3.7841796875
0.4074999,0.2932897210121155,-0.1472434103488922,9.084199905395508,-2.349853515625,-0.67138671875,-4.08935546875
0.41249990000000003,0.08918401598930359,0.24361002445220947,9.910798072814941,2.899169921875,1.373291015625,3.387451171875
0.41749990000000003,0.35913026332855225,0.04249707981944084,9.2033109664917,-3.204345703125,-2.166748046875,-3.570556640625
0.4224999,0.1041477769613266,0.31184476613998413,9.892841339111328,3.60107421875,2.685546875,2.685546875
0.4274999,0.2693476974964142,-0.04489128291606903,9.455301284790039,-3.570556640625,-3.35693359375,-2.3193359375
0.4324999,0.076015904545784,0.1107318252325058,9.898228645324707,3.60107421875,3.631591796875,1.251220703125
0.4374999,0.2059013396501541,-0.21667525172233582,9.68574333190918,-3.265380859375,-4.058837890625,-0.6103515625
0.4424999,0.12330138683319092,-0.0628477931022644,9.808445930480957,3.11279296875,4.150390625,-0.213623046875
0.4474999,0.19632454216480255,-0.15981295704841614,9.746794700622559,-2.349853515625,-4.0283203125,0.79345703125
0.4524999,0.22625206410884857,-0.035913024097681046,9.47265911102295,2.01416015625,3.96728515625,-1.8310546875
0.4574999,0.16160862147808075,-0.03232172131538391,9.678560256958008,-1.617431640625,-3.326416015625,2.25830078125
0.4624999,0.284311443567276,-0.048482585698366165,9.140463829040527,0.6103515625,2.899169921875,-3.204345703125
0.4674999,0.08798690885305405,-0.02753331884741783,9.725846290588379,-0.091552734375,-2.044677734375,3.35693359375
0.47249990000000003,0.2759317457675934,-0.17477671802043915,9.06863784790039,-0.67138671875,1.556396484375,-3.72314453125
0.47749990000000003,0.05985504388809204,0.0071826050989329815,9.899425506591797,1.312255859375,-0.579833984375,3.96728515625
0.4824999,0.3190273642539978,-0.1430535465478897,9.084199905395508,-2.01416015625,-0.152587890625,-4.241943359375
0.4874999,0.12270283699035645,0.19393034279346466,9.983222961425781,2.50244140625,0.8544921875,3.7841796875
0.4924999,0.42018240690231323,0.0347159244120121,9.185953140258789,-2.99072265625,-1.8310546875,-3.692626953125
0.4974999,0.1586158573627472,0.3274070918560028,9.953893661499023,3.2958984375,2.50244140625,3.143310546875
0.5024999,0.1586158573627472,0.3274070918560028,9.953893661499023,3.2958984375,2.50244140625,3.143310546875
0.5074999,0.3669114112854004,0.02693476900458336,9.435548782348633,-3.41796875,-3.326416015625,-2.716064453125
0.5124999,0.14844051003456116,0.18914192914962769,9.981427192687988,3.662109375,3.326416015625,1.64794921875
0.5174999,0.2819172441959381,-0.15981295704841614,9.720458984375,-3.2958984375,-3.96728515625,-1.3427734375
0.5224999,0.17178396880626678,-0.04189852997660637,9.939528465270996,3.387451171875,4.0283203125,0.274658203125
0.5274999,0.2585737705230713,-0.18315643072128296,9.84376049041748,-2.62451171875,-4.119873046875,0.335693359375
0.5324999,0.24361002445220947,-0.07182604819536209,9.621698379516602,2.44140625,3.875732421875,-1.46484375
0.5374999,0.20949265360832214,-0.05985504388809204,9.778518676757812,-1.77001953125,-3.631591796875,1.89208984375
0.5424999,0.30526071786880493,-0.05147533491253853,9.277531623840332,1.129150390625,3.204345703125,-2.655029296875
0.5474999,0.13168109953403473,-0.0347159244120121,9.774927139282227,-0.3662109375,-2.38037109375,3.173828125
0.5524999,0.3058592677116394,-0.1646013706922531,9.14345645904541,-0.3662109375,1.739501953125,-3.662109375
0.5574999,0.07481880486011505,-0.05626374110579491,9.938331604003906,0.946044921875,-0.91552734375,3.814697265625
0.5624999,0.2968810200691223,-0.21607670187950134,9.118317604064941,-1.495361328125,0.244140625,-4.21142578125
0.5674999000000001,0.09457096457481384,0.07062894850969315,10.016741752624512,2.25830078125,0.54931640625,3.692626953125
0.5724999000000001,0.3842693865299225,-0.055665191262960434,9.184157371520996,-2.685546875,-1.373291015625,-3.96728515625
0.5774999000000001,0.14245499670505524,0.24899697303771973,9.964069366455078,3.082275390625,2.227783203125,3.143310546875
0.5824999,0.3878606855869293,0.020350715145468712,9.402029991149902,-3.387451171875,-2.9296875,-3.23486328125
0.5874999,0.1538274586200714,0.17956513166427612,9.989806175231934,3.509521484375,3.2958984375,2.0751953125
0.5924999,0.2890998423099518,-0.14664486050605774,9.688735961914062,-3.326416015625,-3.84521484375,-1.800537109375
0.5974999,0.13706804811954498,-0.06224924325942993,9.953893661499023,3.173828125,4.08935546875,0.732421875
0.6024999,0.23822307586669922,-0.21966800093650818,9.846753120422363,-2.86865234375,-4.119873046875,0.030517578125
0.6074999,0.17717093229293823,-0.14365209639072418,9.723451614379883,2.471923828125,4.08935546875,-0.8544921875
0.6124999,0.1885433793067932,-0.09816227108240128,9.806650161743164,-1.89208984375,-3.814697265625,1.3427734375
0.6174999,0.2519897222518921,-0.09876082092523575,9.387065887451172,1.312255859375,3.662109375,-2.471923828125
0.6224999,0.11133038252592087,-0.028730420395731926,9.75278091430664,-0.640869140625,-2.86865234375,2.74658203125
0.6274999,0.26755204796791077,-0.17657238245010376,9.138069152832031,-0.030517578125,2.288818359375,-3.509521484375
0.6324999,0.04010287672281265,-0.060453593730926514,9.869498252868652,0.732421875,-1.46484375,3.5400390625
0.6374999,0.23822307586669922,-0.27712884545326233,9.08838939666748,-1.190185546875,0.79345703125,-4.180908203125
0.6424999,0.03950432687997818,0.03292027488350868,9.964069366455078,2.13623046875,0.030517578125,3.84521484375
0.6474999,0.3100491166114807,-0.13706804811954498,9.111733436584473,-2.50244140625,-0.8544921875,-4.0283203125
0.6524999,0.10115502029657364,0.2472013235092163,9.909601211547852,3.021240234375,1.52587890625,3.47900390625
0.6574999,0.3669114112854004,0.021547814831137657,9.241618156433105,-3.2958984375,-2.471923828125,-3.41796875
0.6624999,0.12389993667602539,0.2585737705230713,9.895833969116211,3.72314453125,2.685546875,2.655029296875
0.6674999,0.2717418968677521,-0.10654197633266449,9.503185272216797,-3.47900390625,-3.47900390625,-2.105712890625
0.6724999,0.08559270948171616,0.038307227194309235,9.895833969116211,3.753662109375,3.84521484375,1.03759765625
0.6774999,0.1999158412218094,-0.2513911724090576,9.712079048156738,-3.173828125,-4.08935546875,-0.42724609375
0.6824999,0.11791443079710007,-0.09157821536064148,9.77133560180664,3.082275390625,3.997802734375,-0.42724609375
0.6874999,0.16998831927776337,-0.15502455830574036,9.727641105651855,-2.410888671875,-4.180908203125,1.129150390625
0.6924999000000001,0.21547815203666687,-0.04429273307323456,9.426570892333984,1.953125,3.662109375,-2.01416015625
0.6974999000000001,0.1256955862045288,-0.03411737456917763,9.6618013381958,-1.312255859375,-3.265380859375,2.3193359375
0.7024999000000001,0.26336219906806946,-0.0694318488240242,9.115922927856445,0.42724609375,2.899169921875,-3.2958984375
0.7074999,0.05446808785200119,-0.04369417950510979,9.747393608093262,0.030517578125,-2.0751953125,3.47900390625
0.7124999,0.2472013235092163,-0.1951274424791336,9.068038940429688,-0.885009765625,1.312255859375,-3.997802734375
0.7174999,0.03411737456917763,0.0065840547904372215,9.908403396606445,1.52587890625,-0.274658203125,3.84521484375
0.7224999,0.29867666959762573,-0.12749123573303223,9.087791442871094,-2.13623046875,-0.244140625,-4.33349609375
0.7274999,0.10115502029657364,0.22086510062217712,9.950302124023438,2.62451171875,1.190185546875,3.60107421875
0.7324999,0.3932476341724396,0.0736217051744461,9.200318336486816,-2.99072265625,-2.0751953125,-3.631591796875
0.7374999,0.13587094843387604,0.3387795388698578,9.931747436523438,3.41796875,2.716064453125,2.9296875
0.7424999,0.333991140127182,0.03411737456917763,9.47265911102295,-3.173828125,-3.326416015625,-2.471923828125
0.7474999,0.12270283699035645,0.16639702022075653,9.96945571899414,3.60107421875,3.72314453125,1.373291015625
0.7524999,0.2603694200515747,-0.1604115068912506,9.750985145568848,-3.23486328125,-4.058837890625,-1.220703125
0.7574999,0.15562310814857483,-0.047884032130241394,9.925761222839355,3.082275390625,4.2724609375,0
0.7624999,0.23762452602386475,-0.1586158573627472,9.850942611694336,-2.593994140625,-4.119873046875,0.42724609375
0.7674999,0.24241292476654053,-0.0586579404771328,9.59596061706543,2.13623046875,3.997802734375,-1.708984375
0.7724999,0.19273324310779572,-0.04728548228740692,9.78869342803955,-1.434326171875,-3.692626953125,2.227783203125
0.7774999,0.30466216802597046,-0.0586579404771328,9.257181167602539,0.91552734375,3.11279296875,-2.960205078125
0.7824999,0.11432313174009323,-0.035913024097681046,9.818621635437012,-0.274658203125,-2.50244140625,3.11279296875
0.7874999,0.29628247022628784,-0.17477671802043915,9.172186851501465,-0.640869140625,1.678466796875,-3.997802734375
0.7924999,0.06703764945268631,-0.01496376097202301,9.995792388916016,1.129150390625,-0.79345703125,3.570556640625
0.7974999,0.3106476664543152,-0.16160862147808075,9.168595314025879,-1.8310546875,0.06103515625,-4.364013671875
0.8024999,0.1173158809542656,0.15921440720558167,10.06462574005127,2.532958984375,0.823974609375,3.72314453125
0.8074999,0.41958385705947876,0.02753331884741783,9.23323917388916,-2.838134765625,-1.495361328125,-3.96728515625
0.8124999,0.17178396880626678,0.3076549172401428,9.993996620178223,3.204345703125,2.38037109375,3.0517578125
0.8174999000000001,0.40222588181495667,0.04249707981944084,9.456498146057129,-3.2958984375,-3.11279296875,-2.62451171875
0.8224999000000001,0.17477671802043915,0.1867477297782898,10.012551307678223,3.570556640625,3.387451171875,2.01416015625
0.8274999000000001,0.3010708689689636,-0.15562310814857483,9.745597839355469,-3.387451171875,-3.936767578125,-1.556396484375
0.8324999000000001,0.16579847037792206,-0.05626374110579491,9.983820915222168,3.23486328125,4.0283203125,0.457763671875
0.8374999,0.25737667083740234,-0.20470423996448517,9.885659217834473,-2.838134765625,-4.2724609375,0.18310546875
0.8424999,0.22206220030784607,-0.10534487664699554,9.692327499389648,2.471923828125,3.997802734375,-1.251220703125
0.8474999,0.21188685297966003,-0.07781155407428741,9.815030097961426,-1.64794921875,-3.753662109375,1.708984375
0.8524999,0.30226796865463257,-0.06404489278793335,9.332598686218262,1.312255859375,3.2958984375,-2.8076171875
0.8574999,0.14065934717655182,-0.033518824726343155,9.769539833068848,-0.54931640625,-2.777099609375,2.716064453125
0.8624999,0.3124433159828186,-0.1628057211637497,9.148842811584473,-0.152587890625,2.105712890625,-3.72314453125
0.8674999,0.3124433159828186,-0.1628057211637497,9.148842811584473,-0.152587890625,2.105712890625,-3.72314453125
0.8724999,0.0802057534456253,-0.06643909960985184,9.914389610290527,0.732421875,-1.28173828125,3.753662109375
0.8774999,0.29209262132644653,-0.22685061395168304,9.111733436584473,-1.52587890625,0.457763671875,-4.180908203125
0.8824999,0.08439560979604721,0.05386953800916672,9.999382972717285,2.044677734375,0.396728515625,3.662109375
0.8874999,0.36092591285705566,-0.06404489278793335,9.147645950317383,-2.5634765625,-0.91552734375,-4.2724609375
0.8924999,0.1215057373046875,0.24121582508087158,9.932345390319824,3.143310546875,1.922607421875,3.326416015625
0.8974999,0.36571431159973145,0.03292027488350868,9.329605102539062,-3.204345703125,-2.8076171875,-2.9296875
0.9024999,0.12330138683319092,0.1801636815071106,9.942521095275879,3.35693359375,3.23486328125,2.349853515625
0.9074999,0.2603694200515747,-0.14425064623355865,9.620500564575195,-3.326416015625,-3.72314453125,-1.861572265625
0.9124999,0.09636662155389786,-0.06584054976701736,9.929352760314941,3.387451171875,3.875732421875,0.885009765625
0.9174999,0.2124854028224945,-0.25258827209472656,9.801262855529785,-3.021240234375,-4.058837890625,-0.274658203125
0.9224999,0.1496376097202301,-0.1604115068912506,9.740211486816406,2.74658203125,4.33349609375,-0.732421875
0.9274999,0.18136078119277954,-0.13287819921970367,9.781511306762695,-1.983642578125,-3.84521484375,1.220703125
0.9324999,0.24660277366638184,-0.09217676520347595,9.400833129882812,1.434326171875,3.692626953125,-2.3193359375
0.9374999,0.12509703636169434,-0.031124621629714966,9.727641105651855,-0.91552734375,-2.9296875,2.50244140625
0.9424999000000001,0.2777273952960968,-0.13587094843387604,9.127894401550293,0.091552734375,2.532958984375,-3.448486328125
0.9474999000000001,0.05626374110579491,-0.05686229094862938,9.84495735168457,0.518798828125,-1.52587890625,3.41796875
0.9524999000000001,0.2519897222518921,-0.24480712413787842,9.091382026672363,-1.251220703125,0.9765625,-4.058837890625
0.9574999000000001,0.03950432687997818,0.004788403399288654,9.971251487731934,1.77001953125,0.091552734375,3.875732421875
0.9624999,0.3076549172401428,-0.12509703636169434,9.138069152832031,-2.349853515625,-0.79345703125,-3.997802734375
0.9674999,0.090979665517807,0.21188685297966003,9.94970417022705,3.021240234375,1.5869140625,3.570556640625
0.9724999,0.3645172119140625,0.04489128291606903,9.27453899383545,-2.9296875,-2.38037109375,-3.35693359375
0.9774999,0.10714052617549896,0.2603694200515747,9.931148529052734,3.41796875,2.960205078125,2.5634765625
0.9824999,0.2795230448246002,-0.05746084079146385,9.537900924682617,-3.47900390625,-3.631591796875,-2.288818359375
0.9874999,0.08379705995321274,0.06344634294509888,9.946112632751465,3.47900390625,3.875732421875,1.251220703125
0.9924999,0.21966800093650818,-0.20530278980731964,9.75637149810791,-3.11279296875,-4.21142578125,-0.67138671875
0.9974999,0.13048399984836578,-0.08439560979604721,9.839570045471191,2.960205078125,4.302978515625,-0.30517578125
1.0024999,0.1999158412218094,-0.12868833541870117,9.778518676757812,-2.44140625,-4.058837890625,1.007080078125
1.0074999000000002,0.23044191300868988,-0.05147533491253853,9.481637001037598,1.8310546875,3.814697265625,-1.739501953125
1.0124999000000001,0.1586158573627472,-0.01975216343998909,9.704896926879883,-1.28173828125,-3.5400390625,2.25830078125
1.0174999000000002,0.28371289372444153,-0.07960720360279083,9.156624794006348,0.640869140625,2.777099609375,-3.265380859375
1.0224999000000001,0.08559270948171616,-0.035913024097681046,9.77791976928711,0.18310546875,-2.227783203125,3.2958984375
1.0274999,0.2717418968677521,-0.20290859043598175,9.101557731628418,-0.8544921875,1.40380859375,-4.08935546875
1.0324999000000001,0.0586579404771328,0.011372458189725876,9.939528465270996,1.312255859375,-0.54931640625,3.814697265625
1.0374999,0.3100491166114807,-0.14245499670505524,9.105149269104004,-2.0751953125,-0.244140625,-3.997802734375
1.0424999000000001,0.11372458189725876,0.2190694510936737,9.980828285217285,2.655029296875,0.9765625,3.875732421875
1.0474999,0.40462008118629456,0.04908113554120064,9.185953140258789,-3.0517578125,-1.8310546875,-3.7841796875
1.0524999000000002,0.13946224749088287,0.34835633635520935,9.938331604003906,3.448486328125,2.50244140625,2.838134765625
1.0574999,0.34596213698387146,0.01975216343998909,9.436745643615723,-3.387451171875,-3.173828125,-2.655029296875
1.0624999000000002,0.1256955862045288,0.19393034279346466,9.974244117736816,3.72314453125,3.41796875,1.77001953125
1.0674999,0.25677812099456787,-0.17417816817760468,9.722254753112793,-3.326416015625,-3.936767578125,-1.312255859375
1.0724999000000002,0.14784196019172668,-0.033518824726343155,9.936535835266113,3.265380859375,3.90625,0.091552734375
1.0774999,0.2322375625371933,-0.1825578808784485,9.841365814208984,-2.74658203125,-4.180908203125,0.396728515625
1.0824999000000002,0.2322375625371933,-0.06584054976701736,9.612719535827637,2.3193359375,3.7841796875,-1.46484375
1.0874999,0.20111294090747833,-0.06224924325942993,9.773131370544434,-1.678466796875,-3.509521484375,1.89208984375
1.0924999000000002,0.3106476664543152,-0.05925649031996727,9.259574890136719,1.15966796875,3.11279296875,-2.716064453125
1.0974999,0.13587094843387604,-0.0347159244120121,9.767146110534668,-0.457763671875,-2.410888671875,2.99072265625
1.1024999000000002,0.31783026456832886,-0.17298106849193573,9.130887031555176,-0.54931640625,1.8310546875,-3.90625
1.1074999,0.08918401598930359,-0.0293289702385664,9.922768592834473,0.9765625,-0.79345703125,3.631591796875
1.1124999000000002,0.32022446393966675,-0.1885433793067932,9.099761962890625,-1.739501953125,0.244140625,-4.21142578125
1.1174999,0.1215057373046875,0.12868833541870117,9.999981880187988,2.288818359375,0.701904296875,3.692626953125
1.1224999000000002,0.40880993008613586,-0.008379706181585789,9.152434349060059,-2.86865234375,-1.556396484375,-3.84521484375
1.1274999,0.16579847037792206,0.2950853705406189,9.943120002746582,3.082275390625,2.3193359375,3.173828125
1.1324999000000002,0.3944447338581085,0.03711012750864029,9.376891136169434,-3.326416015625,-2.9296875,-3.082275390625
1.1374999000000001,0.16160862147808075,0.1909375786781311,9.96825885772705,3.631591796875,3.35693359375,2.105712890625
1.1424999000000002,0.2819172441959381,-0.16400282084941864,9.674370765686035,-3.448486328125,-3.936767578125,-1.495361328125
1.1474999000000001,0.13168109953403473,-0.06643909960985184,9.9401273727417,3.41796875,4.119873046875,0.54931640625
1.1524999000000002,0.2256535142660141,-0.23942017555236816,9.82999324798584,-2.899169921875,-4.119873046875,0.030517578125
1.1574999000000001,0.17537526786327362,-0.13946224749088287,9.692925453186035,2.62451171875,3.96728515625,-0.885009765625
1.1624999,0.18136078119277954,-0.10833762586116791,9.784503936767578,-2.01416015625,-3.72314453125,1.40380859375
1.1674999000000001,0.25498247146606445,-0.08798690885305405,9.348160743713379,1.220703125,3.387451171875,-2.5634765625
1.1724999,0.11252748221158981,-0.038307227194309235,9.734824180603027,-0.701904296875,-2.8076171875,2.86865234375
1.1774999000000002,0.2717418968677521,-0.17178396880626678,9.117119789123535,-0.1220703125,2.197265625,-3.631591796875
1.1824999,0.047884032130241394,-0.07541735470294952,9.8599214553833,0.79345703125,-1.40380859375,3.72314453125
1.1874999000000002,0.2513911724090576,-0.2669534981250763,9.070432662963867,-1.312255859375,0.48828125,-4.058837890625
1.1924999,0.053270988166332245,0.010773907415568829,9.95329475402832,2.0751953125,0.091552734375,3.631591796875
1.1974999000000002,0.3280056416988373,-0.12330138683319092,9.102754592895508,-2.593994140625,-1.007080078125,-4.2724609375
1.2024999,0.10654197633266449,0.22026655077934265,9.895833969116211,3.0517578125,1.77001953125,3.2958984375
1.2074999000000002,0.365115761756897,0.02753331884741783,9.258976936340332,-3.23486328125,-2.471923828125,-3.2958984375
1.2124999,0.1173158809542656,0.22445641458034515,9.890447616577148,3.5400390625,3.173828125,2.349853515625
1.2174999000000002,0.2651578485965729,-0.09696517139673233,9.53849983215332,-3.35693359375,-3.60107421875,-2.13623046875
1.2224999,0.08619125932455063,0.0077811554074287415,9.892242431640625,3.387451171875,4.0283203125,1.007080078125
1.2274999000000002,0.2041056901216507,-0.22086510062217712,9.73781681060791,-3.0517578125,-4.21142578125,-0.457763671875
1.2324999,0.2041056901216507,-0.22086510062217712,9.73781681060791,-3.0517578125,-4.21142578125,-0.457763671875
1.2374999000000002,0.1215057373046875,-0.11013327538967133,9.75397777557373,2.8076171875,4.119873046875,-0.396728515625
1.2424999,0.16819266974925995,-0.11791443079710007,9.740211486816406,-2.25830078125,-3.90625,1.220703125
1.2474999000000002,0.20769700407981873,-0.06464344263076782,9.412205696105957,1.678466796875,3.753662109375,-2.13623046875
1.2524999,0.11552023142576218,-0.017956512048840523,9.677961349487305,-1.15966796875,-3.204345703125,2.197265625
1.2574999000000002,0.25677812099456787,-0.1107318252325058,9.10993766784668,0.335693359375,2.685546875,-3.41796875
1.2624999000000001,0.05506663769483566,-0.04908113554120064,9.7605619430542,0.244140625,-2.105712890625,3.631591796875
1.2674999000000002,0.2513911724090576,-0.23762452602386475,9.057863235473633,-1.068115234375,1.068115234375,-4.0283203125
1.2724999000000001,0.048482585698366165,0.0077811554074287415,9.907206535339355,1.617431640625,-0.396728515625,3.875732421875
1.2774999000000002,0.31124621629714966,-0.14903905987739563,9.070432662963867,-2.349853515625,-0.335693359375,-4.2724609375
1.2824999000000001,0.11851298063993454,0.23343466222286224,9.930550575256348,2.716064453125,1.251220703125,3.692626953125
1.2874999,0.40701428055763245,0.05746084079146385,9.169792175292969,-3.021240234375,-1.8310546875,-3.35693359375
1.2924999000000001,0.14844051003456116,0.3519476354122162,9.90122127532959,3.47900390625,2.716064453125,2.960205078125
1.2974999,0.3363853394985199,0.011372458189725876,9.427767753601074,-3.387451171875,-3.35693359375,-2.655029296875
1.3024999000000002,0.12210428714752197,0.18375498056411743,9.947908401489258,3.692626953125,3.41796875,1.46484375
1.3074999,0.2495955228805542,-0.18555063009262085,9.715670585632324,-3.35693359375,-3.997802734375,-1.15966796875
1.3124999000000002,0.14604631066322327,-0.03232172131538391,9.915586471557617,3.265380859375,3.997802734375,0.030517578125
1.3174999,0.23044191300868988,-0.1801636815071106,9.821015357971191,-2.74658203125,-4.150390625,0.457763671875
1.3224999000000002,0.24121582508087158,-0.04728548228740692,9.577404975891113,2.38037109375,3.997802734375,-1.64794921875
1.3274999,0.20290859043598175,-0.055665191262960434,9.727641105651855,-1.77001953125,-3.41796875,1.953125
1.3324999000000002,0.3148375153541565,-0.043095629662275314,9.208099365234375,1.0986328125,3.204345703125,-2.9296875
1.3374999,0.12988543510437012,-0.03172317147254944,9.711481094360352,-0.18310546875,-2.44140625,3.265380859375
1.3424999000000002,0.3076549172401428,-0.1562216579914093,9.084199905395508,-0.457763671875,1.739501953125,-3.7841796875
1.3474999,0.07661445438861847,-0.016759412363171577,9.871294021606445,1.03759765625,-1.0986328125,3.814697265625
1.3524999000000002,0.30526071786880493,-0.17417816817760468,9.056666374206543,-1.678466796875,0.06103515625,-4.08935546875
1.3574999,0.1149216815829277,0.13527239859104156,9.959878921508789,2.3193359375,0.732421875,3.753662109375
1.3624999000000002,0.3992331326007843,-0.019153613597154617,9.114127159118652,-2.8076171875,-1.556396484375,-3.90625
1.3674999,0.1586158573627472,0.28969839215278625,9.916783332824707,3.265380859375,2.349853515625,3.265380859375
1.3724999000000002,0.38546648621559143,0.019153613597154617,9.340977668762207,-3.41796875,-2.86865234375,-3.0517578125
1.3774999,0.15023615956306458,0.19572599232196808,9.946112632751465,3.662109375,3.35693359375,1.861572265625
1.3824999000000002,0.2711433470249176,-0.16998831927776337,9.62828254699707,-3.2958984375,-3.875732421875,-1.64794921875
1.3874999000000001,0.12629413604736328,-0.0520738884806633,9.907206535339355,3.60107421875,3.936767578125,0.640869140625
1.3924999000000002,0.2256535142660141,-0.25917232036590576,9.77791976928711,-2.99072265625,-4.180908203125,-0.213623046875
1.3974999000000001,0.181959331035614,-0.13527239859104156,9.662399291992188,2.716064453125,3.96728515625,-1.03759765625
1.4024999000000002,0.19452889263629913,-0.1412578970193863,9.739612579345703,-2.01416015625,-3.509521484375,1.373291015625
1.4074999000000001,0.2693476974964142,-0.08499415963888168,9.331400871276855,1.434326171875,3.570556640625,-2.471923828125
1.4124999,0.12749123573303223,-0.061052143573760986,9.701904296875,-0.8544921875,-2.86865234375,2.685546875
1.4174999000000001,0.28072014451026917,-0.15502455830574036,9.103353500366211,0,2.166748046875,-3.60107421875
1.4224999,0.04728548228740692,-0.08379705995321274,9.836577415466309,0.518798828125,-1.434326171875,3.47900390625
1.4274999000000002,0.24361002445220947,-0.25318682193756104,9.066842079162598,-1.434326171875,0.48828125,-4.119873046875
1.4324999,0.03711012750864029,0.004788403399288654,9.938929557800293,2.044677734375,0.274658203125,3.997802734375
1.4374999000000002,0.30526071786880493,-0.12330138683319092,9.097966194152832,-2.3193359375,-0.9765625,-4.08935546875
1.4424999,0.09157821536064148,0.21368250250816345,9.901819229125977,2.99072265625,1.739501953125,3.387451171875
1.4474999000000002,0.3579331636428833,0.04189852997660637,9.240421295166016,-3.143310546875,-2.44140625,-3.2958984375
1.4524999,0.10534487664699554,0.24361002445220947,9.901819229125977,3.41796875,2.86865234375,2.593994140625
1.4574999000000002,0.25977087020874023,-0.06524199992418289,9.515754699707031,-3.60107421875,-3.41796875,-2.227783203125
1.4624999,0.07302315533161163,0.038307227194309235,9.91738224029541,3.5400390625,3.662109375,1.190185546875
1.4674999000000002,0.1999158412218094,-0.2124854028224945,9.73781681060791,-3.204345703125,-3.997802734375,-0.823974609375
1.4724999,0.11791443079710007,-0.10235211998224258,9.815030097961426,2.777099609375,4.180908203125,-0.335693359375
1.4774999000000002,0.1885433793067932,-0.13048399984836578,9.77013874053955,-2.38037109375,-4.119873046875,0.8544921875
1.4824999,0.2190694510936737,-0.05746084079146385,9.473855972290039,1.922607421875,3.7841796875,-1.953125
1.4874999000000002,0.14664486050605774,-0.010175357572734356,9.701904296875,-1.220703125,-3.35693359375,2.25830078125
1.4924999,0.26815059781074524,-0.07661445438861847,9.155426979064941,0.640869140625,2.716064453125,-3.326416015625
1.4974999000000002,0.07062894850969315,-0.01735796220600605,9.761159896850586,0.030517578125,-1.953125,3.23486328125
1.5024999,0.25737667083740234,-0.20290859043598175,9.09497356414795,-0.823974609375,1.3427734375,-3.936767578125
1.5074999000000002,0.04489128291606903,0.019153613597154617,9.91977596282959,1.40380859375,-0.701904296875,3.72314453125
1.5124999000000001,0.2992752194404602,-0.15502455830574036,9.091980934143066,-2.105712890625,-0.1220703125,-4.2724609375
1.5174999000000002,0.10714052617549896,0.21667525172233582,9.975440979003906,2.62451171875,0.823974609375,3.631591796875
1.5224999000000001,0.40462008118629456,0.04489128291606903,9.174580574035645,-2.960205078125,-1.800537109375,-3.692626953125
1.5274999000000002,0.14903905987739563,0.35494041442871094,9.943717956542969,3.2958984375,2.471923828125,3.021240234375
1.5324999000000001,0.365115761756897,0.04189852997660637,9.428964614868164,-3.47900390625,-2.99072265625,-2.716064453125
1.5374999000000003,0.14185644686222076,0.20949265360832214,9.985017776489258,3.662109375,3.753662109375,1.8310546875
1.5424999000000001,0.27054479718208313,-0.16639702022075653,9.715071678161621,-3.47900390625,-3.875732421875,-1.556396484375
1.5474999,0.14844051003456116,-0.03770867735147476,9.944915771484375,3.35693359375,3.96728515625,0.18310546875
1.5524999000000002,0.24121582508087158,-0.20709845423698425,9.837176322937012,-2.8076171875,-4.058837890625,0.152587890625
1.5574999,0.22026655077934265,-0.09038111567497253,9.632472038269043,2.5634765625,3.997802734375,-1.190185546875
1.5624999000000002,0.2064998894929886,-0.0802057534456253,9.77013874053955,-1.861572265625,-3.47900390625,1.8310546875
1.5674999,0.2974795699119568,-0.07302315533161163,9.29189682006836,1.15966796875,3.326416015625,-2.716064453125
1.5724999000000002,0.1346738487482071,-0.047884032130241394,9.749189376831055,-0.54931640625,-2.62451171875,2.74658203125
1.5774999,0.3058592677116394,-0.17956513166427612,9.137471199035645,-0.274658203125,1.983642578125,-3.7841796875
1.5824999000000002,0.0694318488240242,-0.07003039866685867,9.900622367858887,0.79345703125,-1.068115234375,3.753662109375
1.5874999,0.2801215946674347,-0.243011474609375,9.099761962890625,-1.40380859375,0.335693359375,-4.33349609375
1.5924999000000002,0.07541735470294952,0.05686229094862938,9.975440979003906,2.166748046875,0.732421875,3.7841796875
1.5974999,0.07541735470294952,0.05686229094862938,9.975440979003906,2.166748046875,0.732421875,3.7841796875
1.6024999000000002,0.3477577865123749,-0.08918401598930359,9.122507095336914,-2.685546875,-1.28173828125,-4.08935546875
1.6074999,0.11971008777618408,0.24121582508087158,9.906009674072266,3.082275390625,1.983642578125,3.35693359375
1.6124999000000002,0.36750996112823486,0.016160860657691956,9.29309368133545,-3.326416015625,-2.716064453125,-3.265380859375
1.6174999,0.12270283699035645,0.19572599232196808,9.919178009033203,3.5400390625,3.143310546875,2.3193359375
1.6224999000000002,0.2555810213088989,-0.14484919607639313,9.567230224609375,-3.448486328125,-3.60107421875,-1.983642578125
1.6274999,0.08200141042470932,-0.038307227194309235,9.898228645324707,3.5400390625,3.96728515625,0.9765625
1.6324999000000002,0.1951274424791336,-0.25677812099456787,9.747393608093262,-2.99072265625,-4.180908203125,-0.42724609375
1.6374999000000001,0.12270283699035645,-0.14065934717655182,9.724050521850586,2.777099609375,4.08935546875,-0.762939453125
1.6424999000000002,0.17238251864910126,-0.13527239859104156,9.743204116821289,-2.0751953125,-3.90625,0.885009765625
1.6474999000000001,0.21607670187950134,-0.06823474913835526,9.4014310836792,1.77001953125,3.448486328125,-2.3193359375
1.6524999000000002,0.12030863761901855,-0.017956512048840523,9.692327499389648,-1.0986328125,-3.021240234375,2.288818359375
1.6574999000000001,0.25258827209472656,-0.09576806426048279,9.124302864074707,0.274658203125,2.685546875,-3.35693359375
1.6624999000000003,0.041299980133771896,-0.03172317147254944,9.787496566772461,0.335693359375,-1.800537109375,3.35693359375
1.6674999000000001,0.23044191300868988,-0.20949265360832214,9.07522201538086,-1.129150390625,1.251220703125,-4.058837890625
1.6724999,0.02454056777060032,0.02693476900458336,9.915586471557617,1.708984375,-0.152587890625,4.058837890625
1.6774999000000002,0.2861070930957794,-0.12270283699035645,9.079411506652832,-2.227783203125,-0.457763671875,-4.180908203125
1.6824999,0.09038111567497253,0.2364274114370346,9.922170639038086,2.655029296875,1.434326171875,3.5400390625
1.6874999000000002,0.3842693865299225,0.06344634294509888,9.181164741516113,-3.021240234375,-1.77001953125,-3.753662109375
1.6924999,0.11911153793334961,0.3357867896556854,9.903017044067383,3.387451171875,2.685546875,2.777099609375
1.6974999000000002,0.32202014327049255,0.0065840547904372215,9.45111083984375,-3.60107421875,-3.173828125,-2.5634765625
1.7024999,0.10953472554683685,0.1586158573627472,9.964069366455078,3.60107421875,3.72314453125,1.556396484375
1.7074999000000002,0.24660277366638184,-0.1867477297782898,9.737217903137207,-3.35693359375,-3.936767578125,-1.129150390625
1.7124999,0.1388636976480484,-0.06165069341659546,9.927556991577148,3.326416015625,3.96728515625,0.274658203125
1.7174999000000002,0.2298433631658554,-0.17058686912059784,9.857526779174805,-2.655029296875,-3.997802734375,0.518798828125
1.7224999,0.2214636504650116,-0.0694318488240242,9.621099472045898,2.197265625,4.0283203125,-1.556396484375
1.7274999000000002,0.19871874153614044,-0.02992752194404602,9.805453300476074,-1.64794921875,-3.662109375,1.77001953125
1.7324999,0.304063618183136,-0.0520738884806633,9.303269386291504,1.03759765625,3.2958984375,-3.021240234375
1.7374999000000002,0.14065934717655182,-0.011971008032560349,9.817423820495605,-0.30517578125,-2.532958984375,3.0517578125
1.7424999,0.3166331648826599,-0.1777694821357727,9.188347816467285,-0.244140625,1.739501953125,-3.7841796875
1.7474999000000002,0.08619125932455063,-0.031124621629714966,9.971251487731934,1.03759765625,-1.0986328125,3.692626953125
1.7524999,0.304063618183136,-0.22266076505184174,9.144054412841797,-1.64794921875,0.18310546875,-4.33349609375
1.7574999000000002,0.0975637212395668,0.10175357013940811,10.022727012634277,2.288818359375,0.48828125,3.7841796875
1.7624999000000001,0.38067805767059326,-0.060453593730926514,9.157821655273438,-2.716064453125,-1.190185546875,-3.90625
1.7674999000000002,0.13407529890537262,0.27234044671058655,9.935338973999023,3.082275390625,2.0751953125,3.143310546875
1.7724999000000001,0.3794809579849243,0.015562310814857483,9.336788177490234,-3.47900390625,-2.716064453125,-3.326416015625
1.7774999000000002,0.13527239859104156,0.20470423996448517,9.937732696533203,3.570556640625,3.173828125,2.13623046875
1.7824999000000001,0.26994624733924866,-0.15682020783424377,9.603142738342285,-3.509521484375,-3.5400390625,-1.983642578125
1.7874999000000003,0.10714052617549896,-0.03890577703714371,9.911396026611328,3.509521484375,3.997802734375,0.885009765625
1.7924999000000001,0.2232593148946762,-0.25917232036590576,9.75517463684082,-3.0517578125,-4.241943359375,-0.3662109375
1.7974999,0.15143325924873352,-0.14065934717655182,9.710283279418945,2.777099609375,4.08935546875,-0.732421875
1.8024999000000002,0.1867477297782898,-0.13946224749088287,9.713275909423828,-2.3193359375,-3.7841796875,1.0986328125
1.8074999,0.22685061395168304,-0.07781155407428741,9.361927032470703,1.708984375,3.570556640625,-2.288818359375
1.8124999000000002,0.11372458189725876,-0.030526071786880493,9.657012939453125,-1.03759765625,-3.143310546875,2.593994140625
1.8174999,0.243011474609375,-0.11611878126859665,9.090185165405273,0.274658203125,2.5634765625,-3.41796875
1.8224999000000002,0.02454056777060032,-0.053270988166332245,9.779715538024902,0.244140625,-1.861572265625,3.47900390625
1.8274999,0.21547815203666687,-0.23343466222286224,9.070432662963867,-1.129150390625,1.0986328125,-4.180908203125
1.8324999000000002,0.015562310814857483,0.011372458189725876,9.921571731567383,1.5869140625,-0.30517578125,3.72314453125
1.8374999,0.28131869435310364,-0.13706804811954498,9.0859956741333,-2.197265625,-0.335693359375,-4.058837890625
1.8424999000000002,0.09576806426048279,0.24241292476654053,9.91977596282959,2.685546875,1.251220703125,3.7841796875
1.8474999,0.3926490843296051,0.07062894850969315,9.172186851501465,-3.082275390625,-2.166748046875,-3.692626953125
1.8524999000000002,0.13946224749088287,0.345363587141037,9.898228645324707,3.5400390625,2.532958984375,2.777099609375
1.8574999,0.3381809890270233,0.019153613597154617,9.445724487304688,-3.509521484375,-3.11279296875,-2.50244140625
1.8624999000000002,0.12749123573303223,0.16519992053508759,9.959878921508789,3.570556640625,3.72314453125,1.678466796875
1.8674999,0.25917232036590576,-0.18136078119277954,9.740809440612793,-3.265380859375,-4.119873046875,-1.0986328125
1.8724999000000002,0.15023615956306458,-0.050876785069704056,9.93474006652832,3.2958984375,4.058837890625,0.06103515625
1.8774999,0.2406172752380371,-0.17477671802043915,9.849745750427246,-2.716064453125,-3.96728515625,0.48828125
1.8824999000000002,0.23582886159420013,-0.06763619929552078,9.61331844329834,2.25830078125,3.875732421875,-1.52587890625
1.8874999000000001,0.2124854028224945,-0.04249707981944084,9.77013874053955,-1.708984375,-3.692626953125,1.89208984375
1.8924999000000002,0.314238965511322,-0.058059390634298325,9.258976936340332,1.129150390625,3.173828125,-2.74658203125
1.8974999000000001,0.1412578970193863,-0.016759412363171577,9.756970405578613,-0.244140625,-2.410888671875,3.082275390625
1.9024999000000002,0.3148375153541565,-0.17836803197860718,9.134477615356445,-0.30517578125,1.922607421875,-3.96728515625
1.9074999000000001,0.0802057534456253,-0.030526071786880493,9.920374870300293,0.8544921875,-1.28173828125,3.692626953125
1.9124999000000003,0.2908954918384552,-0.22505496442317963,9.10993766784668,-1.708984375,0.274658203125,-4.180908203125
1.9174999000000001,0.09457096457481384,0.10055647045373917,9.998785018920898,2.227783203125,0.396728515625,3.875732421875
1.9224999,0.37169981002807617,-0.07122749835252762,9.133280754089355,-2.74658203125,-1.3427734375,-3.936767578125
1.9274999000000002,0.1364694982767105,0.26396074891090393,9.923966407775879,3.23486328125,1.89208984375,3.35693359375
1.9324999,0.38307225704193115,-0.002394201699644327,9.30386734008789,-3.173828125,-2.655029296875,-3.082275390625
1.9374999000000002,0.13527239859104156,0.18614917993545532,9.924564361572266,3.570556640625,3.2958984375,2.44140625
1.9424999,0.26815059781074524,-0.17836803197860718,9.573814392089844,-3.41796875,-3.7841796875,-1.89208984375
1.9474999000000002,0.0933738648891449,-0.04908113554120064,9.903017044067383,3.47900390625,3.96728515625,1.03759765625
1.9524999,0.20290859043598175,-0.2753331959247589,9.742605209350586,-3.23486328125,-3.90625,-0.335693359375
1.9574999000000002,0.20290859043598175,-0.2753331959247589,9.742605209350586,-3.23486328125,-3.90625,-0.335693359375
1.9624999,0.1256955862045288,-0.13407529890537262,9.728838920593262,2.86865234375,4.21142578125,-0.67138671875
1.9674999000000002,0.16519992053508759,-0.1388636976480484,9.715071678161621,-2.288818359375,-3.90625,1.068115234375
1.9724999,0.21368250250816345,-0.05925649031996727,9.384073257446289,1.800537109375,3.448486328125,-2.166748046875
1.9774999000000002,0.1215057373046875,-0.018555063754320145,9.649829864501953,-1.03759765625,-2.899169921875,2.50244140625
1.9824999,0.2651578485965729,-0.090979665517807,9.089587211608887,0.396728515625,2.532958984375,-3.326416015625
1.9874999000000002,0.05686229094862938,-0.038307227194309235,9.743204116821289,0.213623046875,-1.8310546875,3.448486328125
1.9924999,0.2472013235092163,-0.21847090125083923,9.050681114196777,-0.946044921875,0.91552734375,-3.96728515625
1.9974999000000002,0.03950432687997818,0.015562310814857483,9.900622367858887,1.495361328125,-0.091552734375,3.997802734375
2.0024999,0.2902969419956207,-0.1430535465478897,9.065046310424805,-2.25830078125,-0.3662109375,-4.119873046875
2.0074999,0.10175357013940811,0.2406172752380371,9.932345390319824,2.685546875,1.220703125,3.570556640625
2.0124999000000003,0.3968389332294464,0.06404489278793335,9.15961742401123,-2.9296875,-2.044677734375,-3.692626953125
2.0174999000000002,0.14065934717655182,0.36092591285705566,9.908403396606445,3.448486328125,2.655029296875,2.838134765625
2.0224999,0.3513490855693817,0.02992752194404602,9.427767753601074,-3.570556640625,-3.143310546875,-2.74658203125
2.0274999,0.1346738487482071,0.1867477297782898,9.97603988647461,3.570556640625,3.753662109375,1.678466796875
2.0324999000000004,0.2687491476535797,-0.17836803197860718,9.724648475646973,-3.326416015625,-3.997802734375,-1.251220703125
2.0374999000000003,0.15682020783424377,-0.04908113554120064,9.94970417022705,3.265380859375,4.0283203125,0.244140625
2.0424999,0.25318682193756104,-0.19572599232196808,9.843161582946777,-2.777099609375,-4.119873046875,0.213623046875
2.0474999,0.23822307586669922,-0.08499415963888168,9.634267807006836,2.5634765625,4.150390625,-1.220703125
2.0524999,0.21966800093650818,-0.06703764945268631,9.765948295593262,-1.89208984375,-3.448486328125,1.953125
2.0574999000000003,0.3082534670829773,-0.0694318488240242,9.287707328796387,1.220703125,3.265380859375,-2.5634765625
2.0624999,0.14484919607639313,-0.04010287672281265,9.742006301879883,-0.6103515625,-2.5634765625,2.8076171875
2.0674999,0.30526071786880493,-0.1933317929506302,9.132083892822266,-0.335693359375,1.983642578125,-3.84521484375
2.0724999,0.07003039866685867,-0.07661445438861847,9.890447616577148,0.762939453125,-1.129150390625,3.814697265625
2.0774999000000003,0.2735375463962555,-0.2819172441959381,9.081805229187012,-1.52587890625,0.335693359375,-3.997802734375
2.0824999,0.07122749835252762,0.033518824726343155,9.946112632751465,2.25830078125,0.244140625,3.875732421875
2.0874999,0.3411737382411957,-0.13048399984836578,9.074623107910156,-2.50244140625,-1.03759765625,-4.058837890625
2.0924999,0.12030863761901855,0.22685061395168304,9.862914085388184,2.99072265625,1.922607421875,3.2958984375
2.0974999000000003,0.37469255924224854,-0.002394201699644327,9.220070838928223,-3.326416015625,-2.593994140625,-3.448486328125
2.1024999,0.1256955862045288,0.2059013396501541,9.871891975402832,3.631591796875,2.960205078125,2.44140625
2.1074999,0.26994624733924866,-0.14484919607639313,9.507973670959473,-3.509521484375,-3.692626953125,-2.105712890625
2.1124999,0.0802057534456253,-0.002992752008140087,9.892841339111328,3.662109375,3.997802734375,1.007080078125
2.1174999000000003,0.2017114907503128,-0.2603694200515747,9.724648475646973,-3.204345703125,-3.997802734375,-0.67138671875
2.1224999,0.1149216815829277,-0.10115502029657364,9.777320861816406,3.0517578125,4.2724609375,-0.396728515625
2.1274999,0.17477671802043915,-0.1412578970193863,9.737217903137207,-2.288818359375,-4.08935546875,0.946044921875
2.1324999,0.21188685297966003,-0.041299980133771896,9.436745643615723,2.0751953125,3.753662109375,-2.0751953125
2.1374999000000003,0.13946224749088287,-0.019153613597154617,9.66419506072998,-1.40380859375,-3.173828125,2.3193359375
2.1424999000000002,0.26994624733924866,-0.07242459803819656,9.121310234069824,0.67138671875,2.8076171875,-3.204345703125
2.1474999,0.07721300423145294,-0.0347159244120121,9.734225273132324,0.06103515625,-2.227783203125,3.23486328125
2.1524999,0.27054479718208313,-0.20470423996448517,9.077016830444336,-0.79345703125,1.251220703125,-3.96728515625
2.1574999000000004,0.06404489278793335,0.012569558806717396,9.915586471557617,1.28173828125,-0.8544921875,3.753662109375
2.1624999000000003,0.31603461503982544,-0.15442600846290588,9.095572471618652,-2.0751953125,0.06103515625,-4.241943359375
2.1674999,0.13108254969120026,0.22445641458034515,9.982624053955078,2.62451171875,1.03759765625,3.814697265625
2.1724999,0.42856210470199585,0.04489128291606903,9.172784805297852,-2.9296875,-1.77001953125,-3.84521484375
2.1774999000000004,0.16998831927776337,0.36810851097106934,9.944316864013672,3.448486328125,2.288818359375,3.143310546875
2.1824999000000003,0.3908534348011017,0.03651157766580582,9.41100788116455,-3.41796875,-2.99072265625,-2.716064453125
2.1874999,0.15741875767707825,0.2190694510936737,9.980229377746582,3.72314453125,3.41796875,1.983642578125
2.1924999,0.2819172441959381,-0.1867477297782898,9.689932823181152,-3.47900390625,-3.72314453125,-1.556396484375
2.1974999,0.14664486050605774,-0.05147533491253853,9.93354320526123,3.41796875,4.241943359375,0.30517578125
2.2024999000000003,0.24480712413787842,-0.2519897222518921,9.807249069213867,-2.9296875,-4.08935546875,-0.030517578125
2.2074999,0.20470423996448517,-0.1173158809542656,9.64683723449707,2.716064453125,4.08935546875,-1.129150390625
2.2124999,0.2041056901216507,-0.12030863761901855,9.733028411865234,-2.0751953125,-3.84521484375,1.46484375
2.2174999,0.27234044671058655,-0.07122749835252762,9.304466247558594,1.28173828125,3.509521484375,-2.532958984375
2.2224999000000003,0.12330138683319092,-0.05626374110579491,9.68274974822998,-0.823974609375,-2.838134765625,2.74658203125
2.2274999,0.26815059781074524,-0.166995570063591,9.09497356414795,0.030517578125,2.38037109375,-3.72314453125
2.2324999,0.03531447425484657,-0.08798690885305405,9.800065994262695,0.48828125,-1.617431640625,3.47900390625
2.2374999,0.23163901269435883,-0.2783259451389313,9.039907455444336,-1.220703125,1.007080078125,-4.2724609375
2.2424999000000003,0.03172317147254944,0.0017956512747332454,9.881468772888184,1.861572265625,-0.091552734375,4.0283203125
2.2474999,0.2950853705406189,-0.152031809091568,9.026739120483398,-2.410888671875,-0.79345703125,-4.0283203125
2.2524999,0.09157821536064148,0.22505496442317963,9.845556259155273,2.86865234375,1.617431640625,3.570556640625
2.2574999,0.3663128614425659,0.02513911761343479,9.154230117797852,-3.173828125,-2.3193359375,-3.5400390625
2.2624999000000003,0.11133038252592087,0.29149407148361206,9.871891975402832,3.570556640625,2.655029296875,2.62451171875
2.2674999000000002,0.28371289372444153,-0.060453593730926514,9.44991397857666,-3.570556640625,-3.509521484375,-2.349853515625
2.2724999,0.08738835901021957,0.12210428714752197,9.932944297790527,3.72314453125,3.72314453125,1.556396484375
2.2774999,0.2214636504650116,-0.2172738015651703,9.70310115814209,-3.448486328125,-4.0283203125,-0.8544921875
2.2824999000000004,0.13946224749088287,-0.03172317147254944,9.858125686645508,3.23486328125,4.119873046875,-0.06103515625
2.2874999000000003,0.22026655077934265,-0.16160862147808075,9.768941879272461,-2.777099609375,-4.119873046875,0.701904296875
2.2924999,0.24600422382354736,-0.010773907415568829,9.524134635925293,2.5634765625,3.84521484375,-1.800537109375
2.2974999,0.1933317929506302,-0.03411737456917763,9.700706481933594,-1.708984375,-3.692626953125,1.8310546875
2.3024999000000004,0.30945056676864624,-0.02214636653661728,9.202713012695312,1.190185546875,2.9296875,-2.99072265625
2.3074999000000003,0.12270283699035645,-0.03651157766580582,9.734225273132324,-0.396728515625,-2.105712890625,3.23486328125
2.3124999,0.3058592677116394,-0.1586158573627472,9.123703956604004,-0.457763671875,1.8310546875,-4.08935546875
2.3174999,0.07661445438861847,-0.03890577703714371,9.916783332824707,0.9765625,-0.9765625,3.631591796875
2.3224999,0.07661445438861847,-0.03890577703714371,9.916783332824707,0.9765625,-0.9765625,3.631591796875
2.3274999000000003,0.3082534670829773,-0.181959331035614,9.103952407836914,-1.678466796875,0.030517578125,-4.180908203125
2.3324999,0.11851298063993454,0.11671733111143112,9.985017776489258,2.288818359375,0.732421875,3.84521484375
2.3374999,0.40043023228645325,-0.01735796220600605,9.12968921661377,-2.685546875,-1.434326171875,-3.875732421875
2.3424999,0.16220717132091522,0.27413609623908997,9.909601211547852,2.99072265625,2.349853515625,3.143310546875
2.3474999000000003,0.39145198464393616,0.02992752194404602,9.329007148742676,-3.2958984375,-2.86865234375,-3.204345703125
2.3524999,0.14484919607639313,0.17956513166427612,9.934141159057617,3.509521484375,3.41796875,2.25830078125
2.3574999,0.2687491476535797,-0.16579847037792206,9.623494148254395,-3.47900390625,-3.84521484375,-1.983642578125
2.3624999,0.10594342648983002,-0.06524199992418289,9.925761222839355,3.204345703125,3.936767578125,0.946044921875
2.3674999000000003,0.21308395266532898,-0.2645592987537384,9.794678688049316,-3.0517578125,-3.936767578125,-0.274658203125
2.3724999,0.14844051003456116,-0.15143325924873352,9.721057891845703,2.593994140625,4.150390625,-0.732421875
2.3774999,0.17657238245010376,-0.14065934717655182,9.75637149810791,-2.25830078125,-3.7841796875,1.129150390625
2.3824999,0.22445641458034515,-0.08499415963888168,9.379883766174316,1.52587890625,3.326416015625,-2.38037109375
2.3874999000000003,0.11133038252592087,-0.03411737456917763,9.70310115814209,-0.8544921875,-3.021240234375,2.532958984375
2.3924999000000002,0.24660277366638184,-0.11252748221158981,9.12729549407959,0.152587890625,2.349853515625,-3.47900390625
2.3974999,0.033518824726343155,-0.04010287672281265,9.822212219238281,0.3662109375,-1.434326171875,3.326416015625
2.4024999,0.22685061395168304,-0.21428105235099792,9.097368240356445,-1.251220703125,1.007080078125,-4.150390625
2.4074999000000004,0.0293289702385664,0.033518824726343155,9.947309494018555,1.708984375,-0.18310546875,3.814697265625
2.4124999000000003,0.2950853705406189,-0.12449848651885986,9.097368240356445,-2.3193359375,-0.732421875,-4.08935546875
2.4174999,0.1041477769613266,0.2495955228805542,9.931148529052734,2.777099609375,1.312255859375,3.662109375
2.4224999,0.406415730714798,0.06464344263076782,9.181164741516113,-3.11279296875,-1.983642578125,-3.5400390625
2.4274999000000004,0.1430535465478897,0.35075053572654724,9.900622367858887,3.41796875,2.960205078125,2.960205078125
2.4324999000000003,0.3477577865123749,0.010175357572734356,9.442731857299805,-3.570556640625,-3.204345703125,-2.50244140625
2.4374999,0.12868833541870117,0.17058686912059784,9.96945571899414,3.60107421875,3.509521484375,1.8310546875
2.4424999,0.25977087020874023,-0.18794482946395874,9.73661994934082,-3.47900390625,-4.058837890625,-1.312255859375
2.4474999,0.14484919607639313,-0.053270988166332245,9.949105262756348,3.2958984375,3.90625,0.213623046875
2.4524999000000003,0.24001872539520264,-0.1867477297782898,9.858723640441895,-2.777099609375,-3.96728515625,0.274658203125
2.4574999,0.22505496442317963,-0.07481880486011505,9.637260437011719,2.593994140625,3.997802734375,-1.312255859375
2.4624999,0.21188685297966003,-0.05147533491253853,9.783307075500488,-1.861572265625,-3.662109375,1.678466796875
2.4674999,0.30466216802597046,-0.05925649031996727,9.294889450073242,0.946044921875,3.0517578125,-2.86865234375
2.4724999000000003,0.14484919607639313,-0.0293289702385664,9.750985145568848,-0.640869140625,-2.685546875,2.99072265625
2.4774999,0.3058592677116394,-0.1825578808784485,9.144054412841797,-0.1220703125,2.166748046875,-3.662109375
2.4824999,0.06823474913835526,-0.0628477931022644,9.886856079101562,0.762939453125,-1.129150390625,3.692626953125
2.4874999,0.27054479718208313,-0.25977087020874023,9.088988304138184,-1.46484375,0.42724609375,-4.08935546875
2.4924999000000003,0.0694318488240242,0.05027823522686958,9.949105262756348,2.044677734375,0.152587890625,3.84521484375
2.4974999,0.3405751883983612,-0.11372458189725876,9.079411506652832,-2.593994140625,-1.03759765625,-4.119873046875
2.5024999,0.12090718746185303,0.23523031175136566,9.880870819091797,3.021240234375,1.8310546875,3.509521484375
2.5074999,0.375291109085083,0.005386953707784414,9.229647636413574,-3.326416015625,-2.532958984375,-3.326416015625
2.5124999000000003,0.12330138683319092,0.21667525172233582,9.888651847839355,3.570556640625,2.9296875,2.532958984375
2.5174999000000002,0.2645592987537384,-0.13287819921970367,9.511565208435059,-3.47900390625,-3.72314453125,-2.197265625
2.5224999,0.07541735470294952,0.010773907415568829,9.901819229125977,3.570556640625,3.936767578125,1.0986328125
2.5274999,0.19931729137897491,-0.2579752206802368,9.721057891845703,-3.326416015625,-4.0283203125,-0.6103515625
2.5324999000000004,0.1173158809542656,-0.09277531504631042,9.781511306762695,3.11279296875,4.2724609375,-0.42724609375
2.5374999000000003,0.1801636815071106,-0.14664486050605774,9.736021041870117,-2.44140625,-4.0283203125,0.701904296875
2.5424999,0.2214636504650116,-0.023343466222286224,9.443329811096191,1.953125,3.814697265625,-2.105712890625
2.5474999,0.14664486050605774,-0.01975216343998909,9.673172950744629,-1.312255859375,-3.387451171875,2.13623046875
2.5524999000000004,0.2777273952960968,-0.04369417950510979,9.14225959777832,0.67138671875,2.74658203125,-3.173828125
2.5574999000000003,0.08319851011037827,-0.030526071786880493,9.753378868103027,0.030517578125,-2.13623046875,3.387451171875
2.5624999,0.272938996553421,-0.1693897694349289,9.1045503616333,-0.79345703125,1.556396484375,-3.96728515625
2.5674999,0.060453593730926514,0.012569558806717396,9.937732696533203,1.28173828125,-0.701904296875,3.662109375
2.5724999,0.3124433159828186,-0.1322796493768692,9.114726066589355,-2.105712890625,0.06103515625,-4.241943359375
2.5774999000000003,0.12270283699035645,0.20769700407981873,9.99459457397461,2.5634765625,0.91552734375,3.7841796875
2.5824999,0.42377370595932007,0.04429273307323456,9.175179481506348,-2.960205078125,-1.64794921875,-3.7841796875
2.5874999,0.17238251864910126,0.3387795388698578,9.93593692779541,3.2958984375,2.288818359375,3.143310546875
2.5924999,0.39624038338661194,0.031124621629714966,9.396044731140137,-3.326416015625,-3.082275390625,-2.8076171875
2.5974999000000003,0.16639702022075653,0.19213469326496124,9.966463088989258,3.753662109375,3.5400390625,1.861572265625
2.6024999,0.2908954918384552,-0.18495208024978638,9.679159164428711,-3.47900390625,-3.7841796875,-1.5869140625
2.6074999,0.15322890877723694,-0.058059390634298325,9.935338973999023,3.387451171875,4.21142578125,0.335693359375
2.6124999,0.24779987335205078,-0.24420857429504395,9.823410034179688,-2.960205078125,-4.180908203125,-0.030517578125
2.6174999000000003,0.21009120345115662,-0.11372458189725876,9.66419506072998,2.62451171875,3.936767578125,-1.220703125
2.6224999,0.2064998894929886,-0.11372458189725876,9.7605619430542,-1.89208984375,-3.692626953125,1.495361328125
2.6274999,0.28072014451026917,-0.061052143573760986,9.321226119995117,1.373291015625,3.448486328125,-2.5634765625
2.6324999,0.12988543510437012,-0.05267243832349777,9.706093788146973,-0.8544921875,-2.960205078125,2.8076171875
2.6374999000000003,0.28131869435310364,-0.14604631066322327,9.103952407836914,0.030517578125,2.166748046875,-3.662109375
2.6424999000000002,0.0454898327589035,-0.08978256583213806,9.821614265441895,0.457763671875,-1.190185546875,3.509521484375
2.6474999,0.24420857429504395,-0.24779987335205078,9.041104316711426,-1.434326171875,0.79345703125,-4.058837890625
2.6524999,0.04010287672281265,-0.002992752008140087,9.892242431640625,1.89208984375,0.1220703125,3.875732421875
2.6574999000000004,0.30705636739730835,-0.1149216815829277,9.038111686706543,-2.349853515625,-0.8544921875,-4.302978515625
2.6624999000000003,0.09397241473197937,0.20709845423698425,9.843161582946777,2.960205078125,1.708984375,3.631591796875
2.6674999,0.36092591285705566,0.04369417950510979,9.182361602783203,-3.082275390625,-2.410888671875,-3.41796875
2.6724999,0.10833762586116791,0.2406172752380371,9.862914085388184,3.570556640625,3.021240234375,2.50244140625
2.6774999000000004,0.2735375463962555,-0.06584054976701736,9.490615844726562,-3.47900390625,-3.41796875,-2.288818359375
2.6824999000000003,0.08200141042470932,0.05147533491253853,9.910199165344238,3.570556640625,3.936767578125,1.312255859375
2.6874999,0.08200141042470932,0.05147533491253853,9.910199165344238,3.570556640625,3.936767578125,1.312255859375
2.6924999,0.2172738015651703,-0.20530278980731964,9.739013671875,-3.143310546875,-4.302978515625,-0.732421875
2.6974999,0.1322796493768692,-0.07781155407428741,9.824606895446777,3.143310546875,4.180908203125,-0.1220703125
2.7024999000000003,0.2017114907503128,-0.11791443079710007,9.783905029296875,-2.38037109375,-3.96728515625,1.068115234375
2.7074999,0.23104046285152435,-0.03770867735147476,9.48762321472168,1.922607421875,3.875732421875,-1.739501953125
2.7124999,0.16400282084941864,-0.002992752008140087,9.718064308166504,-1.312255859375,-3.47900390625,2.25830078125
2.7174999,0.284311443567276,-0.06165069341659546,9.173383712768555,0.67138671875,2.777099609375,-3.11279296875
2.7224999000000003,0.09217676520347595,-0.02753331884741783,9.788095474243164,0.152587890625,-2.0751953125,3.173828125
2.7274999,0.28131869435310364,-0.19692309200763702,9.133280754089355,-0.79345703125,1.52587890625,-3.96728515625
2.7324999,0.0628477931022644,0.0005985504249110818,9.977835655212402,1.3427734375,-0.701904296875,3.72314453125
2.7374999,0.31543606519699097,-0.15981295704841614,9.160215377807617,-2.0751953125,-0.18310546875,-4.150390625
2.7424999000000003,0.11791443079710007,0.20530278980731964,10.056844711303711,2.62451171875,1.03759765625,3.814697265625
2.7474999,0.4189853072166443,0.048482585698366165,9.254188537597656,-2.960205078125,-1.922607421875,-3.84521484375
2.7524999,0.15921440720558167,0.3561375141143799,10.017339706420898,3.35693359375,2.349853515625,2.960205078125
2.7574999,0.3878606855869293,0.05027823522686958,9.485827445983887,-3.5400390625,-2.960205078125,-2.838134765625
2.7624999000000003,0.1562216579914093,0.20111294090747833,10.031704902648926,3.5400390625,3.509521484375,2.0751953125
2.7674999000000002,0.28550854325294495,-0.1777694821357727,9.734824180603027,-3.35693359375,-3.96728515625,-1.46484375
2.7724999,0.1472434103488922,-0.08200141042470932,9.963470458984375,3.35693359375,4.0283203125,0.42724609375
2.7774999,0.2454056739807129,-0.2454056739807129,9.835979461669922,-2.86865234375,-4.08935546875,0.030517578125
2.7824999000000004,0.19812019169330597,-0.15023615956306458,9.676166534423828,2.655029296875,4.058837890625,-1.068115234375
2.7874999000000003,0.20231004059314728,-0.10773907601833344,9.765350341796875,-1.983642578125,-3.875732421875,1.52587890625
2.7924999,0.2735375463962555,-0.09217676520347595,9.334393501281738,1.40380859375,3.35693359375,-2.74658203125
2.7974999,0.12868833541870117,-0.03711012750864029,9.72165584564209,-0.79345703125,-3.021240234375,2.5634765625
2.8024999000000004,0.284311443567276,-0.17058686912059784,9.118915557861328,-0.091552734375,2.227783203125,-3.5400390625
2.8074999000000003,0.04967968538403511,-0.0736217051744461,9.84615421295166,0.67138671875,-1.52587890625,3.753662109375
2.8124999,0.24420857429504395,-0.27712884545326233,9.071630477905273,-1.373291015625,0.91552734375,-4.150390625
2.8174999,0.04010287672281265,0.008379706181585789,9.931747436523438,1.89208984375,0.030517578125,3.96728515625
2.8224999,0.2992752194404602,-0.14784196019172668,9.07103157043457,-2.532958984375,-0.8544921875,-3.936767578125
2.8274999000000003,0.090979665517807,0.22685061395168304,9.877279281616211,2.9296875,1.46484375,3.47900390625
2.8324999,0.3579331636428833,0.023942016065120697,9.196727752685547,-3.265380859375,-2.105712890625,-3.5400390625
2.8374999,0.10893617570400238,0.2717418968677521,9.883264541625977,3.509521484375,2.86865234375,2.471923828125
2.8424999,0.27413609623908997,-0.0736217051744461,9.485228538513184,-3.570556640625,-3.60107421875,-2.197265625
2.8474999000000003,0.07960720360279083,0.08200141042470932,9.920374870300293,3.570556640625,3.96728515625,1.312255859375
2.8524999,0.21009120345115662,-0.21308395266532898,9.72165584564209,-3.2958984375,-4.0283203125,-0.823974609375
2.8574999,0.12270283699035645,-0.05985504388809204,9.830592155456543,3.173828125,4.0283203125,-0.213623046875
2.8624999,0.19692309200763702,-0.13287819921970367,9.75936508178711,-2.44140625,-4.119873046875,0.823974609375
2.8674999000000003,0.22924481332302094,-0.033518824726343155,9.49001693725586,2.105712890625,3.90625,-1.861572265625
2.8724999,0.1735796183347702,-0.013168109580874443,9.690531730651855,-1.434326171875,-3.448486328125,2.349853515625
2.8774999,0.29807811975479126,-0.050876785069704056,9.167996406555176,0.885009765625,3.021240234375,-2.899169921875
2.8824999,0.10953472554683685,-0.01735796220600605,9.755773544311523,-0.152587890625,-2.044677734375,3.326416015625
2.8874999000000003,0.2932897210121155,-0.18315643072128296,9.122507095336914,-0.79345703125,1.678466796875,-3.814697265625
2.8924999000000002,0.07422025501728058,0.017956512048840523,9.951498985290527,1.251220703125,-0.823974609375,3.84521484375
2.8974999,0.314238965511322,-0.1604115068912506,9.136273384094238,-1.861572265625,-0.06103515625,-4.2724609375
2.9024999,0.12210428714752197,0.20769700407981873,10.029311180114746,2.227783203125,0.946044921875,3.72314453125
2.9074999000000004,0.41539400815963745,0.026336219161748886,9.2033109664917,-2.9296875,-1.617431640625,-3.814697265625
2.9124999000000003,0.16340427100658417,0.3489548861980438,9.975440979003906,3.41796875,2.227783203125,3.143310546875
2.9174999,0.3908534348011017,0.028131870552897453,9.423578262329102,-3.448486328125,-2.838134765625,-2.8076171875
2.9224999,0.16400282084941864,0.2124854028224945,9.990405082702637,3.60107421875,3.570556640625,1.983642578125
2.9274999000000004,0.29209262132644653,-0.18555063009262085,9.691129684448242,-3.326416015625,-3.936767578125,-1.678466796875
2.9324999000000003,0.15502455830574036,-0.05386953800916672,9.943120002746582,3.60107421875,4.0283203125,0.3662109375
2.9374999,0.25318682193756104,-0.2561795711517334,9.816825866699219,-2.99072265625,-3.96728515625,0.1220703125
2.9424999,0.19871874153614044,-0.12509703636169434,9.674370765686035,2.655029296875,4.150390625,-1.007080078125
2.9474999,0.19931729137897491,-0.11851298063993454,9.755773544311523,-1.953125,-3.84521484375,1.617431640625
2.9524999000000003,0.26156654953956604,-0.07900865375995636,9.337387084960938,1.46484375,3.509521484375,-2.38037109375
2.9574999,0.11851298063993454,-0.04668693244457245,9.716269493103027,-0.8544921875,-2.777099609375,3.021240234375
2.9624999,0.27473464608192444,-0.1711854189634323,9.125499725341797,0.091552734375,2.288818359375,-3.662109375
2.9674999,0.04908113554120064,-0.08379705995321274,9.838373184204102,0.54931640625,-1.64794921875,3.60107421875
2.9724999000000003,0.24839842319488525,-0.2819172441959381,9.06863784790039,-1.28173828125,0.8544921875,-4.150390625
2.9774999,0.047884032130241394,0.008379706181585789,9.914389610290527,1.739501953125,0.213623046875,3.692626953125
2.9824999,0.3058592677116394,-0.14664486050605774,9.056666374206543,-2.410888671875,-0.762939453125,-4.180908203125
2.9874999,0.09277531504631042,0.23582886159420013,9.858723640441895,3.021240234375,1.373291015625,3.5400390625
2.9924999000000003,0.3579331636428833,0.03531447425484657,9.171587944030762,-3.143310546875,-2.166748046875,-3.41796875
2.9974999,0.10953472554683685,0.29149407148361206,9.8599214553833,3.47900390625,2.99072265625,2.655029296875
3.0024999,0.2783259451389313,-0.06224924325942993,9.455301284790039,-3.60107421875,-3.5400390625,-2.227783203125
3.0074999,0.09277531504631042,0.09696517139673233,9.903017044067383,3.753662109375,3.60107421875,1.3427734375
3.0124999000000003,0.2256535142660141,-0.21966800093650818,9.710882186889648,-3.173828125,-3.997802734375,-0.762939453125
3.0174999000000002,0.13527239859104156,-0.060453593730926514,9.833584785461426,3.0517578125,4.21142578125,-0.30517578125
3.0224999,0.2064998894929886,-0.14664486050605774,9.771934509277344,-2.685546875,-4.150390625,0.91552734375
3.0274999,0.22625206410884857,-0.03292027488350868,9.509769439697266,2.227783203125,3.753662109375,-1.77001953125
3.0324999000000004,0.1711854189634323,-0.020949264988303185,9.716269493103027,-1.495361328125,-3.509521484375,2.410888671875
3.0374999000000003,0.29209262132644653,-0.04967968538403511,9.198522567749023,0.762939453125,3.0517578125,-3.173828125
3.0424999,0.11192893236875534,-0.023942016065120697,9.765350341796875,-0.274658203125,-2.288818359375,3.11279296875
3.0474999,0.29867666959762573,-0.18076223134994507,9.12849235534668,-0.48828125,1.77001953125,-3.90625
3.0524999000000004,0.29867666959762573,-0.18076223134994507,9.12849235534668,-0.48828125,1.77001953125,-3.90625
3.0574999000000003,0.08259996026754379,0.004788403399288654,9.9371337890625,1.312255859375,-0.885009765625,3.753662109375
3.0624999,0.31543606519699097,-0.17477671802043915,9.109338760375977,-1.89208984375,0.1220703125,-4.33349609375
3.0674999,0.12629413604736328,0.18974047899246216,10.012551307678223,2.3193359375,0.91552734375,3.814697265625
3.0724999000000004,0.4129997789859772,0.002992752008140087,9.167996406555176,-2.74658203125,-1.495361328125,-3.90625
3.0774999000000003,0.166995570063591,0.3345896899700165,9.964667320251465,3.2958984375,2.044677734375,3.021240234375
3.0824999,0.3968389332294464,0.019153613597154617,9.398438453674316,-3.448486328125,-2.716064453125,-3.11279296875
3.0874999,0.16160862147808075,0.21009120345115662,9.99100399017334,3.570556640625,3.509521484375,1.983642578125
3.0924999,0.2849099934101105,-0.18974047899246216,9.678560256958008,-3.448486328125,-3.936767578125,-1.5869140625
3.0974999000000003,0.13527239859104156,-0.053270988166332245,9.952696800231934,3.41796875,3.84521484375,0.640869140625
3.1024999,0.23403321206569672,-0.2711433470249176,9.806051254272461,-3.143310546875,-4.058837890625,-0.1220703125
3.1074999,0.17477671802043915,-0.1388636976480484,9.692925453186035,2.8076171875,4.150390625,-0.9765625
3.1124999,0.18794482946395874,-0.14365209639072418,9.726444244384766,-2.197265625,-4.0283203125,1.46484375
3.1174999000000003,0.24361002445220947,-0.08858546614646912,9.329007148742676,1.64794921875,3.570556640625,-2.44140625
3.1224999,0.11671733111143112,-0.05925649031996727,9.658209800720215,-0.946044921875,-3.11279296875,2.685546875
3.1274999,0.26096799969673157,-0.1586158573627472,9.0859956741333,0.18310546875,2.410888671875,-3.662109375
3.1324999,0.03890577703714371,-0.08499415963888168,9.790489196777344,0.42724609375,-1.52587890625,3.387451171875
3.1374999000000003,0.2298433631658554,-0.26575639843940735,9.062651634216309,-1.129150390625,0.946044921875,-4.180908203125
3.1424999000000002,0.03232172131538391,0.009576806798577309,9.926360130310059,1.678466796875,-0.3662109375,3.84521484375
3.1474999,0.28730419278144836,-0.13527239859104156,9.088988304138184,-2.288818359375,-0.54931640625,-4.150390625
3.1524999,0.09217676520347595,0.25318682193756104,9.917980194091797,2.86865234375,1.40380859375,3.5400390625
3.1574999000000004,0.3758896589279175,0.058059390634298325,9.192537307739258,-3.265380859375,-1.983642578125,-3.509521484375
3.1624999000000003,0.12330138683319092,0.3357867896556854,9.9000244140625,3.387451171875,2.86865234375,2.716064453125
3.1674999,0.3106476664543152,-0.02214636653661728,9.445125579833984,-3.387451171875,-3.265380859375,-2.532958984375
3.1724999,0.1107318252325058,0.14604631066322327,9.93474006652832,3.7841796875,3.570556640625,1.556396484375
3.1774999000000004,0.24181437492370605,-0.19812019169330597,9.70549488067627,-3.47900390625,-3.96728515625,-0.946044921875
3.1824999000000003,0.1412578970193863,-0.03711012750864029,9.88625717163086,3.265380859375,4.241943359375,-0.1220703125
3.1874999,0.228047713637352,-0.1586158573627472,9.81024169921875,-2.777099609375,-4.180908203125,0.579833984375
3.1924999,0.23283611238002777,-0.028131870552897453,9.587580680847168,2.13623046875,3.90625,-1.5869140625
3.1974999000000004,0.20290859043598175,-0.020350715145468712,9.768342971801758,-1.708984375,-3.60107421875,2.105712890625
3.2024999000000003,0.3100491166114807,-0.033518824726343155,9.280524253845215,1.15966796875,3.0517578125,-2.74658203125
3.2074999,0.1388636976480484,-0.014365210197865963,9.78989028930664,-0.518798828125,-2.471923828125,3.173828125
3.2124999,0.314238965511322,-0.17657238245010376,9.174580574035645,-0.335693359375,1.861572265625,-3.7841796875
3.2174999,0.08200141042470932,-0.0347159244120121,9.949105262756348,0.91552734375,-1.0986328125,3.997802734375
3.2224999000000003,0.29568392038345337,-0.22864626348018646,9.12849235534668,-1.708984375,0.30517578125,-4.119873046875
3.2274999,0.10115502029657364,0.10295066982507706,10.000580787658691,2.288818359375,0.335693359375,3.72314453125
3.2324999,0.37409400939941406,-0.08080431073904037,9.126696586608887,-2.532958984375,-1.220703125,-4.180908203125
3.2374999,0.14425064623355865,0.262763649225235,9.909002304077148,3.11279296875,2.044677734375,3.326416015625
3.2424999000000003,0.38486793637275696,-0.014365210197865963,9.292495727539062,-3.387451171875,-2.5634765625,-3.173828125
3.2474999,0.14365209639072418,0.1951274424791336,9.914987564086914,3.570556640625,3.35693359375,2.288818359375
3.2524999,0.26994624733924866,-0.1777694821357727,9.567828178405762,-3.387451171875,-3.631591796875,-1.953125
3.2574999,0.09876082092523575,-0.025737667456269264,9.9000244140625,3.570556640625,3.814697265625,0.701904296875
3.2624999000000003,0.2064998894929886,-0.2735375463962555,9.732429504394531,-3.11279296875,-4.119873046875,-0.42724609375
3.2674999000000002,0.13108254969120026,-0.11432313174009323,9.727043151855469,2.86865234375,4.180908203125,-0.579833984375
3.2724999,0.1693897694349289,-0.14664486050605774,9.710882186889648,-2.410888671875,-3.936767578125,1.0986328125
3.2774999,0.2124854028224945,-0.046088382601737976,9.395445823669434,1.861572265625,3.753662109375,-2.0751953125
3.2824999000000004,0.12090718746185303,-0.02992752194404602,9.655217170715332,-1.28173828125,-3.204345703125,2.593994140625
3.2874999000000003,0.2513911724090576,-0.08499415963888168,9.109338760375977,0.48828125,2.655029296875,-3.204345703125
3.2924999,0.04967968538403511,-0.04489128291606903,9.742006301879883,0.091552734375,-2.166748046875,3.631591796875
3.2974999,0.2364274114370346,-0.21308395266532898,9.058462142944336,-0.8544921875,1.312255859375,-4.180908203125
3.3024999000000004,0.03292027488350868,0.020949264988303185,9.886856079101562,1.3427734375,-0.457763671875,3.814697265625
3.3074999000000003,0.2885012924671173,-0.14065934717655182,9.063250541687012,-2.13623046875,-0.152587890625,-4.150390625
3.3124999,0.11192893236875534,0.24779987335205078,9.934141159057617,2.62451171875,1.007080078125,3.72314453125
3.3174999,0.41120412945747375,0.06344634294509888,9.158419609069824,-3.021240234375,-1.861572265625,-4.0283203125
3.3224999000000004,0.16519992053508759,0.375291109085083,9.931148529052734,3.35693359375,2.38037109375,2.655029296875
3.3274999000000003,0.3794809579849243,0.0347159244120121,9.430161476135254,-3.41796875,-3.021240234375,-2.777099609375
3.3324999,0.15502455830574036,0.21368250250816345,9.992799758911133,3.692626953125,3.7841796875,1.8310546875
3.3374999,0.2795230448246002,-0.1867477297782898,9.713275909423828,-3.662109375,-3.84521484375,-1.434326171875
3.3424999,0.15263035893440247,-0.03411737456917763,9.949105262756348,3.5400390625,4.364013671875,0.274658203125
3.3474999000000003,0.24241292476654053,-0.22864626348018646,9.825803756713867,-2.86865234375,-4.180908203125,0.091552734375
3.3524999,0.20949265360832214,-0.0933738648891449,9.64803409576416,2.5634765625,4.058837890625,-1.3427734375
3.3574999,0.20350714027881622,-0.10474632680416107,9.75278091430664,-2.01416015625,-3.7841796875,1.739501953125
3.3624999,0.2783259451389313,-0.07242459803819656,9.306262016296387,1.312255859375,3.47900390625,-2.50244140625
3.3674999000000003,0.13168109953403473,-0.06584054976701736,9.709685325622559,-0.79345703125,-2.716064453125,2.9296875
3.3724999,0.2861070930957794,-0.181959331035614,9.11233139038086,0.06103515625,2.349853515625,-3.7841796875
3.3774999,0.05446808785200119,-0.10654197633266449,9.831191062927246,0.48828125,-1.495361328125,3.570556640625
3.3824999,0.25258827209472656,-0.284311443567276,9.05487060546875,-1.312255859375,0.8544921875,-4.21142578125
3.3874999000000003,0.047884032130241394,-0.0065840547904372215,9.904812812805176,1.983642578125,-0.1220703125,3.936767578125
3.3924999000000002,0.3082534670829773,-0.14006079733371735,9.041702270507812,-2.593994140625,-0.732421875,-4.150390625
3.3974999,0.09636662155389786,0.21787235140800476,9.852140426635742,2.86865234375,1.40380859375,3.47900390625
3.4024999,0.365115761756897,0.02992752194404602,9.171587944030762,-3.23486328125,-2.288818359375,-3.509521484375
3.4074999000000004,0.1149216815829277,0.262763649225235,9.867103576660156,3.41796875,3.11279296875,2.62451171875
3.4124999000000003,0.1149216815829277,0.262763649225235,9.867103576660156,3.41796875,3.11279296875,2.62451171875
3.4174999,0.28550854325294495,-0.07841010391712189,9.470264434814453,-3.47900390625,-3.448486328125,-2.471923828125
3.4224999,0.090979665517807,0.07781155407428741,9.916783332824707,3.692626953125,3.5400390625,1.03759765625
3.4274999000000004,0.22385786473751068,-0.22505496442317963,9.718663215637207,-3.265380859375,-4.150390625,-1.0986328125
3.4324999000000003,0.13048399984836578,-0.05147533491253853,9.839570045471191,3.23486328125,4.150390625,-0.42724609375
3.4374999,0.2064998894929886,-0.1430535465478897,9.773131370544434,-2.716064453125,-4.180908203125,0.67138671875
3.4424999,0.22744916379451752,-0.011372458189725876,9.513360023498535,2.044677734375,3.90625,-1.678466796875
3.4474999000000004,0.1759738177061081,-0.019153613597154617,9.717466354370117,-1.617431640625,-3.631591796875,2.0751953125
3.4524999000000003,0.2968810200691223,-0.03292027488350868,9.205106735229492,0.946044921875,2.899169921875,-2.99072265625
3.4574999,0.10953472554683685,-0.02992752194404602,9.767146110534668,-0.213623046875,-2.3193359375,3.173828125
3.4624999,0.29807811975479126,-0.16819266974925995,9.141061782836914,-0.457763671875,1.434326171875,-3.90625
3.4674999,0.07062894850969315,-0.016759412363171577,9.940725326538086,1.068115234375,-0.54931640625,3.692626953125
3.4724999000000003,0.3106476664543152,-0.16340427100658417,9.121310234069824,-1.953125,0.091552734375,-4.2724609375
3.4774999,0.11791443079710007,0.15801730751991272,10.015543937683105,2.288818359375,0.701904296875,3.631591796875
3.4824999,0.4124012291431427,0.019153613597154617,9.185355186462402,-2.777099609375,-1.64794921875,-4.150390625
3.4874999,0.16160862147808075,0.30885201692581177,9.975440979003906,3.265380859375,2.197265625,3.082275390625
3.4924999000000003,0.39863458275794983,0.048482585698366165,9.419986724853516,-3.326416015625,-2.838134765625,-3.082275390625
3.4974999,0.1538274586200714,0.18734627962112427,10.001178741455078,3.631591796875,3.47900390625,2.227783203125
3.5024999,0.28371289372444153,-0.15562310814857483,9.701904296875,-3.35693359375,-3.7841796875,-1.708984375
3.5074999,0.12330138683319092,-0.0736217051744461,9.967061996459961,3.2958984375,3.875732421875,0.8544921875
3.5124999000000003,0.228047713637352,-0.24181437492370605,9.836577415466309,-2.8076171875,-4.364013671875,-0.213623046875
3.5174999000000002,0.1586158573627472,-0.16160862147808075,9.729436874389648,2.685546875,4.058837890625,-0.732421875
3.5224999,0.17896658182144165,-0.11911153793334961,9.764751434326172,-2.197265625,-3.662109375,1.3427734375
3.5274999,0.23343466222286224,-0.10235211998224258,9.37748908996582,1.46484375,3.662109375,-2.197265625
3.5324999000000004,0.11252748221158981,-0.03890577703714371,9.706692695617676,-0.91552734375,-3.082275390625,2.62451171875
3.5374999000000003,0.25498247146606445,-0.15801730751991272,9.1260986328125,0.213623046875,2.3193359375,-3.448486328125
3.5424999,0.028730420395731926,-0.07062894850969315,9.818022727966309,0.518798828125,-1.8310546875,3.509521484375
3.5474999,0.22206220030784607,-0.26336219906806946,9.081805229187012,-0.9765625,1.0986328125,-4.180908203125
3.5524999000000004,0.018555063754320145,0.014365210197865963,9.923367500305176,1.64794921875,-0.152587890625,3.90625
3.5574999000000003,0.2849099934101105,-0.1388636976480484,9.087791442871094,-2.471923828125,-0.54931640625,-4.119873046875
3.5624999,0.08978256583213806,0.2495955228805542,9.909002304077148,2.74658203125,1.129150390625,3.753662109375
3.5674999,0.3884592354297638,0.0628477931022644,9.190741539001465,-3.11279296875,-2.13623046875,-3.662109375
3.5724999000000004,0.12689268589019775,0.3387795388698578,9.90122127532959,3.509521484375,2.777099609375,2.838134765625
3.5774999000000003,0.32860419154167175,-0.004788403399288654,9.46727180480957,-3.47900390625,-3.173828125,-2.38037109375
3.5824999,0.11671733111143112,0.15322890877723694,9.965266227722168,3.570556640625,3.60107421875,1.739501953125
3.5874999,0.2555810213088989,-0.19692309200763702,9.752182006835938,-3.2958984375,-4.150390625,-1.220703125
3.5924999,0.15023615956306458,-0.0586579404771328,9.940725326538086,3.2958984375,4.08935546875,-0.030517578125
3.5974999000000003,0.24241292476654053,-0.1711854189634323,9.868300437927246,-2.593994140625,-4.119873046875,0.518798828125
3.6024999,0.23582886159420013,-0.0694318488240242,9.637859344482422,2.227783203125,3.96728515625,-1.3427734375
3.6074999,0.20889410376548767,-0.03531447425484657,9.81024169921875,-1.708984375,-3.90625,1.983642578125
3.6124999,0.3064578175544739,-0.0586579404771328,9.305065155029297,1.15966796875,3.204345703125,-2.9296875
3.6174999000000003,0.13407529890537262,-0.02513911761343479,9.798869132995605,-0.54931640625,-2.655029296875,3.204345703125
3.6224999,0.3064578175544739,-0.18734627962112427,9.17577838897705,-0.335693359375,2.105712890625,-3.662109375
3.6274999,0.07062894850969315,-0.047884032130241394,9.946112632751465,0.885009765625,-1.28173828125,3.84521484375
3.6324999,0.28550854325294495,-0.243011474609375,9.132083892822266,-1.617431640625,0.42724609375,-4.302978515625
3.6374999000000003,0.08918401598930359,0.08259996026754379,10.005369186401367,2.105712890625,0.152587890625,3.875732421875
3.6424999000000002,0.3663128614425659,-0.08499415963888168,9.141660690307617,-2.716064453125,-0.9765625,-4.0283203125
3.6474999,0.1364694982767105,0.2621650993824005,9.924564361572266,2.8076171875,2.0751953125,3.265380859375
3.6524999,0.3800795078277588,0.005985504016280174,9.30805778503418,-3.35693359375,-2.593994140625,-3.204345703125
3.6574999000000004,0.12928688526153564,0.21368250250816345,9.932944297790527,3.60107421875,3.021240234375,2.197265625
3.6624999000000003,0.25977087020874023,-0.15682020783424377,9.577404975891113,-3.448486328125,-3.60107421875,-1.983642578125
3.6674999,0.0802057534456253,-0.013168109580874443,9.911396026611328,3.387451171875,3.997802734375,0.946044921875
3.6724999,0.19393034279346466,-0.26755204796791077,9.737217903137207,-3.11279296875,-4.21142578125,-0.48828125
3.6774999000000004,0.12210428714752197,-0.11013327538967133,9.733028411865234,3.173828125,4.150390625,-0.457763671875
3.6824999000000003,0.17298106849193573,-0.14425064623355865,9.701904296875,-2.471923828125,-3.84521484375,1.28173828125
3.6874999,0.22206220030784607,-0.048482585698366165,9.385869026184082,1.922607421875,3.90625,-2.166748046875
3.6924999,0.13527239859104156,-0.05027823522686958,9.62828254699707,-1.28173828125,-3.35693359375,2.38037109375
3.6974999000000004,0.2669534981250763,-0.09217676520347595,9.087791442871094,0.6103515625,2.86865234375,-3.7841796875
3.7024999000000003,0.048482585698366165,-0.11552023142576218,9.704896926879883,0,-2.044677734375,3.021240234375
3.7074999,0.24779987335205078,-0.2717418968677521,9.038111686706543,-0.946044921875,1.495361328125,-4.638671875
3.7124999,0.016160860657691956,-0.06823474913835526,9.856329917907715,1.617431640625,-0.457763671875,3.41796875
3.7174999,0.2968810200691223,-0.1909375786781311,9.02135181427002,-2.349853515625,0.030517578125,-5.37109375
3.7224999000000003,0.08918401598930359,0.2867056429386139,9.84495735168457,2.86865234375,0.946044921875,2.899169921875
3.7274999,0.43275195360183716,0.17058686912059784,9.071630477905273,-3.143310546875,-1.89208984375,-4.913330078125
3.7324999,0.16220717132091522,0.5099649429321289,9.780313491821289,3.47900390625,2.38037109375,2.471923828125
3.7374999,0.40462008118629456,0.1412578970193863,9.327211380004883,-3.387451171875,-2.960205078125,-3.753662109375
3.7424999000000003,0.19273324310779572,0.1538274586200714,9.923966407775879,3.90625,3.662109375,1.617431640625
3.7474999,0.29568392038345337,-0.29209262132644653,9.637260437011719,-3.387451171875,-4.302978515625,-2.410888671875
3.7524999,0.15263035893440247,-0.29628247022628784,9.953893661499023,3.265380859375,4.45556640625,0.274658203125
3.7574999,0.22924481332302094,-0.3908534348011017,9.713874816894531,-2.838134765625,-4.364013671875,-0.885009765625
3.7624999000000003,0.13347674906253815,-0.24660277366638184,9.619902610778809,2.685546875,4.8828125,-0.9765625
3.7674999000000002,0.166995570063591,-0.046088382601737976,9.521739959716797,-1.739501953125,-4.730224609375,0.457763671875
3.7724999,0.2082955539226532,0.076015904545784,9.12729549407959,1.312255859375,4.425048828125,-2.685546875
3.7774999,0.2082955539226532,0.076015904545784,9.12729549407959,1.312255859375,4.425048828125,-2.685546875
3.7824999000000004,0.1843535304069519,0.1975216418504715,9.461885452270508,-0.640869140625,-4.180908203125,1.3427734375
3.7874999000000003,0.29628247022628784,0.12389993667602539,8.990227699279785,0.06103515625,4.150390625,-3.997802734375
3.7924999,0.15023615956306458,0.06883329898118973,9.729436874389648,0.54931640625,-3.448486328125,2.74658203125
3.7974999,0.2603694200515747,-0.1777694821357727,9.206902503967285,-0.8544921875,3.082275390625,-4.241943359375
3.8024999000000004,0.0065840547904372215,-0.3100491166114807,10.061034202575684,1.373291015625,-2.838134765625,3.47900390625
3.8074999000000003,0.21787235140800476,-0.4884171485900879,9.460089683532715,-1.03759765625,2.50244140625,-5.340576171875
3.8124999,-0.05027823522686958,-0.375291109085083,10.293869972229004,1.800537109375,-1.129150390625,2.99072265625
3.8174999,0.24121582508087158,-0.3519476354122162,9.561244010925293,-3.143310546875,0.091552734375,-5.462646484375
3.8224999000000004,0.03890577703714371,-0.11252748221158981,10.2747163772583,3.021240234375,-0.946044921875,4.425048828125
3.8274999000000003,0.3423708379268646,-0.10295066982507706,9.527725219726562,-1.678466796875,1.3427734375,-3.631591796875
3.8324999,0.13168109953403473,0.1735796183347702,10.124480247497559,2.44140625,1.28173828125,4.08935546875
3.8374999,0.3926490843296051,0.10115502029657364,9.41519832611084,-3.875732421875,-2.25830078125,-6.866455078125
3.8424999,0.20051439106464386,0.21787235140800476,9.935338973999023,3.173828125,0.244140625,3.662109375
3.8474999000000003,0.3932476341724396,0.12210428714752197,9.279327392578125,-1.8310546875,1.190185546875,-4.974365234375
3.8524999,0.13168109953403473,0.1711854189634323,9.860519409179688,2.288818359375,1.495361328125,3.5400390625
3.8574999,0.31543606519699097,0.026336219161748886,9.32541561126709,-3.72314453125,-1.983642578125,-7.476806640625
3.8624999,0.0077811554074287415,0.07960720360279083,9.987412452697754,3.082275390625,0.42724609375,4.058837890625
3.8674999000000003,0.22206220030784607,-0.11192893236875534,9.452308654785156,-2.349853515625,0.9765625,-4.791259765625
3.8724999,-0.05446808785200119,-0.14006079733371735,10.087968826293945,2.471923828125,0.48828125,4.21142578125
3.8774999,0.228047713637352,-0.3292027413845062,9.520543098449707,-3.509521484375,-0.732421875,-8.758544921875
3.8824999,0.0071826050989329815,-0.26396074891090393,9.97484302520752,2.74658203125,-0.640869140625,1.953125
3.8874999000000003,0.27712884545326233,-0.3190273642539978,9.433155059814453,-1.983642578125,2.288818359375,-7.965087890625
3.8924999000000002,0.2041056901216507,0.031124621629714966,9.739013671875,0.9765625,-2.38037109375,1.8310546875
3.8974999,0.37169981002807617,-0.0065840547904372215,9.410409927368164,0.335693359375,4.119873046875,-9.674072265625
3.9024999,0.3298012912273407,0.3585317134857178,9.894038200378418,-0.946044921875,-3.84521484375,-3.72314453125
3.9074999000000004,0.36152446269989014,0.11432313174009323,9.50737476348877,2.13623046875,5.7373046875,-9.613037109375
3.9124999000000003,0.31124621629714966,0.08439560979604721,9.889249801635742,-3.23486328125,-7.781982421875,-6.500244140625
3.9174999,0.14185644686222076,-0.28730419278144836,9.435548782348633,5.92041015625,10.1318359375,-5.92041015625
3.9224999,0.2932897210121155,-0.05386953800916672,9.48462963104248,-5.2490234375,-10.711669921875,-9.8876953125
3.9274999000000004,0.07900865375995636,-0.060453593730926514,9.136872291564941,4.57763671875,6.683349609375,-3.72314453125
3.9324999000000003,0.4100070297718048,0.13826514780521393,9.30686092376709,-3.753662109375,-4.241943359375,-15.93017578125
3.9374999,0.16579847037792206,0.18614917993545532,9.257181167602539,-0.3662109375,-0.8544921875,-2.8076171875
3.9424999,0.41718965768814087,0.060453593730926514,9.463082313537598,0.640869140625,4.364013671875,-13.48876953125
3.9474999000000004,0.2621650993824005,0.15981295704841614,9.722254753112793,-2.716064453125,-5.584716796875,-1.708984375
3.9524999000000003,0.27892449498176575,0.02513911761343479,9.68274974822998,2.960205078125,6.195068359375,-5.9814453125
3.9574999,0.32022446393966675,0.2861070930957794,9.671976089477539,-3.692626953125,-7.965087890625,-3.631591796875
3.9624999,0.050876785069704056,0.4513070285320282,9.597756385803223,3.936767578125,7.4462890625,-0.030517578125
3.9674999000000004,0.19931729137897491,0.30885201692581177,9.425373077392578,-3.936767578125,-7.2021484375,-7.8125
3.9724999000000003,-0.033518824726343155,0.5063736438751221,9.596558570861816,3.021240234375,4.791259765625,5.4931640625
3.9774999,0.1801636815071106,0.20111294090747833,9.589975357055664,-1.708984375,-1.52587890625,-8.11767578125
3.9824999,0.14425064623355865,0.08738835901021957,9.981427192687988,-0.396728515625,-2.44140625,2.9296875
3.9874999,0.14844051003456116,-0.18495208024978638,9.931148529052734,2.899169921875,5.615234375,-0.701904296875
3.9924999000000003,0.304063618183136,-0.13168109953403473,9.961075782775879,-3.509521484375,-6.8359375,-5.828857421875
3.9974999,0.08439560979604721,-0.37409400939941406,9.825803756713867,3.23486328125,5.55419921875,5.462646484375
4.0024999,0.31603461503982544,-0.10474632680416107,9.586383819580078,-1.434326171875,-2.532958984375,-10.1318359375
4.0074999,0.14844051003456116,-0.13706804811954498,9.77253246307373,-0.274658203125,-1.40380859375,3.875732421875
4.0124999,0.17178396880626678,-0.0520738884806633,9.586981773376465,4.150390625,6.683349609375,-3.662109375
4.0174999,0.2735375463962555,0.05446808785200119,9.762955665588379,-4.669189453125,-8.209228515625,-9.58251953125
4.022499900000001,0.1801636815071106,-0.19632454216480255,9.761758804321289,3.60107421875,5.401611328125,5.55419921875
4.0274999000000005,0.25677812099456787,0.028730420395731926,9.649829864501953,1.64794921875,2.86865234375,-12.75634765625
4.0324999,0.3208230137825012,0.07541735470294952,9.733627319335938,-4.45556640625,-9.1552734375,-4.180908203125
4.0374999,0.17477671802043915,0.24839842319488525,9.975440979003906,5.18798828125,8.636474609375,-0.030517578125
4.0424999,0.322618693113327,0.32381579279899597,9.734225273132324,-2.960205078125,-3.72314453125,-13.5498046875
4.0474999,0.1496376097202301,0.3423708379268646,10.153210639953613,-0.9765625,-3.173828125,2.044677734375
4.0524999,0.1586158573627472,0.0293289702385664,9.79647445678711,4.82177734375,7.8125,-4.547119140625
4.0574999,0.20709845423698425,0.12449848651885986,9.849745750427246,-5.37109375,-7.38525390625,-11.932373046875
4.062499900000001,0.13946224749088287,0.17537526786327362,9.762357711791992,1.15966796875,1.556396484375,3.143310546875
4.0674999000000005,0.17896658182144165,0.09457096457481384,9.586383819580078,2.105712890625,3.90625,-7.598876953125
4.0724999,0.262763649225235,0.314238965511322,9.625288963317871,-3.814697265625,-6.16455078125,-4.913330078125
4.0774999,0.10115502029657364,0.2555810213088989,9.553462982177734,2.13623046875,3.570556640625,5.706787109375
4.0824999,0.16639702022075653,0.06703764945268631,9.635464668273926,0.579833984375,0.701904296875,-10.31494140625
4.0874999,0.2017114907503128,0.2693476974964142,9.607333183288574,-2.288818359375,-4.608154296875,-2.899169921875
4.0924999,0.13347674906253815,0.09277531504631042,9.784503936767578,1.861572265625,3.60107421875,7.26318359375
4.0974999,0.18794482946395874,-0.15143325924873352,9.68274974822998,0.091552734375,-0.1220703125,-7.9345703125
4.1024999,0.2555810213088989,0.03890577703714371,9.651625633239746,-1.64794921875,-3.35693359375,-0.3662109375
4.1074999000000005,0.17896658182144165,-0.1496376097202301,9.644442558288574,1.800537109375,3.143310546875,8.270263671875
4.1124999,0.18974047899246216,-0.3728969097137451,9.718064308166504,0.9765625,1.556396484375,-11.23046875
4.1174999,0.25677812099456787,-0.046088382601737976,9.518148422241211,-3.082275390625,-6.072998046875,-5.340576171875
4.1224999,0.07900865375995636,-0.13347674906253815,9.915586471557617,1.3427734375,2.899169921875,7.99560546875
4.1274999,0.1843535304069519,-0.2687491476535797,9.49001693725586,2.838134765625,3.96728515625,-10.07080078125
4.1324999,0.2388216257095337,0.21847090125083923,9.531316757202148,-4.57763671875,-7.2021484375,-8.6669921875
4.1374999,0.1454477459192276,0.11911153793334961,9.513958930969238,-0.30517578125,-0.8544921875,7.99560546875
4.1424999,0.1454477459192276,0.11911153793334961,9.513958930969238,-0.30517578125,-0.8544921875,7.99560546875
4.147499900000001,0.23822307586669922,0.1041477769613266,9.17936897277832,3.570556640625,4.638671875,-4.5166015625
4.1524999000000005,0.25977087020874023,0.4106055796146393,9.406219482421875,-3.692626953125,-4.608154296875,-10.07080078125
4.1574999,0.3130418658256531,0.3621230125427246,9.457695007324219,-1.129150390625,-2.25830078125,6.256103515625
4.1624999,0.2717418968677521,0.4207809567451477,9.439739227294922,2.99072265625,4.241943359375,2.777099609375
4.1674999,0.322618693113327,0.4339490532875061,9.725247383117676,-2.01416015625,-2.288818359375,-9.613037109375
4.1724999,0.27653029561042786,0.32381579279899597,9.66419506072998,-1.52587890625,-2.685546875,0.06103515625
4.1774999,0.1430535465478897,0.16579847037792206,9.909002304077148,1.190185546875,2.532958984375,5.859375
4.1824999,0.2124854028224945,-0.06703764945268631,9.873088836669922,1.251220703125,1.373291015625,-5.584716796875
4.187499900000001,0.22086510062217712,-0.048482585698366165,9.889249801635742,-1.89208984375,-3.143310546875,-3.662109375
4.1924999000000005,0.17477671802043915,-0.09457096457481384,9.782109260559082,0.1220703125,-0.06103515625,7.049560546875
4.1974999,0.1215057373046875,-0.1759738177061081,9.46607494354248,2.38037109375,2.288818359375,0.3662109375
4.2024999,0.14185644686222076,-0.08379705995321274,9.61331844329834,-1.40380859375,-1.03759765625,-7.293701171875
4.2074999,0.12210428714752197,-0.06524199992418289,9.521739959716797,-1.312255859375,-2.166748046875,1.800537109375
4.2124999,0.11851298063993454,-0.090979665517807,9.916783332824707,0.640869140625,1.556396484375,4.8828125
4.2174999,0.2555810213088989,-0.11791443079710007,9.95748519897461,2.105712890625,2.532958984375,-6.317138671875
4.2224999,0.27054479718208313,0.002992752008140087,9.979631423950195,-2.166748046875,-2.5634765625,-4.852294921875
4.2274999,0.33339259028434753,-0.11013327538967133,9.962273597717285,-0.91552734375,-1.708984375,6.072998046875
4.2324999000000005,0.2974795699119568,-0.30226796865463257,9.749189376831055,2.288818359375,2.838134765625,0.640869140625
4.2374999,0.26815059781074524,-0.05506663769483566,9.77013874053955,0.640869140625,2.227783203125,-9.552001953125
4.2424999,0.2687491476535797,-0.10055647045373917,9.637859344482422,-3.082275390625,-4.730224609375,-0.823974609375
4.2474999,0.09576806426048279,0.12210428714752197,9.64683723449707,0.48828125,0.946044921875,5.9814453125
4.2524999,0.07242459803819656,0.15682020783424377,9.507973670959473,3.2958984375,3.936767578125,-2.960205078125
4.2574999,0.0005985504249110818,0.2663549482822418,9.636063575744629,-1.3427734375,0.030517578125,-8.270263671875
4.2624999,0.08738835901021957,0.08200141042470932,9.64683723449707,-2.50244140625,-4.57763671875,1.190185546875
4.2674999,0.10175357013940811,-0.09217676520347595,9.700706481933594,0.48828125,0.79345703125,5.18798828125
4.272499900000001,0.2298433631658554,-0.1628057211637497,9.712079048156738,3.84521484375,4.364013671875,-4.058837890625
4.2774999000000005,0.1951274424791336,-0.24779987335205078,9.807249069213867,-2.0751953125,-1.15966796875,-6.8359375
4.2824999,0.2711433470249176,-0.22685061395168304,9.773730278015137,-2.13623046875,-3.7841796875,2.288818359375
4.2874999,0.17058686912059784,-0.3034650683403015,9.892841339111328,0.8544921875,2.3193359375,4.21142578125
4.2924999,0.2190694510936737,-0.12210428714752197,9.749189376831055,3.997802734375,4.638671875,-5.523681640625
4.2974999,0.166995570063591,-0.11013327538967133,9.828198432922363,-3.11279296875,-2.410888671875,-6.927490234375
4.3024999,0.2190694510936737,-0.0035913025494664907,9.685144424438477,-1.89208984375,-3.753662109375,2.044677734375
4.3074999,0.1693897694349289,0.25019407272338867,9.765350341796875,1.28173828125,2.44140625,4.547119140625
4.312499900000001,0.17657238245010376,0.12210428714752197,9.651026725769043,4.058837890625,4.150390625,-5.0048828125
4.3174999000000005,0.13946224749088287,0.23044191300868988,9.759963035583496,-3.41796875,-3.021240234375,-7.171630859375
4.3224999,0.20111294090747833,0.1496376097202301,9.667187690734863,-2.0751953125,-3.662109375,1.922607421875
4.3274999,0.21966800093650818,0.1867477297782898,9.780313491821289,1.007080078125,2.166748046875,6.103515625
4.3324999,0.34835633635520935,0.1604115068912506,9.66958236694336,3.631591796875,3.936767578125,-2.838134765625
4.3374999,0.30226796865463257,0.20231004059314728,9.75936508178711,-1.800537109375,-0.9765625,-7.6904296875
4.3424999,0.3256114423274994,0.08080431073904037,9.642048835754395,-2.777099609375,-4.730224609375,0.213623046875
4.3474999,0.31603461503982544,0.03770867735147476,9.818022727966309,0.762939453125,1.953125,6.988525390625
4.352499900000001,0.3256114423274994,-0.21368250250816345,9.905410766601562,2.197265625,2.86865234375,-0.54931640625
4.3574999000000005,0.25019407272338867,-0.2693476974964142,9.99459457397461,1.220703125,2.685546875,-8.1787109375
4.3624999,0.2651578485965729,-0.34416648745536804,9.914987564086914,-4.33349609375,-6.805419921875,-2.838134765625
4.3674999,0.2232593148946762,-0.2974795699119568,9.903017044067383,0.18310546875,0.42724609375,6.16455078125
4.3724999,0.10594342648983002,-0.06703764945268631,9.86889934539795,1.861572265625,3.631591796875,2.86865234375
4.3774999,0.07781155407428741,-0.37229835987091064,9.632472038269043,10.07080078125,6.77490234375,-9.246826171875
4.3824999,-0.07841010391712189,-0.09217676520347595,9.824007987976074,-4.180908203125,1.953125,-12.39013671875
4.3874999,0.013168109580874443,-0.13706804811954498,9.394248962402344,-6.866455078125,-10.223388671875,-3.387451171875
4.3924999,0.1951274424791336,0.0005985504249110818,9.641449928283691,0.732421875,0.732421875,5.584716796875
4.397499900000001,0.4513070285320282,-0.17537526786327362,9.731232643127441,3.7841796875,5.0048828125,0.6103515625
4.4024999000000005,0.35494041442871094,-0.43335050344467163,9.579200744628906,19.622802734375,9.27734375,-18.49365234375
4.4074999,0.4967968463897705,-0.6254851818084717,9.448118209838867,4.5166015625,-1.312255859375,-11.322021484375
4.4124999,0.29149407148361206,-0.16160862147808075,9.521739959716797,-17.303466796875,1.251220703125,1.28173828125
4.4174999,0.32381579279899597,0.20290859043598175,9.149441719055176,-12.359619140625,-13.5498046875,13.5498046875
4.4224999,0.1867477297782898,0.4231751561164856,9.955090522766113,1.495361328125,-2.86865234375,11.962890625
4.4274999,0.19812019169330597,0.39863458275794983,9.78989028930664,22.0947265625,16.143798828125,-15.2587890625
4.4324999,0.11911153793334961,-0.08619125932455063,9.996390342712402,11.322021484375,1.3427734375,-21.42333984375
4.437499900000001,0.3076549172401428,0.19033902883529663,9.127894401550293,1.77001953125,-1.678466796875,0.823974609375
4.4424999000000005,0.30945056676864624,0.29209262132644653,8.817246437072754,-21.881103515625,4.33349609375,26.458740234375
4.4474999,0.3256114423274994,0.7314286231994629,8.015787124633789,-15.0146484375,-18.06640625,15.0146484375
4.4524999,0.10115502029657364,0.21966800093650818,8.451532363891602,2.288818359375,-4.425048828125,-0.06103515625
4.4574999,0.13347674906253815,-0.02454056777060032,8.285135269165039,16.632080078125,16.90673828125,-17.333984375
4.4624999,0.058059390634298325,-1.1414356231689453,8.876502990722656,0,4.302978515625,-21.42333984375
4.4674999,0.26396074891090393,-0.6218938827514648,9.1446533203125,-10.894775390625,-6.591796875,-5.92041015625
4.4724999,0.29807811975479126,-0.6757634282112122,9.081805229187012,-6.256103515625,-8.758544921875,18.707275390625
4.477499900000001,0.33698388934135437,0.14484919607639313,9.470264434814453,-1.89208984375,-3.84521484375,15.19775390625
4.4824999000000005,0.29149407148361206,0.4213795065879822,9.443928718566895,2.44140625,3.84521484375,2.86865234375
4.4874999,0.12509703636169434,-0.1364694982767105,9.979032516479492,-0.18310546875,0,-3.753662109375
4.4924999,0.19153612852096558,-1.094150185585022,10.363302230834961,25.299072265625,11.260986328125,-23.956298828125
4.4974999,0.07062894850969315,-1.170764684677124,9.711481094360352,25.482177734375,5.859375,-27.64892578125
4.5024999,0.07062894850969315,-1.170764684677124,9.711481094360352,25.482177734375,5.859375,-27.64892578125
4.5074999,0.19572599232196808,-1.2737152576446533,8.939350128173828,6.7138671875,-1.64794921875,12.054443359375
4.5124999,0.10654197633266449,0.061052143573760986,7.426215171813965,-10.3759765625,4.82177734375,27.252197265625
4.5174999,-0.0454898327589035,1.01753568649292,7.098209381103516,-38.970947265625,-6.866455078125,15.13671875
4.522499900000001,-0.23702596127986908,1.5364789962768555,6.688800811767578,-13.0615234375,-20.172119140625,-1.15966796875
4.5274999000000005,-0.11552023142576218,1.2485761642456055,7.815871238708496,4.241943359375,-8.453369140625,-1.5869140625
4.5324999,0.019153613597154617,0.6847416758537292,8.291719436645508,-0.8544921875,11.77978515625,-3.326416015625
4.5374999,0.43275195360183716,-0.8457517623901367,9.781511306762695,12.298583984375,9.09423828125,-17.51708984375
4.5424999,0.8756792545318604,-2.144007682800293,10.679336547851562,49.9267578125,11.260986328125,-45.928955078125
4.5474999,1.1210849285125732,-2.0602104663848877,10.46206283569336,55.48095703125,2.593994140625,-19.1650390625
4.5524999,0.8882488012313843,-2.4791958332061768,10.420164108276367,15.899658203125,3.387451171875,48.88916015625
4.5574999,0.6655880808830261,-0.6841431260108948,7.988254070281982,11.016845703125,-2.593994140625,33.905029296875
4.562499900000001,-0.017956512048840523,0.4812345504760742,7.028777599334717,-22.369384765625,2.38037109375,0.152587890625
4.5674999000000005,-0.424970805644989,1.259350061416626,6.142324447631836,-58.53271484375,-2.13623046875,-7.598876953125
4.5724999,-0.5464765429496765,1.9147628545761108,6.760627269744873,-63.018798828125,-11.53564453125,-3.997802734375
4.5774999,-0.4034229815006256,1.9321208000183105,6.907870292663574,0.42724609375,-19.1650390625,13.12255859375
4.5824999,-0.15442600846290588,1.3533225059509277,8.429984092712402,2.62451171875,-11.383056640625,14.129638671875
4.5874999,0.061052143573760986,0.5129576921463013,8.53413200378418,7.8125,26.519775390625,2.197265625
4.5924999,0.25737667083740234,-0.5207388401031494,9.337985038757324,1.0986328125,11.04736328125,-16.6015625
4.5974999,0.4411316514015198,-1.3958195447921753,9.61212158203125,-9.429931640625,-16.41845703125,-25.93994140625
4.602499900000001,0.507570743560791,-2.0895395278930664,10.663774490356445,6.500244140625,6.072998046875,-20.56884765625
4.6074999000000005,0.6613982319831848,-3.207033157348633,11.69926643371582,46.630859375,10.955810546875,-19.012451171875
4.6124999,0.6751648783683777,-2.875436305999756,12.618639945983887,105.804443359375,1.556396484375,-8.544921875
4.6174999,0.28790274262428284,-3.15974760055542,12.71141529083252,125.91552734375,10.25390625,29.296875
4.6224999,0.02274491637945175,-1.3694833517074585,11.66694450378418,95.21484375,2.0751953125,28.961181640625
4.6274999,-0.4836287498474121,0.25019407272338867,9.807847023010254,56.793212890625,5.035400390625,21.942138671875
4.6324999,-0.5979518890380859,1.9812018871307373,8.063671112060547,30.731201171875,2.471923828125,23.681640625
4.6374999,-0.4471171796321869,3.050212860107422,7.004237174987793,9.918212890625,-0.18310546875,13.85498046875
4.6424999,-0.01735796220600605,3.491943120956421,6.7510504722595215,-3.5400390625,0.42724609375,7.99560546875
4.647499900000001,0.4357447028160095,3.3961751461029053,7.039551734924316,-14.58740234375,-0.244140625,-2.349853515625
4.6524999000000005,0.8337807655334473,2.9101521968841553,7.625532627105713,-23.25439453125,-2.197265625,-10.009765625
4.6574999,0.9301473498344421,2.279878616333008,8.245630264282227,-31.18896484375,-1.64794921875,-13.458251953125
4.6624999,0.8361749649047852,1.6124948263168335,8.796895980834961,-37.139892578125,-1.5869140625,-13.18359375
4.6674999,0.5991489887237549,1.006163239479065,9.209895133972168,-40.985107421875,-2.9296875,-12.786865234375
4.6724999,0.3363853394985199,0.5536591410636902,9.499593734741211,-42.724609375,-2.899169921875,-12.298583984375
4.6774999,0.19153612852096558,0.2017114907503128,9.703699111938477,-42.266845703125,-2.838134765625,-13.885498046875
4.6824999,0.10354922711849213,-0.031124621629714966,9.853935241699219,-40.802001953125,-2.197265625,-13.946533203125
4.687499900000001,0.09217676520347595,-0.20949265360832214,9.99339771270752,-38.02490234375,-1.708984375,-11.566162109375
4.6924999000000005,0.06584054976701736,-0.3728969097137451,10.121487617492676,-34.454345703125,-1.739501953125,-10.25390625
4.6974999,0.011971008032560349,-0.518943190574646,10.24119758605957,-29.022216796875,-0.640869140625,-6.805419921875
4.7024999,-0.053270988166332245,-0.6607996821403503,10.346542358398438,-22.186279296875,-0.457763671875,-2.716064453125
4.7074999,-0.08858546614646912,-0.7589619159698486,10.410587310791016,-15.594482421875,-0.701904296875,0.396728515625
4.7124999,-0.10295066982507706,-0.7691373229026794,10.401609420776367,-10.223388671875,-0.42724609375,2.410888671875
4.7174999,-0.07960720360279083,-0.6787561774253845,10.307038307189941,-7.415771484375,0.06103515625,4.241943359375
4.7224999,-0.012569558806717396,-0.49619829654693604,10.122086524963379,-7.2021484375,-0.213623046875,5.218505859375
4.727499900000001,0.05147533491253853,-0.24480712413787842,9.88386344909668,-9.21630859375,-0.213623046875,5.55419921875
4.7324999000000005,0.10654197633266449,0.010175357572734356,9.716269493103027,-12.420654296875,-0.579833984375,4.730224609375
4.7374999,0.09038111567497253,0.050876785069704056,9.744999885559082,-10.101318359375,-4.486083984375,1.312255859375
4.7424999,0.21188685297966003,0.11971008777618408,9.762357711791992,-1.861572265625,-7.598876953125,-1.556396484375
4.7474999,0.23523031175136566,-0.012569558806717396,9.91977596282959,-2.01416015625,-2.838134765625,1.46484375
4.7524999,0.37229835987091064,-0.11013327538967133,9.952696800231934,-0.9765625,-0.640869140625,-0.762939453125
4.7574999,0.4495113790035248,-0.12509703636169434,9.913790702819824,0.67138671875,1.068115234375,0.213623046875
4.7624999,0.41359832882881165,-0.152031809091568,9.873088836669922,0.396728515625,1.129150390625,-0.06103515625
4.7674999,0.3489548861980438,-0.12629413604736328,9.816226959228516,-0.762939453125,-0.54931640625,-0.335693359375
4.772499900000001,0.25677812099456787,-0.08319851011037827,9.77791976928711,-0.640869140625,-1.007080078125,-0.213623046875
4.7774999000000005,0.18734627962112427,-0.06344634294509888,9.744400978088379,-0.030517578125,0,-0.3662109375
4.7824999,0.1735796183347702,-0.016160860657691956,9.730035781860352,0.1220703125,0.30517578125,-0.274658203125
4.7874999,0.1562216579914093,-0.010773907415568829,9.730035781860352,-0.640869140625,0.030517578125,-0.274658203125
4.7924999,0.16759411990642548,-0.002992752008140087,9.739013671875,-0.701904296875,-0.54931640625,0.091552734375
4.7974999,0.19871874153614044,-0.02214636653661728,9.750386238098145,-0.091552734375,-0.518798828125,-0.335693359375
4.8024999,0.21128830313682556,-0.04908113554120064,9.762357711791992,0.30517578125,0.6103515625,-0.152587890625
4.8074999,0.2364274114370346,-0.05925649031996727,9.758766174316406,0.091552734375,0.396728515625,-0.18310546875
4.812499900000001,0.23702596127986908,-0.047884032130241394,9.755773544311523,-0.06103515625,-0.42724609375,0
4.8174999000000005,0.22086510062217712,-0.04369417950510979,9.744400978088379,-0.06103515625,-0.030517578125,-0.213623046875
4.8224999,0.21667525172233582,-0.03292027488350868,9.73781681060791,0.030517578125,0.152587890625,-0.30517578125
4.8274999,0.2017114907503128,-0.018555063754320145,9.734225273132324,0.091552734375,-0.06103515625,-0.335693359375
4.8324999,0.1975216418504715,-0.043095629662275314,9.725247383117676,-0.396728515625,-0.3662109375,-0.244140625
4.8374999,0.2106897532939911,-0.028131870552897453,9.721057891845703,-0.06103515625,-0.3662109375,-0.18310546875
4.8424999,0.20949265360832214,-0.05147533491253853,9.715071678161621,0.396728515625,0.579833984375,-0.244140625
4.8474999,0.20769700407981873,-0.043095629662275314,9.715670585632324,0.091552734375,0.67138671875,0
4.852499900000001,0.19692309200763702,-0.028730420395731926,9.72285270690918,-0.274658203125,-0.42724609375,-0.18310546875
4.8574999000000005,0.19273324310779572,-0.02693476900458336,9.73542308807373,-0.335693359375,-0.885009765625,0
4.8624999,0.19273324310779572,-0.026336219161748886,9.740809440612793,-0.030517578125,0.244140625,-0.06103515625
4.8674999,0.19273324310779572,-0.026336219161748886,9.740809440612793,-0.030517578125,0.244140625,-0.06103515625
4.8724999,0.20889410376548767,-0.02513911761343479,9.75278091430664,0.30517578125,0.6103515625,-0.091552734375
4.8774999,0.20530278980731964,-0.017956512048840523,9.75517463684082,0.030517578125,-0.18310546875,-0.06103515625
4.8824999,0.21368250250816345,-0.028730420395731926,9.756970405578613,-0.213623046875,-0.67138671875,0.030517578125
4.8874999,0.21547815203666687,-0.020949264988303185,9.758766174316406,0.030517578125,0.06103515625,-0.30517578125
4.8924999,0.21547815203666687,-0.043095629662275314,9.750386238098145,0.335693359375,0.518798828125,-0.152587890625
4.897499900000001,0.2256535142660141,-0.043095629662275314,9.745597839355469,0.030517578125,-0.030517578125,0
4.9024999000000005,0.21547815203666687,-0.0520738884806633,9.740211486816406,-0.06103515625,-0.213623046875,-0.152587890625
4.9074999,0.2059013396501541,-0.04908113554120064,9.73781681060791,0.1220703125,0,-0.244140625
4.9124999,0.21787235140800476,-0.04489128291606903,9.750386238098145,0.152587890625,0.274658203125,-0.30517578125
4.9174999,0.1933317929506302,-0.055665191262960434,9.740809440612793,-0.030517578125,0.091552734375,-0.091552734375
4.9224999,0.21308395266532898,-0.03890577703714371,9.753378868103027,-0.1220703125,-0.42724609375,-0.18310546875
4.9274999,0.19931729137897491,-0.04728548228740692,9.744999885559082,0.1220703125,-0.1220703125,-0.18310546875
4.9324999,0.21428105235099792,-0.030526071786880493,9.753378868103027,0.152587890625,0.274658203125,-0.091552734375
4.937499900000001,0.21428105235099792,-0.03531447425484657,9.75397777557373,-0.091552734375,0.06103515625,-0.152587890625
4.9424999000000005,0.21966800093650818,-0.020949264988303185,9.763554573059082,-0.213623046875,-0.18310546875,-0.274658203125
4.9474999,0.21847090125083923,-0.017956512048840523,9.762955665588379,0.1220703125,0,-0.06103515625
4.9524999,0.2214636504650116,-0.009576806798577309,9.768342971801758,0.30517578125,0.213623046875,0
4.9574999,0.22206220030784607,-0.016759412363171577,9.747992515563965,-0.030517578125,0.18310546875,-0.18310546875
4.9624999,0.22445641458034515,-0.01975216343998909,9.747393608093262,0.06103515625,0.18310546875,-0.396728515625
4.9674999,0.2106897532939911,-0.01735796220600605,9.730634689331055,0.213623046875,0.335693359375,-0.213623046875
4.9724999,0.2059013396501541,-0.055665191262960434,9.728240013122559,-0.1220703125,0,-0.274658203125
4.977499900000001,0.19812019169330597,-0.018555063754320145,9.740809440612793,0.030517578125,-0.091552734375,-0.335693359375
4.9824999000000005,0.1843535304069519,-0.03531447425484657,9.744999885559082,-0.1220703125,-0.06103515625,-0.274658203125
4.9874999,0.2082955539226532,-0.02693476900458336,9.764153480529785,-0.18310546875,-0.152587890625,-0.152587890625
4.9924999,0.2041056901216507,-0.009576806798577309,9.765350341796875,0.06103515625,-0.18310546875,-0.030517578125
4.9974999,0.21667525172233582,-0.04010287672281265,9.762955665588379,0.06103515625,0.091552734375,0
5.0024999,0.21547815203666687,-0.03651157766580582,9.758766174316406,-0.030517578125,0.152587890625,0
5.0074999,0.20709845423698425,-0.04429273307323456,9.742006301879883,0.06103515625,0.18310546875,-0.18310546875
5.0124999,0.2017114907503128,-0.053270988166332245,9.733627319335938,0.06103515625,0.42724609375,-0.335693359375
5.0174999,0.19273324310779572,-0.04429273307323456,9.742006301879883,0.30517578125,0.30517578125,-0.1220703125
5.022499900000001,0.20051439106464386,-0.02992752194404602,9.727043151855469,0.030517578125,-0.213623046875,-0.3662109375
5.0274999000000005,0.1885433793067932,-0.03411737456917763,9.740211486816406,-0.091552734375,-0.396728515625,-0.3662109375
5.0324999,0.19812019169330597,-0.020350715145468712,9.740211486816406,-0.274658203125,-0.335693359375,-0.091552734375
5.0374999,0.21308395266532898,-0.016759412363171577,9.740211486816406,-0.274658203125,-0.30517578125,-0.091552734375
5.0424999,0.2148796021938324,-0.046088382601737976,9.738415718078613,-0.030517578125,0.335693359375,0.18310546875
5.0474999,0.22625206410884857,-0.021547814831137657,9.747393608093262,0.274658203125,0.335693359375,-0.091552734375
5.0524999,0.22026655077934265,-0.05626374110579491,9.741408348083496,0.274658203125,0.3662109375,-0.213623046875
5.0574999,0.1999158412218094,-0.02992752194404602,9.762955665588379,0.274658203125,0.48828125,-0.3662109375
5.062499900000001,0.19273324310779572,-0.03651157766580582,9.763554573059082,-0.06103515625,-0.18310546875,-0.213623046875
5.0674999000000005,0.17417816817760468,-0.015562310814857483,9.774927139282227,-0.18310546875,-0.640869140625,-0.48828125
5.0724999,0.17717093229293823,-0.03531447425484657,9.768941879272461,-0.335693359375,-0.48828125,0.06103515625
5.0774999,0.20530278980731964,-0.020949264988303185,9.761159896850586,-0.1220703125,-0.518798828125,-0.030517578125
5.0824999,0.2214636504650116,-0.06584054976701736,9.761159896850586,0.244140625,0.54931640625,0.30517578125
5.0874999,0.2454056739807129,-0.04668693244457245,9.744999885559082,0.579833984375,0.732421875,-0.274658203125
5.0924999,0.22206220030784607,-0.05027823522686958,9.748590469360352,0.213623046875,0.457763671875,-0.579833984375
5.0974999,0.20051439106464386,-0.02753331884741783,9.75637149810791,0,-0.335693359375,-0.30517578125
5.102499900000001,0.1693897694349289,0.002394201699644327,9.756970405578613,-0.244140625,-0.640869140625,-0.42724609375
5.1074999000000005,0.16639702022075653,-0.011372458189725876,9.765350341796875,-0.3662109375,-0.6103515625,0.1220703125
5.1124999,0.2059013396501541,-0.017956512048840523,9.754576683044434,-0.152587890625,-0.42724609375,-0.152587890625
5.1174999,0.21966800093650818,-0.043095629662275314,9.734824180603027,0.48828125,0.91552734375,0.244140625
5.1224999,0.23762452602386475,-0.05267243832349777,9.737217903137207,0.518798828125,1.220703125,-0.518798828125
5.1274999,0.19812019169330597,-0.035913024097681046,9.727641105651855,0.1220703125,0.274658203125,-0.335693359375
5.1324999,0.18794482946395874,-0.008379706181585789,9.749788284301758,-0.396728515625,-1.007080078125,-0.640869140625
5.1374999,0.15442600846290588,-0.0065840547904372215,9.745597839355469,-0.579833984375,-0.79345703125,-0.030517578125
5.1424999,0.2059013396501541,-0.011971008032560349,9.75397777557373,-0.42724609375,-0.518798828125,-0.091552734375
5.147499900000001,0.2346317619085312,-0.04668693244457245,9.726444244384766,0.3662109375,0.79345703125,0.30517578125
5.1524999000000005,0.2603694200515747,-0.05686229094862938,9.73661994934082,0.701904296875,1.46484375,-0.640869140625
5.1574999,0.2041056901216507,-0.05267243832349777,9.723451614379883,0.06103515625,0.579833984375,-0.640869140625
5.1624999,0.19273324310779572,-0.0077811554074287415,9.743204116821289,-0.518798828125,-1.3427734375,-0.762939453125
5.1674999,0.13347674906253815,-0.005386953707784414,9.754576683044434,-0.701904296875,-1.3427734375,0.244140625
5.1724999,0.20231004059314728,-0.02753331884741783,9.75637149810791,-0.3662109375,-0.335693359375,0.18310546875
5.1774999,0.2472013235092163,-0.05027823522686958,9.765948295593262,0.701904296875,1.220703125,0.457763671875
5.1824999,0.24361002445220947,-0.07721300423145294,9.73661994934082,0.946044921875,1.922607421875,-0.946044921875
5.187499900000001,0.2106897532939911,-0.055665191262960434,9.77253246307373,-0.091552734375,0.30517578125,-0.274658203125
5.1924999000000005,0.16759411990642548,0.0011971008498221636,9.758167266845703,-0.8544921875,-2.197265625,-0.91552734375
5.1974999,0.16879121959209442,-0.01975216343998909,9.77013874053955,-0.732421875,-1.3427734375,0.823974609375
5.2024999,0.22026655077934265,-0.033518824726343155,9.747992515563965,0.18310546875,0.701904296875,0.091552734375
5.2074999,0.30047231912612915,-0.06165069341659546,9.752182006835938,1.312255859375,2.044677734375,-0.274658203125
5.2124999,0.2106897532939911,-0.06643909960985184,9.731232643127441,0.67138671875,1.46484375,-0.79345703125
5.2174999,0.2064998894929886,-0.020350715145468712,9.758766174316406,-0.79345703125,-1.922607421875,-0.762939453125
5.2224999,0.14006079733371735,0.005985504016280174,9.763554573059082,-0.9765625,-2.5634765625,0.762939453125
5.227499900000001,0.17178396880626678,-0.03770867735147476,9.737217903137207,-0.06103515625,0.18310546875,0.091552734375
