# Time (seconds),Accel_X,Accel_Y,Accel_Z,Gyro_X,Gyro_Y,Gyro_Z
0.0024999,0.333991140127182,-0.13048399984836578,9.864709854125977,0.54931640625,-4.241943359375,0.48828125
0.0074999,0.333991140127182,-0.13048399984836578,9.864709854125977,0.54931640625,-4.241943359375,0.48828125
0.012499900000000001,0.333991140127182,-0.13048399984836578,9.864709854125977,0.54931640625,-4.241943359375,0.48828125
0.0174999,0.46567222476005554,-0.14425064623355865,9.864110946655273,-1.739501953125,-0.9765625,-1.739501953125
0.0224999,0.5530605912208557,-0.1430535465478897,9.840168952941895,-1.953125,2.105712890625,-0.732421875
0.0274999,0.6440402865409851,-0.2082955539226532,9.818022727966309,-0.885009765625,3.0517578125,-2.227783203125
0.0324999,0.48482584953308105,-0.29807811975479126,9.786897659301758,-1.52587890625,2.44140625,-1.922607421875
0.0374999,0.36152446269989014,-0.3076549172401428,9.783905029296875,-2.62451171875,0.640869140625,-1.708984375
0.0424999,0.23163901269435883,-0.33339259028434753,9.767744064331055,-2.777099609375,-0.213623046875,-3.692626953125
0.0474999,0.19692309200763702,-0.5279214978218079,9.742006301879883,-1.739501953125,0.244140625,-9.552001953125
0.0524999,0.43095630407333374,-0.4106055796146393,9.73661994934082,1.129150390625,0.335693359375,-24.658203125
0.0574999,0.4878185987472534,-0.3944447338581085,9.737217903137207,-0.396728515625,6.89697265625,-6.28662109375
0.0624999,0.49978959560394287,-0.15143325924873352,9.75936508178711,-6.16455078125,9.735107421875,3.753662109375
0.0674999,0.28969839215278625,0.047884032130241394,9.759963035583496,-8.941650390625,0.91552734375,-4.730224609375
0.0724999,-0.14185644686222076,0.013766659423708916,9.828198432922363,-5.889892578125,-6.866455078125,1.15966796875
0.0774999,-0.4411316514015198,-0.1041477769613266,9.748590469360352,-6.40869140625,-11.53564453125,6.65283203125
0.0824999,-0.49320554733276367,-0.2645592987537384,9.821015357971191,-7.32421875,-16.265869140625,1.52587890625
0.0874999,-0.3208230137825012,-0.40940847992897034,9.855731010437012,-4.8828125,-14.5263671875,3.47900390625
0.0924999,0.34177228808403015,-0.6536170840263367,9.92097282409668,0.244140625,-7.843017578125,7.4462890625
0.0974999,0.5524620413780212,-0.6967126727104187,9.929951667785645,2.655029296875,-6.89697265625,6.9580078125
0.1024999,0.6147112846374512,-0.6560112833976746,9.927556991577148,4.058837890625,-6.561279296875,7.26318359375
0.1074999,0.5997475385665894,-0.5482721924781799,9.920374870300293,4.486083984375,-6.622314453125,6.317138671875
0.1124999,0.5620388388633728,-0.4225766062736511,9.90241813659668,4.21142578125,-6.561279296875,5.462646484375
0.1174999,0.5560533404350281,-0.3363853394985199,9.856928825378418,3.509521484375,-5.767822265625,4.852294921875
0.1224999,0.6051344871520996,-0.30226796865463257,9.817423820495605,4.241943359375,-3.72314453125,3.7841796875
0.1274999,0.7116764783859253,-0.30885201692581177,9.767744064331055,4.2724609375,-0.79345703125,1.495361328125
0.1324999,0.8487445116043091,-0.3100491166114807,9.723451614379883,3.72314453125,2.5634765625,-1.190185546875
0.1374999,0.9433154463768005,-0.2861070930957794,9.674968719482422,2.99072265625,7.01904296875,-3.173828125
0.1424999,0.9133879542350769,-0.20290859043598175,9.59476375579834,-1.0986328125,9.613037109375,-1.77001953125
0.1474999,0.9379284977912903,-0.30286651849746704,9.756970405578613,3.2958984375,14.404296875,-6.591796875
0.1524999,0.8481459617614746,-0.43993455171585083,9.913790702819824,8.575439453125,20.263671875,-0.762939453125
0.1574999,0.5770025849342346,-0.5428852438926697,9.9586820602417,8.026123046875,14.617919921875,-5.0048828125
0.1624999,0.21128830313682556,-0.4495113790035248,9.91977596282959,5.2490234375,8.514404296875,-6.103515625
0.1674999,-0.02693476900458336,-0.22685061395168304,9.869498252868652,1.8310546875,6.683349609375,-4.45556640625
0.1724999,-0.05925649031996727,0.0005985504249110818,9.837176322937012,-1.129150390625,5.859375,-6.988525390625
0.17749990000000002,0.11552023142576218,0.07422025501728058,9.768941879272461,-1.739501953125,4.82177734375,-12.0849609375
0.1824999,0.35673606395721436,0.0005985504249110818,9.730035781860352,-0.762939453125,7.75146484375,-14.190673828125
0.1874999,0.6111199855804443,-0.13048399984836578,9.726444244384766,-0.67138671875,10.528564453125,-14.984130859375
0.1924999,0.6542156338691711,-0.35075053572654724,9.793481826782227,-1.708984375,13.18359375,-16.448974609375
0.1974999,0.6739677786827087,-0.6518214344978333,9.709086418151855,-0.6103515625,10.31494140625,-30.303955078125
0.2024999,0.6374561786651611,-0.4818331003189087,9.713275909423828,-5.859375,-1.28173828125,-57.67822265625
0.20749990000000001,-0.13108254969120026,-0.09576806426048279,9.855133056640625,-10.345458984375,11.016845703125,2.593994140625
0.2124999,-0.8583213090896606,0.1735796183347702,9.79647445678711,-14.6484375,-6.439208984375,7.354736328125
0.2174999,-1.535880446434021,0.06165069341659546,9.849745750427246,-7.99560546875,-24.932861328125,11.260986328125
0.2224999,-1.754351258277893,-0.18315643072128296,9.724050521850586,-5.9814453125,-29.449462890625,11.04736328125
0.2274999,-1.4065934419631958,-0.5009866952896118,9.695918083190918,-9.674072265625,-27.557373046875,14.46533203125
0.2324999,-0.7493851184844971,-0.7092822790145874,9.84495735168457,1.8310546875,-23.834228515625,24.4140625
0.2374999,0.0035913025494664907,-0.922366201877594,10.011354446411133,8.514404296875,-18.310546875,24.505615234375
0.2424999,0.9181763529777527,-0.8762778043746948,10.185532569885254,13.458251953125,-6.591796875,29.693603515625
0.2474999,1.2018892765045166,-0.7128735780715942,10.153809547424316,16.204833984375,2.197265625,27.313232421875
0.2524999,1.4257471561431885,-0.5261258482933044,10.094552993774414,15.594482421875,5.889892578125,18.49365234375
0.2574999,1.622071623802185,-0.36990416049957275,9.962871551513672,13.85498046875,6.378173828125,6.40869140625
0.2624999,1.7812861204147339,-0.23403321206569672,9.706093788146973,10.25390625,11.3525390625,-13.153076171875
0.2674999,1.7274165153503418,-0.1999158412218094,9.604938507080078,10.284423828125,17.059326171875,-16.17431640625
0.2724999,1.6166846752166748,-0.17298106849193573,9.576807022094727,9.490966796875,19.8974609375,-22.003173828125
0.2774999,1.4790180921554565,-0.14484919607639313,9.561842918395996,6.28662109375,17.578125,-35.003662109375
0.2824999,1.3455413579940796,-0.09217676520347595,9.529520988464355,2.13623046875,14.09912109375,-49.9267578125
0.28749990000000003,1.2084733247756958,-0.08738835901021957,9.466673851013184,-4.21142578125,13.275146484375,-61.5234375
0.2924999,1.0779893398284912,-0.08200141042470932,9.439140319824219,-8.30078125,15.19775390625,-68.328857421875
0.2974999,0.8643068075180054,-0.10773907601833344,9.421183586120605,-12.5732421875,16.326904296875,-69.122314453125
0.3024999,0.4950011968612671,-0.1430535465478897,9.485228538513184,-16.9677734375,14.16015625,-63.873291015625
0.3074999,-0.16819266974925995,-0.14065934717655182,9.619902610778809,-21.148681640625,8.7890625,-51.971435546875
0.3124999,-1.0869675874710083,-0.11133038252592087,9.790489196777344,-19.59228515625,-2.685546875,-35.400390625
0.3174999,-2.07397723197937,-0.0628477931022644,9.965266227722168,-14.09912109375,-13.275146484375,-11.810302734375
0.3224999,-2.6623523235321045,-0.2190694510936737,10.044873237609863,-14.190673828125,-43.731689453125,28.350830078125
0.3274999,-1.6956933736801147,-0.5267243981361389,10.071807861328125,-1.28173828125,-33.87451171875,34.393310546875
0.3324999,-0.4884171485900879,-0.9487023949623108,10.123882293701172,12.420654296875,-19.8974609375,43.0908203125
0.3374999,0.5985504388809204,-1.2988544702529907,10.180744171142578,18.798828125,-6.8359375,49.49951171875
0.3424999,1.4101848602294922,-1.4508862495422363,10.20648193359375,25.390625,6.65283203125,52.093505859375
0.34749990000000003,1.8800468444824219,-1.348534107208252,10.228628158569336,29.541015625,16.021728515625,46.2646484375
0.35249990000000003,2.0937294960021973,-0.9911994934082031,10.24000072479248,29.693603515625,16.05224609375,34.36279296875
0.3574999,2.188300371170044,-0.5506663918495178,10.155006408691406,26.7333984375,10.650634765625,14.312744140625
0.3624999,2.2673089504241943,-0.17477671802043915,9.947309494018555,20.172119140625,5.4931640625,-10.92529296875
0.3674999,2.3983914852142334,0.08259996026754379,9.655217170715332,14.617919921875,8.575439453125,-33.50830078125
0.3724999,2.5468320846557617,0.20350714027881622,9.329007148742676,8.148193359375,12.969970703125,-52.3681640625
0.3774999,2.5564088821411133,0.39205053448677063,8.844181060791016,-13.85498046875,17.76123046875,-90.118408203125
0.3824999,2.188300371170044,0.22864626348018646,8.85555362701416,-19.439697265625,22.613525390625,-96.5576171875
0.3874999,1.5951368808746338,0.23163901269435883,9.040505409240723,-16.815185546875,25.421142578125,-91.278076171875
0.3924999,0.6985083222389221,0.08379705995321274,9.369708061218262,-27.801513671875,22.308349609375,-79.132080078125
0.3974999,-0.4183867573738098,0.12988543510437012,9.815628051757812,-34.423828125,9.246826171875,-71.075439453125
0.4024999,-1.711255669593811,0.14784196019172668,10.10173511505127,-29.571533203125,-7.9345703125,-56.488037109375
0.4074999,-2.9951462745666504,0.14185644686222076,10.393828392028809,-22.88818359375,-19.8974609375,-18.61572265625
0.41249990000000003,-3.8756139278411865,0.11133038252592087,10.338761329650879,-14.70947265625,-24.4140625,19.22607421875
0.41749990000000003,-4.125209331512451,-0.06404489278793335,10.272920608520508,-15.960693359375,-44.5556640625,32.562255859375
0.4224999,-3.485957622528076,-0.35015198588371277,10.09814453125,-16.448974609375,-50.6591796875,31.25
0.4274999,-2.208651065826416,-0.750582218170166,9.945513725280762,1.556396484375,-38.909912109375,39.4287109375
0.4324999,-0.6518214344978333,-1.303044319152832,9.964667320251465,18.06640625,-26.763916015625,49.346923828125
0.4374999,2.5546131134033203,0.002394201699644327,9.860519409179688,16.143798828125,7.659912109375,-13.97705078125
0.4424999,2.6192567348480225,0.24899697303771973,9.503783226013184,7.232666015625,8.331298828125,-38.6962890625
0.4474999,2.7096378803253174,0.3363853394985199,9.083003044128418,-1.678466796875,14.7705078125,-56.915283203125
0.4524999,2.7222073078155518,0.37648820877075195,8.842385292053223,-12.8173828125,20.111083984375,-73.760986328125
0.4574999,2.5456349849700928,0.23762452602386475,8.853757858276367,-16.54052734375,28.86962890625,-82.1533203125
0.4624999,2.056619167327881,0.25079262256622314,9.05247688293457,-13.519287109375,34.0576171875,-80.13916015625
0.4674999,1.1737574338912964,0.22086510062217712,9.517550468444824,-23.86474609375,28.900146484375,-72.08251953125
0.47249990000000003,-0.03770867735147476,0.5309142470359802,10.056844711303711,-25.81787109375,14.46533203125,-65.36865234375
0.47749990000000003,-2.8215668201446533,0.3058592677116394,10.439916610717773,-38.63525390625,-21.881103515625,-32.623291015625
0.4824999,-2.5061306953430176,-0.9373299479484558,9.855133056640625,0.8544921875,-42.694091796875,43.5791015625
0.4874999,-0.8146271109580994,-1.07379949092865,9.91977596282959,10.31494140625,-33.3251953125,43.701171875
0.4924999,0.7894880175590515,-1.2599486112594604,9.903017044067383,17.76123046875,-16.90673828125,46.93603515625
0.4974999,1.9776105880737305,-1.45806884765625,9.931747436523438,27.496337890625,5.523681640625,51.8798828125
0.5024999,2.5689783096313477,-1.3976151943206787,9.924564361572266,28.99169921875,19.83642578125,47.05810546875
0.5074999,2.7108349800109863,-1.0307037830352783,10.00836181640625,25.421142578125,19.927978515625,33.8134765625
0.5124999,2.7108349800109863,-1.0307037830352783,10.00836181640625,25.421142578125,19.927978515625,33.8134765625
0.5174999,2.386420488357544,0.4315548539161682,9.581595420837402,3.448486328125,14.6484375,-28.656005859375
0.5224999,2.386420488357544,0.4315548539161682,9.581595420837402,3.448486328125,14.6484375,-28.656005859375
0.5274999,2.3127987384796143,0.5117605924606323,9.339780807495117,-0.762939453125,23.37646484375,-38.330078125
0.5324999,2.234987258911133,0.42856210470199585,9.225458145141602,-5.096435546875,27.77099609375,-49.31640625
0.5374999,2.0159177780151367,0.11013327538967133,9.28650951385498,-9.21630859375,30.3955078125,-62.43896484375
0.5424999,1.5999252796173096,-0.18315643072128296,9.422380447387695,-6.622314453125,30.3955078125,-68.511962890625
0.5474999,0.882861852645874,-0.1256955862045288,9.692925453186035,-15.045166015625,24.59716796875,-64.8193359375
0.5524999,-0.0933738648891449,-0.17836803197860718,9.9185791015625,-15.228271484375,10.406494140625,-60.211181640625
0.5574999,-1.2407950162887573,-0.03890577703714371,10.052056312561035,-26.763916015625,-5.2490234375,-56.854248046875
0.5624999,-3.2106244564056396,-0.17178396880626678,9.995792388916016,-13.0615234375,-25.543212890625,11.962890625
0.5674999000000001,-3.2106244564056396,-0.17178396880626678,9.995792388916016,-13.0615234375,-25.543212890625,11.962890625
0.5724999000000001,-3.490147590637207,-0.4878185987472534,9.872490882873535,-2.9296875,-37.322998046875,37.2314453125
0.5774999000000001,-2.1499931812286377,-0.6200982332229614,9.90361499786377,4.45556640625,-41.595458984375,43.64013671875
0.5824999,-0.7469909191131592,-0.6536170840263367,10.035895347595215,7.110595703125,-32.501220703125,41.50390625
0.5874999,0.6572083830833435,-0.9385270476341248,9.998785018920898,11.71875,-20.69091796875,38.57421875
0.5924999,1.7345991134643555,-1.1887211799621582,9.97065258026123,21.148681640625,-3.72314453125,39.12353515625
0.5974999,2.344521999359131,-1.256955862045288,9.893440246582031,23.62060546875,12.359619140625,39.794921875
0.6024999,2.5492262840270996,-1.0522516965866089,9.874286651611328,22.613525390625,19.287109375,31.402587890625
0.6074999,2.496553897857666,-0.5985504388809204,9.841964721679688,18.096923828125,17.27294921875,15.44189453125
0.6124999,2.3546974658966064,-0.07242459803819656,9.770736694335938,10.284423828125,11.474609375,-5.218505859375
0.6174999,2.2643163204193115,0.24839842319488525,9.620500564575195,3.814697265625,13.946533203125,-23.49853515625
0.6224999,2.1787235736846924,0.26755204796791077,9.436745643615723,1.556396484375,24.444580078125,-32.012939453125
0.6274999,2.100912094116211,0.3016694188117981,9.361329078674316,-0.762939453125,29.876708984375,-39.459228515625
0.6324999,1.902193307876587,0.03651157766580582,9.366715431213379,-6.103515625,29.72412109375,-53.16162109375
0.6374999,-2.3259668350219727,-0.047884032130241394,10.112509727478027,-31.402587890625,-12.87841796875,-34.332275390625
0.6424999,-2.718017578125,-0.5554547905921936,9.81024169921875,-16.2353515625,-47.42431640625,35.09521484375
0.6474999,-1.7483657598495483,-0.933738648891449,9.922768592834473,6.866455078125,-41.168212890625,44.586181640625
0.6524999,-0.444722980260849,-0.9846154451370239,10.000580787658691,6.9580078125,-31.524658203125,41.229248046875
0.6574999,0.7793126702308655,-1.1522095203399658,9.993996620178223,10.711669921875,-18.61572265625,38.299560546875
0.6624999,1.692102074623108,-1.157596468925476,9.941324234008789,18.73779296875,-2.838134765625,39.886474609375
0.6674999,2.1966800689697266,-1.0911574363708496,9.852738380432129,20.965576171875,10.55908203125,39.154052734375
0.6724999,2.2906525135040283,-0.3016694188117981,9.770736694335938,13.641357421875,13.824462890625,15.106201171875
0.6774999,2.2415714263916016,0.14484919607639313,9.68694019317627,3.84521484375,8.209228515625,-7.659912109375
0.6824999,2.258330821990967,0.333991140127182,9.563039779663086,-1.03759765625,14.495849609375,-26.18408203125
0.6874999,2.2673089504241943,0.1933317929506302,9.430760383605957,1.861572265625,28.80859375,-30.76171875
0.6924999000000001,2.210446834564209,0.10055647045373917,9.445125579833984,0.946044921875,33.99658203125,-35.369873046875
0.6974999000000001,1.9255367517471313,-0.24181437492370605,9.5007905960083,-3.631591796875,34.48486328125,-47.2412109375
0.7024999000000001,1.371279001235962,-0.49619829654693604,9.66539192199707,-3.265380859375,29.815673828125,-58.685302734375
0.7074999,0.4812345504760742,-0.090979665517807,9.808445930480957,-9.46044921875,16.021728515625,-54.87060546875
0.7124999,-0.5476736426353455,-0.2753331959247589,10.087369918823242,-16.29638671875,4.94384765625,-46.661376953125
0.7174999,-1.6531962156295776,0.568622887134552,10.287884712219238,-23.13232421875,-4.8828125,-38.543701171875
0.7224999,-3.022679567337036,0.4668693244457245,10.085575103759766,-14.556884765625,-29.144287109375,28.717041015625
0.7274999,-3.022679567337036,0.4668693244457245,10.085575103759766,-14.556884765625,-29.144287109375,28.717041015625
0.7324999,-2.1338322162628174,-0.768538773059845,9.639056205749512,-10.711669921875,-44.61669921875,36.2548828125
0.7374999,-0.9247604012489319,-1.1875240802764893,9.734824180603027,9.46044921875,-36.31591796875,42.816162109375
0.7424999,0.3860650360584259,-1.391629695892334,9.781511306762695,12.3291015625,-27.740478515625,45.59326171875
0.7474999,1.4359225034713745,-1.3820528984069824,9.768941879272461,13.3056640625,-15.106201171875,43.731689453125
0.7524999,1.9913772344589233,-1.2443863153457642,9.779715538024902,20.32470703125,1.64794921875,46.173095703125
0.7574999,2.141014814376831,-1.0007762908935547,9.768342971801758,20.050048828125,16.29638671875,37.65869140625
0.7624999,2.036867141723633,-0.5398924946784973,9.803058624267578,15.625,15.93017578125,21.514892578125
0.7674999,1.9979612827301025,-0.040701430290937424,9.779715538024902,7.537841796875,10.040283203125,-0.48828125
0.7724999,2.1086931228637695,0.28730419278144836,9.719860076904297,-0.213623046875,13.519287109375,-23.681640625
0.7774999,2.2888567447662354,0.32381579279899597,9.627683639526367,1.190185546875,29.693603515625,-34.1796875
0.7824999,2.3481132984161377,0.1041477769613266,9.536105155944824,3.35693359375,38.726806640625,-39.1845703125
0.7874999,2.121262788772583,-0.08200141042470932,9.59835433959961,1.495361328125,40.22216796875,-46.051025390625
0.7924999,0.6548141837120056,-0.38486793637275696,9.783905029296875,-9.94873046875,18.5546875,-66.5283203125
0.7974999,-0.44352585077285767,-0.24899697303771973,9.976638793945312,-14.22119140625,3.60107421875,-50.445556640625
0.8024999,-0.8918401598930359,-1.0618284940719604,9.670180320739746,9.09423828125,-38.4521484375,49.957275390625
0.8074999,0.3363853394985199,-1.413776159286499,9.744999885559082,17.51708984375,-34.36279296875,55.450439453125
0.8124999,1.2384008169174194,-1.2407950162887573,9.757569313049316,15.594482421875,-18.768310546875,51.788330078125
0.8174999000000001,1.6412252187728882,-1.128267526626587,9.778518676757812,21.331787109375,-0.946044921875,52.55126953125
0.8224999000000001,1.7088614702224731,-0.9103952050209045,9.795876502990723,22.94921875,12.054443359375,46.2646484375
0.8274999000000001,1.7663222551345825,-0.040701430290937424,9.815030097961426,10.772705078125,10.162353515625,9.70458984375
0.8324999000000001,2.1057004928588867,0.3250128924846649,9.765350341796875,0.701904296875,9.246826171875,-18.73779296875
0.8374999,2.5486276149749756,0.45848962664604187,9.606734275817871,-1.46484375,25.177001953125,-38.665771484375
0.8424999,2.8161797523498535,0.345363587141037,9.473855972290039,0.091552734375,43.060302734375,-49.285888671875
0.8474999,2.629431962966919,0.06464344263076782,9.50857162475586,-3.11279296875,49.102783203125,-55.7861328125
0.8524999,1.9578584432601929,-0.2388216257095337,9.597756385803223,2.044677734375,40.069580078125,-62.042236328125
0.8574999,0.7882909178733826,-0.5195417404174805,9.806051254272461,-11.1083984375,20.3857421875,-66.2841796875
0.8624999,-0.5829881429672241,-0.18974047899246216,10.056844711303711,-14.495849609375,3.875732421875,-53.28369140625
0.8674999,-1.945288896560669,0.013766659423708916,10.125677108764648,-22.4609375,-9.735107421875,-49.530029296875
0.8724999,-2.9664158821105957,-0.1322796493768692,10.313023567199707,-28.350830078125,-16.7236328125,-29.266357421875
0.8774999,-3.2579100131988525,0.08319851011037827,9.9772367477417,-28.594970703125,-25.238037109375,13.97705078125
0.8824999,1.4538789987564087,-1.3365631103515625,9.639056205749512,19.012451171875,-15.2587890625,60.1806640625
0.8874999,1.5478514432907104,-1.1881226301193237,9.688735961914062,25.146484375,3.326416015625,58.89892578125
0.8924999,1.3551181554794312,-0.8505401611328125,9.79647445678711,23.590087890625,11.016845703125,50.96435546875
0.8974999,1.2072762250900269,-0.4034229815006256,9.86770248413086,18.00537109375,10.80322265625,35.247802734375
0.9024999,1.4574702978134155,0.16400282084941864,9.914389610290527,10.43701171875,8.453369140625,10.986328125
0.9074999,1.9614497423171997,0.5261258482933044,9.836577415466309,-0.244140625,7.415771484375,-19.378662109375
0.9124999,2.604891538619995,0.6428431272506714,9.636063575744629,-3.11279296875,24.169921875,-41.412353515625
0.9174999,2.9251158237457275,0.5590460896492004,9.48343276977539,-3.7841796875,45.0439453125,-56.976318359375
0.9224999,2.694075345993042,0.10175357013940811,9.480440139770508,-4.425048828125,51.94091796875,-65.826416015625
0.9274999,-2.0829553604125977,-0.07062894850969315,10.113107681274414,-24.993896484375,-10.8642578125,-53.741455078125
0.9324999,-2.958634853363037,-0.3944447338581085,10.211270332336426,-27.40478515625,-16.05224609375,-23.345947265625
0.9374999,-3.0328550338745117,0.047884032130241394,9.999382972717285,-28.1982421875,-33.111572265625,26.763916015625
0.9424999000000001,-2.434903144836426,-0.823006808757782,10.035296440124512,-10.25390625,-56.21337890625,59.967041015625
0.9474999000000001,-1.217451572418213,-1.0648212432861328,9.70549488067627,-3.96728515625,-39.581298828125,57.67822265625
0.9524999000000001,0.12330138683319092,-1.4233529567718506,9.588179588317871,15.350341796875,-41.32080078125,65.91796875
0.9574999000000001,1.183334231376648,-1.6633716821670532,9.57979965209961,23.01025390625,-36.1328125,71.197509765625
0.9624999,1.613093376159668,-1.5209165811538696,9.553462982177734,25.5126953125,-10.25390625,71.624755859375
0.9674999,1.4945803880691528,-1.2910733222961426,9.66539192199707,28.594970703125,8.48388671875,70.068359375
0.9724999,1.1563993692398071,-0.8146271109580994,9.830592155456543,25.054931640625,15.13671875,56.884765625
0.9774999,1.3281834125518799,0.3932476341724396,9.985616683959961,9.27734375,8.941650390625,8.97216796875
0.9824999,2.0147206783294678,0.7140706777572632,9.861717224121094,-2.105712890625,9.429931640625,-23.86474609375
0.9874999,2.73537540435791,0.8032546639442444,9.595361709594727,-4.5166015625,30.57861328125,-50.262451171875
0.9924999,3.0639796257019043,0.557250440120697,9.45410442352295,-7.293701171875,50.6591796875,-67.413330078125
0.9974999,2.758718967437744,0.09157821536064148,9.461286544799805,-2.86865234375,53.436279296875,-73.1201171875
1.0024999,1.8267759084701538,-0.1346738487482071,9.673172950744629,-5.340576171875,38.055419921875,-76.59912109375
1.0074999000000002,0.3902548849582672,-0.33099839091300964,9.907805442810059,-14.678955078125,18.310546875,-70.49560546875
1.0124999000000001,-1.149815320968628,-0.25019407272338867,10.125079154968262,-14.16015625,-2.86865234375,-66.375732421875
1.0174999000000002,-2.5121161937713623,-0.04908113554120064,10.214262962341309,-29.693603515625,-15.289306640625,-55.0537109375
1.0224999000000001,-3.2620997428894043,-0.375291109085083,10.062829971313477,-30.21240234375,-20.3857421875,-12.0849609375
1.0274999,-3.1890766620635986,-0.3423708379268646,9.984419822692871,-17.27294921875,-45.22705078125,46.539306640625
1.0324999000000001,-2.293046712875366,-1.0971429347991943,9.906607627868652,-12.6953125,-51.57470703125,55.7861328125
1.0374999,0.5303156971931458,-1.679532527923584,9.62947940826416,20.20263671875,-41.9921875,70.49560546875
1.0424999000000001,1.4969745874404907,-1.701080322265625,9.565434455871582,24.322509765625,-27.862548828125,71.6552734375
1.0474999,1.7998411655426025,-1.568800687789917,9.579200744628906,29.266357421875,-4.8828125,72.6318359375
1.0524999000000002,1.5406688451766968,-1.2671312093734741,9.685144424438477,28.594970703125,12.847900390625,67.68798828125
1.0574999,1.158793568611145,-0.7092822790145874,9.876680374145508,24.810791015625,18.00537109375,49.957275390625
1.0624999000000002,1.0630255937576294,-0.06344634294509888,9.956886291503906,17.333984375,14.068603515625,25.177001953125
1.0674999,1.455674648284912,0.5261258482933044,9.980828285217285,5.889892578125,7.568359375,-2.3193359375
1.0724999000000002,2.1966800689697266,0.760757565498352,9.776124000549316,-2.227783203125,14.6484375,-33.203125
1.0774999,2.893991231918335,0.7745242714881897,9.533112525939941,-3.326416015625,38.970947265625,-58.16650390625
1.0824999000000002,3.119046211242676,0.4076128304004669,9.418789863586426,-7.598876953125,52.6123046875,-71.258544921875
1.0874999,2.714426279067993,-0.0454898327589035,9.455301284790039,-0.885009765625,52.06298828125,-74.798583984375
1.0924999000000002,1.6519991159439087,-0.5524620413780212,9.663596153259277,-6.8359375,35.0341796875,-77.20947265625
1.0974999,-1.4329297542572021,-0.22505496442317963,10.128071784973145,-20.416259765625,-7.110595703125,-66.009521484375
1.1024999000000002,-2.874837636947632,-0.2017114907503128,10.24239444732666,-32.71484375,-19.378662109375,-48.675537109375
1.1074999,-3.5930981636047363,0.020350715145468712,9.953893661499023,-30.94482421875,-27.099609375,1.495361328125
1.1124999000000002,-3.5386300086975098,-0.6153098344802856,9.95209789276123,-11.41357421875,-51.055908203125,54.01611328125
1.1174999,-3.5386300086975098,-0.6153098344802856,9.95209789276123,-11.41357421875,-51.055908203125,54.01611328125
1.1224999000000002,-1.0947487354278564,-1.1659762859344482,9.672574996948242,10.25390625,-45.10498046875,62.1337890625
1.1274999,-1.0947487354278564,-1.1659762859344482,9.672574996948242,10.25390625,-45.10498046875,62.1337890625
1.1324999000000002,0.4016273319721222,-1.6304513216018677,9.697713851928711,22.552490234375,-41.015625,70.4345703125
1.1374999000000001,1.3515268564224243,-1.4993687868118286,9.68933391571045,23.956298828125,-21.392822265625,69.427490234375
1.1424999000000002,1.7052701711654663,-1.3569138050079346,9.71926212310791,27.52685546875,0.885009765625,69.03076171875
1.1474999000000001,1.599326729774475,-1.0067617893218994,9.804854393005371,28.13720703125,16.326904296875,63.018798828125
1.1524999000000002,1.4437036514282227,-0.49559974670410156,9.892242431640625,23.62060546875,18.37158203125,47.9736328125
1.1574999000000001,2.0608091354370117,0.6278793811798096,9.880271911621094,3.631591796875,9.27734375,-8.30078125
1.1624999,2.722805976867676,0.8224082589149475,9.62828254699707,-4.974365234375,19.775390625,-42.8466796875
1.1674999000000001,3.200449228286743,0.8451532125473022,9.453505516052246,-7.9345703125,42.388916015625,-66.83349609375
1.1724999,3.1483752727508545,0.3866635859012604,9.408015251159668,-9.27734375,54.351806640625,-75.1953125
1.1774999000000002,2.495955228805542,0.03890577703714371,9.544485092163086,-1.373291015625,50.048828125,-77.178955078125
1.1824999,1.2090718746185303,-0.5638344883918762,9.812037467956543,-12.451171875,29.35791015625,-75.531005859375
1.1874999000000002,-0.3058592677116394,-0.2687491476535797,10.066421508789062,-11.627197265625,5.218505859375,-66.680908203125
1.1924999,-1.8956091403961182,-0.20111294090747833,10.204686164855957,-26.580810546875,-10.467529296875,-66.95556640625
1.1974999000000002,-3.154360771179199,-0.37169981002807617,10.248978614807129,-32.196044921875,-19.866943359375,-38.39111328125
1.2024999,1.6956933736801147,-1.6023194789886475,9.585784912109375,26.30615234375,-17.120361328125,66.89453125
1.2074999000000002,1.6956933736801147,-1.6023194789886475,9.585784912109375,26.30615234375,-17.120361328125,66.89453125
1.2124999,1.8046295642852783,-1.3838485479354858,9.676764488220215,28.50341796875,3.96728515625,64.39208984375
1.2174999000000002,1.5275006294250488,-0.9391255974769592,9.856329917907715,26.824951171875,17.39501953125,54.351806640625
1.2224999,1.2755109071731567,-0.39205053448677063,9.975440979003906,21.331787109375,16.510009765625,35.64453125
1.2274999000000002,1.4389152526855469,0.23702596127986908,10.001777648925781,11.29150390625,10.6201171875,11.199951171875
1.2324999,1.9979612827301025,0.7044938206672668,9.905410766601562,1.922607421875,11.566162109375,-21.54541015625
1.2374999000000002,2.721010208129883,0.8242039084434509,9.64923095703125,-3.387451171875,30.70068359375,-50.23193359375
1.2424999,3.18249249458313,0.7757213711738586,9.512762069702148,-4.913330078125,49.957275390625,-67.291259765625
1.2474999000000002,3.0603883266448975,0.2406172752380371,9.489418029785156,-5.035400390625,55.48095703125,-74.249267578125
1.2524999,2.33913516998291,-0.10175357013940811,9.61571216583252,0.30517578125,44.86083984375,-80.01708984375
1.2574999000000002,-1.8997989892959595,-0.15741875767707825,10.004770278930664,-28.289794921875,-13.702392578125,-67.32177734375
1.2624999000000001,-3.0789434909820557,-0.5704185366630554,10.052056312561035,-28.9306640625,-21.697998046875,-31.8603515625
1.2674999000000002,-3.5398271083831787,-0.08259996026754379,9.838972091674805,-23.193359375,-30.76171875,27.130126953125
1.2724999000000001,-3.312378168106079,-0.7416039705276489,9.932345390319824,-6.53076171875,-51.20849609375,60.150146484375
1.2774999000000002,-2.3247697353363037,-1.1019313335418701,9.700108528137207,-6.89697265625,-46.142578125,50.6591796875
1.2824999000000001,1.3521254062652588,-1.404199242591858,9.783905029296875,20.6298828125,-14.190673828125,52.91748046875
1.2874999,1.7675193548202515,-1.2312182188034058,9.782109260559082,24.139404296875,5.096435546875,51.33056640625
1.2924999000000001,1.8076223134994507,-0.8032546639442444,9.862914085388184,22.705078125,17.059326171875,44.25048828125
1.2974999,1.8046295642852783,-0.23582886159420013,9.90122127532959,16.6015625,14.984130859375,27.34375
1.3024999000000002,2.914940595626831,0.36810851097106934,9.512163162231445,-1.0986328125,47.119140625,-57.67822265625
1.3074999,2.5468320846557617,-0.1801636815071106,9.53849983215332,-1.983642578125,46.32568359375,-64.94140625
1.3124999000000002,1.7621324062347412,-0.39205053448677063,9.61451530456543,0.335693359375,33.660888671875,-74.127197265625
1.3174999,0.5680243372917175,-0.4159925580024719,9.858723640441895,-15.07568359375,13.3056640625,-71.59423828125
1.3224999000000002,-0.7583633661270142,-0.3232172429561615,9.950302124023438,-14.7705078125,-1.312255859375,-63.385009765625
1.3274999,-1.9841946363449097,0.1604115068912506,10.162189483642578,-27.313232421875,-13.397216796875,-55.633544921875
1.3324999000000002,-3.0196869373321533,-0.3256114423274994,9.929352760314941,-28.167724609375,-20.93505859375,-18.24951171875
1.3374999,-3.3446998596191406,-0.09636662155389786,9.892242431640625,-11.962890625,-35.797119140625,43.731689453125
1.3424999000000002,-3.023876667022705,-1.1174936294555664,9.780912399291992,-6.683349609375,-49.6826171875,52.18505859375
1.3474999,-2.0440497398376465,-1.136048674583435,9.618106842041016,-0.8544921875,-40.1611328125,44.0673828125
1.3524999000000002,1.3910311460494995,-1.3215993642807007,9.81143856048584,19.287109375,-7.4462890625,46.905517578125
1.3574999,1.8656816482543945,-1.0869675874710083,9.848548889160156,23.25439453125,11.23046875,43.51806640625
1.3624999000000002,2.0027496814727783,-0.6338648796081543,9.893440246582031,20.843505859375,17.364501953125,37.353515625
1.3674999,2.1541829109191895,-0.09816227108240128,9.903017044067383,15.44189453125,15.838623046875,19.10400390625
1.3724999000000002,2.380434989929199,0.35015198588371277,9.872490882873535,6.4697265625,13.275146484375,-11.993408203125
1.3774999,2.675520420074463,0.48722004890441895,9.727043151855469,1.52587890625,23.712158203125,-36.102294921875
1.3824999000000002,2.8886044025421143,0.23762452602386475,9.551667213439941,5.615234375,40.252685546875,-44.61669921875
1.3874999000000001,2.8155810832977295,0.004189853090792894,9.473258018493652,2.13623046875,43.609619140625,-52.8564453125
1.3924999000000002,2.3026235103607178,-0.618302583694458,9.478046417236328,-0.030517578125,39.9169921875,-63.873291015625
1.3974999000000001,1.3856441974639893,-0.7559691667556763,9.517550468444824,-1.556396484375,27.587890625,-74.981689453125
1.4024999000000002,0.22026655077934265,-0.33937808871269226,9.916783332824707,-15.777587890625,8.36181640625,-66.253662109375
1.4074999000000001,-0.6153098344802856,-1.2449848651885986,9.851541519165039,10.894775390625,-32.1044921875,36.895751953125
1.4124999,0.7499836683273315,-1.0732009410858154,9.873088836669922,12.542724609375,-20.660400390625,49.652099609375
1.4174999000000001,1.8531121015548706,-1.2186486721038818,9.780912399291992,18.951416015625,-2.5634765625,46.20361328125
1.4224999,2.346317768096924,-1.1186907291412354,9.719860076904297,17.63916015625,13.24462890625,35.09521484375
1.4274999000000002,2.457049608230591,-0.7248445749282837,9.696516990661621,20.355224609375,19.012451171875,32.04345703125
1.4324999,2.4372973442077637,-0.27413609623908997,9.738415718078613,10.92529296875,17.120361328125,10.223388671875
1.4374999000000002,2.3918075561523438,0.1801636815071106,9.734225273132324,1.678466796875,12.8173828125,-18.768310546875
1.4424999,0.22206220030784607,-0.2537853717803955,9.954492568969727,-12.664794921875,8.575439453125,-59.478759765625
1.4474999000000002,-0.7326257228851318,-0.017956512048840523,9.835380554199219,-22.27783203125,1.068115234375,-63.3544921875
1.4524999,-1.7262194156646729,0.6536170840263367,10.326191902160645,-21.54541015625,-14.46533203125,-41.8701171875
1.4574999000000002,-2.5989060401916504,0.1322796493768692,10.01075553894043,-36.346435546875,-18.00537109375,-15.19775390625
1.4624999,-3.0538041591644287,0.48602294921875,9.96825885772705,-13.24462890625,-36.163330078125,43.304443359375
1.4674999000000002,-2.8658595085144043,-0.6560112833976746,9.806650161743164,-0.1220703125,-48.095703125,48.03466796875
1.4724999,-2.0213048458099365,-0.5303156971931458,9.658209800720215,-6.622314453125,-38.14697265625,31.67724609375
1.4774999000000002,-0.6368576288223267,-1.1797429323196411,9.785101890563965,7.50732421875,-32.77587890625,33.782958984375
1.4824999,2.072780132293701,-0.8176198601722717,9.680954933166504,19.04296875,13.275146484375,28.6865234375
1.4874999000000002,2.01232647895813,-0.4255693554878235,9.758167266845703,8.514404296875,11.53564453125,8.941650390625
1.4924999,1.9704279899597168,0.03651157766580582,9.807249069213867,0.579833984375,8.209228515625,-14.46533203125
1.4974999000000002,2.032677173614502,0.18555063009262085,9.785101890563965,0.79345703125,20.233154296875,-25.146484375
1.5024999,2.0482394695281982,0.025737667456269264,9.706093788146973,4.7607421875,32.012939453125,-27.679443359375
1.5074999000000002,1.911171555519104,-0.03232172131538391,9.691728591918945,4.57763671875,35.125732421875,-37.90283203125
1.5124999000000001,1.5616180896759033,-0.5398924946784973,9.64803409576416,1.556396484375,35.09521484375,-50.201416015625
1.5174999000000002,1.0348936319351196,-0.2519897222518921,9.640253067016602,-0.9765625,27.740478515625,-58.441162109375
1.5224999000000001,0.33937808871269226,-0.03232172131538391,9.9401273727417,-9.002685546875,11.016845703125,-53.497314453125
1.5274999000000002,-0.5764040350914001,0.09576806426048279,9.869498252868652,-23.37646484375,4.241943359375,-57.220458984375
1.5324999000000001,-1.5017629861831665,-1.0031704902648926,9.575610160827637,-3.60107421875,-38.604736328125,45.22705078125
1.5374999000000003,-0.32680854201316833,-1.5532383918762207,9.607931137084961,10.68115234375,-35.980224609375,43.487548828125
1.5424999000000001,0.6931213736534119,-1.5795745849609375,9.595361709594727,16.204833984375,-26.79443359375,52.8564453125
1.5474999,1.3628993034362793,-1.4951789379119873,9.582193374633789,21.3623046875,-13.580322265625,54.50439453125
1.5524999000000002,1.5658079385757446,-1.3174095153808594,9.585186958312988,23.25439453125,4.364013671875,48.095703125
1.5574999,1.5544354915618896,-0.8756792545318604,9.689932823181152,22.3388671875,13.763427734375,39.459228515625
1.5624999000000002,1.5705963373184204,-0.29209262132644653,9.82759952545166,11.53564453125,12.542724609375,19.4091796875
1.5674999,1.7621324062347412,0.24361002445220947,9.919178009033203,1.03759765625,4.974365234375,-6.591796875
1.5724999000000002,2.117072820663452,0.39205053448677063,9.834183692932129,-1.434326171875,16.387939453125,-28.289794921875
1.5774999,2.4809916019439697,0.016759412363171577,9.654019355773926,4.8828125,43.27392578125,-44.49462890625
1.5824999000000002,2.1092917919158936,-0.5225345492362976,9.600150108337402,-0.030517578125,42.205810546875,-53.192138671875
1.5874999,1.400607943534851,-0.28072014451026917,9.592369079589844,0.396728515625,31.097412109375,-63.720703125
1.5924999000000002,0.38965633511543274,-0.13706804811954498,9.907805442810059,-11.566162109375,10.284423828125,-60.85205078125
1.5974999,-0.8355764150619507,0.16220717132091522,9.886856079101562,-25.0244140625,2.899169921875,-60.394287109375
1.6024999000000002,-1.9231425523757935,0.6105214357376099,10.304045677185059,-19.34814453125,-10.19287109375,-44.677734375
1.6074999,-2.8209681510925293,0.09277531504631042,10.102932929992676,-32.928466796875,-18.98193359375,-13.7939453125
1.6124999000000002,-3.0657753944396973,0.12868833541870117,10.031106948852539,-12.908935546875,-41.9921875,45.41015625
1.6174999,-2.536058187484741,-0.9828197956085205,9.892242431640625,-4.8828125,-50.933837890625,53.8330078125
1.6224999000000002,-1.4712369441986084,-1.0055646896362305,9.673172950744629,-0.18310546875,-39.73388671875,45.41015625
1.6274999,-0.1215057373046875,-1.4622586965560913,9.68155288696289,11.260986328125,-36.834716796875,49.713134765625
1.6324999000000002,2.408566951751709,0.39863458275794983,9.780313491821289,-1.5869140625,20.751953125,-33.660888671875
1.6374999000000001,2.7676970958709717,0.11671733111143112,9.649829864501953,5.584716796875,41.839599609375,-43.060302734375
1.6424999000000002,2.7467479705810547,-0.30226796865463257,9.572616577148438,1.922607421875,48.004150390625,-48.614501953125
1.6474999000000001,2.1805191040039062,-0.7386112213134766,9.607333183288574,-0.18310546875,44.158935546875,-56.793212890625
1.6524999000000002,1.30543851852417,-0.16879121959209442,9.619902610778809,2.777099609375,25.146484375,-63.78173828125
1.6574999000000001,1.30543851852417,-0.16879121959209442,9.619902610778809,2.777099609375,25.146484375,-63.78173828125
1.6624999000000003,0.041299980133771896,-0.2777273952960968,10.021530151367188,-20.172119140625,6.103515625,-61.431884765625
1.6674999000000001,-3.1675288677215576,0.047884032130241394,9.995792388916016,-29.571533203125,-24.658203125,8.4228515625
1.6724999,-3.1675288677215576,0.047884032130241394,9.995792388916016,-29.571533203125,-24.658203125,8.4228515625
1.6774999000000002,-3.2345664501190186,-0.7757213711738586,10.04846477508545,-2.01416015625,-51.81884765625,56.0302734375
1.6824999,-1.138442873954773,-1.0516531467437744,9.75278091430664,4.638671875,-39.337158203125,44.158935546875
1.6874999000000002,-1.138442873954773,-1.0516531467437744,9.75278091430664,4.638671875,-39.337158203125,44.158935546875
1.6924999,0.24181437492370605,-1.268328309059143,9.75517463684082,13.85498046875,-35.400390625,54.74853515625
1.6974999000000002,1.225232720375061,-1.291671872138977,9.66958236694336,20.08056640625,-21.514892578125,61.370849609375
1.7024999,1.6292542219161987,-1.236605167388916,9.5624418258667,24.5361328125,2.349853515625,60.089111328125
1.7074999000000002,1.6723499298095703,-0.9534908533096313,9.59835433959961,24.7802734375,15.472412109375,52.825927734375
1.7124999,1.6202759742736816,-0.32680854201316833,9.739013671875,12.5732421875,11.810302734375,35.400390625
1.7174999000000002,1.79146146774292,0.24480712413787842,9.872490882873535,1.251220703125,3.7841796875,5.7373046875
1.7224999,2.183511972427368,0.4554968774318695,9.853935241699219,-3.997802734375,8.087158203125,-23.8037109375
1.7274999000000002,2.8592753410339355,-0.043095629662275314,9.608530044555664,4.302978515625,46.93603515625,-46.7529296875
1.7324999,2.557007312774658,-0.6063315868377686,9.568427085876465,-0.8544921875,49.13330078125,-53.7109375
1.7374999000000002,1.8237831592559814,-0.751779317855835,9.654618263244629,2.410888671875,36.163330078125,-61.126708984375
1.7424999,0.7757213711738586,-0.25498247146606445,9.849146842956543,-4.058837890625,14.404296875,-60.48583984375
1.7474999000000002,-0.6039373874664307,-0.25438392162323,10.11550235748291,-28.74755859375,5.4931640625,-58.258056640625
1.7524999,-1.8369512557983398,0.5518634915351868,10.237606048583984,-16.571044921875,-6.134033203125,-39.764404296875
1.7574999000000002,-2.874239206314087,0.06823474913835526,10.136451721191406,-31.524658203125,-17.242431640625,-14.95361328125
1.7624999000000001,-3.3004069328308105,0.31124621629714966,9.959280967712402,-11.1083984375,-42.6025390625,44.281005859375
1.7674999000000002,-2.829347848892212,-0.7266402244567871,9.861717224121094,-3.90625,-50.750732421875,49.591064453125
1.7724999000000001,-1.732803463935852,-0.6841431260108948,9.647436141967773,-4.302978515625,-39.031982421875,40.313720703125
1.7774999000000002,-0.28790274262428284,-1.1174936294555664,9.702502250671387,9.46044921875,-40.10009765625,51.33056640625
1.7824999000000001,0.9074024558067322,-1.3126211166381836,9.68694019317627,19.47021484375,-30.2734375,62.31689453125
1.7874999000000003,1.7058687210083008,-0.033518824726343155,9.80904483795166,5.06591796875,6.622314453125,16.693115234375
1.7924999000000001,2.034472942352295,0.35733461380004883,9.877877235412598,-2.9296875,4.08935546875,-14.556884765625
1.7974999,2.5552117824554443,0.2890998423099518,9.7605619430542,-0.30517578125,23.4375,-33.782958984375
1.8024999000000002,2.8880057334899902,0.05506663769483566,9.631275177001953,6.28662109375,44.73876953125,-44.403076171875
1.8074999,2.7718870639801025,-0.4321534037590027,9.567828178405762,-0.06103515625,50.750732421875,-53.863525390625
1.8124999000000002,2.1314380168914795,-0.7296329736709595,9.62947940826416,1.007080078125,42.29736328125,-59.814453125
1.8174999,1.1869255304336548,-0.0975637212395668,9.57860279083252,1.708984375,21.8505859375,-62.92724609375
1.8224999000000002,-0.13527239859104156,-0.29807811975479126,10.082581520080566,-24.0478515625,6.04248046875,-61.34033203125
1.8274999,-1.4419080018997192,0.7433996200561523,10.034099578857422,-20.5078125,-0.30517578125,-48.980712890625
1.8324999000000002,-2.604891538619995,0.1777694821357727,10.267534255981445,-24.23095703125,-12.603759765625,-27.03857421875
1.8374999,0.535702645778656,-1.4233529567718506,9.807847023010254,16.082763671875,-35.888671875,57.708740234375
1.8424999000000002,1.4107834100723267,-1.4317326545715332,9.592967987060547,19.8974609375,-15.411376953125,62.01171875
1.8474999,1.723825216293335,-1.3670891523361206,9.525930404663086,26.0009765625,5.950927734375,59.722900390625
1.8524999000000002,1.71245276927948,-0.9391255974769592,9.581595420837402,20.599365234375,14.16015625,47.454833984375
1.8574999,1.7148469686508179,-0.2495955228805542,9.725247383117676,8.209228515625,9.033203125,23.98681640625
1.8624999000000002,1.9267338514328003,0.2669534981250763,9.872490882873535,-1.495361328125,2.593994140625,-5.950927734375
1.8674999,2.363675594329834,0.35913026332855225,9.801861763000488,-2.13623046875,15.594482421875,-28.594970703125
1.8724999000000002,2.73537540435791,0.11611878126859665,9.663596153259277,5.462646484375,39.154052734375,-40.252685546875
1.8774999,2.7485435009002686,-0.2190694510936737,9.589975357055664,1.861572265625,49.072265625,-50.872802734375
1.8824999000000002,-1.0432734489440918,-0.010175357572734356,10.11550235748291,-27.435302734375,1.983642578125,-53.03955078125
1.8874999000000001,-2.1793220043182373,-0.05446808785200119,10.199897766113281,-17.39501953125,-7.537841796875,-33.111572265625
1.8924999000000002,-2.9981391429901123,0.13587094843387604,9.95329475402832,-27.64892578125,-19.71435546875,0.396728515625
1.8974999000000001,-3.178901195526123,-0.27413609623908997,9.944915771484375,-3.60107421875,-49.774169921875,52.978515625
1.9024999000000002,-2.4684219360351562,-0.7428010702133179,9.709086418151855,-8.880615234375,-44.586181640625,43.060302734375
1.9074999000000001,-1.2826935052871704,-0.6572083830833435,9.786299705505371,1.15966796875,-40.924072265625,44.61669921875
1.9124999000000003,0.10594342648983002,-1.0492589473724365,9.82640266418457,12.969970703125,-40.4052734375,55.0537109375
1.9174999000000001,1.1150994300842285,-1.158793568611145,9.675567626953125,18.6767578125,-22.8271484375,61.46240234375
1.9224999,1.544858694076538,-1.191115379333496,9.564237594604492,24.200439453125,-1.678466796875,63.5986328125
1.9274999000000002,1.6424223184585571,-0.9894038438796997,9.545681953430176,23.25439453125,12.39013671875,54.0771484375
1.9324999,1.6615760326385498,-0.4471171796321869,9.66299819946289,12.14599609375,12.5732421875,34.027099609375
1.9374999000000002,1.8501193523406982,0.10714052617549896,9.81263542175293,1.617431640625,4.302978515625,5.706787109375
1.9424999,2.2679076194763184,0.2645592987537384,9.791088104248047,-2.8076171875,8.72802734375,-21.484375
1.9474999000000002,2.7257986068725586,0.07422025501728058,9.671976089477539,3.082275390625,32.501220703125,-37.65869140625
1.9524999,2.855085611343384,-0.1538274586200714,9.593565940856934,3.326416015625,47.66845703125,-48.370361328125
1.9574999000000002,2.5085248947143555,-0.5207388401031494,9.600150108337402,-0.30517578125,49.102783203125,-50.811767578125
1.9624999,1.688510775566101,-0.7212532758712769,9.679159164428711,2.13623046875,36.865234375,-57.098388671875
1.9674999000000002,0.6643909811973572,-0.041299980133771896,9.687539100646973,-0.518798828125,14.70947265625,-61.431884765625
1.9724999,-0.6811503767967224,-0.4010287821292877,10.103530883789062,-24.59716796875,0.091552734375,-52.06298828125
1.9774999000000002,-1.8399440050125122,0.5500678420066833,9.975440979003906,-20.416259765625,-1.861572265625,-34.85107421875
1.9824999,-2.7545289993286133,-0.14784196019172668,10.02811336517334,-23.834228515625,-13.12255859375,-11.871337890625
1.9874999000000002,-3.158550500869751,0.08918401598930359,9.95209789276123,-9.82666015625,-37.811279296875,35.888671875
1.9924999,1.7836803197860718,0.009576806798577309,9.789292335510254,4.2724609375,4.669189453125,11.993408203125
1.9974999000000002,2.0596120357513428,0.2585737705230713,9.830592155456543,-2.86865234375,3.509521484375,-15.2587890625
2.0024999,2.7036523818969727,-0.11312603205442429,9.612719535827637,5.584716796875,41.9921875,-42.48046875
2.0074999,2.519897222518921,-0.4507084786891937,9.581595420837402,0.42724609375,48.126220703125,-45.928955078125
2.0124999000000003,1.8453309535980225,-0.5949591398239136,9.680954933166504,0.640869140625,42.41943359375,-50.048828125
2.0174999000000002,-0.27473464608192444,-0.3321954905986786,9.996390342712402,-10.101318359375,2.0751953125,-48.64501953125
2.0224999,-1.482010841369629,-0.2495955228805542,9.983820915222168,-22.88818359375,1.251220703125,-34.48486328125
2.0274999,-2.3122003078460693,-0.13048399984836578,10.002974510192871,-19.500732421875,-7.568359375,-9.063720703125
2.0324999000000004,-2.806602954864502,0.19572599232196808,9.870695114135742,-17.181396484375,-27.34375,19.195556640625
2.0374999000000003,-2.670133352279663,-0.34835633635520935,9.910199165344238,-2.5634765625,-47.7294921875,50.872802734375
2.0424999,-1.8495208024978638,-0.8026561141014099,9.609128952026367,-8.544921875,-38.970947265625,40.069580078125
2.0474999,-0.7493851184844971,-0.7846996188163757,9.82999324798584,10.711669921875,-41.68701171875,53.619384765625
2.0524999,0.3866635859012604,-1.2054805755615234,9.781511306762695,14.95361328125,-33.660888671875,56.243896484375
2.0574999000000003,1.1103110313415527,-1.0534487962722778,9.695918083190918,13.092041015625,-11.383056640625,52.490234375
2.0624999,1.447893500328064,-0.9588778018951416,9.660603523254395,20.660400390625,2.8076171875,53.436279296875
2.0674999,1.5765818357467651,-0.6745663285255432,9.64683723449707,16.143798828125,9.857177734375,43.426513671875
2.0724999,1.7513585090637207,-0.16819266974925995,9.73542308807373,7.049560546875,5.859375,22.3388671875
2.0774999000000003,2.5977089405059814,0.1107318252325058,9.68933391571045,-2.044677734375,18.4326171875,-32.440185546875
2.0824999,2.9263129234313965,-0.11911153793334961,9.565434455871582,5.523681640625,40.71044921875,-43.76220703125
2.0874999,2.8125884532928467,-0.3687070608139038,9.516353607177734,-0.06103515625,50.994873046875,-48.52294921875
2.0924999,2.099714994430542,-0.6266822814941406,9.628880500793457,0.91552734375,45.318603515625,-48.33984375
2.0974999000000003,1.0079588890075684,-0.8487445116043091,9.654618263244629,-0.701904296875,22.064208984375,-56.549072265625
2.1024999,-0.23343466222286224,-0.2537853717803955,9.923966407775879,-5.37109375,2.197265625,-48.248291015625
2.1074999,-1.5173252820968628,-0.5273229479789734,10.113107681274414,-19.59228515625,-2.197265625,-30.853271484375
2.1124999,-2.315192937850952,0.28790274262428284,9.973047256469727,-18.829345703125,-6.4697265625,-8.087158203125
2.1174999000000003,-2.759317398071289,-0.005386953707784414,10.045472145080566,-18.707275390625,-23.01025390625,10.650634765625
2.1224999,-2.601898670196533,-0.11432313174009323,9.97603988647461,-9.979248046875,-43.121337890625,45.013427734375
2.1274999,-1.820790410041809,-0.7721300721168518,9.712677955627441,-7.01904296875,-42.327880859375,49.62158203125
2.1324999,-0.8104372620582581,-1.0672154426574707,9.743802070617676,6.134033203125,-38.14697265625,49.041748046875
2.1374999000000003,2.7108349800109863,0.1759738177061081,9.723451614379883,-1.922607421875,20.3857421875,-31.829833984375
2.1424999000000002,3.0579941272735596,-0.06823474913835526,9.601945877075195,6.53076171875,42.266845703125,-43.02978515625
2.1474999,2.9269115924835205,-0.32860419154167175,9.561244010925293,0.579833984375,53.314208984375,-52.093505859375
2.1524999,2.1493945121765137,-0.5823895931243896,9.672574996948242,1.068115234375,46.051025390625,-51.08642578125
2.1574999000000004,1.0402805805206299,-0.7086837291717529,9.663596153259277,-0.823974609375,20.81298828125,-58.41064453125
2.1624999000000003,-2.604891538619995,-0.1933317929506302,9.962273597717285,-12.908935546875,-39.520263671875,39.4287109375
2.1674999,-1.88782799243927,-0.8110358119010925,9.77672290802002,-5.0048828125,-40.83251953125,49.346923828125
2.1724999,-0.943913996219635,-0.8373720645904541,9.77013874053955,8.48388671875,-36.163330078125,49.072265625
2.1774999000000004,0.09935937076807022,-1.1569979190826416,9.744999885559082,16.143798828125,-32.806396484375,49.98779296875
2.1824999000000003,0.8152256608009338,-0.9971849918365479,9.628880500793457,10.162353515625,-13.85498046875,46.0205078125
2.1874999,1.2737152576446533,-0.7978677153587341,9.68574333190918,18.73779296875,0.152587890625,47.05810546875
2.1924999,1.5556325912475586,-0.5165489912033081,9.687539100646973,11.53564453125,5.401611328125,37.750244140625
2.1974999,1.9159599542617798,-0.10354922711849213,9.718064308166504,4.241943359375,3.509521484375,15.777587890625
2.2024999000000003,2.3971943855285645,0.16998831927776337,9.77013874053955,-0.42724609375,5.340576171875,-14.801025390625
2.2074999,2.8820202350616455,-0.0520738884806633,9.627683639526367,0.701904296875,25.177001953125,-32.623291015625
2.2124999,3.1501708030700684,-0.22026655077934265,9.549872398376465,8.026123046875,44.43359375,-42.205810546875
2.2174999,1.9171570539474487,-0.5710170865058899,9.715071678161621,0.3662109375,40.10009765625,-45.7763671875
2.2224999000000003,0.6715735793113708,-0.6536170840263367,9.707290649414062,-2.44140625,14.7705078125,-54.0771484375
2.2274999,-0.6769605278968811,-0.20889410376548767,9.960477828979492,-3.448486328125,-1.708984375,-45.806884765625
2.2324999,-0.6769605278968811,-0.20889410376548767,9.960477828979492,-3.448486328125,-1.708984375,-45.806884765625
2.2374999,-1.886630892753601,-0.6919242739677429,10.092757225036621,-16.6015625,-6.103515625,-23.162841796875
2.2424999000000003,-2.382829189300537,-0.3100491166114807,9.832986831665039,-12.908935546875,-35.797119140625,32.928466796875
2.2474999,-2.382829189300537,-0.3100491166114807,9.832986831665039,-12.908935546875,-35.797119140625,32.928466796875
2.2524999,-1.6531962156295776,-0.9690531492233276,9.725846290588379,-1.953125,-38.543701171875,48.33984375
2.2574999,-0.8313865661621094,-0.9510966539382935,9.750386238098145,12.87841796875,-39.031982421875,52.91748046875
2.2624999000000003,-0.0011971008498221636,-1.2449848651885986,9.636661529541016,13.85498046875,-31.951904296875,49.1943359375
2.2674999000000002,0.5069721937179565,-0.9840168952941895,9.673771858215332,12.786865234375,-12.847900390625,50.47607421875
2.2724999,1.349731206893921,-0.3405751883983612,9.710283279418945,10.528564453125,2.716064453125,45.47119140625
2.2774999,1.9614497423171997,-0.0293289702385664,9.731831550598145,3.570556640625,2.62451171875,20.355224609375
2.2824999000000004,2.65097975730896,0.06584054976701736,9.738415718078613,0.6103515625,4.180908203125,-9.033203125
2.2874999000000003,3.3255462646484375,-0.23702596127986908,9.554061889648438,6.561279296875,23.162841796875,-31.280517578125
2.2924999,3.6559460163116455,-0.3292027413845062,9.442731857299805,3.936767578125,47.454833984375,-49.560546875
2.2974999,3.2854433059692383,-0.3250128924846649,9.600749015808105,-2.3193359375,60.11962890625,-51.849365234375
2.3024999000000004,2.1805191040039062,-0.25498247146606445,9.701305389404297,-1.15966796875,42.083740234375,-43.212890625
2.3074999000000003,0.669179379940033,-0.3315969407558441,9.792284965515137,-3.7841796875,13.580322265625,-53.863525390625
2.3124999,-0.9534908533096313,-0.1801636815071106,10.065223693847656,-5.889892578125,-4.33349609375,-43.27392578125
2.3174999,-2.3235726356506348,-0.5153518915176392,10.030508041381836,-13.85498046875,-6.8359375,-15.167236328125
2.3224999,-2.870049238204956,-0.13287819921970367,9.813833236694336,-17.15087890625,-13.214111328125,6.744384765625
2.3274999000000003,1.425148606300354,-0.3669114112854004,9.618705749511719,8.97216796875,4.547119140625,38.848876953125
2.3324999,2.184709072113037,0.11432313174009323,9.694721221923828,1.678466796875,2.197265625,13.24462890625
2.3374999,3.0190882682800293,-0.09457096457481384,9.643245697021484,3.5400390625,9.3994140625,-15.045166015625
2.3424999,3.691260576248169,-0.19033902883529663,9.391854286193848,9.735107421875,32.958984375,-40.557861328125
2.3474999000000003,3.824138641357422,-0.3196259140968323,9.43375301361084,-1.861572265625,55.72509765625,-53.009033203125
2.3524999,3.1280245780944824,-0.09157821536064148,9.701904296875,-3.509521484375,58.258056640625,-46.9970703125
2.3574999,-1.6172832250595093,-0.0520738884806633,10.249577522277832,-21.66748046875,-7.904052734375,-44.586181640625
2.3624999,-2.781463861465454,-0.3800795078277588,9.714473724365234,-21.6064453125,-3.814697265625,-18.341064453125
2.3674999000000003,-3.229179620742798,-0.4010287821292877,9.871891975402832,-10.55908203125,-20.294189453125,12.451171875
2.3724999,-3.0382418632507324,-0.46088382601737976,9.79408073425293,-11.41357421875,-41.900634765625,40.252685546875
2.3774999,-2.074575662612915,-0.6536170840263367,9.584588050842285,-15.07568359375,-39.6728515625,40.22216796875
2.3824999,-0.8439561128616333,-0.9840168952941895,9.66539192199707,2.01416015625,-37.841796875,50.29296875
2.3874999000000003,0.2711433470249176,-1.488594889640808,9.633668899536133,20.44677734375,-35.888671875,61.95068359375
2.3924999000000002,0.8684966564178467,-1.7747019529342651,9.474454879760742,28.13720703125,-16.387939453125,71.4111328125
2.3974999,1.1204863786697388,-1.5412673950195312,9.547477722167969,26.2451171875,9.368896484375,66.925048828125
2.4024999,1.6059107780456543,-0.023343466222286224,9.724648475646973,4.364013671875,3.875732421875,25.81787109375
2.4074999000000004,3.116053581237793,0.07062894850969315,9.566631317138672,9.1552734375,23.468017578125,-33.111572265625
2.4124999000000003,3.667917013168335,0.02992752194404602,9.4636812210083,2.288818359375,48.309326171875,-53.22265625
2.4174999,3.466205596923828,-0.07841010391712189,9.652822494506836,-4.180908203125,57.7392578125,-55.23681640625
2.4224999,2.472611904144287,0.1693897694349289,9.762955665588379,-1.77001953125,42.266845703125,-57.12890625
2.4274999000000004,0.9175778031349182,-0.0077811554074287415,9.897629737854004,-4.45556640625,13.00048828125,-70.4345703125
2.4324999000000003,-0.7811083197593689,0.23104046285152435,10.169970512390137,-13.61083984375,-6.53076171875,-62.103271484375
2.4374999,-2.4372973442077637,-0.375291109085083,10.051457405090332,-31.79931640625,-8.48388671875,-37.994384765625
2.4424999,-3.1292216777801514,-0.16519992053508759,9.779715538024902,-21.484375,-10.80322265625,-8.9111328125
2.4474999,-3.3728315830230713,-0.5213374495506287,9.963470458984375,-11.8408203125,-35.2783203125,31.036376953125
2.4524999000000003,-2.6455929279327393,-0.7817068696022034,9.566631317138672,-14.129638671875,-43.45703125,44.37255859375
2.4574999,-1.4095861911773682,-1.191115379333496,9.521739959716797,-3.23486328125,-37.353515625,46.295166015625
2.4624999,-0.0975637212395668,-1.5454572439193726,9.50617790222168,13.5498046875,-33.905029296875,56.7626953125
2.4674999,1.1701661348342896,-1.6915035247802734,9.476250648498535,27.4658203125,-0.67138671875,65.3076171875
2.4724999000000003,1.2791022062301636,-1.1013327836990356,9.66958236694336,20.599365234375,14.862060546875,54.290771484375
2.4774999,1.400607943534851,-0.25737667083740234,9.78989028930664,8.056640625,7.293701171875,34.271240234375
2.4824999,1.9243396520614624,0.3405751883983612,9.853935241699219,-0.091552734375,0.762939453125,7.2021484375
2.4874999,2.655169725418091,0.17657238245010376,9.75278091430664,2.62451171875,13.7939453125,-25.87890625
2.4924999000000003,3.3405098915100098,0.14245499670505524,9.570222854614258,8.9111328125,41.229248046875,-44.830322265625
2.4974999,3.450044631958008,-0.10953472554683685,9.623494148254395,-0.91552734375,53.1005859375,-53.5888671875
2.5024999,2.713229179382324,-0.04189852997660637,9.7605619430542,-2.01416015625,47.91259765625,-54.168701171875
2.5074999,1.3730746507644653,0.04189852997660637,9.815030097961426,-4.486083984375,22.39990234375,-66.192626953125
2.5124999000000003,-0.1711854189634323,0.44771572947502136,9.824606895446777,-6.805419921875,-0.885009765625,-69.82421875
2.5174999000000002,-1.8638859987258911,0.028730420395731926,10.08198356628418,-29.754638671875,-10.3759765625,-47.637939453125
2.5224999,-2.7712883949279785,0.07481880486011505,9.55585765838623,-27.191162109375,-5.7373046875,-23.37646484375
2.5274999,1.3198037147521973,-1.455674648284912,9.545681953430176,24.444580078125,12.0849609375,54.19921875
2.5324999000000004,1.3419500589370728,-0.6356605291366577,9.753378868103027,12.51220703125,11.29150390625,33.5693359375
2.5374999000000003,1.6328455209732056,0.262763649225235,9.899425506591797,0.946044921875,0.6103515625,8.453369140625
2.5424999,2.2894554138183594,0.44412440061569214,9.830592155456543,-2.716064453125,9.33837890625,-22.247314453125
2.5474999,2.9724013805389404,0.272938996553421,9.734225273132324,9.857177734375,37.322998046875,-40.8935546875
2.5524999000000004,3.2764649391174316,0.0077811554074287415,9.64564037322998,6.072998046875,51.94091796875,-50.78125
2.5574999000000003,2.7928361892700195,-0.18315643072128296,9.765350341796875,0.701904296875,48.095703125,-52.1240234375
2.5624999,0.23822307586669922,-0.05386953800916672,9.818621635437012,-6.28662109375,4.302978515625,-76.751708984375
2.5674999,-1.2964602708816528,0.25258827209472656,10.204686164855957,-22.27783203125,-10.498046875,-59.967041015625
2.5724999,-2.473210334777832,-0.152031809091568,9.729436874389648,-29.72412109375,-7.14111328125,-33.02001953125
2.5774999000000003,-2.956240653991699,-0.04010287672281265,9.837775230407715,-15.716552734375,-14.22119140625,-0.18310546875
2.5824999,-2.9688100814819336,-0.17477671802043915,9.885659217834473,-8.056640625,-39.36767578125,40.46630859375
2.5874999,-2.0817582607269287,-0.5488707423210144,9.607931137084961,-20.263671875,-41.046142578125,39.642333984375
2.5924999,-0.8301894664764404,-0.9103952050209045,9.649829864501953,-7.568359375,-32.1044921875,43.45703125
2.5974999000000003,0.3884592354297638,-1.4688427448272705,9.561244010925293,17.608642578125,-30.8837890625,60.394287109375
2.6024999,1.0743980407714844,-1.9051860570907593,9.419986724853516,31.768798828125,-21.91162109375,70.068359375
2.6074999,1.2934675216674805,-1.7956513166427612,9.381080627441406,29.815673828125,2.532958984375,64.63623046875
2.6124999,1.3281834125518799,-1.14742112159729,9.6618013381958,18.096923828125,14.190673828125,39.825439453125
2.6174999000000003,1.5119383335113525,-0.16340427100658417,9.847352027893066,3.082275390625,3.2958984375,12.115478515625
2.6224999,2.101510524749756,0.2950853705406189,9.88745403289795,-3.35693359375,4.608154296875,-14.70947265625
2.6274999,2.7479450702667236,0.17298106849193573,9.801262855529785,7.720947265625,30.57861328125,-35.247802734375
2.6324999,3.1453824043273926,-0.008978256024420261,9.655217170715332,10.7421875,47.607421875,-45.379638671875
2.6374999000000003,2.7994203567504883,-0.18375498056411743,9.738415718078613,1.007080078125,48.2177734375,-52.398681640625
2.6424999000000002,-0.9307458996772766,0.40701428055763245,10.110713958740234,-12.87841796875,-6.866455078125,-67.474365234375
2.6474999,-2.230198860168457,-0.24779987335205078,9.948506355285645,-31.402587890625,-9.82666015625,-38.909912109375
2.6524999,-2.689286947250366,-0.12988543510437012,9.744999885559082,-19.927978515625,-9.246826171875,-9.765625
2.6574999000000004,-2.875436305999756,-0.3495534360408783,10.087369918823242,-5.645751953125,-33.111572265625,32.318115234375
2.6624999000000003,-2.205658197402954,-0.6027402877807617,9.84615421295166,-22.76611328125,-42.90771484375,37.384033203125
2.6674999,-1.1198878288269043,-0.7601590156555176,9.801861763000488,-16.265869140625,-35.15625,41.8701171875
2.6724999,0.8098387122154236,-1.8327614068984985,9.440337181091309,31.06689453125,-28.350830078125,74.981689453125
2.6774999000000004,1.0540473461151123,-1.9405004978179932,9.290101051330566,33.111572265625,-2.74658203125,75.347900390625
2.6824999000000003,1.1127052307128906,-1.4024035930633545,9.527127265930176,23.956298828125,14.923095703125,58.4716796875
2.6874999,1.278503656387329,-0.44831427931785583,9.718663215637207,8.575439453125,7.354736328125,29.266357421875
2.6924999,1.875258445739746,0.24121582508087158,9.896432876586914,-2.105712890625,1.3427734375,0.213623046875
2.6974999,2.7012581825256348,0.16101007163524628,9.774927139282227,3.90625,17.669677734375,-27.64892578125
2.7024999000000003,3.3740286827087402,0.09157821536064148,9.622895240783691,11.90185546875,43.670654296875,-46.81396484375
2.7074999,3.3435027599334717,-0.1538274586200714,9.640253067016602,-0.946044921875,53.802490234375,-56.57958984375
2.7124999,2.4803929328918457,-0.01735796220600605,9.786299705505371,-2.38037109375,44.830322265625,-59.75341796875
2.7174999,1.091755986213684,0.15502455830574036,9.775525093078613,-6.103515625,17.242431640625,-73.05908203125
2.7224999000000003,-2.0476410388946533,-0.2867056429386139,10.120888710021973,-31.8603515625,-11.871337890625,-49.285888671875
2.7274999,-3.1064767837524414,-0.48303020000457764,10.125079154968262,-6.103515625,-28.3203125,22.216796875
2.7324999,-2.5923218727111816,-0.5692214369773865,9.928754806518555,-20.782470703125,-42.205810546875,37.994384765625
2.7374999,-1.4359225034713745,-0.6512228846549988,9.80904483795166,-22.552490234375,-36.19384765625,39.97802734375
2.7424999000000003,-0.14425064623355865,-1.2000936269760132,9.729436874389648,7.598876953125,-36.43798828125,61.6455078125
2.7474999,0.7906851172447205,-1.7944542169570923,9.437943458557129,30.059814453125,-33.14208984375,76.23291015625
2.7524999,1.0977414846420288,-2.057217836380005,9.230246543884277,36.2548828125,-10.498046875,78.704833984375
2.7574999,1.115697979927063,-1.7004817724227905,9.381080627441406,27.862548828125,14.801025390625,66.162109375
2.7624999000000003,1.1540051698684692,-0.7374141216278076,9.68694019317627,13.3056640625,11.810302734375,39.9169921875
2.7674999000000002,1.6274585723876953,0.15741875767707825,9.874286651611328,-0.244140625,1.77001953125,7.32421875
2.7724999,2.411559581756592,0.2388216257095337,9.839570045471191,-0.3662109375,11.627197265625,-22.369384765625
2.7774999,3.247734546661377,0.17896658182144165,9.687539100646973,13.7939453125,39.12353515625,-43.212890625
2.7824999000000004,3.442263603210449,-0.08738835901021957,9.573814392089844,1.434326171875,54.26025390625,-57.769775390625
2.7874999000000003,-2.8179752826690674,-0.08439560979604721,9.282320022583008,-25.81787109375,-8.819580078125,-24.261474609375
2.7924999,-3.0783448219299316,-0.2825157940387726,9.917980194091797,-6.256103515625,-23.0712890625,13.916015625
2.7974999,-2.762908697128296,-0.322618693113327,9.891045570373535,-17.51708984375,-39.55078125,35.980224609375
2.8024999000000004,-0.4423287510871887,-0.9810241460800171,9.81143856048584,5.157470703125,-37.139892578125,59.14306640625
2.8074999000000003,0.5494692921638489,-1.7298107147216797,9.531915664672852,29.1748046875,-34.271240234375,73.211669921875
2.8124999,0.5494692921638489,-1.7298107147216797,9.531915664672852,29.1748046875,-34.271240234375,73.211669921875
2.8174999,0.9175778031349182,-2.0626046657562256,9.304466247558594,32.5927734375,-14.46533203125,74.859619140625
2.8224999,0.9882067441940308,-1.823184609413147,9.41100788116455,27.77099609375,9.124755859375,65.73486328125
2.8274999000000003,1.5269020795822144,0.03531447425484657,9.834183692932129,3.326416015625,4.21142578125,17.608642578125
2.8324999,2.3337481021881104,0.24600422382354736,9.889249801635742,-0.823974609375,7.568359375,-13.12255859375
2.8374999,3.269282341003418,0.20709845423698425,9.695320129394531,13.885498046875,31.25,-38.543701171875
2.8424999,3.7014358043670654,0.013168109580874443,9.491812705993652,3.204345703125,52.703857421875,-59.5703125
2.8474999000000003,3.265092611312866,-0.06763619929552078,9.75278091430664,-5.67626953125,54.962158203125,-64.27001953125
2.8524999,2.0620062351226807,0.10893617570400238,9.689932823181152,-3.96728515625,32.40966796875,-66.558837890625
2.8574999,0.47824180126190186,-0.03531447425484657,9.856928825378418,-6.16455078125,5.767822265625,-77.178955078125
2.8624999,-1.290474772453308,-0.07242459803819656,10.142436981201172,-19.439697265625,-11.322021484375,-62.103271484375
2.8674999000000003,-2.6426000595092773,-0.5913678407669067,9.720458984375,-21.8505859375,-11.04736328125,-28.25927734375
2.8724999,-3.1423897743225098,-0.05147533491253853,9.976638793945312,-7.99560546875,-18.24951171875,5.218505859375
2.8774999,-3.22678542137146,-0.3860650360584259,10.086173057556152,-15.594482421875,-35.70556640625,32.440185546875
2.8824999,-1.301847219467163,-0.7601590156555176,9.915586471557617,4.241943359375,-41.839599609375,58.04443359375
2.8874999000000003,-0.1604115068912506,-1.3198037147521973,9.688735961914062,19.744873046875,-34.698486328125,60.638427734375
2.8924999000000002,0.5542576909065247,-1.6352397203445435,9.503185272216797,20.8740234375,-18.768310546875,61.09619140625
2.8974999,1.0229226350784302,-1.5879542827606201,9.514557838439941,26.947021484375,2.349853515625,63.96484375
2.9024999,1.3407529592514038,-1.05105459690094,9.640851974487305,19.47021484375,11.993408203125,55.7861328125
2.9074999000000004,1.8896236419677734,-0.3010708689689636,9.658209800720215,7.8125,11.04736328125,31.6162109375
2.9124999000000003,2.623446464538574,0.2717418968677521,9.75278091430664,0.48828125,9.033203125,-3.082275390625
2.9174999,3.426102638244629,0.09277531504631042,9.619902610778809,4.5166015625,24.383544921875,-34.820556640625
2.9224999,3.889979124069214,-0.0694318488240242,9.455301284790039,9.674072265625,49.4384765625,-58.013916015625
2.9274999000000004,3.603872060775757,-0.33518823981285095,9.608530044555664,-1.373291015625,54.779052734375,-65.338134765625
2.9324999000000003,2.4857800006866455,-0.44592007994651794,9.668983459472656,-1.15966796875,38.14697265625,-58.2275390625
2.9374999,0.9115923047065735,-0.5285200476646423,9.729436874389648,-4.486083984375,12.481689453125,-68.084716796875
2.9424999,-0.9085995554924011,-0.16220717132091522,10.017938613891602,-12.14599609375,-8.636474609375,-61.248779296875
2.9474999,-3.112462282180786,0.16519992053508759,9.88625717163086,-12.14599609375,-13.153076171875,-7.568359375
2.9524999000000003,-3.334524393081665,0.13826514780521393,10.140641212463379,-9.46044921875,-27.191162109375,26.06201171875
2.9574999,-2.698863983154297,0.13587094843387604,9.998785018920898,-18.829345703125,-39.306640625,39.459228515625
2.9624999,-1.766920804977417,-0.16819266974925995,9.929951667785645,-6.439208984375,-38.4521484375,43.243408203125
2.9674999,-0.6278793811798096,-0.8265981078147888,9.940725326538086,12.0849609375,-33.966064453125,45.013427734375
2.9724999000000003,0.31543606519699097,-1.338358759880066,9.734225273132324,10.894775390625,-23.406982421875,40.924072265625
2.9774999,1.0372878313064575,-1.4742296934127808,9.662399291992188,20.355224609375,-8.270263671875,48.64501953125
2.9824999,1.556231141090393,-1.2970588207244873,9.679757118225098,18.157958984375,8.11767578125,47.607421875
2.9874999,1.9835960865020752,-0.7218518257141113,9.646238327026367,11.444091796875,12.14599609375,33.050537109375
2.9924999000000003,2.476801633834839,-0.008379706181585789,9.739612579345703,3.11279296875,9.063720703125,5.18798828125
2.9974999,2.9747955799102783,0.10714052617549896,9.643844604492188,-1.312255859375,15.533447265625,-27.252197265625
3.0024999,3.3069911003112793,-0.1825578808784485,9.530119895935059,8.575439453125,38.51318359375,-43.487548828125
3.0074999,1.2431892156600952,-0.49320554733276367,9.680954933166504,-3.84521484375,22.3388671875,-54.38232421875
3.0124999000000003,-0.25977087020874023,-0.21188685297966003,9.62947940826416,-5.37109375,0.1220703125,-61.8896484375
3.0174999000000002,-1.6675615310668945,-0.24839842319488525,10.101137161254883,-23.101806640625,-12.20703125,-41.56494140625
3.0224999,-2.647388458251953,-0.14784196019172668,9.68155288696289,-18.98193359375,-7.720947265625,-18.768310546875
3.0274999,-2.935889720916748,-0.07302315533161163,10.139444351196289,-8.453369140625,-16.17431640625,10.1318359375
3.0324999000000004,-2.8556840419769287,0.05925649031996727,10.13286018371582,-13.5498046875,-35.736083984375,35.400390625
3.0374999000000003,-2.0853497982025146,-0.26096799969673157,9.971251487731934,-15.655517578125,-39.61181640625,38.6962890625
3.0424999,-1.1312602758407593,-0.42616790533065796,10.014945983886719,4.180908203125,-37.109375,45.806884765625
3.0474999,-0.05686229094862938,-1.0450690984725952,9.84256362915039,10.284423828125,-29.72412109375,43.609619140625
3.0524999000000004,0.7200561761856079,-1.2647370100021362,9.703699111938477,15.625,-16.448974609375,45.2880859375
3.0574999000000003,1.7417817115783691,-0.9672574996948242,9.649829864501953,15.167236328125,11.29150390625,39.886474609375
3.0624999,2.18770170211792,-0.304063618183136,9.656414031982422,6.40869140625,9.70458984375,17.2119140625
3.0674999,2.689286947250366,0.061052143573760986,9.66539192199707,-1.64794921875,9.490966796875,-14.739990234375
3.0724999000000004,3.132214307785034,-0.2579752206802368,9.567828178405762,3.997802734375,29.510498046875,-35.186767578125
3.0774999000000003,3.2998085021972656,-0.3705027103424072,9.481637001037598,13.031005859375,46.600341796875,-45.196533203125
3.0824999,2.8443117141723633,-0.6045359373092651,9.586981773376465,3.875732421875,46.2646484375,-45.562744140625
3.0874999,1.7908629179000854,-0.5859808921813965,9.700706481933594,-1.89208984375,32.867431640625,-46.661376953125
3.0924999,0.45669397711753845,-0.5003881454467773,9.751583099365234,-4.730224609375,9.765625,-62.957763671875
3.0974999000000003,-1.0307037830352783,-0.0454898327589035,9.973047256469727,-10.07080078125,-8.72802734375,-51.81884765625
3.1024999,-2.210446834564209,-0.3926490843296051,9.986215591430664,-25.20751953125,-10.009765625,-30.517578125
3.1074999,-2.738368272781372,-0.17178396880626678,9.836577415466309,-13.916015625,-7.965087890625,-4.8828125
3.1124999,-2.9257144927978516,-0.12270283699035645,10.135852813720703,-6.591796875,-25.726318359375,26.7333984375
3.1174999000000003,-1.625662922859192,-0.4513070285320282,9.946112632751465,-8.6669921875,-38.14697265625,38.0859375
3.1224999,-0.6189011335372925,-0.8152256608009338,10.001777648925781,8.6669921875,-33.843994140625,43.182373046875
3.1274999,0.3669114112854004,-1.0013748407363892,9.797073364257812,10.31494140625,-22.613525390625,39.24560546875
3.1324999,1.0462661981582642,-1.1366472244262695,9.691728591918945,17.51708984375,-8.270263671875,45.623779296875
3.1374999000000003,1.5610195398330688,-1.0157400369644165,9.65222454071045,18.341064453125,6.988525390625,44.49462890625
3.1424999000000002,1.9399019479751587,-0.5345055460929871,9.66299819946289,9.521484375,9.613037109375,28.076171875
3.1474999,2.4007856845855713,-0.018555063754320145,9.692327499389648,0.1220703125,5.401611328125,0.396728515625
3.1524999,2.866457939147949,-0.17477671802043915,9.607931137084961,-1.434326171875,16.571044921875,-26.397705078125
3.1574999000000004,3.177105665206909,-0.4225766062736511,9.525331497192383,12.6953125,37.78076171875,-37.872314453125
3.1624999000000003,3.0550012588500977,-0.5345055460929871,9.501389503479004,6.866455078125,45.318603515625,-41.6259765625
3.1674999,2.2403743267059326,-0.6278793811798096,9.667786598205566,0.030517578125,40.863037109375,-38.970947265625
3.1724999,1.0594342947006226,-0.3687070608139038,9.731831550598145,-4.486083984375,21.484375,-52.55126953125
3.1774999000000004,-1.622071623802185,-0.27653029561042786,10.06043529510498,-22.88818359375,-9.94873046875,-34.942626953125
3.1824999000000003,-2.4642322063446045,-0.2364274114370346,9.603741645812988,-19.744873046875,-5.18798828125,-15.07568359375
3.1874999,-2.719214677810669,-0.24361002445220947,9.996390342712402,-8.97216796875,-17.120361328125,11.5966796875
3.1924999,-2.6408045291900635,-0.35434186458587646,10.061034202575684,-9.33837890625,-38.02490234375,39.947509765625
3.1974999000000004,-1.8704700469970703,-0.5123591423034668,9.8784761428833,-13.916015625,-38.75732421875,37.04833984375
3.2024999000000003,-0.9415197968482971,-0.7817068696022034,9.985017776489258,4.82177734375,-35.400390625,43.212890625
3.2074999,0.1041477769613266,-1.171961784362793,9.85034465789795,11.1083984375,-28.350830078125,42.510986328125
3.2124999,0.8164227604866028,-1.3162124156951904,9.68813705444336,15.7470703125,-14.46533203125,46.32568359375
3.2174999,1.3389573097229004,-1.2563573122024536,9.634865760803223,20.965576171875,3.631591796875,50.048828125
3.2224999000000003,1.710058569908142,-0.7841010689735413,9.668384552001953,13.5498046875,10.650634765625,36.834716796875
3.2274999,2.160767078399658,-0.12030863761901855,9.677363395690918,2.838134765625,6.072998046875,10.986328125
3.2324999,2.6839001178741455,-0.06763619929552078,9.658807754516602,-2.960205078125,10.223388671875,-19.317626953125
3.2374999,3.2333693504333496,-0.4159925580024719,9.473258018493652,9.796142578125,46.0205078125,-41.8701171875
3.2424999000000003,2.603694438934326,-0.579995334148407,9.640253067016602,1.129150390625,44.677734375,-40.130615234375
3.2474999,1.4634557962417603,-0.26815059781074524,9.716867446899414,-4.150390625,28.106689453125,-48.858642578125
3.2524999,0.06404489278793335,-0.3232172429561615,9.795876502990723,-5.67626953125,3.143310546875,-61.279296875
3.2574999,-1.2892776727676392,0.019153613597154617,10.019734382629395,-14.34326171875,-9.124755859375,-42.6025390625
3.2624999000000003,-2.3810336589813232,-0.6470330357551575,9.821015357971191,-23.468017578125,-7.080078125,-21.05712890625
3.2674999000000002,-2.627636432647705,-0.2190694510936737,9.78989028930664,-11.16943359375,-11.138916015625,1.678466796875
3.2724999,-2.7664999961853027,-0.36332011222839355,9.993996620178223,-7.50732421875,-32.5927734375,34.72900390625
3.2774999,-2.0889410972595215,-0.5536591410636902,9.77253246307373,-14.46533203125,-39.1845703125,38.848876953125
3.2824999000000004,-1.2384008169174194,-0.6206967830657959,9.881468772888184,0.54931640625,-35.491943359375,41.412353515625
3.2874999000000003,-0.2232593148946762,-1.0767922401428223,9.882067680358887,10.8642578125,-31.585693359375,42.388916015625
3.2924999,0.5662286877632141,-1.260547161102295,9.724050521850586,13.3056640625,-19.10400390625,42.877197265625
3.2974999,1.6065093278884888,-0.8870517015457153,9.712079048156738,15.289306640625,9.674072265625,42.236328125
3.3024999000000004,2.077568531036377,-0.22625206410884857,9.692925453186035,4.913330078125,7.171630859375,18.61572265625
3.3074999000000003,2.612074136734009,-0.09636662155389786,9.70549488067627,-2.50244140625,7.14111328125,-12.420654296875
3.3124999,3.1280245780944824,-0.3908534348011017,9.563638687133789,10.25390625,26.824951171875,-32.318115234375
3.3174999,3.3506853580474854,-0.3944447338581085,9.445125579833984,11.383056640625,44.525146484375,-41.107177734375
3.3224999000000004,2.889202833175659,-0.5404910445213318,9.586383819580078,0.18310546875,47.42431640625,-41.107177734375
3.3274999000000003,1.811812162399292,-0.18136078119277954,9.699509620666504,-4.2724609375,33.905029296875,-45.745849609375
3.3324999,0.43335050344467163,-0.12389993667602539,9.790489196777344,-6.591796875,7.75146484375,-60.9130859375
3.3374999,-1.0307037830352783,0.18315643072128296,9.991601943969727,-7.537841796875,-7.32421875,-50.72021484375
3.3424999,-2.275090217590332,-0.5859808921813965,9.971251487731934,-27.03857421875,-9.552001953125,-24.90234375
3.3474999000000003,-2.6384103298187256,-0.08559270948171616,9.793481826782227,-13.824462890625,-8.30078125,-3.2958984375
3.3524999,-2.846705913543701,-0.43275195360183716,10.152013778686523,-7.415771484375,-28.3203125,27.64892578125
3.3574999,-1.4317326545715332,-0.7080851793289185,9.841365814208984,-3.082275390625,-36.407470703125,43.731689453125
3.3624999,0.29867666959762573,-1.4257471561431885,9.603142738342285,14.404296875,-22.552490234375,48.492431640625
3.3674999000000003,0.8535329103469849,-1.3251906633377075,9.607931137084961,22.552490234375,-3.84521484375,59.326171875
3.3724999,1.303044319152832,-0.9307458996772766,9.683947563171387,16.41845703125,8.7890625,52.001953125
3.3774999,1.8189947605133057,-0.20290859043598175,9.659406661987305,6.011962890625,6.744384765625,29.266357421875
3.3824999,2.493561029434204,0.03770867735147476,9.764751434326172,-0.518798828125,5.401611328125,-2.01416015625
3.3874999000000003,3.19865345954895,-0.26994624733924866,9.557653427124023,10.68115234375,20.050048828125,-30.242919921875
3.3924999000000002,3.649960517883301,-0.2472013235092163,9.425373077392578,9.185791015625,43.27392578125,-46.661376953125
3.3974999,3.3458969593048096,-0.3728969097137451,9.559449195861816,-2.288818359375,52.79541015625,-45.34912109375
3.4024999,2.257133722305298,-0.08499415963888168,9.650428771972656,-3.90625,39.825439453125,-43.365478515625
3.4074999000000004,0.7416039705276489,0.05446808785200119,9.79408073425293,-6.927490234375,9.765625,-60.394287109375
3.4124999000000003,-2.2906525135040283,-0.5781996846199036,9.909601211547852,-27.28271484375,-11.41357421875,-28.228759765625
3.4174999,-2.7269957065582275,-0.07661445438861847,9.497797966003418,-15.655517578125,-8.148193359375,-5.096435546875
3.4224999,-2.9203274250030518,-0.5548562407493591,10.094552993774414,-5.706787109375,-26.092529296875,24.932861328125
3.4274999000000004,-2.342127799987793,-0.6524199843406677,9.911994934082031,-22.491455078125,-38.2080078125,34.332275390625
3.4324999000000003,-1.4724340438842773,-0.8176198601722717,9.880271911621094,-6.591796875,-36.31591796875,44.0673828125
3.4374999,-0.4908113479614258,-1.3311761617660522,9.922768592834473,17.578125,-35.33935546875,52.093505859375
3.4424999,0.23702596127986908,-1.647210717201233,9.626486778259277,18.402099609375,-24.200439453125,52.581787109375
3.4474999000000004,0.667982280254364,-1.5143325328826904,9.59596061706543,23.74267578125,-6.561279296875,62.286376953125
3.4524999000000003,1.095347285270691,-1.035492181777954,9.734824180603027,18.12744140625,7.6904296875,55.694580078125
3.4574999,1.6370353698730469,-0.19452889263629913,9.676166534423828,6.2255859375,6.16455078125,33.63037109375
3.4624999,2.412158250808716,0.08200141042470932,9.791088104248047,-0.640869140625,5.126953125,1.861572265625
3.4674999,3.5895068645477295,-0.2711433470249176,9.55705451965332,-4.21142578125,55.23681640625,-50.35400390625
3.4724999000000003,2.5103204250335693,0.05925649031996727,9.668983459472656,-4.913330078125,42.96875,-47.271728515625
3.4774999,2.5103204250335693,0.05925649031996727,9.668983459472656,-4.913330078125,42.96875,-47.271728515625
3.4824999,0.9307458996772766,0.21547815203666687,9.803657531738281,-7.080078125,12.420654296875,-62.3779296875
3.4874999,-0.7613561153411865,0.4537012279033661,9.856329917907715,-6.805419921875,-7.232666015625,-61.70654296875
3.4924999000000003,-2.3744494915008545,-0.5859808921813965,9.85034465789795,-27.83203125,-11.3525390625,-32.53173828125
3.4974999,-2.916736125946045,-0.23343466222286224,9.329007148742676,-17.39501953125,-9.368896484375,-4.150390625
3.5024999,-3.0986955165863037,-0.5327098965644836,9.928155899047852,-2.5634765625,-28.50341796875,28.1982421875
3.5074999,-2.4414870738983154,-0.7296329736709595,9.79647445678711,-23.92578125,-38.39111328125,32.65380859375
3.5124999000000003,-1.4311341047286987,-0.7655459642410278,9.781511306762695,-12.20703125,-35.919189453125,42.6025390625
3.5174999000000002,-0.39624038338661194,-1.4203602075576782,9.904812812805176,21.026611328125,-36.895751953125,59.356689453125
3.5224999,0.9528923034667969,-1.081580638885498,9.717466354370117,19.10400390625,8.880615234375,60.72998046875
3.5274999,0.9528923034667969,-1.081580638885498,9.717466354370117,19.10400390625,8.880615234375,60.72998046875
3.5324999000000004,1.546055793762207,-0.09696517139673233,9.741408348083496,4.45556640625,4.669189453125,32.318115234375
3.5374999000000003,2.3744494915008545,0.004189853090792894,9.770736694335938,0.42724609375,3.204345703125,0.091552734375
3.5424999,3.3500866889953613,-0.05985504388809204,9.601945877075195,15.93017578125,19.622802734375,-25.421142578125
3.5474999,3.8738183975219727,-0.166995570063591,9.333795547485352,5.67626953125,42.022705078125,-48.03466796875
3.5524999000000004,3.640982151031494,-0.18555063009262085,9.5624418258667,-8.72802734375,54.962158203125,-54.50439453125
3.5574999000000003,2.5665841102600098,0.29867666959762573,9.62947940826416,-4.913330078125,43.9453125,-53.5888671875
3.5624999,0.9804255962371826,0.37648820877075195,9.839570045471191,-7.904052734375,12.87841796875,-65.765380859375
3.5674999,-0.7206547260284424,0.5518634915351868,9.952696800231934,-8.23974609375,-7.4462890625,-62.469482421875
3.5724999000000004,-2.4133553504943848,-0.4776432514190674,10.029909133911133,-29.510498046875,-11.23046875,-33.172607421875
3.5774999000000003,-3.024475336074829,-0.12509703636169434,9.524134635925293,-19.378662109375,-9.857177734375,-5.37109375
3.5824999,-1.423951506614685,-0.9062053561210632,9.755773544311523,-7.720947265625,-38.848876953125,47.91259765625
3.5874999,-0.3058592677116394,-1.5173252820968628,9.780313491821289,22.247314453125,-36.407470703125,61.8896484375
3.5924999,0.395043283700943,-1.8974047899246216,9.537900924682617,27.83203125,-22.552490234375,69.9462890625
3.5974999000000003,0.8092401623725891,-1.6166846752166748,9.493608474731445,26.214599609375,1.953125,73.974609375
3.6024999,1.2210428714752197,-0.9510966539382935,9.679757118225098,17.120361328125,12.8173828125,53.802490234375
3.6074999,1.7860745191574097,-0.06524199992418289,9.716269493103027,2.8076171875,4.638671875,25.177001953125
3.6124999,2.562394380569458,-0.1646013706922531,9.768342971801758,6.134033203125,4.57763671875,-1.64794921875
3.6174999000000003,3.441664934158325,-0.07302315533161163,9.57979965209961,18.24951171875,24.10888671875,-30.609130859375
3.6224999,3.891176223754883,-0.11133038252592087,9.347561836242676,-1.15966796875,44.7998046875,-58.197021484375
3.6274999,3.60566782951355,0.07661445438861847,9.674370765686035,-12.725830078125,59.38720703125,-62.713623046875
3.6324999,2.4678235054016113,0.5919663906097412,9.630077362060547,-5.0048828125,41.778564453125,-58.349609375
3.6374999000000003,-1.0528502464294434,0.13826514780521393,10.122684478759766,-9.765625,-10.6201171875,-65.032958984375
3.6424999000000002,-2.6671407222747803,-0.8074445128440857,9.959280967712402,-30.609130859375,-11.077880859375,-33.416748046875
3.6474999,-3.207033157348633,-0.569819986820221,9.6803560256958,-15.5029296875,-13.458251953125,0.518798828125
3.6524999,-3.2854433059692383,-0.6955155730247498,10.142436981201172,-3.96728515625,-33.5693359375,34.759521484375
3.6574999000000004,-2.4019827842712402,-0.811634361743927,9.741408348083496,-22.979736328125,-40.252685546875,39.55078125
3.6624999000000003,-1.2671312093734741,-0.8852560520172119,9.699509620666504,-4.150390625,-39.1845703125,51.483154296875
3.6674999,-0.1322796493768692,-1.4939818382263184,9.698312759399414,27.008056640625,-32.989501953125,63.262939453125
3.6724999,0.524330198764801,-1.835754156112671,9.420584678649902,26.611328125,-17.425537109375,68.634033203125
3.6774999000000004,0.9588778018951416,-1.4443022012710571,9.502586364746094,25.0244140625,3.5400390625,67.657470703125
3.6824999000000003,2.050035238265991,-0.07003039866685867,9.780912399291992,0.335693359375,3.11279296875,13.48876953125
3.6874999,2.895787000656128,-0.18136078119277954,9.747393608093262,9.033203125,9.429931640625,-13.275146484375
3.6924999,3.886387825012207,-0.12509703636169434,9.422979354858398,-4.119873046875,50.445556640625,-59.63134765625
3.6974999000000004,3.244741916656494,0.17717093229293823,9.680954933166504,-9.27734375,54.931640625,-58.53271484375
3.7024999000000003,1.8680758476257324,0.6009446382522583,9.656414031982422,-6.805419921875,29.4189453125,-63.1103515625
3.7074999,0.060453593730926514,0.181959331035614,9.961075782775879,-8.636474609375,-0.946044921875,-76.171875
3.7124999,-1.66696298122406,0.03950432687997818,10.051457405090332,-16.143798828125,-13.092041015625,-56.884765625
3.7174999,-3.0196869373321533,-0.9217676520347595,9.674968719482422,-27.740478515625,-9.429931640625,-23.98681640625
3.7224999000000003,-3.2345664501190186,-0.47165772318840027,9.725247383117676,-9.979248046875,-18.49365234375,10.467529296875
3.7274999,-3.1250317096710205,-0.6937199234962463,10.010157585144043,-9.124755859375,-37.2314453125,39.764404296875
3.7324999,-2.032078742980957,-0.8194155097007751,9.717466354370117,-24.078369140625,-40.58837890625,39.154052734375
3.7374999,-0.9020155072212219,-1.0875661373138428,9.785101890563965,4.791259765625,-37.78076171875,54.8095703125
3.7424999000000003,0.1604115068912506,-1.7495628595352173,9.697713851928711,30.1513671875,-30.242919921875,64.208984375
3.7474999,0.6889315247535706,-1.8644845485687256,9.435548782348633,25.57373046875,-12.176513671875,69.122314453125
3.7524999,1.6525976657867432,-0.6063315868377686,9.752182006835938,8.880615234375,9.429931640625,30.33447265625
3.7574999,2.324171304702759,-0.03711012750864029,9.749189376831055,-1.861572265625,1.312255859375,1.312255859375
3.7624999000000003,3.205836057662964,-0.16160862147808075,9.675567626953125,13.0615234375,17.913818359375,-23.712158203125
3.7674999000000002,3.793612480163574,-0.09038111567497253,9.457097053527832,13.702392578125,42.48046875,-46.630859375
3.7724999,3.712209701538086,-0.090979665517807,9.490615844726562,-6.134033203125,52.947998046875,-58.197021484375
3.7774999,2.743156671524048,0.3214215636253357,9.701305389404297,-7.2021484375,48.858642578125,-58.380126953125
3.7824999000000004,1.20368492603302,0.5781996846199036,9.734225273132324,-9.27734375,18.035888671875,-69.610595703125
3.7874999000000003,-0.5847837924957275,0.38546648621559143,9.883264541625977,-8.36181640625,-6.7138671875,-74.52392578125
3.7924999,-2.2397756576538086,-0.3968389332294464,10.14782428741455,-25.054931640625,-13.214111328125,-46.81396484375
3.7974999,-3.1196448802948,-0.585382342338562,9.478644371032715,-23.956298828125,-8.758544921875,-12.664794921875
3.8024999000000004,-3.2567129135131836,-0.6230909824371338,10.087968826293945,-3.72314453125,-25.054931640625,22.247314453125
3.8074999000000003,-2.7664999961853027,-0.6470330357551575,9.961674690246582,-15.472412109375,-40.313720703125,40.802001953125
3.8124999,-1.61069917678833,-0.751779317855835,9.70549488067627,-19.59228515625,-38.818359375,41.748046875
3.8174999,-0.4854243993759155,-1.2300211191177368,9.78869342803955,17.913818359375,-36.529541015625,61.187744140625
3.8224999000000004,0.4118026793003082,-1.8579005002975464,9.530119895935059,30.487060546875,-25.543212890625,66.925048828125
3.8274999000000003,0.811634361743927,-1.6968904733657837,9.418789863586426,25.93994140625,-4.57763671875,70.892333984375
3.8324999,1.2647370100021362,-1.1629834175109863,9.595361709594727,20.721435546875,12.725830078125,53.955078125
3.8374999,1.7884687185287476,-0.24420857429504395,9.765948295593262,3.47900390625,5.218505859375,22.308349609375
3.8424999,2.5504233837127686,-0.050876785069704056,9.719860076904297,0.701904296875,3.875732421875,-5.706787109375
3.8474999000000003,3.4572272300720215,-0.10714052617549896,9.637859344482422,17.333984375,26.458740234375,-30.70068359375
3.8524999,3.883993625640869,-0.11013327538967133,9.385869026184082,6.317138671875,46.32568359375,-51.666259765625
3.8574999,3.5416228771209717,-0.031124621629714966,9.628880500793457,-9.002685546875,54.412841796875,-57.80029296875
3.8624999,2.3349452018737793,0.4752490520477295,9.701305389404297,-6.927490234375,40.924072265625,-60.48583984375
3.8674999000000003,0.6380547285079956,0.4423287510871887,9.852140426635742,-10.07080078125,7.4462890625,-74.066162109375
3.8724999,-0.11911153793334961,-1.5580267906188965,9.773730278015137,26.91650390625,-35.552978515625,65.338134765625
3.8774999,0.595557689666748,-1.9626468420028687,9.462483406066895,28.1982421875,-19.622802734375,69.793701171875
3.8824999,0.9941922426223755,-1.591545581817627,9.46607494354248,25.93994140625,3.2958984375,68.84765625
3.8874999000000003,1.447893500328064,-0.9672574996948242,9.707290649414062,15.625,12.451171875,42.388916015625
3.8924999000000002,2.014122247695923,-0.03651157766580582,9.73661994934082,0.213623046875,2.288818359375,12.664794921875
3.8974999,2.844910144805908,-0.1107318252325058,9.713275909423828,4.058837890625,9.368896484375,-14.7705078125
3.9024999,3.6062662601470947,-0.07841010391712189,9.55825138092041,17.333984375,34.637451171875,-38.055419921875
3.9074999000000004,3.1902737617492676,0.025737667456269264,9.740211486816406,-7.99560546875,54.107666015625,-57.92236328125
3.9124999000000003,1.8201918601989746,0.4728548228740692,9.70549488067627,-7.38525390625,30.364990234375,-63.812255859375
3.9174999,0.06883329898118973,0.17657238245010376,9.931747436523438,-9.185791015625,0.518798828125,-75.592041015625
3.9224999,-2.96162748336792,-0.9217676520347595,9.66958236694336,-27.77099609375,-9.94873046875,-24.078369140625
3.9274999000000004,-3.1417911052703857,-0.5440823435783386,9.728240013122559,-10.101318359375,-17.15087890625,8.575439453125
3.9324999000000003,-3.0603883266448975,-0.6811503767967224,10.01075553894043,-8.23974609375,-36.712646484375,39.24560546875
3.9374999,-1.9776105880737305,-0.7954735159873962,9.724648475646973,-25.360107421875,-39.093017578125,36.92626953125
3.9424999,-0.8649053573608398,-0.9810241460800171,9.765948295593262,2.86865234375,-36.651611328125,53.52783203125
3.9474999000000004,0.18974047899246216,-1.668160080909729,9.707290649414062,29.388427734375,-31.280517578125,64.239501953125
3.9524999000000003,0.7044938206672668,-1.8429367542266846,9.409213066101074,25.2685546875,-12.908935546875,67.901611328125
3.9574999,1.1186907291412354,-1.434126853942871,9.515155792236328,24.658203125,7.720947265625,61.431884765625
3.9624999,2.2685060501098633,0.058059390634298325,9.736021041870117,-2.532958984375,2.105712890625,1.617431640625
3.9674999000000004,3.119046211242676,-0.14844051003456116,9.692327499389648,8.026123046875,17.303466796875,-23.681640625
3.9724999000000003,3.7612907886505127,-0.12868833541870117,9.509769439697266,15.655517578125,42.266845703125,-42.877197265625
3.9774999,3.6798880100250244,-0.2214636504650116,9.498396873474121,-1.953125,53.131103515625,-54.901123046875
3.9824999,2.715623378753662,0.0802057534456253,9.75637149810791,-6.65283203125,46.630859375,-56.5185546875
3.9874999,1.1743559837341309,0.41718965768814087,9.730634689331055,-9.124755859375,18.402099609375,-67.718505859375
3.9924999000000003,-0.5710170865058899,0.3669114112854004,9.882067680358887,-7.6904296875,-5.2490234375,-72.998046875
3.9974999,-2.210446834564209,-0.37648820877075195,10.11550235748291,-23.74267578125,-13.397216796875,-44.73876953125
4.0024999,-2.7234044075012207,-0.5249287486076355,10.013748168945312,-18.096923828125,-39.947509765625,39.031982421875
4.0074999,-1.5879542827606201,-0.585382342338562,9.788095474243164,-22.247314453125,-37.506103515625,39.825439453125
4.0124999,1.2246341705322266,-1.2850877046585083,9.567230224609375,21.97265625,11.1083984375,57.2509765625
4.0174999,1.7363947629928589,-0.39863458275794983,9.708487510681152,5.615234375,6.7138671875,25.238037109375
4.022499900000001,2.4857800006866455,0.0347159244120121,9.727641105651855,-3.96728515625,4.2724609375,-6.805419921875
4.0274999000000005,3.380612850189209,-0.12749123573303223,9.631275177001953,11.627197265625,25.848388671875,-29.388427734375
4.0324999,3.8576574325561523,-0.15502455830574036,9.452906608581543,11.199951171875,48.187255859375,-47.943115234375
4.0374999,3.47039532661438,-0.2064998894929886,9.640253067016602,-3.753662109375,53.680419921875,-55.11474609375
4.0424999,2.248155355453491,0.13826514780521393,9.755773544311523,-6.28662109375,38.604736328125,-57.18994140625
4.0474999,0.5764040350914001,0.24420857429504395,9.821015357971191,-9.552001953125,9.82666015625,-72.906494140625
4.0524999,-1.1300631761550903,0.363918662071228,10.069414138793945,-7.293701171875,-9.002685546875,-66.314697265625
4.0574999,-2.6629507541656494,-0.656609833240509,9.90122127532959,-28.717041015625,-11.65771484375,-33.294677734375
4.062499900000001,-3.0777463912963867,-0.5500678420066833,10.094552993774414,-3.2958984375,-30.364990234375,32.89794921875
4.0674999000000005,-2.18770170211792,-0.6985083222389221,9.79647445678711,-25.20751953125,-37.628173828125,35.614013671875
4.0724999,-1.0690110921859741,-0.6925228238105774,9.730035781860352,-11.077880859375,-35.003662109375,46.142578125
4.0774999,0.030526071786880493,-1.3479355573654175,9.762955665588379,23.406982421875,-33.538818359375,62.56103515625
4.0824999,0.6847416758537292,-1.8154034614562988,9.41639518737793,26.763916015625,-20.32470703125,65.948486328125
4.0874999,0.9810241460800171,-1.6310498714447021,9.409811019897461,25.177001953125,0.18310546875,65.61279296875
4.0924999,1.3162124156951904,-1.004966139793396,9.668983459472656,16.6015625,11.16943359375,44.464111328125
4.0974999,1.8501193523406982,-0.0999579206109047,9.740211486816406,0.54931640625,3.570556640625,10.68115234375
4.1024999,2.5923218727111816,0.0586579404771328,9.761159896850586,-2.9296875,8.85009765625,-17.2119140625
4.1074999000000005,3.406949043273926,-0.09576806426048279,9.63187313079834,15.68603515625,35.2783203125,-34.027099609375
4.1124999,3.406949043273926,-0.09576806426048279,9.63187313079834,15.68603515625,35.2783203125,-34.027099609375
4.1174999,3.6278140544891357,-0.13706804811954498,9.528923034667969,6.65283203125,50.750732421875,-52.8564453125
4.1224999,-2.780266761779785,-0.790086567401886,9.517550468444824,-25.604248046875,-7.904052734375,-20.69091796875
4.1274999,-2.873640537261963,-0.3687070608139038,9.739612579345703,-7.659912109375,-18.524169921875,12.908935546875
4.1324999,-2.6803088188171387,-0.5201402902603149,9.895833969116211,-11.53564453125,-35.400390625,37.322998046875
4.1374999,-1.5831658840179443,-0.5638344883918762,9.636661529541016,-27.52685546875,-34.66796875,34.942626953125
4.1424999,-0.4991910457611084,-0.9020155072212219,9.703699111938477,3.631591796875,-34.210205078125,55.694580078125
4.147499900000001,0.456095427274704,-1.632246971130371,9.527725219726562,28.564453125,-28.076171875,65.4296875
4.1524999000000005,0.8373720645904541,-1.8956091403961182,9.287108421325684,27.313232421875,-12.26806640625,67.535400390625
4.1574999,1.0666168928146362,-1.5185223817825317,9.459490776062012,23.3154296875,7.598876953125,59.112548828125
4.1624999,1.3850456476211548,-0.690727174282074,9.743204116821289,9.979248046875,8.544921875,29.144287109375
4.1674999,2.831143617630005,-0.0520738884806633,9.79408073425293,6.134033203125,19.6533203125,-25.20751953125
4.1724999,2.831143617630005,-0.0520738884806633,9.79408073425293,6.134033203125,19.6533203125,-25.20751953125
4.1774999,3.513490915298462,-0.08499415963888168,9.642048835754395,16.021728515625,45.22705078125,-43.243408203125
4.1824999,3.3961751461029053,-0.15981295704841614,9.695918083190918,1.0986328125,51.910400390625,-55.60302734375
4.187499900000001,2.387019157409668,0.020949264988303185,9.810839653015137,-5.67626953125,39.9169921875,-53.619384765625
4.1924999000000005,0.8493430614471436,0.3411737382411957,9.774328231811523,-9.3994140625,13.671875,-69.305419921875
4.1974999,-0.7398083209991455,0.7044938206672668,9.815030097961426,-5.9814453125,-7.6904296875,-71.136474609375
4.2024999,-2.3127987384796143,-0.4686649739742279,9.806650161743164,-26.824951171875,-13.12255859375,-38.604736328125
4.2074999,-2.7754783630371094,-0.29209262132644653,9.258976936340332,-18.98193359375,-9.735107421875,-4.82177734375
4.2124999,-2.8880057334899902,-0.6865373253822327,9.978434562683105,-2.410888671875,-27.64892578125,29.144287109375
4.2174999,-2.208651065826416,-0.8571242094039917,9.844358444213867,-23.92578125,-36.7431640625,35.369873046875
4.2224999,-1.1252747774124146,-0.8451532125473022,9.831191062927246,-17.852783203125,-34.637451171875,43.609619140625
4.2274999,1.6214730739593506,-0.20949265360832214,9.755773544311523,1.89208984375,2.9296875,13.5498046875
4.2324999000000005,2.385223388671875,-0.004189853090792894,9.7791166305542,-2.410888671875,5.401611328125,-14.678955078125
4.2374999,3.3057940006256104,-0.0867898091673851,9.648633003234863,16.41845703125,33.416748046875,-34.332275390625
4.2424999,1.7381904125213623,0.2974795699119568,9.742006301879883,-7.6904296875,28.350830078125,-59.478759765625
4.2474999,0.02454056777060032,0.22086510062217712,9.906009674072266,-7.720947265625,0.946044921875,-75.98876953125
4.2524999,-1.6148890256881714,0.14365209639072418,10.00836181640625,-15.899658203125,-12.908935546875,-56.09130859375
4.2574999,-2.7970261573791504,-0.6925228238105774,9.5007905960083,-26.641845703125,-9.21630859375,-20.660400390625
4.2624999,-2.6623523235321045,-0.536899745464325,9.924564361572266,-11.566162109375,-35.003662109375,37.78076171875
4.2674999,-1.5646108388900757,-0.6404489278793335,9.743802070617676,-27.923583984375,-35.736083984375,37.109375
4.272499900000001,-0.48243165016174316,-0.99479079246521,9.807249069213867,3.47900390625,-35.09521484375,59.02099609375
4.2774999000000005,0.436343252658844,-1.6932991743087769,9.624691009521484,29.388427734375,-28.045654296875,69.27490234375
4.2824999,0.7697358727455139,-1.9261353015899658,9.367314338684082,28.167724609375,-10.31494140625,71.10595703125
4.2874999,1.0001777410507202,-1.4766238927841187,9.478046417236328,23.162841796875,9.8876953125,62.225341796875
4.2924999,1.3263877630233765,-0.6212953329086304,9.744400978088379,9.46044921875,8.941650390625,30.731201171875
4.2974999,1.978209137916565,-0.06524199992418289,9.819818496704102,-3.90625,0.396728515625,-3.082275390625
4.3024999,2.9257144927978516,-0.1346738487482071,9.716269493103027,10.955810546875,20.69091796875,-27.557373046875
4.3074999,3.644573450088501,-0.09576806426048279,9.573814392089844,14.34326171875,47.210693359375,-46.81396484375
4.312499900000001,3.490147590637207,-0.15143325924873352,9.706093788146973,-2.166748046875,52.79541015625,-54.046630859375
4.3174999000000005,2.42472767829895,0.16340427100658417,9.749189376831055,-5.218505859375,39.703369140625,-55.60302734375
4.3224999,-2.4821887016296387,-0.5111620426177979,9.685144424438477,-29.541015625,-13.48876953125,-37.41455078125
4.3274999,-2.8832173347473145,-0.19213469326496124,9.261969566345215,-16.90673828125,-12.359619140625,-2.960205078125
4.3324999,-3.0125043392181396,-0.5811924338340759,9.889249801635742,-1.434326171875,-30.242919921875,31.6162109375
4.3374999,-2.1978771686553955,-0.7003039717674255,9.661202430725098,-26.885986328125,-37.17041015625,35.94970703125
4.3424999,-1.1007342338562012,-0.7996633648872375,9.743204116821289,-11.993408203125,-35.888671875,48.675537109375
4.3474999,-0.03770867735147476,-1.4395138025283813,9.730634689331055,23.345947265625,-32.5927734375,66.253662109375
4.352499900000001,0.5776011347770691,-1.9147628545761108,9.456498146057129,28.01513671875,-18.280029296875,68.572998046875
4.3574999000000005,0.8583213090896606,-1.6867151260375977,9.439739227294922,25.20751953125,2.38037109375,67.474365234375
4.3624999,1.2186486721038818,-0.9576807022094727,9.706093788146973,15.350341796875,11.71875,45.867919921875
4.3674999,1.7854759693145752,-0.14484919607639313,9.801262855529785,-0.1220703125,1.800537109375,11.77978515625
4.3724999,2.6880898475646973,-0.2190694510936737,9.765948295593262,4.119873046875,9.735107421875,-18.37158203125
4.3774999,3.796605348587036,-0.15741875767707825,9.587580680847168,1.556396484375,52.8564453125,-51.94091796875
4.3824999,2.9933507442474365,0.014365210197865963,9.782708168029785,-5.0048828125,48.004150390625,-53.192138671875
4.3874999,1.4891934394836426,0.48602294921875,9.721057891845703,-7.568359375,21.484375,-67.596435546875
4.3924999,-0.28072014451026917,0.1586158573627472,9.923367500305176,-6.89697265625,-4.21142578125,-79.28466796875
4.397499900000001,-1.9716250896453857,-0.29149407148361206,10.030508041381836,-20.56884765625,-13.580322265625,-51.57470703125
4.4024999000000005,-2.8868086338043213,-0.8020575642585754,9.378686904907227,-24.566650390625,-10.3759765625,-16.754150390625
4.4074999,-3.029263734817505,-0.5033808946609497,9.941324234008789,-1.983642578125,-23.01025390625,19.561767578125
4.4124999,-2.6623523235321045,-0.5105634927749634,9.780912399291992,-17.730712890625,-36.2548828125,37.9638671875
4.4174999,-1.5795745849609375,-0.4734533727169037,9.663596153259277,-23.62060546875,-36.590576171875,40.1611328125
4.4224999,-0.5093663930892944,-0.9846154451370239,9.781511306762695,13.97705078125,-35.247802734375,61.981201171875
4.4274999,0.34596213698387146,-1.6262614727020264,9.534908294677734,28.045654296875,-24.322509765625,67.0166015625
4.4324999,0.7032967209815979,-1.7196353673934937,9.433155059814453,25.299072265625,-5.462646484375,68.78662109375
4.437499900000001,1.5873557329177856,-0.2819172441959381,9.78989028930664,5.06591796875,5.401611328125,27.069091796875
4.4424999000000005,2.3720552921295166,-0.16340427100658417,9.776124000549316,-0.48828125,3.509521484375,-6.53076171875
4.4474999,3.4153287410736084,-0.10773907601833344,9.657610893249512,16.571044921875,28.167724609375,-32.28759765625
4.4524999,3.9205052852630615,-0.10295066982507706,9.46487808227539,8.4228515625,50.323486328125,-48.370361328125
4.4574999,3.5003228187561035,-0.12330138683319092,9.761159896850586,-5.859375,52.79541015625,-53.070068359375
4.4624999,2.2200236320495605,0.38546648621559143,9.671378135681152,-5.67626953125,33.782958984375,-61.126708984375
4.4674999,0.4405331015586853,0.2902969419956207,9.890447616577148,-8.1787109375,3.875732421875,-79.345703125
4.4724999,-1.3150153160095215,0.1867477297782898,9.996989250183105,-9.3994140625,-10.894775390625,-66.162109375
4.477499900000001,-2.7724854946136475,-0.871489405632019,9.59057331085205,-29.78515625,-13.153076171875,-30.975341796875
4.4824999000000005,-2.0649988651275635,-0.7056909799575806,9.583989143371582,-28.13720703125,-36.9873046875,35.064697265625
4.4874999,0.03531447425484657,-1.48081374168396,9.648633003234863,25.5126953125,-28.594970703125,62.225341796875
4.4924999,0.557250440120697,-1.7896658182144165,9.440337181091309,23.49853515625,-13.702392578125,63.262939453125
4.4974999,0.9684545993804932,-1.4215573072433472,9.554061889648438,22.796630859375,5.31005859375,61.1572265625
4.5024999,1.4317326545715332,-0.6075286865234375,9.763554573059082,10.3759765625,8.941650390625,38.63525390625
4.5074999,2.142810583114624,-0.1364694982767105,9.802460670471191,-1.52587890625,2.9296875,5.18798828125
4.5124999,3.09151291847229,-0.2454056739807129,9.723451614379883,11.444091796875,17.730712890625,-23.895263671875
4.5174999,3.846883535385132,-0.09397241473197937,9.511565208435059,16.448974609375,44.86083984375,-41.9921875
4.522499900000001,3.7493197917938232,-0.14065934717655182,9.6618013381958,-3.509521484375,52.581787109375,-51.483154296875
4.5274999000000005,2.697666883468628,0.24241292476654053,9.721057891845703,-6.103515625,42.29736328125,-55.60302734375
4.5324999,1.0761936902999878,0.5285200476646423,9.786897659301758,-8.453369140625,12.969970703125,-72.6318359375
4.5374999,-0.7410054206848145,0.4100070297718048,9.713275909423828,-6.561279296875,-7.720947265625,-75.5615234375
4.5424999,-2.3726539611816406,-0.6177040338516235,9.824007987976074,-25.848388671875,-15.0146484375,-43.27392578125
4.5474999,-3.0166940689086914,-0.5494692921638489,9.148244857788086,-20.233154296875,-10.6201171875,-10.589599609375
4.5524999,-3.1507694721221924,-0.6817489266395569,10.017339706420898,0.457763671875,-26.702880859375,27.557373046875
4.5574999,-2.5282769203186035,-0.689530074596405,9.840767860412598,-24.566650390625,-37.750244140625,36.62109375
4.562499900000001,-0.3663128614425659,-1.2689268589019775,9.973047256469727,20.721435546875,-34.1796875,63.53759765625
4.5674999000000005,0.3800795078277588,-1.7585411071777344,9.627683639526367,25.69580078125,-19.22607421875,65.12451171875
4.5724999,0.7733271718025208,-1.6496049165725708,9.53969669342041,24.35302734375,-0.06103515625,66.0400390625
4.5774999,1.2066776752471924,-0.9900023937225342,9.740211486816406,16.41845703125,10.528564453125,51.7578125
4.5824999,1.8148049116134644,-0.19213469326496124,9.761159896850586,2.197265625,4.2724609375,20.538330078125
4.5874999,2.7072436809539795,-0.2908954918384552,9.754576683044434,4.669189453125,7.568359375,-12.63427734375
4.5924999,3.6709096431732178,-0.11192893236875534,9.569623947143555,18.402099609375,34.5458984375,-35.15625
4.5974999,3.9839515686035156,-0.1346738487482071,9.473855972290039,2.838134765625,51.727294921875,-49.49951171875
4.602499900000001,1.8399440050125122,0.5542576909065247,9.657012939453125,-6.65283203125,24.658203125,-63.3544921875
4.6074999000000005,-0.038307227194309235,0.20350714027881622,9.9401273727417,-7.904052734375,-1.40380859375,-78.43017578125
4.6124999,-1.6867151260375977,0.16579847037792206,9.979631423950195,-14.404296875,-13.36669921875,-57.098388671875
4.6174999,-2.911947727203369,-0.7523778676986694,9.564237594604492,-28.13720703125,-12.26806640625,-23.0712890625
4.6224999,-3.025672435760498,-0.1801636815071106,9.824007987976074,-5.06591796875,-17.913818359375,12.603759765625
4.6274999,-2.889801502227783,-0.375291109085083,9.949105262756348,-11.566162109375,-34.454345703125,38.177490234375
4.6324999,-1.8716671466827393,-0.5596446394920349,9.745597839355469,-25.390625,-37.353515625,37.994384765625
4.6374999,-0.8415619134902954,-0.910993754863739,9.865307807922363,8.880615234375,-36.56005859375,58.624267578125
4.6424999,0.5656301379203796,-1.8177976608276367,9.461885452270508,23.681640625,-7.4462890625,66.131591796875
4.647499900000001,1.0217255353927612,-1.3239935636520386,9.57860279083252,20.44677734375,9.033203125,60.302734375
4.6524999000000005,1.5981296300888062,-0.4513070285320282,9.710882186889648,7.476806640625,8.026123046875,34.1796875
4.6574999,3.667318344116211,-0.15921440720558167,9.765948295593262,-7.049560546875,52.215576171875,-54.534912109375
4.6624999,2.432508945465088,0.3842693865299225,9.648633003234863,-6.072998046875,35.82763671875,-58.502197265625
4.6674999,0.6865373253822327,0.42377370595932007,9.858125686645508,-8.331298828125,6.866455078125,-76.141357421875
4.6724999,-1.035492181777954,0.5183446407318115,9.769539833068848,-6.744384765625,-10.25390625,-71.1669921875
4.6774999,-2.58813214302063,-0.727837324142456,9.718064308166504,-28.74755859375,-15.472412109375,-36.7431640625
4.6824999,-2.96162748336792,-0.2519897222518921,9.336788177490234,-14.7705078125,-11.41357421875,-3.448486328125
4.687499900000001,-3.1220390796661377,-0.5716156363487244,10.033500671386719,-0.823974609375,-28.9306640625,32.928466796875
4.6924999000000005,-2.3564929962158203,-0.67815762758255,9.779715538024902,-26.67236328125,-37.506103515625,35.15625
4.6974999,-1.3581109046936035,-0.7475894689559937,9.928754806518555,-6.16455078125,-37.04833984375,48.858642578125
4.7024999,-0.31603461503982544,-1.4059948921203613,9.877877235412598,23.284912109375,-30.3955078125,60.546875
4.7074999,1.3982137441635132,-0.7846996188163757,9.736021041870117,12.63427734375,9.46044921875,45.166015625
4.7124999,2.123058319091797,-0.1801636815071106,9.782109260559082,-0.67138671875,4.08935546875,10.68115234375
4.7174999,3.0567970275878906,-0.28311434388160706,9.679159164428711,8.23974609375,12.298583984375,-18.98193359375
4.7224999,3.869628429412842,-0.13527239859104156,9.496002197265625,18.280029296875,40.496826171875,-37.750244140625
4.727499900000001,3.868431329727173,-0.1825578808784485,9.540295600891113,-1.220703125,51.177978515625,-51.239013671875
4.7324999000000005,2.894589900970459,0.11312603205442429,9.679757118225098,-6.8359375,42.96875,-53.192138671875
4.7374999,1.3072341680526733,0.5147533416748047,9.710882186889648,-8.11767578125,16.29638671875,-65.4296875
4.7424999,-0.5141547918319702,-0.023942016065120697,9.93354320526123,-7.6904296875,-6.317138671875,-72.8759765625
4.7474999,-2.0691888332366943,-0.383670836687088,10.052654266357422,-17.974853515625,-14.373779296875,-44.525146484375
4.7524999,-2.895787000656128,-0.9313444495201111,9.558850288391113,-22.39990234375,-10.19287109375,-13.671875
4.7574999,0.20889410376548767,-1.512536883354187,9.567828178405762,23.773193359375,-20.08056640625,57.952880859375
4.7624999,0.20889410376548767,-1.512536883354187,9.567828178405762,23.773193359375,-20.08056640625,57.952880859375
4.7674999,0.6661866307258606,-1.5532383918762207,9.469067573547363,21.1181640625,-4.669189453125,61.03515625
4.772499900000001,1.202487826347351,-1.0372878313064575,9.610325813293457,18.157958984375,9.368896484375,53.89404296875
4.7774999000000005,1.8285715579986572,-0.2621650993824005,9.68813705444336,3.23486328125,5.889892578125,23.040771484375
4.7824999,2.5905263423919678,-0.2902969419956207,9.658807754516602,-0.152587890625,4.33349609375,-10.528564453125
4.7874999,3.531447410583496,-0.2693476974964142,9.55705451965332,17.822265625,29.60205078125,-31.219482421875
4.7924999,3.8492777347564697,-0.272938996553421,9.430161476135254,8.544921875,49.224853515625,-47.149658203125
4.7974999,3.287837505340576,-0.2106897532939911,9.755773544311523,-6.011962890625,48.248291015625,-50.537109375
4.8024999,1.9596540927886963,0.3663128614425659,9.679159164428711,-6.988525390625,29.083251953125,-57.098388671875
4.8074999,-2.8568811416625977,-0.40521863102912903,9.742605209350586,-10.040283203125,-13.36669921875,7.781982421875
4.812499900000001,-2.8568811416625977,-0.40521863102912903,9.742605209350586,-10.040283203125,-13.36669921875,7.781982421875
4.8174999000000005,-2.8443117141723633,-0.47165772318840027,10.020931243896484,-6.591796875,-29.96826171875,37.41455078125
4.8224999,-1.9345149993896484,-0.6236895322799683,9.749788284301758,-25.360107421875,-37.353515625,35.430908203125
4.8274999,-1.0127472877502441,-0.750582218170166,9.79527759552002,1.0986328125,-35.003662109375,50.9033203125
4.8324999,-0.04429273307323456,-1.4574702978134155,9.729436874389648,25.390625,-25.787353515625,58.2275390625
4.8374999,0.5009866952896118,-1.7196353673934937,9.501389503479004,20.69091796875,-10.650634765625,58.929443359375
4.8424999,1.0145429372787476,-1.2533645629882812,9.59476375579834,21.30126953125,5.92041015625,58.10546875
4.8474999,1.6178817749023438,-0.5279214978218079,9.767146110534668,7.659912109375,8.087158203125,30.670166015625
4.852499900000001,2.31758713722229,-0.1999158412218094,9.737217903137207,-3.265380859375,2.01416015625,-3.72314453125
4.8574999000000005,3.250727415084839,-0.345363587141037,9.670180320739746,13.885498046875,21.3623046875,-25.20751953125
4.8624999,2.360682964324951,0.24420857429504395,9.688735961914062,-6.77490234375,36.468505859375,-54.718017578125
4.8674999,0.7218518257141113,0.4692635238170624,9.828198432922363,-9.857177734375,8.9111328125,-72.113037109375
4.8724999,-0.9427168965339661,0.4387374520301819,9.707290649414062,-6.9580078125,-10.009765625,-68.450927734375
4.8774999,-2.3289597034454346,-0.6159083843231201,9.803058624267578,-23.86474609375,-13.397216796875,-34.97314453125
4.8824999,-0.3860650360584259,-1.2132617235183716,9.920374870300293,23.529052734375,-31.097412109375,61.70654296875
4.8874999,0.2944868206977844,-1.7363947629928589,9.594164848327637,23.712158203125,-14.83154296875,61.767578125
4.8924999,0.7601590156555176,-1.413776159286499,9.59835433959961,22.216796875,2.593994140625,63.507080078125
4.897499900000001,2.072780132293701,-0.23283611238002777,9.801861763000488,-1.739501953125,2.227783203125,7.598876953125
4.9024999000000005,3.0310592651367188,-0.3627215623855591,9.68274974822998,8.453369140625,13.12255859375,-19.683837890625
4.9074999,3.8115692138671875,-0.2298433631658554,9.531316757202148,19.500732421875,41.748046875,-37.841796875
4.9124999,3.804386615753174,-0.23762452602386475,9.55825138092041,-0.54931640625,49.98779296875,-51.025390625
4.9174999,2.84790301322937,0.12090718746185303,9.70310115814209,-6.988525390625,43.060302734375,-54.38232421875
4.9224999,1.2874820232391357,0.5704185366630554,9.722254753112793,-9.09423828125,16.4794921875,-68.817138671875
4.9274999,-0.5225345492362976,0.031124621629714966,9.905410766601562,-8.1787109375,-7.01904296875,-75.836181640625
4.9324999,-2.036268472671509,-0.3423708379268646,9.983222961425781,-17.578125,-13.885498046875,-46.93603515625
4.937499900000001,-2.890399932861328,-0.9552865028381348,9.493009567260742,-22.857666015625,-10.498046875,-12.847900390625
4.9424999000000005,-2.9263129234313965,-0.4728548228740692,9.99459457397461,-2.777099609375,-20.32470703125,21.17919921875
4.9474999,-2.6198551654815674,-0.42856210470199585,9.891644477844238,-15.68603515625,-35.552978515625,40.252685546875
4.9524999,0.6141127347946167,-1.548449993133545,9.493608474731445,21.66748046875,-1.40380859375,65.673828125
4.9574999,1.2114660739898682,-0.982221245765686,9.648633003234863,17.913818359375,11.3525390625,54.351806640625
4.9624999,1.8680758476257324,-0.25318682193756104,9.780912399291992,2.227783203125,5.18798828125,21.17919921875
4.9674999,2.7700912952423096,-0.34416648745536804,9.682151794433594,3.96728515625,6.7138671875,-11.04736328125
4.9724999,3.6900634765625,-0.2735375463962555,9.606135368347168,19.22607421875,33.69140625,-32.989501953125
4.977499900000001,3.9647979736328125,-0.284311443567276,9.448118209838867,5.79833984375,49.31640625,-47.36328125
4.9824999000000005,3.2968156337738037,-0.076015904545784,9.747992515563965,-7.568359375,47.7294921875,-53.64990234375
4.9874999,1.8818424940109253,0.5339069962501526,9.677363395690918,-7.9345703125,26.275634765625,-63.507080078125
4.9924999,0.07062894850969315,0.3190273642539978,9.937732696533203,-9.27734375,-0.885009765625,-79.40673828125
4.9974999,-1.5400702953338623,0.17178396880626678,9.983820915222168,-10.498046875,-12.176513671875,-60.72998046875
5.0024999,-1.9823989868164062,-0.6362590789794922,9.641449928283691,-25.482177734375,-39.154052734375,38.26904296875
5.0074999,-1.0594342947006226,-0.7781155705451965,9.747992515563965,3.662109375,-36.590576171875,54.99267578125
5.0124999,-0.09816227108240128,-1.4856021404266357,9.672574996948242,26.7333984375,-26.336669921875,63.018798828125
5.0174999,0.4596867263317108,-1.688510775566101,9.48462963104248,21.270751953125,-8.36181640625,64.0869140625
5.022499900000001,1.035492181777954,-1.2192472219467163,9.602544784545898,21.636962890625,9.002685546875,61.8896484375
5.0274999000000005,1.6891093254089355,-0.43514615297317505,9.780912399291992,7.354736328125,8.941650390625,34.210205078125
5.0324999,2.473809003829956,-0.19871874153614044,9.728240013122559,-0.79345703125,4.180908203125,-0.640869140625
5.0374999,3.473388195037842,-0.322618693113327,9.697115898132324,15.93017578125,23.834228515625,-27.40478515625
5.0424999,3.9851486682891846,-0.2364274114370346,9.416994094848633,14.678955078125,47.36328125,-44.403076171875
5.0474999,3.669114112854004,-0.21128830313682556,9.684545516967773,-5.706787109375,50.262451171875,-53.16162109375
5.0524999,0.6584054827690125,0.5105634927749634,9.816226959228516,-10.1318359375,5.79833984375,-76.5380859375
5.0574999,-1.0911574363708496,0.5117605924606323,9.744999885559082,-7.2021484375,-10.55908203125,-72.296142578125
5.062499900000001,-2.565985679626465,-0.645237386226654,9.801861763000488,-26.092529296875,-15.655517578125,-37.017822265625
5.0674999000000005,-2.9652187824249268,-0.4010287821292877,9.30686092376709,-17.120361328125,-11.23046875,-4.82177734375
5.0724999,-3.0148985385894775,-0.5979518890380859,10.063427925109863,-0.42724609375,-26.30615234375,30.8837890625
5.0774999,-2.3259668350219727,-0.6763619780540466,9.890447616577148,-24.566650390625,-37.9638671875,37.841796875
5.0824999,-1.3281834125518799,-0.7134721279144287,9.920374870300293,-11.8408203125,-37.384033203125,47.576904296875
5.0874999,-0.3800795078277588,-1.290474772453308,9.97603988647461,24.47509765625,-33.203125,65.216064453125
5.0924999,0.2890998423099518,-1.7699135541915894,9.600150108337402,23.284912109375,-15.68603515625,64.63623046875
5.0974999,0.7320271730422974,-1.470638394355774,9.59715747833252,23.284912109375,3.509521484375,66.680908203125
5.102499900000001,1.316810965538025,-0.7763199210166931,9.720458984375,14.16015625,10.55908203125,49.4384765625
5.1074999000000005,2.078166961669922,-0.10295066982507706,9.770736694335938,-0.1220703125,4.2724609375,15.960693359375
5.1124999,3.9270894527435303,-0.20290859043598175,9.528324127197266,19.439697265625,39.306640625,-38.299560546875
5.1174999,4.034828186035156,-0.27712884545326233,9.487024307250977,0.48828125,50.84228515625,-51.055908203125
5.1224999,3.1226375102996826,0.0586579404771328,9.725247383117676,-7.9345703125,46.295166015625,-56.82373046875
5.1274999,1.581370234489441,0.5841852426528931,9.655217170715332,-8.880615234375,19.744873046875,-70.831298828125
5.1324999,-0.2717418968677521,0.1909375786781311,9.905410766601562,-8.30078125,-3.84521484375,-82.550048828125
5.1374999,-1.9219454526901245,-0.16879121959209442,9.930550575256348,-19.287109375,-14.739990234375,-56.060791015625
5.1424999,-2.9460651874542236,-0.9271546006202698,9.367912292480469,-26.06201171875,-11.199951171875,-23.01025390625
5.147499900000001,-3.092111587524414,-0.5063736438751221,9.718663215637207,-2.105712890625,-18.5546875,14.6484375
5.1524999000000005,-2.8670566082000732,-0.5171475410461426,9.712079048156738,-13.275146484375,-35.21728515625,39.6728515625
5.1574999,-1.8405425548553467,-0.49799394607543945,9.57979965209961,-23.98681640625,-38.299560546875,40.58837890625
5.1624999,-0.8254010081291199,-0.8535329103469849,9.795876502990723,12.237548828125,-37.353515625,61.370849609375
5.1674999,0.11312603205442429,-1.5257049798965454,9.598953247070312,26.885986328125,-24.169921875,66.680908203125
5.1724999,1.0809820890426636,-1.169567584991455,9.66539192199707,21.820068359375,11.444091796875,62.042236328125
5.1774999,1.6974890232086182,-0.32202014327049255,9.791686058044434,5.859375,8.11767578125,32.2265625
