# Time (seconds),Accel_X,Accel_Y,Accel_Z,Gyro_X,Gyro_Y,Gyro_Z
0.0024999,0.40282443165779114,-0.33099839091300964,9.566033363342285,-4.8828125,0.79345703125,-0.18310546875
0.0074999,0.40282443165779114,-0.33099839091300964,9.566033363342285,-4.8828125,0.79345703125,-0.18310546875
0.012499900000000001,0.40282443165779114,-0.33099839091300964,9.566033363342285,-4.8828125,0.79345703125,-0.18310546875
0.0174999,0.5225345492362976,-0.3405751883983612,9.840168952941895,4.974365234375,0.335693359375,-1.89208984375
0.0224999,0.27054479718208313,-0.31783026456832886,9.911396026611328,-1.007080078125,-0.457763671875,2.3193359375
0.0274999,0.43035775423049927,-0.27054479718208313,9.980828285217285,5.67626953125,-0.518798828125,-2.01416015625
0.0324999,0.18555063009262085,-0.2495955228805542,10.001178741455078,-1.922607421875,-1.3427734375,1.861572265625
0.0374999,0.4106055796146393,-0.2561795711517334,9.677961349487305,-3.35693359375,1.068115234375,-1.15966796875
0.0424999,0.4794389009475708,-0.29867666959762573,10.003573417663574,5.4931640625,0.18310546875,-0.9765625
0.0474999,0.29628247022628784,-0.32381579279899597,9.870695114135742,-2.685546875,-0.335693359375,1.983642578125
0.0524999,0.52552729845047,-0.3148375153541565,9.594164848327637,-2.25830078125,0.579833984375,-2.01416015625
0.0574999,0.4620809257030487,-0.36571431159973145,9.946710586547852,5.859375,-0.48828125,-0.946044921875
0.0624999,0.25498247146606445,-0.2867056429386139,9.827000617980957,-3.753662109375,-1.28173828125,1.922607421875
0.0674999,0.47465047240257263,-0.2735375463962555,9.656414031982422,-2.3193359375,-0.8544921875,-2.166748046875
0.0724999,0.3728969097137451,-0.2849099934101105,10.020332336425781,5.279541015625,-0.823974609375,-0.640869140625
0.0774999,0.2495955228805542,-0.2364274114370346,9.818621635437012,-4.5166015625,-1.434326171875,1.678466796875
0.0824999,0.4776432514190674,-0.28371289372444153,9.66539192199707,-0.732421875,-0.457763671875,-2.349853515625
0.0874999,0.26156654953956604,-0.29149407148361206,9.707889556884766,-4.913330078125,-0.54931640625,1.556396484375
0.0924999,0.44412440061569214,-0.27892449498176575,9.650428771972656,0.213623046875,0.274658203125,-2.44140625
0.0974999,0.30466216802597046,-0.25498247146606445,9.986215591430664,4.241943359375,-0.8544921875,0.335693359375
0.1024999,0.22026655077934265,-0.21847090125083923,9.71926212310791,-5.889892578125,-1.190185546875,1.251220703125
0.1074999,0.42437225580215454,-0.1999158412218094,9.742006301879883,1.678466796875,1.373291015625,-2.38037109375
0.1124999,0.33937808871269226,-0.22864626348018646,10.013748168945312,3.90625,0.18310546875,0.79345703125
0.1174999,0.3190273642539978,-0.23343466222286224,9.679159164428711,-5.67626953125,-0.30517578125,0.640869140625
0.1224999,0.5261258482933044,-0.31543606519699097,9.660603523254395,2.777099609375,1.0986328125,-2.62451171875
0.1274999,0.38965633511543274,-0.28730419278144836,9.928155899047852,3.11279296875,0.244140625,1.220703125
0.1324999,0.3280056416988373,-0.3130418658256531,9.566631317138672,-5.828857421875,0,0.6103515625
0.1374999,0.4866214990615845,-0.304063618183136,9.723451614379883,3.662109375,1.068115234375,-2.349853515625
0.1424999,0.2819172441959381,-0.23523031175136566,9.998186111450195,1.64794921875,-0.701904296875,1.556396484375
0.1474999,0.4944026470184326,-0.27413609623908997,9.85034465789795,5.06591796875,2.197265625,-2.227783203125
0.1524999,0.3100491166114807,-0.25258827209472656,9.977835655212402,1.068115234375,0,1.678466796875
0.1574999,0.4076128304004669,-0.2861070930957794,9.5809965133667,-5.31005859375,0.335693359375,-0.48828125
0.1624999,0.28072014451026917,-0.27054479718208313,9.910199165344238,-0.640869140625,-0.213623046875,2.13623046875
0.1674999,0.28072014451026917,-0.27054479718208313,9.910199165344238,-0.640869140625,-0.213623046875,2.13623046875
0.1724999,0.3693056106567383,-0.30705636739730835,9.600150108337402,-4.486083984375,-0.30517578125,-1.03759765625
0.17749990000000002,0.444722980260849,-0.2867056429386139,9.95090103149414,6.072998046875,1.77001953125,-1.495361328125
0.1824999,0.20111294090747833,-0.2454056739807129,9.981427192687988,-1.40380859375,0.457763671875,2.288818359375
0.1874999,0.4058171808719635,-0.29807811975479126,9.664793968200684,-3.326416015625,1.373291015625,-1.220703125
0.1924999,0.47584760189056396,-0.2759317457675934,10.000580787658691,5.55419921875,-0.274658203125,-1.373291015625
0.1974999,0.2651578485965729,-0.31184476613998413,9.875483512878418,-2.74658203125,-0.732421875,2.13623046875
0.2024999,0.49619829654693604,-0.3411737382411957,9.61571216583252,-2.5634765625,0.91552734375,-1.739501953125
0.20749990000000001,0.47824180126190186,-0.2902969419956207,9.63067626953125,-0.9765625,-0.9765625,-2.227783203125
0.2124999,0.3776853084564209,-0.22206220030784607,9.93354320526123,5.157470703125,-0.79345703125,-0.213623046875
0.2174999,0.2825157940387726,-0.32620999217033386,9.643245697021484,-5.37109375,-1.40380859375,1.434326171875
0.2224999,0.47584760189056396,-0.2621650993824005,9.583391189575195,0.885009765625,0.823974609375,-2.685546875
0.2274999,0.33698388934135437,-0.228047713637352,9.929352760314941,4.302978515625,-1.0986328125,0.18310546875
0.2324999,0.24420857429504395,-0.24660277366638184,9.692327499389648,-5.889892578125,-1.678466796875,1.03759765625
0.2374999,0.4321534037590027,-0.18974047899246216,9.724050521850586,1.922607421875,1.220703125,-2.62451171875
0.2424999,0.33279404044151306,-0.21188685297966003,10.047865867614746,4.0283203125,0.18310546875,0.640869140625
0.2474999,0.29867666959762573,-0.2495955228805542,9.72165584564209,-5.706787109375,-0.396728515625,0.640869140625
0.2524999,0.49559974670410156,-0.28790274262428284,9.706093788146973,3.0517578125,0.67138671875,-2.655029296875
0.2574999,0.36332011222839355,-0.29628247022628784,9.944316864013672,3.143310546875,0.213623046875,1.129150390625
0.2624999,0.29807811975479126,-0.33039984107017517,9.559449195861816,-5.584716796875,-0.030517578125,0.42724609375
0.2674999,0.4626794755458832,-0.32202014327049255,9.66539192199707,3.509521484375,1.46484375,-2.227783203125
0.2724999,0.2687491476535797,-0.28072014451026917,9.95329475402832,2.044677734375,-0.9765625,1.3427734375
0.2774999,0.2867056429386139,-0.27234044671058655,9.61451530456543,-5.79833984375,-1.8310546875,-0.152587890625
0.2824999,0.4884171485900879,-0.2777273952960968,9.834781646728516,4.730224609375,1.5869140625,-2.349853515625
0.28749990000000003,0.3124433159828186,-0.24839842319488525,9.99100399017334,1.129150390625,-0.8544921875,1.739501953125
0.2924999,0.40521863102912903,-0.2513911724090576,9.603741645812988,-5.401611328125,-0.640869140625,-0.457763671875
0.2974999,0.5590460896492004,-0.3172317147254944,9.828198432922363,4.974365234375,0.244140625,-2.288818359375
0.3024999,0.30885201692581177,-0.26336219906806946,9.906009674072266,-0.274658203125,-1.312255859375,1.983642578125
0.3074999,0.4704606235027313,-0.3208230137825012,9.923367500305176,5.462646484375,0.1220703125,-1.8310546875
0.3124999,0.21009120345115662,-0.23702596127986908,9.988609313964844,-0.9765625,-0.244140625,2.166748046875
0.3174999,0.383670836687088,-0.2645592987537384,9.675567626953125,-3.814697265625,1.617431640625,-1.220703125
0.3224999,0.45250412821769714,-0.30945056676864624,10.031704902648926,5.462646484375,-0.457763671875,-1.5869140625
0.3274999,0.2346317619085312,-0.27234044671058655,9.930550575256348,-2.62451171875,-0.9765625,2.0751953125
0.3324999,0.47225627303123474,-0.3130418658256531,9.642647743225098,-2.99072265625,1.3427734375,-1.678466796875
0.3374999,0.44352585077285767,-0.34835633635520935,9.96825885772705,6.134033203125,0.579833984375,-0.9765625
0.3424999,0.24779987335205078,-0.2974795699119568,9.850942611694336,-3.35693359375,-0.823974609375,2.0751953125
0.34749990000000003,0.45848962664604187,-0.32680854201316833,9.664793968200684,-2.197265625,-0.701904296875,-2.3193359375
0.35249990000000003,0.3770867586135864,-0.3082534670829773,10.02571964263916,5.828857421875,-0.67138671875,-0.823974609375
0.3574999,0.23523031175136566,-0.25438392162323,9.865307807922363,-4.2724609375,-1.556396484375,1.861572265625
0.3624999,0.48961424827575684,-0.2795230448246002,9.676764488220215,-1.03759765625,0.18310546875,-2.13623046875
0.3674999,0.30526071786880493,-0.2669534981250763,9.706692695617676,-4.69970703125,-0.3662109375,1.495361328125
0.3724999,0.4991910457611084,-0.29149407148361206,9.606734275817871,-0.274658203125,-1.3427734375,-2.74658203125
0.3774999,0.3519476354122162,-0.24899697303771973,9.940725326538086,5.096435546875,0.18310546875,0.152587890625
0.3824999,0.2454056739807129,-0.2555810213088989,9.694721221923828,-5.401611328125,-0.274658203125,1.495361328125
0.3874999,0.424970805644989,-0.24181437492370605,9.704896926879883,1.220703125,-0.244140625,-2.349853515625
0.3924999,0.31364041566848755,-0.21009120345115662,10.04307746887207,4.058837890625,-0.396728515625,0.640869140625
0.3974999,0.26156654953956604,-0.23822307586669922,9.727043151855469,-5.645751953125,-0.42724609375,0.67138671875
0.4024999,0.4638765752315521,-0.2555810213088989,9.713275909423828,2.716064453125,1.617431640625,-2.74658203125
0.4074999,0.35075053572654724,-0.23702596127986908,9.955090522766113,3.2958984375,0.1220703125,1.251220703125
0.41249990000000003,0.3082534670829773,-0.31603461503982544,9.564835548400879,-5.859375,0.518798828125,0.732421875
0.41749990000000003,0.4854243993759155,-0.30945056676864624,9.66299819946289,3.60107421875,0.8544921875,-2.471923828125
0.4224999,0.3058592677116394,-0.2801215946674347,9.947908401489258,2.105712890625,-0.946044921875,1.46484375
0.4274999,0.48901569843292236,-0.2561795711517334,9.852738380432129,4.0283203125,-0.244140625,-2.50244140625
0.4324999,0.3058592677116394,-0.2388216257095337,10.036493301391602,1.007080078125,-1.28173828125,1.89208984375
0.4374999,0.3884592354297638,-0.2867056429386139,9.642048835754395,-5.55419921875,-0.885009765625,-0.3662109375
0.4424999,0.5488707423210144,-0.29209262132644653,9.853337287902832,5.523681640625,1.52587890625,-2.38037109375
0.4474999,0.31842881441116333,-0.2968810200691223,9.914987564086914,-0.091552734375,-1.007080078125,1.8310546875
0.4524999,0.39145198464393616,-0.33997663855552673,9.548076629638672,-5.126953125,-1.28173828125,-0.732421875
0.4574999,0.4728548228740692,-0.2777273952960968,9.883264541625977,6.134033203125,1.52587890625,-1.861572265625
0.4624999,0.2059013396501541,-0.27473464608192444,9.95329475402832,-1.15966796875,-0.06103515625,2.044677734375
0.4674999,0.3513490855693817,-0.28131869435310364,9.657610893249512,-3.41796875,1.15966796875,-1.28173828125
0.47249990000000003,0.4405331015586853,-0.24899697303771973,10.032901763916016,5.889892578125,0.946044921875,-1.64794921875
0.47749990000000003,0.23104046285152435,-0.30885201692581177,9.967061996459961,-2.197265625,-0.6103515625,2.01416015625
0.4824999,0.4752490520477295,-0.32620999217033386,9.66958236694336,-3.326416015625,0,-1.64794921875
0.4874999,0.40880993008613586,-0.30945056676864624,9.985616683959961,5.859375,0.885009765625,-0.579833984375
0.4924999,0.24001872539520264,-0.2651578485965729,9.85034465789795,-3.814697265625,-0.396728515625,2.044677734375
0.4974999,0.47584760189056396,-0.23942017555236816,9.679159164428711,-1.52587890625,-0.48828125,-2.13623046875
0.5024999,0.38546648621559143,-0.25019407272338867,9.98681354522705,5.4931640625,0.091552734375,-0.396728515625
0.5074999,0.28311434388160706,-0.23403321206569672,9.757569313049316,-4.669189453125,-0.30517578125,1.52587890625
0.5124999,0.4985924959182739,-0.25438392162323,9.618705749511719,0.030517578125,2.044677734375,-2.288818359375
0.5174999,0.36332011222839355,-0.2795230448246002,9.949105262756348,4.94384765625,-0.457763671875,0.1220703125
0.5224999,0.2537853717803955,-0.26396074891090393,9.692925453186035,-5.462646484375,-1.129150390625,1.190185546875
0.5274999,0.4124012291431427,-0.2561795711517334,9.68933391571045,1.190185546875,2.227783203125,-2.38037109375
0.5324999,0.28311434388160706,-0.2585737705230713,10.033500671386719,4.302978515625,-0.396728515625,0.579833984375
0.5374999,0.43514615297317505,-0.2495955228805542,9.733028411865234,2.13623046875,1.251220703125,-2.532958984375
0.5424999,0.35254621505737305,-0.2585737705230713,9.988011360168457,3.41796875,0.396728515625,1.190185546875
0.5474999,0.3196259140968323,-0.28371289372444153,9.615114212036133,-5.615234375,0.06103515625,0.762939453125
0.5524999,0.507570743560791,-0.3345896899700165,9.656414031982422,3.326416015625,1.3427734375,-2.593994140625
0.5574999,0.3429693877696991,-0.2777273952960968,9.965266227722168,2.50244140625,-0.518798828125,1.40380859375
0.5624999,0.27712884545326233,-0.22086510062217712,10.04307746887207,1.617431640625,-0.1220703125,1.64794921875
0.5674999000000001,0.33099839091300964,-0.25917232036590576,9.654019355773926,-5.218505859375,0.640869140625,-0.030517578125
0.5724999000000001,0.5219359993934631,-0.2885012924671173,9.858723640441895,5.31005859375,1.46484375,-2.25830078125
0.5774999000000001,0.3190273642539978,-0.26336219906806946,9.927556991577148,0.30517578125,-0.8544921875,1.861572265625
0.5824999,0.4159925580024719,-0.2992752194404602,9.559449195861816,-5.43212890625,-0.6103515625,-0.54931640625
0.5874999,0.2621650993824005,-0.26815059781074524,9.923367500305176,-0.823974609375,-1.15966796875,2.197265625
0.5924999,0.3776853084564209,-0.3016694188117981,9.627683639526367,-4.058837890625,0.396728515625,-1.068115234375
0.5974999,0.4531026780605316,-0.2849099934101105,9.99100399017334,5.9814453125,0.701904296875,-1.861572265625
0.6024999,0.2214636504650116,-0.26575639843940735,10.001777648925781,-1.64794921875,-0.54931640625,2.0751953125
0.6074999,0.4357447028160095,-0.32202014327049255,9.6803560256958,-3.204345703125,1.40380859375,-1.40380859375
0.6124999,0.4854243993759155,-0.29628247022628784,10.014347076416016,5.9814453125,0.213623046875,-1.373291015625
0.6174999,0.27473464608192444,-0.3321954905986786,9.857526779174805,-3.0517578125,-0.640869140625,1.983642578125
0.6224999,0.49140989780426025,-0.35434186458587646,9.603741645812988,-2.777099609375,-0.67138671875,-1.77001953125
0.6274999,0.4345476031303406,-0.28790274262428284,9.944915771484375,6.103515625,0.54931640625,-0.9765625
0.6324999,0.23582886159420013,-0.3016694188117981,9.821015357971191,-3.662109375,-0.579833984375,1.77001953125
0.6374999,0.46806642413139343,-0.30047231912612915,9.66299819946289,-0.946044921875,1.312255859375,-2.197265625
0.6424999,0.38965633511543274,-0.2059013396501541,10.003573417663574,5.523681640625,-0.1220703125,-0.48828125
0.6474999,0.26575639843940735,-0.2867056429386139,9.806051254272461,-4.852294921875,-0.67138671875,1.983642578125
0.6524999,0.5081692934036255,-0.27413609623908997,9.649829864501953,0,2.349853515625,-2.01416015625
0.6574999,0.39624038338661194,-0.2495955228805542,9.985017776489258,5.18798828125,0.946044921875,-0.244140625
0.6624999,0.284311443567276,-0.3298012912273407,9.706093788146973,-4.82177734375,-0.54931640625,1.495361328125
0.6674999,0.4620809257030487,-0.2819172441959381,9.658209800720215,0.79345703125,1.251220703125,-2.50244140625
0.6724999,0.314238965511322,-0.2454056739807129,10.01075553894043,4.45556640625,-0.30517578125,0.274658203125
0.6774999,0.2232593148946762,-0.25917232036590576,9.744999885559082,-5.828857421875,-1.190185546875,1.129150390625
0.6824999,0.4159925580024719,-0.20769700407981873,9.767146110534668,1.46484375,0,-2.8076171875
0.6874999,0.32202014327049255,-0.22266076505184174,10.04846477508545,3.96728515625,0.06103515625,0.762939453125
0.6924999000000001,0.2968810200691223,-0.2663549482822418,9.70549488067627,-5.7373046875,-0.152587890625,1.03759765625
0.6974999000000001,0.5027823448181152,-0.29149407148361206,9.6803560256958,2.74658203125,1.52587890625,-2.349853515625
0.7024999000000001,0.37409400939941406,-0.2932897210121155,9.938331604003906,2.9296875,-0.3662109375,1.068115234375
0.7074999,0.3064578175544739,-0.25498247146606445,9.643844604492188,-5.767822265625,-0.48828125,0.244140625
0.7124999,0.5009866952896118,-0.26096799969673157,9.852738380432129,4.302978515625,0.030517578125,-2.349853515625
0.7174999,0.3130418658256531,-0.24899697303771973,9.998785018920898,0.9765625,-0.732421875,1.3427734375
0.7224999,0.3902548849582672,-0.2585737705230713,9.603741645812988,-5.096435546875,0.091552734375,-0.091552734375
0.7274999,0.5339069962501526,-0.31364041566848755,9.82640266418457,5.06591796875,-0.244140625,-2.227783203125
0.7324999,0.28550854325294495,-0.262763649225235,9.900622367858887,-0.54931640625,-1.190185546875,1.89208984375
0.7374999,0.37648820877075195,-0.28550854325294495,9.578003883361816,-4.669189453125,0.518798828125,-0.732421875
0.7424999,0.46148237586021423,-0.3196259140968323,9.926360130310059,5.950927734375,1.5869140625,-1.739501953125
0.7474999,0.2106897532939911,-0.2495955228805542,9.985017776489258,-1.068115234375,-0.518798828125,1.861572265625
0.7524999,0.3926490843296051,-0.2861070930957794,9.677363395690918,-4.08935546875,-0.3662109375,-1.312255859375
0.7574999,0.3818751573562622,-0.2693476974964142,9.993996620178223,5.645751953125,-0.335693359375,-0.79345703125
0.7624999,0.20889410376548767,-0.24420857429504395,9.822811126708984,-4.5166015625,-1.190185546875,1.8310546875
0.7674999,0.4423287510871887,-0.2711433470249176,9.643245697021484,-1.312255859375,-0.3662109375,-2.38037109375
0.7724999,0.36152446269989014,-0.2148796021938324,9.950302124023438,5.706787109375,0.396728515625,-0.274658203125
0.7774999,0.2693476974964142,-0.2902969419956207,9.692327499389648,-4.82177734375,-0.152587890625,1.77001953125
0.7824999,0.4985924959182739,-0.31124621629714966,9.57979965209961,0.3662109375,1.556396484375,-2.227783203125
0.7874999,0.37229835987091064,-0.25977087020874023,9.926360130310059,5.035400390625,0.54931640625,0.18310546875
0.7924999,0.3124433159828186,-0.19273324310779572,10.041281700134277,4.08935546875,0.42724609375,0.6103515625
0.7974999,0.24600422382354736,-0.24600422382354736,9.730035781860352,-5.767822265625,-0.06103515625,0.946044921875
0.8024999,0.44532153010368347,-0.2124854028224945,9.709086418151855,2.655029296875,2.349853515625,-2.44140625
0.8074999,0.34596213698387146,-0.25438392162323,9.954492568969727,3.41796875,0.6103515625,1.007080078125
0.8124999,0.304063618183136,-0.31124621629714966,9.554061889648438,-5.706787109375,0.030517578125,0.732421875
0.8174999000000001,0.48901569843292236,-0.28072014451026917,9.639654159545898,3.173828125,0.640869140625,-2.50244140625
0.8224999000000001,0.3166331648826599,-0.2711433470249176,9.938929557800293,2.288818359375,0.274658203125,1.46484375
0.8274999000000001,0.28550854325294495,-0.27413609623908997,9.637260437011719,-5.767822265625,0.152587890625,0.244140625
0.8324999000000001,0.4602852761745453,-0.23403321206569672,9.86231517791748,3.997802734375,-0.030517578125,-2.593994140625
0.8374999,0.27712884545326233,-0.243011474609375,10.065223693847656,1.556396484375,-0.30517578125,1.617431640625
0.8424999,0.5303156971931458,-0.3016694188117981,9.843161582946777,4.425048828125,-0.244140625,-2.25830078125
0.8474999,0.3250128924846649,-0.2992752194404602,9.895236015319824,0.274658203125,-1.15966796875,1.739501953125
0.8524999,0.4129997789859772,-0.2968810200691223,9.524134635925293,-5.18798828125,-0.67138671875,-0.67138671875
0.8574999,0.5147533416748047,-0.3603273630142212,9.807249069213867,5.43212890625,0.946044921875,-1.8310546875
0.8624999,0.24181437492370605,-0.26994624733924866,9.8970308303833,-0.640869140625,-0.823974609375,1.861572265625
0.8674999,0.3513490855693817,-0.2711433470249176,9.61212158203125,-4.5166015625,-0.54931640625,-1.251220703125
0.8724999,0.4321534037590027,-0.30526071786880493,9.977835655212402,5.584716796875,0.335693359375,-1.52587890625
0.8774999,0.20290859043598175,-0.23343466222286224,9.98681354522705,-1.678466796875,-1.0986328125,1.983642578125
0.8824999,0.4357447028160095,-0.2663549482822418,9.66958236694336,-4.058837890625,-1.495361328125,-1.708984375
0.8874999,0.4908113479614258,-0.3172317147254944,10.012551307678223,5.859375,-0.457763671875,-1.220703125
0.8924999,0.2885012924671173,-0.28131869435310364,9.880870819091797,-2.777099609375,-0.701904296875,2.105712890625
0.8974999,0.5021837949752808,-0.3106476664543152,9.630077362060547,-2.593994140625,1.28173828125,-1.861572265625
0.9024999,0.2256535142660141,-0.2783259451389313,9.84376049041748,-3.60107421875,-0.9765625,2.0751953125
0.9074999,0.4554968774318695,-0.3106476664543152,9.68274974822998,-1.708984375,0.030517578125,-2.13623046875
0.9124999,0.3693056106567383,-0.28072014451026917,10.020332336425781,5.4931640625,-0.091552734375,-0.335693359375
0.9174999,0.25677812099456787,-0.25438392162323,9.819818496704102,-4.5166015625,-0.91552734375,1.861572265625
0.9224999,0.49619829654693604,-0.28730419278144836,9.64683723449707,-0.79345703125,-0.335693359375,-2.44140625
0.9274999,0.3932476341724396,-0.26575639843940735,9.959280967712402,5.55419921875,1.220703125,0.030517578125
0.9324999,0.28311434388160706,-0.2902969419956207,9.671976089477539,-4.7607421875,0.213623046875,1.739501953125
0.9374999,0.4638765752315521,-0.2861070930957794,9.619303703308105,0.946044921875,1.495361328125,-2.5634765625
0.9424999000000001,0.32620999217033386,-0.23942017555236816,9.96825885772705,4.974365234375,0.152587890625,0.335693359375
0.9474999000000001,0.2298433631658554,-0.22924481332302094,9.718663215637207,-5.37109375,-0.54931640625,1.220703125
0.9524999000000001,0.42616790533065796,-0.20769700407981873,9.734824180603027,1.5869140625,0.518798828125,-2.777099609375
0.9574999000000001,0.3232172429561615,-0.20290859043598175,10.041281700134277,3.96728515625,0.091552734375,0.701904296875
0.9624999,0.3705027103424072,-0.28790274262428284,9.947908401489258,3.0517578125,-0.54931640625,1.220703125
0.9674999,0.3106476664543152,-0.3357867896556854,9.5624418258667,-5.7373046875,-0.42724609375,0.579833984375
0.9724999,0.47884035110473633,-0.2974795699119568,9.692925453186035,3.509521484375,0.6103515625,-2.410888671875
0.9774999,0.2867056429386139,-0.243011474609375,9.9772367477417,1.739501953125,-0.762939453125,1.373291015625
0.9824999,0.29149407148361206,-0.25318682193756104,9.64564037322998,-6.103515625,-1.40380859375,0
0.9874999,0.4770447015762329,-0.23283611238002777,9.870096206665039,4.39453125,0.640869140625,-2.38037109375
0.9924999,0.29388827085494995,-0.23762452602386475,10.017339706420898,0.762939453125,-0.213623046875,1.678466796875
0.9974999,0.3728969097137451,-0.2902969419956207,9.608530044555664,-5.218505859375,0.30517578125,-0.30517578125
1.0024999,0.5285200476646423,-0.3130418658256531,9.804854393005371,4.8828125,0.18310546875,-2.0751953125
1.0074999000000002,0.3016694188117981,-0.30286651849746704,9.864110946655273,-0.3662109375,-0.091552734375,1.983642578125
1.0124999000000001,0.38546648621559143,-0.3363853394985199,9.514557838439941,-4.608154296875,0.91552734375,-0.701904296875
1.0174999000000002,0.2388216257095337,-0.314238965511322,9.950302124023438,-2.105712890625,-0.396728515625,2.166748046875
1.0224999000000001,0.47465047240257263,-0.33339259028434753,9.668384552001953,-2.349853515625,2.899169921875,-1.495361328125
1.0274999,0.4854243993759155,-0.3076549172401428,9.983222961425781,5.645751953125,0.06103515625,-1.129150390625
1.0324999000000001,0.26755204796791077,-0.34356793761253357,9.844358444213867,-3.35693359375,-0.91552734375,1.861572265625
1.0374999,0.47465047240257263,-0.333991140127182,9.643245697021484,-2.471923828125,-0.274658203125,-2.105712890625
1.0424999000000001,0.2172738015651703,-0.26815059781074524,9.84376049041748,-4.0283203125,-0.579833984375,1.983642578125
1.0474999,0.45669397711753845,-0.26994624733924866,9.67077922821045,-0.732421875,1.617431640625,-2.166748046875
1.0524999000000002,0.38127660751342773,-0.19452889263629913,9.980828285217285,5.55419921875,-0.213623046875,-0.48828125
1.0574999,0.5117605924606323,-0.28131869435310364,9.603142738342285,-0.518798828125,-0.885009765625,-2.62451171875
1.0624999000000002,0.38726213574409485,-0.2519897222518921,9.954492568969727,4.730224609375,-0.640869140625,0.030517578125
1.0674999,0.27413609623908997,-0.31543606519699097,9.68694019317627,-5.31005859375,-1.129150390625,1.28173828125
1.0724999000000002,0.43993455171585083,-0.2579752206802368,9.667187690734863,1.15966796875,1.0986328125,-2.655029296875
1.0774999,0.3016694188117981,-0.21009120345115662,10.033500671386719,4.547119140625,0.3662109375,0.518798828125
1.0824999000000002,0.2232593148946762,-0.24241292476654053,9.747992515563965,-5.4931640625,0.091552734375,1.251220703125
1.0874999,0.4255693554878235,-0.20530278980731964,9.755773544311523,2.3193359375,1.922607421875,-2.716064453125
1.0924999000000002,0.33279404044151306,-0.2364274114370346,10.030508041381836,3.662109375,0.335693359375,0.6103515625
1.0974999,0.3058592677116394,-0.30885201692581177,9.671976089477539,-5.401611328125,-0.54931640625,0.732421875
1.1024999000000002,0.5117605924606323,-0.3064578175544739,9.68274974822998,3.23486328125,1.068115234375,-2.777099609375
1.1074999,0.3728969097137451,-0.2992752194404602,9.967659950256348,2.471923828125,-0.274658203125,1.220703125
1.1124999000000002,0.32680854201316833,-0.33279404044151306,9.606135368347168,-5.9814453125,-0.54931640625,0.54931640625
1.1174999,0.3016694188117981,-0.24779987335205078,10.02452278137207,1.89208984375,-0.67138671875,1.495361328125
1.1224999000000002,0.3256114423274994,-0.2735375463962555,9.655815124511719,-5.828857421875,-1.15966796875,0.1220703125
1.1274999,0.5135562419891357,-0.23582886159420013,9.871891975402832,4.486083984375,0.18310546875,-2.288818359375
1.1324999000000002,0.32022446393966675,-0.2687491476535797,9.984419822692871,0.274658203125,-1.03759765625,1.800537109375
1.1374999000000001,0.40282443165779114,-0.3166331648826599,9.610923767089844,-5.79833984375,-1.77001953125,-0.67138671875
1.1424999000000002,0.5315127968788147,-0.3232172429561615,9.839570045471191,4.7607421875,-0.030517578125,-2.044677734375
1.1474999000000001,0.284311443567276,-0.33758243918418884,9.907206535339355,-0.457763671875,-0.3662109375,2.0751953125
1.1524999000000002,0.3693056106567383,-0.33039984107017517,9.591172218322754,-4.791259765625,-0.42724609375,-0.946044921875
1.1574999000000001,0.4513070285320282,-0.284311443567276,9.928754806518555,5.67626953125,0.579833984375,-2.01416015625
1.1624999,0.19452889263629913,-0.24899697303771973,9.982624053955078,-1.3427734375,-0.244140625,2.105712890625
1.1674999000000001,0.3645172119140625,-0.2669534981250763,9.676166534423828,-3.662109375,0.6103515625,-1.312255859375
1.1724999,0.44352585077285767,-0.2513911724090576,10.00955867767334,5.859375,0.640869140625,-1.46484375
1.1774999000000002,0.49619829654693604,-0.28311434388160706,9.622296333312988,-2.166748046875,0.48828125,-2.166748046875
1.1824999,0.40880993008613586,-0.29149407148361206,9.986215591430664,5.645751953125,0.762939453125,-0.701904296875
1.1874999000000002,0.24001872539520264,-0.25019407272338867,9.85034465789795,-4.0283203125,-0.42724609375,1.861572265625
1.1924999,0.4812345504760742,-0.24241292476654053,9.680954933166504,-0.762939453125,1.40380859375,-2.3193359375
1.1974999000000002,0.38905778527259827,-0.2902969419956207,9.99459457397461,5.279541015625,-0.3662109375,-0.274658203125
1.2024999,0.28730419278144836,-0.25019407272338867,9.765948295593262,-4.486083984375,-0.6103515625,1.77001953125
1.2074999000000002,0.5051765441894531,-0.2777273952960968,9.631275177001953,-0.06103515625,1.03759765625,-2.62451171875
1.2124999,0.36332011222839355,-0.29628247022628784,9.959878921508789,4.94384765625,-0.30517578125,0.030517578125
1.2174999000000002,0.2519897222518921,-0.2645592987537384,9.707889556884766,-5.157470703125,-0.9765625,1.46484375
1.2224999,0.2795230448246002,-0.26994624733924866,10.020332336425781,4.547119140625,-0.91552734375,0.42724609375
1.2274999000000002,0.22026655077934265,-0.20290859043598175,9.750985145568848,-5.645751953125,-0.8544921875,1.220703125
1.2324999,0.4315548539161682,-0.21607670187950134,9.746196746826172,1.556396484375,0.42724609375,-2.50244140625
1.2374999000000002,0.3489548861980438,-0.2519897222518921,10.003573417663574,3.60107421875,-0.335693359375,1.068115234375
1.2424999,0.3250128924846649,-0.24181437492370605,9.658209800720215,-5.828857421875,-0.640869140625,0.885009765625
1.2474999000000002,0.517746090888977,-0.3130418658256531,9.662399291992188,3.143310546875,1.495361328125,-2.655029296875
1.2524999,0.517746090888977,-0.3130418658256531,9.662399291992188,3.143310546875,1.495361328125,-2.655029296875
1.2574999000000002,0.37469255924224854,-0.3064578175544739,9.938929557800293,2.99072265625,0.335693359375,1.312255859375
1.2624999000000001,0.32202014327049255,-0.31184476613998413,9.589975357055664,-5.55419921875,0.06103515625,0.18310546875
1.2674999000000002,0.48722004890441895,-0.3280056416988373,9.753378868103027,3.204345703125,-0.54931640625,-2.44140625
1.2724999000000001,0.2885012924671173,-0.2693476974964142,10.019734382629395,1.617431640625,-1.0986328125,1.64794921875
1.2774999000000002,0.30885201692581177,-0.2669534981250763,9.658807754516602,-5.767822265625,-0.579833984375,0
1.2824999000000001,0.4034229815006256,-0.243011474609375,9.584588050842285,-5.218505859375,-0.457763671875,-0.518798828125
1.2874999,0.5321113467216492,-0.3064578175544739,9.827000617980957,5.31005859375,1.46484375,-1.800537109375
1.2924999000000001,0.2735375463962555,-0.23702596127986908,9.90122127532959,-0.48828125,-0.274658203125,2.044677734375
1.2974999,0.365115761756897,-0.27653029561042786,9.586383819580078,-4.669189453125,0.030517578125,-0.762939453125
1.3024999000000002,0.4465186297893524,-0.304063618183136,9.947908401489258,5.859375,1.312255859375,-1.5869140625
1.3074999,0.20470423996448517,-0.23523031175136566,9.978434562683105,-1.312255859375,-0.48828125,2.105712890625
1.3124999000000002,0.40880993008613586,-0.29568392038345337,9.66419506072998,-4.0283203125,0,-1.3427734375
1.3174999,0.4818331003189087,-0.3034650683403015,10.004171371459961,6.103515625,1.3427734375,-1.373291015625
1.3224999000000002,0.27234044671058655,-0.31124621629714966,9.884461402893066,-2.44140625,-0.579833984375,2.166748046875
1.3274999,0.49978959560394287,-0.3513490855693817,9.619303703308105,-2.99072265625,0.823974609375,-1.617431640625
1.3324999000000002,0.456095427274704,-0.32860419154167175,9.948506355285645,6.04248046875,0.152587890625,-1.220703125
1.3374999,0.3663128614425659,-0.25079262256622314,10.006566047668457,5.7373046875,0.213623046875,-0.48828125
1.3424999000000002,0.2124854028224945,-0.25079262256622314,9.840767860412598,-4.45556640625,-0.579833984375,1.800537109375
1.3474999,0.4596867263317108,-0.2663549482822418,9.651026725769043,-0.42724609375,1.220703125,-2.25830078125
1.3524999000000002,0.37888240814208984,-0.2064998894929886,9.95329475402832,5.401611328125,-0.518798828125,-0.244140625
1.3574999,0.28550854325294495,-0.27473464608192444,9.68813705444336,-5.218505859375,-1.251220703125,1.40380859375
1.3624999000000002,0.36750996112823486,-0.22685061395168304,9.911994934082031,4.608154296875,-0.396728515625,0.3662109375
1.3674999,0.26575639843940735,-0.2801215946674347,9.66419506072998,-5.55419921875,-1.312255859375,1.28173828125
1.3724999000000002,0.4405331015586853,-0.2346317619085312,9.694122314453125,2.288818359375,2.532958984375,-2.471923828125
1.3774999,0.3232172429561615,-0.20889410376548767,10.05923843383789,4.150390625,0.091552734375,0.518798828125
1.3824999000000002,0.4620809257030487,-0.24241292476654053,9.733627319335938,2.0751953125,-0.732421875,-2.655029296875
1.3874999000000001,0.3489548861980438,-0.27413609623908997,9.964069366455078,3.143310546875,0.1220703125,1.190185546875
1.3924999000000002,0.2998737692832947,-0.3345896899700165,9.572616577148438,-5.4931640625,-0.1220703125,0.640869140625
1.3974999000000001,0.46986207365989685,-0.292691171169281,9.636661529541016,3.90625,1.861572265625,-2.50244140625
1.4024999000000002,0.2968810200691223,-0.27892449498176575,9.93474006652832,2.50244140625,0.3662109375,1.52587890625
1.4074999000000001,0.27413609623908997,-0.2717418968677521,9.604340553283691,-5.706787109375,-0.1220703125,0.213623046875
1.4124999,0.46507367491722107,-0.22086510062217712,9.824606895446777,4.180908203125,1.068115234375,-2.62451171875
1.4174999000000001,0.284311443567276,-0.23104046285152435,10.023324966430664,1.129150390625,-0.762939453125,1.556396484375
1.4224999,0.35434186458587646,-0.23343466222286224,9.641449928283691,-5.401611328125,-0.335693359375,0.030517578125
1.4274999000000002,0.536899745464325,-0.28550854325294495,9.840767860412598,4.547119140625,-0.42724609375,-2.50244140625
1.4324999,0.3256114423274994,-0.2849099934101105,9.90361499786377,0.06103515625,-0.946044921875,1.89208984375
1.4374999000000002,0.4124012291431427,-0.28311434388160706,9.537900924682617,-5.2490234375,0,-0.274658203125
1.4424999,0.23942017555236816,-0.2849099934101105,9.912593841552734,-0.91552734375,-0.67138671875,1.89208984375
1.4474999000000002,0.35434186458587646,-0.28371289372444153,9.624691009521484,-4.638671875,-0.701904296875,-1.007080078125
1.4524999,0.44352585077285767,-0.3292027413845062,9.988609313964844,5.615234375,0.06103515625,-1.77001953125
1.4574999000000002,0.21787235140800476,-0.25917232036590576,9.990405082702637,-1.800537109375,-0.3662109375,1.983642578125
1.4624999,0.4495113790035248,-0.2902969419956207,9.673172950744629,-3.47900390625,1.0986328125,-1.434326171875
1.4674999000000002,0.49320554733276367,-0.34835633635520935,10.005967140197754,5.7373046875,0.42724609375,-1.190185546875
1.4724999,0.2849099934101105,-0.3130418658256531,9.876082420349121,-2.716064453125,-0.9765625,1.861572265625
1.4774999000000002,0.497395396232605,-0.3166331648826599,9.627683639526367,-2.74658203125,-0.244140625,-1.739501953125
1.4824999,0.43095630407333374,-0.3471592366695404,9.9772367477417,5.706787109375,-0.48828125,-0.885009765625
1.4874999000000002,0.23343466222286224,-0.2561795711517334,9.840767860412598,-3.96728515625,-1.220703125,2.01416015625
1.4924999,0.4644751250743866,-0.27892449498176575,9.680954933166504,-1.89208984375,0.79345703125,-1.89208984375
1.4974999000000002,0.37469255924224854,-0.27712884545326233,10.00955867767334,5.706787109375,0.42724609375,-0.42724609375
1.5024999,0.4991910457611084,-0.2885012924671173,9.64564037322998,-0.457763671875,0.518798828125,-2.105712890625
1.5074999000000002,0.3884592354297638,-0.2885012924671173,9.962871551513672,5.157470703125,0.42724609375,0.1220703125
1.5124999000000001,0.2849099934101105,-0.2825157940387726,9.696516990661621,-5.126953125,-0.335693359375,1.5869140625
1.5174999000000002,0.4572925269603729,-0.2795230448246002,9.646238327026367,0.1220703125,-0.213623046875,-2.44140625
1.5224999000000001,0.32202014327049255,-0.2555810213088989,9.997588157653809,4.45556640625,-0.1220703125,0.579833984375
1.5274999000000002,0.2298433631658554,-0.23523031175136566,9.733627319335938,-5.79833984375,-0.274658203125,1.220703125
1.5324999000000001,0.4273650050163269,-0.23104046285152435,9.747393608093262,1.678466796875,1.129150390625,-2.471923828125
1.5374999000000003,0.32620999217033386,-0.2322375625371933,10.02571964263916,4.08935546875,0.3662109375,1.007080078125
1.5424999000000001,0.2932897210121155,-0.24899697303771973,9.68694019317627,-5.828857421875,0.1220703125,0.885009765625
1.5474999,0.4920084476470947,-0.2992752194404602,9.66299819946289,2.716064453125,0.8544921875,-2.471923828125
1.5524999000000002,0.36332011222839355,-0.25977087020874023,9.934141159057617,2.8076171875,-0.79345703125,1.40380859375
1.5574999,0.31603461503982544,-0.3034650683403015,9.563638687133789,-6.195068359375,-0.67138671875,0.457763671875
1.5624999000000002,0.29867666959762573,-0.23702596127986908,10.004171371459961,1.556396484375,-0.946044921875,1.434326171875
1.5674999,0.3148375153541565,-0.26815059781074524,9.651026725769043,-5.889892578125,-1.40380859375,-0.152587890625
1.5724999000000002,0.5105634927749634,-0.26575639843940735,9.874286651611328,4.82177734375,1.89208984375,-2.38037109375
1.5774999,0.32620999217033386,-0.2537853717803955,9.99220085144043,0.823974609375,0.274658203125,1.89208984375
1.5824999000000002,0.4159925580024719,-0.2992752194404602,9.592369079589844,-5.06591796875,1.15966796875,-0.18310546875
1.5874999,0.5548562407493591,-0.3321954905986786,9.817423820495605,5.2490234375,0.030517578125,-2.197265625
1.5924999000000002,0.29807811975479126,-0.3010708689689636,9.885659217834473,-0.42724609375,-0.946044921875,2.01416015625
1.5974999,0.37409400939941406,-0.33339259028434753,9.57201862335205,-4.486083984375,0.06103515625,-0.8544921875
1.6024999000000002,0.35913026332855225,-0.2932897210121155,9.66539192199707,-3.875732421875,0.91552734375,-1.129150390625
1.6074999,0.4465186297893524,-0.24779987335205078,10.02452278137207,6.072998046875,1.40380859375,-1.434326171875
1.6124999000000002,0.4920084476470947,-0.3519476354122162,9.64683723449707,-3.082275390625,-0.946044921875,-1.922607421875
1.6174999,0.48243165016174316,-0.29628247022628784,9.99100399017334,6.103515625,1.251220703125,-1.0986328125
1.6224999000000002,0.27413609623908997,-0.34596213698387146,9.86231517791748,-3.265380859375,-0.335693359375,2.13623046875
1.6274999,0.48722004890441895,-0.31543606519699097,9.68694019317627,-2.777099609375,-2.410888671875,-2.50244140625
1.6324999000000002,0.3944447338581085,-0.26755204796791077,10.02452278137207,5.950927734375,0.762939453125,-0.67138671875
1.6374999000000001,0.23283611238002777,-0.29628247022628784,9.84615421295166,-3.96728515625,0.06103515625,1.8310546875
1.6424999000000002,0.47225627303123474,-0.292691171169281,9.655815124511719,-0.335693359375,2.105712890625,-2.197265625
1.6474999000000001,0.3824737071990967,-0.2585737705230713,9.941324234008789,5.18798828125,-0.54931640625,-0.244140625
1.6524999000000002,0.27054479718208313,-0.31603461503982544,9.66539192199707,-5.279541015625,-1.129150390625,1.495361328125
1.6574999000000001,0.47405192255973816,-0.2819172441959381,9.560047149658203,0.335693359375,0.274658203125,-2.5634765625
1.6624999000000003,0.3315969407558441,-0.2717418968677521,9.895236015319824,5.096435546875,-0.152587890625,0.244140625
1.6674999000000001,0.23702596127986908,-0.2645592987537384,9.666589736938477,-5.31005859375,-0.762939453125,1.190185546875
1.6724999,0.2687491476535797,-0.19931729137897491,9.75278091430664,-5.43212890625,0,1.03759765625
1.6774999000000002,0.47405192255973816,-0.24241292476654053,9.732429504394531,2.74658203125,2.01416015625,-2.44140625
1.6824999,0.32022446393966675,-0.2998737692832947,9.602544784545898,-5.950927734375,-0.6103515625,0.701904296875
1.6874999000000002,0.5015852451324463,-0.3387795388698578,9.674370765686035,2.86865234375,-0.396728515625,-2.685546875
1.6924999,0.32620999217033386,-0.28790274262428284,9.971251487731934,2.25830078125,-0.732421875,1.373291015625
1.6974999000000002,0.30047231912612915,-0.29149407148361206,9.62828254699707,-5.7373046875,-0.42724609375,0.274658203125
1.7024999,0.4776432514190674,-0.26815059781074524,9.840767860412598,4.0283203125,0.6103515625,-2.777099609375
1.7074999000000002,0.2783259451389313,-0.22744916379451752,10.031704902648926,1.03759765625,-1.15966796875,1.40380859375
1.7124999,0.3411737382411957,-0.27054479718208313,9.636661529541016,-5.7373046875,-1.373291015625,-0.30517578125
1.7174999000000002,0.5105634927749634,-0.30526071786880493,9.833584785461426,5.157470703125,1.556396484375,-1.953125
1.7224999,0.3932476341724396,-0.32441434264183044,9.531316757202148,-5.18798828125,-0.274658203125,-0.54931640625
1.7274999000000002,0.49559974670410156,-0.32202014327049255,9.844358444213867,5.645751953125,0.885009765625,-1.77001953125
1.7324999,0.2406172752380371,-0.26994624733924866,9.935338973999023,-1.007080078125,-0.30517578125,1.89208984375
1.7374999000000002,0.37169981002807617,-0.3082534670829773,9.654618263244629,-4.0283203125,-0.274658203125,-1.434326171875
1.7424999,0.45010992884635925,-0.26755204796791077,10.026318550109863,5.859375,0.030517578125,-1.64794921875
1.7474999000000002,0.21966800093650818,-0.28790274262428284,9.995792388916016,-2.166748046875,-0.946044921875,1.983642578125
1.7524999,0.4405331015586853,-0.345363587141037,9.68155288696289,-3.448486328125,-0.213623046875,-1.40380859375
1.7574999000000002,0.46567222476005554,-0.29807811975479126,10.005369186401367,6.40869140625,1.556396484375,-1.068115234375
1.7624999000000001,0.518943190574646,-0.2885012924671173,9.625288963317871,0.030517578125,1.861572265625,-2.166748046875
1.7674999000000002,0.40521863102912903,-0.284311443567276,9.942521095275879,4.7607421875,-0.18310546875,-0.091552734375
1.7724999000000001,0.2932897210121155,-0.3280056416988373,9.656414031982422,-5.18798828125,-0.885009765625,1.495361328125
1.7774999000000002,0.4554968774318695,-0.2519897222518921,9.634267807006836,1.190185546875,1.46484375,-2.44140625
1.7824999000000001,0.31603461503982544,-0.2561795711517334,9.978434562683105,4.730224609375,1.0986328125,0.640869140625
1.7874999000000003,0.2322375625371933,-0.2059013396501541,9.718663215637207,-5.279541015625,0.457763671875,1.220703125
1.7924999000000001,0.42856210470199585,-0.1604115068912506,9.748590469360352,2.0751953125,1.953125,-2.593994140625
1.7974999,0.3345896899700165,-0.24420857429504395,10.011354446411133,3.448486328125,-0.823974609375,0.823974609375
1.8024999000000002,0.2944868206977844,-0.21128830313682556,9.667187690734863,-5.950927734375,-1.3427734375,0.732421875
1.8074999,0.48722004890441895,-0.27712884545326233,9.688735961914062,2.777099609375,0.79345703125,-2.655029296875
1.8124999000000002,0.3477577865123749,-0.30705636739730835,9.943717956542969,2.777099609375,0.030517578125,1.220703125
1.8174999,0.3016694188117981,-0.27653029561042786,9.601945877075195,-5.706787109375,0.335693359375,0.579833984375
1.8224999000000002,0.48303020000457764,-0.31603461503982544,9.75397777557373,3.7841796875,0.8544921875,-2.5634765625
1.8274999,0.29568392038345337,-0.2795230448246002,9.999981880187988,1.8310546875,-0.274658203125,1.678466796875
1.8324999000000002,0.3357867896556854,-0.2663549482822418,9.644442558288574,-5.584716796875,0.54931640625,0.1220703125
1.8374999,0.5273229479789734,-0.3172317147254944,9.848548889160156,4.486083984375,0.30517578125,-2.349853515625
1.8424999000000002,0.333991140127182,-0.27473464608192444,9.967659950256348,0.701904296875,-0.946044921875,1.89208984375
1.8474999,0.4213795065879822,-0.2795230448246002,9.583989143371582,-5.43212890625,-0.762939453125,-0.335693359375
1.8524999000000002,0.5363011956214905,-0.345363587141037,9.832387924194336,5.0048828125,0.18310546875,-2.227783203125
1.8574999,0.2687491476535797,-0.25438392162323,9.914987564086914,-0.518798828125,-1.495361328125,1.89208984375
1.8624999000000002,0.3513490855693817,-0.25917232036590576,9.606135368347168,-4.8828125,-1.617431640625,-1.129150390625
1.8674999,0.42377370595932007,-0.3082534670829773,9.955689430236816,6.103515625,1.617431640625,-1.5869140625
1.8724999000000002,0.3902548849582672,-0.26755204796791077,9.674370765686035,-3.448486328125,0.457763671875,-1.3427734375
1.8774999,0.3902548849582672,-0.26755204796791077,9.674370765686035,-3.448486328125,0.457763671875,-1.3427734375
1.8824999000000002,0.4572925269603729,-0.33099839091300964,10.023923873901367,6.103515625,0.1220703125,-1.40380859375
1.8874999000000001,0.26336219906806946,-0.2902969419956207,9.903017044067383,-2.62451171875,-1.373291015625,1.922607421875
1.8924999000000002,0.497395396232605,-0.3082534670829773,9.631275177001953,-3.23486328125,-1.007080078125,-1.89208984375
1.8974999000000001,0.45429977774620056,-0.3531447649002075,9.97484302520752,6.195068359375,0.9765625,-0.732421875
1.9024999000000002,0.2555810213088989,-0.26994624733924866,9.844358444213867,-3.387451171875,-0.640869140625,1.89208984375
1.9074999000000001,0.47884035110473633,-0.2992752194404602,9.6803560256958,-2.197265625,-0.67138671875,-2.25830078125
1.9124999000000003,0.38486793637275696,-0.29568392038345337,10.022727012634277,5.55419921875,-0.8544921875,-0.518798828125
1.9174999000000001,0.25438392162323,-0.24899697303771973,9.838972091674805,-4.486083984375,-1.068115234375,1.800537109375
1.9224999,0.3232172429561615,-0.2735375463962555,9.95209789276123,4.8828125,0.518798828125,0.30517578125
1.9274999000000002,0.3232172429561615,-0.2735375463962555,9.95209789276123,4.8828125,0.518798828125,0.30517578125
1.9324999,0.23343466222286224,-0.2472013235092163,9.697115898132324,-5.4931640625,-0.457763671875,1.251220703125
1.9374999000000002,0.42676645517349243,-0.24001872539520264,9.714473724365234,0.91552734375,-0.67138671875,-2.74658203125
1.9424999,0.3298012912273407,-0.2256535142660141,10.02811336517334,4.08935546875,0.335693359375,0.885009765625
1.9474999000000002,0.2944868206977844,-0.23283611238002777,9.701305389404297,-5.645751953125,-0.030517578125,0.8544921875
1.9524999,0.4950011968612671,-0.2950853705406189,9.696516990661621,2.44140625,0.457763671875,-2.471923828125
1.9574999000000002,0.36990416049957275,-0.2669534981250763,9.965864181518555,3.021240234375,-0.06103515625,1.28173828125
1.9624999,0.3106476664543152,-0.3298012912273407,9.589975357055664,-5.950927734375,-0.3662109375,0.6103515625
1.9674999000000002,0.4818331003189087,-0.31842881441116333,9.724050521850586,3.326416015625,-0.48828125,-2.5634765625
1.9724999,0.28550854325294495,-0.25917232036590576,9.996390342712402,1.983642578125,-0.579833984375,1.434326171875
1.9774999000000002,0.29209262132644653,-0.2819172441959381,9.644442558288574,-5.706787109375,0.457763671875,0.30517578125
1.9824999,0.28969839215278625,-0.24779987335205078,9.996989250183105,0.91552734375,-0.579833984375,1.678466796875
1.9874999000000002,0.37469255924224854,-0.2944868206977844,9.600749015808105,-5.0048828125,0.30517578125,-0.457763671875
1.9924999,0.5231330990791321,-0.31124621629714966,9.824606895446777,5.523681640625,1.495361328125,-2.197265625
1.9974999000000002,0.2885012924671173,-0.2861070930957794,9.9000244140625,-0.274658203125,0.091552734375,2.105712890625
2.0024999,0.383670836687088,-0.31124621629714966,9.563638687133789,-4.425048828125,0.762939453125,-0.762939453125
2.0074999,0.47465047240257263,-0.26815059781074524,9.909002304077148,5.43212890625,-0.396728515625,-1.983642578125
2.0124999000000003,0.21847090125083923,-0.23163901269435883,9.964667320251465,-1.708984375,-0.946044921875,2.0751953125
2.0174999000000002,0.39564183354377747,-0.2849099934101105,9.646238327026367,-3.753662109375,-0.213623046875,-1.40380859375
2.0224999,0.4704606235027313,-0.23702596127986908,10.011953353881836,6.2255859375,1.495361328125,-1.46484375
2.0274999,0.25498247146606445,-0.30705636739730835,9.913790702819824,-2.62451171875,-0.274658203125,2.166748046875
2.0324999000000004,0.48901569843292236,-0.35254621505737305,9.634267807006836,-2.838134765625,0.18310546875,-1.8310546875
2.0374999000000003,0.46746787428855896,-0.2950853705406189,9.97065258026123,6.378173828125,2.044677734375,-1.007080078125
2.0424999,0.46507367491722107,-0.3190273642539978,9.64803409576416,-2.166748046875,-0.885009765625,-2.044677734375
2.0474999,0.375291109085083,-0.25677812099456787,9.988011360168457,6.134033203125,0.823974609375,-0.701904296875
2.0524999,0.2190694510936737,-0.2819172441959381,9.813833236694336,-4.2724609375,-0.6103515625,2.0751953125
2.0574999000000003,0.4686649739742279,-0.2867056429386139,9.637859344482422,-1.190185546875,-0.244140625,-2.197265625
2.0624999,0.3824737071990967,-0.25079262256622314,9.95329475402832,5.4931640625,0.8544921875,-0.213623046875
2.0674999,0.2902969419956207,-0.3298012912273407,9.679159164428711,-4.69970703125,0,1.77001953125
2.0724999,0.49320554733276367,-0.3016694188117981,9.585784912109375,0.8544921875,1.3427734375,-2.38037109375
2.0774999000000003,0.3579331636428833,-0.23582886159420013,9.9371337890625,5.06591796875,0.3662109375,0.244140625
2.0824999,0.25977087020874023,-0.25079262256622314,9.706093788146973,-5.67626953125,0.030517578125,1.46484375
2.0874999,0.4291606545448303,-0.18076223134994507,9.726444244384766,1.64794921875,1.190185546875,-2.38037109375
2.0924999,0.314238965511322,-0.17477671802043915,10.07779312133789,3.84521484375,-0.244140625,0.885009765625
2.0974999000000003,0.24600422382354736,-0.24839842319488525,9.75517463684082,-5.92041015625,-0.79345703125,0.701904296875
2.1024999,0.2992752194404602,-0.30226796865463257,9.656414031982422,-5.096435546875,0.67138671875,-0.1220703125
2.1074999,0.46627077460289,-0.2561795711517334,9.883264541625977,4.730224609375,0.8544921875,-2.655029296875
2.1124999,0.2819172441959381,-0.25318682193756104,10.04307746887207,1.15966796875,-0.732421875,1.8310546875
2.1174999000000003,0.375291109085083,-0.2819172441959381,9.637260437011719,-5.523681640625,-0.30517578125,0.06103515625
2.1224999,0.5608417391777039,-0.28730419278144836,9.835380554199219,5.06591796875,1.068115234375,-1.8310546875
2.1274999,0.35075053572654724,-0.3076549172401428,9.880870819091797,-0.3662109375,-0.48828125,1.922607421875
2.1324999,0.42856210470199585,-0.3298012912273407,9.521739959716797,-4.8828125,-0.396728515625,-0.762939453125
2.1374999000000003,0.5057750940322876,-0.28371289372444153,9.848548889160156,5.889892578125,1.678466796875,-1.922607421875
2.1424999000000002,0.21667525172233582,-0.2950853705406189,9.97364616394043,-1.953125,-0.6103515625,2.044677734375
2.1474999,0.4554968774318695,-0.34656068682670593,9.68694019317627,-3.082275390625,-0.213623046875,-1.861572265625
2.1524999,0.4800374507904053,-0.3256114423274994,9.993996620178223,6.378173828125,1.068115234375,-1.40380859375
2.1574999000000004,0.2801215946674347,-0.3687070608139038,9.85034465789795,-2.838134765625,0.152587890625,2.044677734375
2.1624999000000003,0.31184476613998413,-0.2693476974964142,9.750386238098145,-4.5166015625,-0.396728515625,1.64794921875
2.1674999,0.27712884545326233,-0.2717418968677521,10.00716495513916,4.39453125,-0.518798828125,0.579833984375
2.1724999,0.20111294090747833,-0.21607670187950134,9.731831550598145,-5.279541015625,-0.91552734375,0.9765625
2.1774999000000004,0.40701428055763245,-0.23283611238002777,9.755773544311523,1.953125,0.579833984375,-2.8076171875
2.1824999000000003,0.3196259140968323,-0.28311434388160706,10.008959770202637,3.84521484375,0.335693359375,0.91552734375
2.1874999,0.2944868206977844,-0.2621650993824005,9.6618013381958,-5.615234375,0.06103515625,0.8544921875
2.1924999,0.5003881454467773,-0.33279404044151306,9.6803560256958,2.410888671875,-0.823974609375,-2.5634765625
2.1974999,0.3579331636428833,-0.3082534670829773,9.944915771484375,2.9296875,-0.152587890625,1.312255859375
2.2024999000000003,0.3214215636253357,-0.30286651849746704,9.602544784545898,-5.31005859375,0.42724609375,0.54931640625
2.2074999,0.49978959560394287,-0.2998737692832947,9.771934509277344,3.631591796875,0.030517578125,-2.50244140625
2.2124999,0.3495534360408783,-0.23523031175136566,9.659406661987305,-5.767822265625,-0.091552734375,-0.06103515625
2.2174999,0.5339069962501526,-0.27653029561042786,9.859322547912598,5.157470703125,2.25830078125,-1.89208984375
2.2224999000000003,0.3232172429561615,-0.25438392162323,9.95748519897461,0.79345703125,0.213623046875,1.739501953125
2.2274999,0.406415730714798,-0.26575639843940735,9.575011253356934,-4.852294921875,0.701904296875,-0.579833984375
2.2324999,0.5105634927749634,-0.34596213698387146,9.835979461669922,5.06591796875,-0.152587890625,-1.922607421875
2.2374999,0.24001872539520264,-0.25977087020874023,9.915586471557617,-0.67138671875,-0.30517578125,2.01416015625
2.2424999000000003,0.28131869435310364,-0.3016694188117981,9.889848709106445,-2.8076171875,-0.91552734375,2.227783203125
2.2474999,0.3860650360584259,-0.2753331959247589,10.019135475158691,5.615234375,-0.335693359375,-0.48828125
2.2524999,0.2663549482822418,-0.2585737705230713,9.818621635437012,-4.608154296875,-0.762939453125,1.953125
2.2574999,0.4920084476470947,-0.2890998423099518,9.645041465759277,-0.457763671875,1.678466796875,-2.166748046875
2.2624999000000003,0.3794809579849243,-0.2669534981250763,9.947908401489258,5.096435546875,0.274658203125,-0.1220703125
2.2674999000000002,0.26096799969673157,-0.2902969419956207,9.664793968200684,-5.218505859375,-0.91552734375,1.617431640625
2.2724999,0.4405331015586853,-0.28371289372444153,9.603142738342285,0.152587890625,-0.335693359375,-2.410888671875
2.2774999,0.30885201692581177,-0.2585737705230713,9.955090522766113,4.669189453125,-0.152587890625,0.518798828125
2.2824999000000004,0.23163901269435883,-0.2513911724090576,9.707889556884766,-5.645751953125,-0.42724609375,1.46484375
2.2874999000000003,0.43694180250167847,-0.25079262256622314,9.729436874389648,1.922607421875,0.1220703125,-2.685546875
2.2924999,0.30945056676864624,-0.26156654953956604,9.685144424438477,-6.16455078125,-1.220703125,0.885009765625
2.2974999,0.5099649429321289,-0.2968810200691223,9.682151794433594,2.838134765625,0.701904296875,-2.62451171875
2.3024999000000004,0.3621230125427246,-0.25677812099456787,9.954492568969727,3.021240234375,-0.1220703125,1.434326171875
2.3074999000000003,0.3172317147254944,-0.31364041566848755,9.584588050842285,-5.7373046875,0.54931640625,0.457763671875
2.3124999,0.4842272996902466,-0.2825157940387726,9.744400978088379,3.387451171875,0.091552734375,-2.532958984375
2.3174999,0.28371289372444153,-0.2406172752380371,10.004770278930664,1.89208984375,0.274658203125,1.617431640625
2.3224999,0.3100491166114807,-0.2663549482822418,9.642647743225098,-5.18798828125,1.129150390625,-0.18310546875
2.3274999000000003,0.4967968463897705,-0.2777273952960968,9.867103576660156,5.035400390625,0.885009765625,-2.593994140625
2.3324999,0.304063618183136,-0.27054479718208313,9.964069366455078,0.6103515625,-0.091552734375,1.89208984375
2.3374999,0.40043023228645325,-0.3196259140968323,9.581595420837402,-4.974365234375,0.6103515625,-0.42724609375
2.3424999,0.5279214978218079,-0.3298012912273407,9.828198432922363,5.37109375,0.885009765625,-2.01416015625
2.3474999000000003,0.44592007994651794,-0.25498247146606445,9.965266227722168,6.103515625,1.52587890625,-1.64794921875
2.3524999,0.2041056901216507,-0.23702596127986908,10.000580787658691,-1.678466796875,-0.42724609375,2.166748046875
2.3574999,0.41778820753097534,-0.30466216802597046,9.683348655700684,-3.631591796875,0.091552734375,-1.28173828125
2.3624999,0.48722004890441895,-0.2753331959247589,10.040084838867188,6.439208984375,1.708984375,-1.251220703125
2.3674999000000003,0.2801215946674347,-0.34416648745536804,9.91738224029541,-2.62451171875,0.335693359375,2.25830078125
2.3724999,0.5039794445037842,-0.36571431159973145,9.661202430725098,-2.532958984375,0.67138671875,-1.617431640625
2.3774999,0.4489128291606903,-0.2867056429386139,10.006566047668457,5.31005859375,-0.946044921875,-1.03759765625
2.3824999,0.24241292476654053,-0.32860419154167175,9.860519409179688,-4.150390625,-1.861572265625,1.922607421875
2.3874999000000003,0.4602852761745453,-0.29149407148361206,9.68155288696289,-1.800537109375,-0.640869140625,-1.708984375
2.3924999000000002,0.37229835987091064,-0.24001872539520264,10.010157585144043,5.706787109375,0.244140625,-0.701904296875
2.3974999,0.24839842319488525,-0.28730419278144836,9.807249069213867,-4.486083984375,-1.46484375,1.5869140625
2.4024999,0.2406172752380371,-0.2406172752380371,9.724648475646973,-5.79833984375,-1.251220703125,1.15966796875
2.4074999000000004,0.4315548539161682,-0.18794482946395874,9.742006301879883,1.953125,1.678466796875,-2.44140625
2.4124999000000003,0.3321954905986786,-0.19871874153614044,10.034099578857422,3.814697265625,0.1220703125,0.9765625
2.4174999,0.30047231912612915,-0.22924481332302094,9.686341285705566,-6.011962890625,0.091552734375,0.946044921875
2.4224999,0.30047231912612915,-0.22924481332302094,9.686341285705566,-6.011962890625,0.091552734375,0.946044921875
2.4274999000000004,0.4991910457611084,-0.2663549482822418,9.660005569458008,3.0517578125,1.28173828125,-2.777099609375
2.4324999000000003,0.3669114112854004,-0.28371289372444153,9.922170639038086,2.960205078125,-0.30517578125,1.129150390625
2.4374999,0.3130418658256531,-0.3082534670829773,9.550470352172852,-5.859375,-0.762939453125,0.18310546875
2.4424999,0.28311434388160706,-0.26815059781074524,9.976638793945312,1.64794921875,-1.03759765625,1.495361328125
2.4474999,0.3034650683403015,-0.2669534981250763,9.633070945739746,-5.889892578125,-1.129150390625,-0.1220703125
2.4524999000000003,0.4950011968612671,-0.2795230448246002,9.846753120422363,4.302978515625,0.823974609375,-2.227783203125
2.4574999,0.29867666959762573,-0.25737667083740234,9.988609313964844,0.640869140625,-0.9765625,1.617431640625
2.4624999,0.38127660751342773,-0.2663549482822418,9.59177017211914,-5.4931640625,-1.617431640625,-0.8544921875
2.4674999,0.5147533416748047,-0.33339259028434753,9.838972091674805,5.31005859375,0.762939453125,-2.044677734375
2.4724999000000003,0.26575639843940735,-0.26096799969673157,9.904812812805176,-0.3662109375,-0.91552734375,2.13623046875
2.4774999,0.3693056106567383,-0.2825157940387726,9.588777542114258,-5.0048828125,-0.518798828125,-0.79345703125
2.4824999,0.21847090125083923,-0.23044191300868988,9.984419822692871,-1.3427734375,-0.152587890625,1.983642578125
2.4874999,0.42018240690231323,-0.28072014451026917,9.677363395690918,-3.570556640625,0.335693359375,-1.312255859375
2.4924999000000003,0.4878185987472534,-0.30047231912612915,10.029909133911133,5.4931640625,-0.579833984375,-1.52587890625
2.4974999,0.45848962664604187,-0.32381579279899597,9.67077922821045,-1.983642578125,-0.335693359375,-2.0751953125
2.5024999,0.45848962664604187,-0.32381579279899597,9.67077922821045,-1.983642578125,-0.335693359375,-2.0751953125
2.5074999,0.36750996112823486,-0.26575639843940735,10.008959770202637,6.011962890625,0.701904296875,-0.48828125
2.5124999000000003,0.22744916379451752,-0.26815059781074524,9.832387924194336,-4.5166015625,-0.762939453125,1.77001953125
2.5174999000000002,0.4710591733455658,-0.2908954918384552,9.647436141967773,-1.220703125,-0.18310546875,-2.0751953125
2.5224999,0.38307225704193115,-0.23942017555236816,9.959878921508789,5.43212890625,0.213623046875,0.091552734375
2.5274999,0.28790274262428284,-0.29149407148361206,9.67077922821045,-5.279541015625,-0.3662109375,1.678466796875
2.5324999000000004,0.4836287498474121,-0.2867056429386139,9.591172218322754,0.335693359375,-0.244140625,-2.593994140625
2.5374999000000003,0.34177228808403015,-0.2214636504650116,9.940725326538086,5.0048828125,0.30517578125,0.244140625
2.5424999,0.25258827209472656,-0.23403321206569672,9.695320129394531,-5.4931640625,-0.18310546875,1.15966796875
2.5474999,0.33279404044151306,-0.1711854189634323,10.052654266357422,3.60107421875,-0.54931640625,0.9765625
2.5524999000000004,0.292691171169281,-0.24420857429504395,9.719860076904297,-6.134033203125,-1.129150390625,0.885009765625
2.5574999000000003,0.49380409717559814,-0.2801215946674347,9.713275909423828,2.655029296875,0.274658203125,-2.74658203125
2.5624999,0.3663128614425659,-0.28131869435310364,9.97484302520752,3.2958984375,0.701904296875,1.312255859375
2.5674999,0.3100491166114807,-0.34596213698387146,9.582193374633789,-5.401611328125,1.068115234375,0.518798828125
2.5724999,0.47405192255973816,-0.3010708689689636,9.707290649414062,3.41796875,-0.579833984375,-2.685546875
2.5774999000000003,0.2801215946674347,-0.24779987335205078,9.983820915222168,1.434326171875,-1.617431640625,1.46484375
2.5824999,0.2867056429386139,-0.2944868206977844,9.615114212036133,-6.195068359375,-1.922607421875,-0.152587890625
2.5874999,0.4812345504760742,-0.2346317619085312,9.848548889160156,4.608154296875,0.518798828125,-2.44140625
2.5924999,0.29807811975479126,-0.2645592987537384,9.979631423950195,0.762939453125,-0.54931640625,1.800537109375
2.5974999000000003,0.395043283700943,-0.3058592677116394,9.596558570861816,-4.852294921875,1.373291015625,-0.1220703125
2.6024999,0.5494692921638489,-0.28969839215278625,9.841365814208984,5.06591796875,0.396728515625,-2.0751953125
2.6074999,0.3974374830722809,-0.29388827085494995,9.600150108337402,-5.06591796875,-0.274658203125,-0.823974609375
2.6124999,0.4692635238170624,-0.2561795711517334,9.941324234008789,5.889892578125,1.617431640625,-1.77001953125
2.6174999000000003,0.20231004059314728,-0.24779987335205078,9.989208221435547,-1.28173828125,-0.67138671875,2.227783203125
2.6224999,0.37828385829925537,-0.284311443567276,9.671378135681152,-3.997802734375,0.152587890625,-1.129150390625
2.6274999,0.45190557837486267,-0.2603694200515747,10.012551307678223,5.9814453125,0.30517578125,-1.434326171875
2.6324999,0.24241292476654053,-0.31543606519699097,9.90122127532959,-2.50244140625,-0.91552734375,2.0751953125
2.6374999000000003,0.4920084476470947,-0.35075053572654724,9.634267807006836,-2.777099609375,1.312255859375,-1.617431640625
2.6424999000000002,0.23403321206569672,-0.28730419278144836,9.852140426635742,-4.21142578125,0.1220703125,2.044677734375
2.6474999,0.39863458275794983,-0.23822307586669922,9.971850395202637,5.55419921875,0.3662109375,-0.18310546875
2.6524999,0.2998737692832947,-0.31842881441116333,9.683947563171387,-5.035400390625,-0.54931640625,1.495361328125
2.6574999000000004,0.5003881454467773,-0.2885012924671173,9.5809965133667,0.732421875,2.62451171875,-2.288818359375
2.6624999000000003,0.3585317134857178,-0.22864626348018646,9.925761222839355,4.974365234375,0.946044921875,0.48828125
2.6674999,0.2561795711517334,-0.27653029561042786,9.68155288696289,-5.4931640625,-0.48828125,1.129150390625
2.6724999,0.42616790533065796,-0.1933317929506302,9.702502250671387,1.52587890625,0.06103515625,-2.5634765625
2.6774999000000004,0.3100491166114807,-0.1843535304069519,10.046070098876953,3.84521484375,-0.8544921875,0.885009765625
2.6824999000000003,0.24899697303771973,-0.2298433631658554,9.728838920593262,-6.16455078125,-0.885009765625,1.190185546875
2.6874999,0.4507084786891937,-0.2256535142660141,9.709685325622559,2.86865234375,1.800537109375,-2.685546875
2.6924999,0.3411737382411957,-0.26575639843940735,9.966463088989258,3.448486328125,0.213623046875,1.15966796875
2.6974999,0.30286651849746704,-0.3363853394985199,9.567230224609375,-5.67626953125,-0.579833984375,0.6103515625
2.7024999000000003,0.49978959560394287,-0.3076549172401428,9.68933391571045,3.692626953125,1.739501953125,-2.5634765625
2.7074999,0.383670836687088,-0.27892449498176575,9.663596153259277,-5.31005859375,0.335693359375,-0.030517578125
2.7124999,0.5518634915351868,-0.30945056676864624,9.839570045471191,5.18798828125,1.556396484375,-2.5634765625
2.7174999,0.3298012912273407,-0.33039984107017517,9.882067680358887,0.274658203125,-0.30517578125,1.8310546875
2.7224999000000003,0.40880993008613586,-0.3345896899700165,9.506776809692383,-4.791259765625,0.579833984375,-0.54931640625
2.7274999,0.49320554733276367,-0.3166331648826599,9.818022727966309,5.340576171875,0.518798828125,-2.01416015625
2.7324999,0.2298433631658554,-0.262763649225235,9.912593841552734,-1.28173828125,-0.91552734375,2.044677734375
2.7374999,0.37648820877075195,-0.23942017555236816,9.625288963317871,-4.486083984375,-0.67138671875,-1.007080078125
2.7424999000000003,0.4513070285320282,-0.28790274262428284,9.996989250183105,5.615234375,-0.30517578125,-1.46484375
2.7474999,0.23403321206569672,-0.28131869435310364,9.959878921508789,-2.01416015625,-1.0986328125,1.800537109375
2.7524999,0.4836287498474121,-0.35913026332855225,9.982025146484375,5.67626953125,-1.068115234375,-1.28173828125
2.7574999,0.2861070930957794,-0.3016694188117981,9.849745750427246,-3.35693359375,-1.0986328125,2.197265625
2.7624999000000003,0.507570743560791,-0.292691171169281,9.610923767089844,-2.685546875,0.457763671875,-1.77001953125
2.7674999000000002,0.42018240690231323,-0.3208230137825012,9.976638793945312,6.103515625,0.946044921875,-0.8544921875
2.7724999,0.22266076505184174,-0.2513911724090576,9.84256362915039,-3.448486328125,-0.42724609375,1.556396484375
2.7774999,0.43754035234451294,-0.27413609623908997,9.689932823181152,-1.190185546875,0.3662109375,-2.288818359375
2.7824999000000004,0.34596213698387146,-0.2663549482822418,10.022128105163574,5.7373046875,1.068115234375,-0.30517578125
2.7874999000000003,0.2454056739807129,-0.2364274114370346,9.79527759552002,-4.730224609375,0,2.0751953125
2.7924999,0.49320554733276367,-0.26755204796791077,9.633070945739746,-0.885009765625,-0.823974609375,-2.227783203125
2.7974999,0.3884592354297638,-0.2849099934101105,9.954492568969727,5.035400390625,0.213623046875,0.1220703125
2.8024999000000004,0.24839842319488525,-0.23283611238002777,9.742605209350586,-6.134033203125,-1.40380859375,1.129150390625
2.8074999000000003,0.444722980260849,-0.22445641458034515,9.749189376831055,1.495361328125,-0.42724609375,-2.838134765625
2.8124999,0.3411737382411957,-0.23283611238002777,10.016142845153809,3.41796875,-1.068115234375,0.732421875
2.8174999,0.30047231912612915,-0.2585737705230713,9.6618013381958,-6.04248046875,-1.251220703125,0.823974609375
2.8224999,0.4944026470184326,-0.31184476613998413,9.678560256958008,2.777099609375,-0.30517578125,-2.685546875
2.8274999000000003,0.34416648745536804,-0.2621650993824005,9.959280967712402,2.716064453125,-0.6103515625,1.3427734375
2.8324999,0.29867666959762573,-0.27653029561042786,9.61451530456543,-5.9814453125,-0.213623046875,0.42724609375
2.8374999,0.46148237586021423,-0.2495955228805542,9.789292335510254,3.35693359375,0,-2.5634765625
2.8424999,0.2603694200515747,-0.19692309200763702,10.037092208862305,1.52587890625,-0.762939453125,1.52587890625
2.8474999000000003,0.3064578175544739,-0.24001872539520264,9.663596153259277,-5.340576171875,-0.335693359375,-0.335693359375
2.8524999,0.5063736438751221,-0.2669534981250763,9.858125686645508,5.0048828125,1.312255859375,-2.105712890625
2.8574999,0.20709845423698425,-0.2519897222518921,9.985616683959961,-1.708984375,-0.54931640625,1.953125
2.8624999,0.4010287821292877,-0.30047231912612915,9.67077922821045,-3.173828125,1.64794921875,-1.28173828125
2.8674999000000003,0.45489832758903503,-0.27473464608192444,10.037690162658691,6.04248046875,0.91552734375,-1.190185546875
2.8724999,0.2388216257095337,-0.3196259140968323,9.90361499786377,-2.62451171875,-0.42724609375,2.25830078125
2.8774999,0.46746787428855896,-0.34416648745536804,9.661202430725098,-2.471923828125,1.312255859375,-1.64794921875
2.8824999,0.3902548849582672,-0.20889410376548767,10.010157585144043,6.103515625,1.739501953125,-0.3662109375
2.8874999000000003,0.25677812099456787,-0.2753331959247589,9.807249069213867,-4.180908203125,0.457763671875,1.922607421875
2.8924999000000002,0.49559974670410156,-0.2861070930957794,9.621099472045898,-0.79345703125,0.335693359375,-1.861572265625
2.8974999,0.3902548849582672,-0.23762452602386475,9.95329475402832,5.157470703125,0.213623046875,-0.091552734375
2.9024999,0.2849099934101105,-0.3292027413845062,9.667187690734863,-5.2490234375,-0.06103515625,1.5869140625
2.9074999000000004,0.4704606235027313,-0.28072014451026917,9.615114212036133,0.54931640625,0.67138671875,-2.227783203125
2.9124999000000003,0.32381579279899597,-0.2388216257095337,9.95329475402832,4.669189453125,0.823974609375,0.579833984375
2.9174999,0.22744916379451752,-0.26336219906806946,9.707290649414062,-5.31005859375,0.457763671875,1.312255859375
2.9224999,0.40940847992897034,-0.19632454216480255,9.728838920593262,2.13623046875,1.983642578125,-2.74658203125
2.9274999000000004,0.30226796865463257,-0.19931729137897491,10.035895347595215,3.7841796875,-0.701904296875,0.732421875
2.9324999000000003,0.2753331959247589,-0.2364274114370346,9.71926212310791,-6.195068359375,-1.220703125,0.54931640625
2.9374999,0.4818331003189087,-0.2519897222518921,9.686341285705566,2.960205078125,1.678466796875,-2.410888671875
2.9424999,0.3034650683403015,-0.27712884545326233,9.966463088989258,1.861572265625,-0.335693359375,1.708984375
2.9474999,0.30945056676864624,-0.2687491476535797,9.64923095703125,-5.767822265625,-0.457763671875,0.152587890625
2.9524999000000003,0.49559974670410156,-0.2717418968677521,9.86770248413086,4.638671875,1.5869140625,-2.532958984375
2.9574999,0.30286651849746704,-0.2585737705230713,10.037690162658691,0.885009765625,-0.54931640625,1.8310546875
2.9624999,0.38307225704193115,-0.26575639843940735,9.637260437011719,-5.4931640625,-0.274658203125,-0.152587890625
2.9674999,0.5380968451499939,-0.33039984107017517,9.849745750427246,4.69970703125,-0.06103515625,-2.3193359375
2.9724999000000003,0.2968810200691223,-0.2777273952960968,9.910798072814941,-0.1220703125,-1.373291015625,1.77001953125
2.9774999,0.38486793637275696,-0.2777273952960968,9.57441234588623,-5.0048828125,-0.946044921875,-0.885009765625
2.9824999,0.46567222476005554,-0.31783026456832886,9.901819229125977,4.913330078125,-0.640869140625,-1.800537109375
2.9874999,0.19812019169330597,-0.23163901269435883,9.974244117736816,-1.40380859375,-1.678466796875,2.0751953125
2.9924999000000003,0.44173020124435425,-0.30466216802597046,10.02691650390625,6.16455078125,1.251220703125,-1.556396484375
2.9974999,0.2346317619085312,-0.2669534981250763,9.941324234008789,-1.861572265625,-0.701904296875,2.197265625
3.0024999,0.48482584953308105,-0.31184476613998413,9.646238327026367,-3.082275390625,0.6103515625,-1.46484375
3.0074999,0.47225627303123474,-0.3381809890270233,9.97603988647461,5.7373046875,0.030517578125,-1.03759765625
3.0124999000000003,0.47225627303123474,-0.3381809890270233,9.97603988647461,5.7373046875,0.030517578125,-1.03759765625
3.0174999000000002,0.26396074891090393,-0.3058592677116394,9.84256362915039,-3.265380859375,-0.8544921875,2.227783203125
3.0224999,0.46806642413139343,-0.3298012912273407,9.654618263244629,-2.13623046875,1.251220703125,-1.8310546875
3.0274999,0.3705027103424072,-0.3082534670829773,9.996989250183105,6.256103515625,0.701904296875,-0.885009765625
3.0324999000000004,0.2148796021938324,-0.2495955228805542,9.848548889160156,-3.96728515625,-0.640869140625,1.861572265625
3.0374999000000003,0.45908817648887634,-0.262763649225235,9.659406661987305,-0.79345703125,0.67138671875,-2.25830078125
3.0424999,0.27234044671058655,-0.23762452602386475,9.749189376831055,-5.31005859375,0.42724609375,0.823974609375
3.0474999,0.4638765752315521,-0.25977087020874023,9.723451614379883,3.021240234375,1.800537109375,-2.838134765625
3.0524999000000004,0.345363587141037,-0.23762452602386475,9.967061996459961,3.326416015625,0.213623046875,1.03759765625
3.0574999000000003,0.29149407148361206,-0.30705636739730835,9.558850288391113,-5.859375,-0.396728515625,0.762939453125
3.0624999,0.4728548228740692,-0.2968810200691223,9.642647743225098,3.204345703125,0.213623046875,-2.685546875
3.0674999,0.29209262132644653,-0.25318682193756104,9.934141159057617,2.25830078125,-0.762939453125,1.312255859375
3.0724999000000004,0.28131869435310364,-0.28730419278144836,9.615114212036133,-5.767822265625,-0.732421875,0.30517578125
3.0774999000000003,0.46627077460289,-0.22744916379451752,9.85034465789795,4.425048828125,0.48828125,-2.471923828125
3.0824999,0.3687070608139038,-0.2801215946674347,9.642048835754395,-5.859375,-0.762939453125,-0.152587890625
3.0874999,0.547075092792511,-0.27413609623908997,9.850942611694336,5.2490234375,1.800537109375,-2.38037109375
3.0924999,0.33339259028434753,-0.32620999217033386,9.911396026611328,0.18310546875,-0.335693359375,1.64794921875
3.0974999000000003,0.4106055796146393,-0.33698388934135437,9.549872398376465,-4.913330078125,0.30517578125,-0.48828125
3.1024999,0.5033808946609497,-0.31124621629714966,9.880870819091797,5.7373046875,1.46484375,-2.044677734375
3.1074999,0.2214636504650116,-0.2783259451389313,9.93354320526123,-1.312255859375,-0.335693359375,1.953125
3.1124999,0.35673606395721436,-0.28131869435310364,9.644442558288574,-4.2724609375,-0.579833984375,-1.220703125
3.1174999000000003,0.4273650050163269,-0.2585737705230713,9.999981880187988,5.67626953125,0.274658203125,-1.678466796875
3.1224999,0.47405192255973816,-0.322618693113327,9.961674690246582,5.859375,0.213623046875,-1.3427734375
3.1274999,0.2735375463962555,-0.3447650372982025,9.837176322937012,-2.99072265625,-0.48828125,2.105712890625
3.1324999,0.4165911078453064,-0.30705636739730835,9.97603988647461,5.645751953125,-0.701904296875,-0.946044921875
3.1374999000000003,0.25019407272338867,-0.25079262256622314,9.854534149169922,-4.150390625,-1.556396484375,1.8310546875
3.1424999000000002,0.48722004890441895,-0.23762452602386475,9.678560256958008,-1.434326171875,0.396728515625,-2.0751953125
3.1474999,0.40282443165779114,-0.262763649225235,10.001777648925781,5.615234375,-0.1220703125,-0.3662109375
3.1524999,0.30047231912612915,-0.23582886159420013,9.77791976928711,-4.608154296875,-1.007080078125,1.46484375
3.1574999000000004,0.5159504413604736,-0.2645592987537384,9.63067626953125,-0.091552734375,1.495361328125,-2.227783203125
3.1624999000000003,0.3818751573562622,-0.2950853705406189,9.965266227722168,5.126953125,-0.030517578125,0.091552734375
3.1674999,0.26156654953956604,-0.2795230448246002,9.697713851928711,-5.035400390625,-1.007080078125,1.251220703125
3.1724999,0.41539400815963745,-0.26575639843940735,9.677961349487305,0.91552734375,-0.06103515625,-2.716064453125
3.1774999000000004,0.27712884545326233,-0.272938996553421,10.02811336517334,4.8828125,0.67138671875,0.732421875
3.1824999000000003,0.20709845423698425,-0.2106897532939911,9.747992515563965,-5.43212890625,0.48828125,1.007080078125
3.1874999,0.4207809567451477,-0.21188685297966003,9.762357711791992,2.0751953125,1.220703125,-2.471923828125
3.1924999,0.31364041566848755,-0.2388216257095337,9.657012939453125,-5.645751953125,0.335693359375,0.701904296875
3.1974999000000004,0.5117605924606323,-0.314238965511322,9.68155288696289,2.716064453125,-0.091552734375,-2.471923828125
3.2024999000000003,0.35254621505737305,-0.2950853705406189,9.947309494018555,2.50244140625,-0.823974609375,1.40380859375
3.2074999,0.3148375153541565,-0.3016694188117981,9.603142738342285,-5.9814453125,-0.823974609375,0.274658203125
3.2124999,0.4800374507904053,-0.31124621629714966,9.779715538024902,4.0283203125,1.739501953125,-2.410888671875
3.2174999,0.2867056429386139,-0.24361002445220947,10.016741752624512,1.89208984375,0.06103515625,1.617431640625
3.2224999000000003,0.333991140127182,-0.24899697303771973,9.642647743225098,-5.43212890625,0.335693359375,-0.335693359375
3.2274999,0.5267243981361389,-0.2825157940387726,9.849146842956543,4.852294921875,1.220703125,-2.0751953125
3.2324999,0.3196259140968323,-0.24121582508087158,9.944915771484375,0.335693359375,-0.732421875,2.13623046875
3.2374999,0.4082113802433014,-0.2687491476535797,9.573814392089844,-5.035400390625,-0.518798828125,-0.79345703125
3.2424999000000003,0.5057750940322876,-0.3250128924846649,9.85034465789795,4.974365234375,-0.274658203125,-2.197265625
3.2474999,0.22864626348018646,-0.25318682193756104,9.9401273727417,-0.6103515625,-0.579833984375,1.8310546875
3.2524999,0.345363587141037,-0.2825157940387726,9.621099472045898,-4.302978515625,1.28173828125,-1.190185546875
3.2574999,0.42377370595932007,-0.3190273642539978,9.989806175231934,5.615234375,-0.18310546875,-1.617431640625
3.2624999000000003,0.2059013396501541,-0.2687491476535797,9.986215591430664,-1.861572265625,-0.91552734375,2.13623046875
3.2674999000000002,0.436343252658844,-0.33937808871269226,9.683348655700684,-3.448486328125,0.396728515625,-1.495361328125
3.2724999,0.4818331003189087,-0.345363587141037,10.017938613891602,5.828857421875,-0.396728515625,-1.312255859375
3.2774999,0.27712884545326233,-0.3321954905986786,9.88506031036377,-3.173828125,-1.03759765625,2.105712890625
3.2824999000000004,0.5021837949752808,-0.3411737382411957,9.637859344482422,-2.5634765625,1.495361328125,-1.800537109375
3.2874999000000003,0.43694180250167847,-0.3076549172401428,9.97364616394043,5.889892578125,0.8544921875,-0.640869140625
3.2924999,0.2472013235092163,-0.2735375463962555,9.835979461669922,-3.72314453125,-0.30517578125,1.983642578125
3.2974999,0.4734533727169037,-0.3058592677116394,9.662399291992188,-1.15966796875,0.762939453125,-2.62451171875
3.3024999000000004,0.3842693865299225,-0.23104046285152435,9.991601943969727,5.7373046875,0.42724609375,-0.518798828125
3.3074999000000003,0.2645592987537384,-0.2663549482822418,9.777320861816406,-4.5166015625,-0.640869140625,1.861572265625
3.3124999,0.4908113479614258,-0.2861070930957794,9.61571216583252,-0.244140625,1.46484375,-2.471923828125
3.3174999,0.3016694188117981,-0.19931729137897491,10.006566047668457,4.45556640625,-0.579833984375,0.457763671875
3.3224999000000004,0.24361002445220947,-0.2298433631658554,9.740809440612793,-6.40869140625,-1.64794921875,1.251220703125
3.3274999000000003,0.45669397711753845,-0.19273324310779572,9.75637149810791,1.8310546875,0,-2.532958984375
3.3324999,0.36810851097106934,-0.20530278980731964,10.025120735168457,3.204345703125,-0.152587890625,0.946044921875
3.3374999,0.3280056416988373,-0.3100491166114807,9.640851974487305,-5.828857421875,0.030517578125,0.762939453125
3.3424999,0.5153518915176392,-0.2998737692832947,9.664793968200684,3.265380859375,1.068115234375,-2.62451171875
3.3474999000000003,0.3579331636428833,-0.3130418658256531,9.941324234008789,2.8076171875,0.091552734375,1.190185546875
3.3524999,0.31184476613998413,-0.33997663855552673,9.609726905822754,-5.462646484375,0.30517578125,0.396728515625
3.3574999,0.47405192255973816,-0.26396074891090393,9.809642791748047,3.23486328125,-0.885009765625,-2.44140625
3.3624999,0.47884035110473633,-0.25258827209472656,9.858723640441895,4.33349609375,-0.518798828125,-2.471923828125
3.3674999000000003,0.28550854325294495,-0.2777273952960968,9.935338973999023,0.42724609375,-0.762939453125,1.89208984375
3.3724999,0.39624038338661194,-0.2890998423099518,9.53969669342041,-5.0048828125,0.18310546875,-0.54931640625
3.3774999,0.5225345492362976,-0.3100491166114807,9.816226959228516,5.126953125,0.48828125,-2.01416015625
3.3824999,0.2735375463962555,-0.2783259451389313,9.895833969116211,-0.823974609375,-0.79345703125,2.105712890625
3.3874999000000003,0.3842693865299225,-0.2555810213088989,9.599552154541016,-4.608154296875,-1.40380859375,-1.15966796875
3.3924999000000002,0.4620809257030487,-0.2992752194404602,9.980828285217285,5.889892578125,1.251220703125,-2.25830078125
3.3974999,0.22026655077934265,-0.25977087020874023,9.991601943969727,-1.312255859375,-0.030517578125,2.044677734375
3.4024999,0.43993455171585083,-0.29209262132644653,9.667786598205566,-3.326416015625,1.15966796875,-1.312255859375
3.4074999000000004,0.4818331003189087,-0.365115761756897,10.011354446411133,6.072998046875,1.800537109375,-1.129150390625
3.4124999000000003,0.26575639843940735,-0.3387795388698578,9.86231517791748,-2.532958984375,0.213623046875,2.044677734375
3.4174999,0.40222588181495667,-0.3663128614425659,9.962871551513672,6.134033203125,1.251220703125,-1.007080078125
3.4224999,0.21009120345115662,-0.2669534981250763,9.835979461669922,-3.509521484375,-0.152587890625,1.983642578125
3.4274999000000004,0.44771572947502136,-0.2669534981250763,9.68155288696289,-1.861572265625,0.885009765625,-1.77001953125
3.4324999000000003,0.37169981002807617,-0.2603694200515747,10.016142845153809,5.859375,0.91552734375,-0.518798828125
3.4374999,0.2555810213088989,-0.22445641458034515,9.827000617980957,-4.21142578125,-0.335693359375,1.556396484375
3.4424999,0.45010992884635925,-0.2663549482822418,9.651026725769043,0.640869140625,1.40380859375,-2.410888671875
3.4474999000000004,0.31783026456832886,-0.27473464608192444,10.004770278930664,4.45556640625,-0.335693359375,0.30517578125
3.4524999000000003,0.24420857429504395,-0.25977087020874023,9.739013671875,-5.706787109375,-1.0986328125,1.190185546875
3.4574999,0.4387374520301819,-0.2645592987537384,9.752182006835938,1.617431640625,0.42724609375,-2.38037109375
3.4624999,0.5027823448181152,-0.31842881441116333,9.690531730651855,2.44140625,0.18310546875,-2.532958984375
3.4674999,0.35913026332855225,-0.2801215946674347,9.96945571899414,3.11279296875,0.42724609375,1.312255859375
3.4724999000000003,0.3034650683403015,-0.304063618183136,9.610325813293457,-5.4931640625,0.67138671875,0.335693359375
3.4774999,0.46746787428855896,-0.2944868206977844,9.759963035583496,3.60107421875,-0.48828125,-2.50244140625
3.4824999,0.2711433470249176,-0.2148796021938324,10.02571964263916,1.8310546875,-1.129150390625,1.5869140625
3.4874999,0.30286651849746704,-0.22385786473751068,9.654019355773926,-5.889892578125,-0.396728515625,-0.091552734375
3.4924999000000003,0.5021837949752808,-0.24420857429504395,9.864709854125977,4.608154296875,0.457763671875,-2.410888671875
3.4974999,0.32202014327049255,-0.2214636504650116,9.976638793945312,0.67138671875,-0.732421875,1.89208984375
3.5024999,0.42437225580215454,-0.28311434388160706,9.589975357055664,-5.31005859375,-0.579833984375,-0.67138671875
3.5074999,0.5524620413780212,-0.3471592366695404,9.836577415466309,4.974365234375,0.152587890625,-1.953125
3.5124999000000003,0.29568392038345337,-0.2908954918384552,9.903017044067383,-0.518798828125,-0.579833984375,2.0751953125
3.5174999000000002,0.456095427274704,-0.322618693113327,9.942521095275879,6.011962890625,1.251220703125,-1.8310546875
3.5224999,0.2064998894929886,-0.2645592987537384,9.972448348999023,-1.495361328125,-0.457763671875,2.13623046875
3.5274999,0.39624038338661194,-0.33279404044151306,9.66299819946289,-3.631591796875,0.3662109375,-1.434326171875
3.5324999000000004,0.4507084786891937,-0.3124433159828186,10.005967140197754,6.04248046875,0.54931640625,-1.495361328125
3.5374999000000003,0.23582886159420013,-0.33339259028434753,9.876082420349121,-2.8076171875,-0.9765625,2.13623046875
3.5424999,0.46806642413139343,-0.35673606395721436,9.61571216583252,-2.86865234375,-0.274658203125,-1.861572265625
3.5474999,0.43754035234451294,-0.29149407148361206,9.965266227722168,6.28662109375,1.068115234375,-0.8544921875
3.5524999000000004,0.25318682193756104,-0.28969839215278625,9.836577415466309,-3.692626953125,-0.091552734375,2.105712890625
3.5574999000000003,0.49140989780426025,-0.2902969419956207,9.674370765686035,-1.708984375,0.48828125,-2.105712890625
3.5624999,0.4129997789859772,-0.21128830313682556,10.014347076416016,5.9814453125,0.579833984375,-0.762939453125
3.5674999,0.27712884545326233,-0.2693476974964142,9.822212219238281,-4.69970703125,-0.213623046875,1.8310546875
3.5724999000000004,0.518943190574646,-0.29628247022628784,9.653421401977539,-0.8544921875,-0.6103515625,-2.471923828125
3.5774999000000003,0.3034650683403015,-0.33339259028434753,9.70549488067627,-4.8828125,0.091552734375,1.678466796875
3.5824999,0.47884035110473633,-0.2711433470249176,9.655815124511719,1.220703125,1.739501953125,-2.50244140625
3.5874999,0.322618693113327,-0.22445641458034515,9.998186111450195,4.5166015625,-0.579833984375,0.152587890625
3.5924999,0.22206220030784607,-0.25677812099456787,9.733627319335938,-6.072998046875,-1.40380859375,1.190185546875
3.5974999000000003,0.3968389332294464,-0.18614917993545532,9.742605209350586,2.105712890625,1.64794921875,-2.349853515625
3.6024999,0.2693476974964142,-0.2651578485965729,9.703699111938477,-5.767822265625,-0.518798828125,0.732421875
3.6074999,0.48722004890441895,-0.2801215946674347,9.707889556884766,3.082275390625,1.15966796875,-2.593994140625
3.6124999,0.37169981002807617,-0.30705636739730835,9.971251487731934,2.655029296875,-0.396728515625,1.15966796875
3.6174999000000003,0.33039984107017517,-0.33937808871269226,9.592369079589844,-6.072998046875,-0.91552734375,0.457763671875
3.6224999,0.5039794445037842,-0.30945056676864624,9.737217903137207,3.5400390625,-0.06103515625,-2.410888671875
3.6274999,0.3034650683403015,-0.28371289372444153,9.992799758911133,1.678466796875,-0.762939453125,1.52587890625
3.6324999,0.40222588181495667,-0.25977087020874023,9.57860279083252,-5.126953125,0.54931640625,-0.6103515625
3.6374999000000003,0.5291185975074768,-0.33099839091300964,9.804255485534668,5.035400390625,0.8544921875,-2.166748046875
3.6424999000000002,0.272938996553421,-0.27653029561042786,9.882665634155273,-0.152587890625,-0.946044921875,2.166748046875
3.6474999,0.363918662071228,-0.26994624733924866,9.567230224609375,-4.486083984375,-0.54931640625,-1.068115234375
3.6524999,0.4507084786891937,-0.32022446393966675,9.915586471557617,5.31005859375,0,-1.922607421875
3.6574999000000004,0.2041056901216507,-0.23582886159420013,9.978434562683105,-1.40380859375,-1.007080078125,2.105712890625
3.6624999000000003,0.4016273319721222,-0.24420857429504395,9.678560256958008,-4.08935546875,0.18310546875,-1.190185546875
3.6674999,0.47225627303123474,-0.3166331648826599,10.031106948852539,5.767822265625,0.701904296875,-1.312255859375
3.6724999,0.2603694200515747,-0.2735375463962555,9.932944297790527,-2.685546875,-0.885009765625,2.01416015625
3.6774999000000004,0.45489832758903503,-0.37648820877075195,9.984419822692871,6.103515625,1.556396484375,-0.79345703125
3.6824999000000003,0.4692635238170624,-0.29867666959762573,9.655217170715332,-2.38037109375,-1.190185546875,-2.166748046875
3.6874999,0.37169981002807617,-0.32860419154167175,10.00836181640625,5.889892578125,0.579833984375,-0.457763671875
3.6924999,0.23582886159420013,-0.23523031175136566,9.823410034179688,-4.150390625,-0.396728515625,1.678466796875
3.6974999000000004,0.48961424827575684,-0.25498247146606445,9.658209800720215,-0.762939453125,1.190185546875,-2.25830078125
3.7024999000000003,0.38546648621559143,-0.2902969419956207,9.988011360168457,5.615234375,1.068115234375,0.030517578125
3.7074999,0.29807811975479126,-0.24660277366638184,9.726444244384766,-4.7607421875,0.30517578125,1.617431640625
3.7124999,0.48482584953308105,-0.23702596127986908,9.653421401977539,0.701904296875,1.708984375,-2.532958984375
3.7174999,0.33099839091300964,-0.28371289372444153,9.997588157653809,4.241943359375,-0.823974609375,0.274658203125
3.7224999000000003,0.2406172752380371,-0.2106897532939911,9.734824180603027,-5.79833984375,-1.46484375,1.28173828125
3.7274999,0.42018240690231323,-0.21308395266532898,9.726444244384766,1.800537109375,1.800537109375,-2.44140625
3.7324999,0.28072014451026917,-0.228047713637352,9.674370765686035,-5.401611328125,0.30517578125,0.9765625
3.7374999,0.4866214990615845,-0.30047231912612915,9.676166534423828,2.899169921875,1.922607421875,-2.410888671875
3.7424999000000003,0.3585317134857178,-0.3357867896556854,9.936535835266113,2.9296875,-0.3662109375,1.15966796875
3.7474999,0.3082534670829773,-0.2974795699119568,9.576208114624023,-5.767822265625,-0.396728515625,0.518798828125
3.7524999,0.4812345504760742,-0.314238965511322,9.73542308807373,2.899169921875,-0.579833984375,-2.44140625
3.7574999,0.28790274262428284,-0.2885012924671173,9.989208221435547,1.556396484375,-0.91552734375,1.617431640625
3.7624999000000003,0.47465047240257263,-0.3423708379268646,9.938331604003906,5.7373046875,1.129150390625,-1.8310546875
3.7674999000000002,0.23343466222286224,-0.2513911724090576,9.980828285217285,-1.007080078125,-0.579833984375,2.0751953125
3.7724999,0.44173020124435425,-0.26815059781074524,9.680954933166504,-3.631591796875,0.244140625,-1.800537109375
3.7774999,0.4908113479614258,-0.36332011222839355,10.02571964263916,5.523681640625,-0.06103515625,-1.617431640625
3.7824999000000004,0.2693476974964142,-0.28969839215278625,9.904812812805176,-2.593994140625,-0.701904296875,2.197265625
3.7874999000000003,0.4818331003189087,-0.2849099934101105,9.645041465759277,-2.62451171875,0.54931640625,-1.953125
3.7924999,0.42377370595932007,-0.3687070608139038,9.983820915222168,6.04248046875,1.434326171875,-0.885009765625
3.7974999,0.2148796021938324,-0.2388216257095337,9.846753120422363,-3.173828125,-0.518798828125,2.166748046875
3.8024999000000004,0.4554968774318695,-0.24839842319488525,9.662399291992188,-1.8310546875,-0.213623046875,-2.288818359375
3.8074999000000003,0.36571431159973145,-0.30705636739730835,10.003573417663574,5.584716796875,-0.54931640625,-0.732421875
3.8124999,0.2495955228805542,-0.21607670187950134,9.800664901733398,-4.39453125,-1.40380859375,1.983642578125
3.8174999,0.38486793637275696,-0.33339259028434753,9.973047256469727,4.913330078125,-0.67138671875,-0.274658203125
3.8224999000000004,0.2974795699119568,-0.26994624733924866,9.707290649414062,-5.096435546875,-1.190185546875,1.617431640625
3.8274999000000003,0.47824180126190186,-0.272938996553421,9.66419506072998,0.8544921875,1.89208984375,-2.3193359375
3.8324999,0.33339259028434753,-0.31842881441116333,10.00836181640625,4.7607421875,-0.396728515625,0.274658203125
3.8374999,0.2561795711517334,-0.2064998894929886,9.743802070617676,-5.462646484375,-0.823974609375,1.129150390625
3.8424999,0.44173020124435425,-0.2172738015651703,9.741408348083496,1.52587890625,0.946044921875,-2.593994140625
3.8474999000000003,0.3292027413845062,-0.28311434388160706,10.011354446411133,3.936767578125,0.67138671875,0.91552734375
3.8524999,0.27892449498176575,-0.2256535142660141,9.661202430725098,-5.2490234375,0.457763671875,0.579833984375
3.8574999,0.46148237586021423,-0.30226796865463257,9.696516990661621,2.74658203125,0.9765625,-2.593994140625
3.8624999,0.3166331648826599,-0.3298012912273407,9.960477828979492,3.021240234375,-0.244140625,1.28173828125
3.8674999000000003,0.28131869435310364,-0.27892449498176575,9.613917350769043,-5.706787109375,0.244140625,0.518798828125
3.8724999,0.4734533727169037,-0.3232172429561615,9.7791166305542,3.387451171875,-0.274658203125,-2.3193359375
3.8774999,0.5267243981361389,-0.3531447649002075,9.830592155456543,4.730224609375,1.190185546875,-2.38037109375
3.8824999,0.32441434264183044,-0.2950853705406189,9.937732696533203,0.640869140625,-0.6103515625,1.52587890625
3.8874999000000003,0.41958385705947876,-0.2819172441959381,9.560047149658203,-5.0048828125,0.518798828125,-0.701904296875
3.8924999000000002,0.5285200476646423,-0.3734954595565796,9.838373184204102,5.157470703125,0.6103515625,-1.678466796875
3.8974999,0.26755204796791077,-0.2495955228805542,9.927556991577148,-0.640869140625,0,1.953125
3.9024999,0.38067805767059326,-0.23942017555236816,9.620500564575195,-4.150390625,0.762939453125,-1.312255859375
3.9074999000000004,0.4465186297893524,-0.32680854201316833,9.997588157653809,5.584716796875,0.640869140625,-1.40380859375
3.9124999000000003,0.20231004059314728,-0.21607670187950134,9.987412452697754,-1.739501953125,-0.396728515625,2.044677734375
3.9174999,0.42377370595932007,-0.2519897222518921,9.697115898132324,-3.326416015625,1.15966796875,-1.220703125
3.9224999,0.24899697303771973,-0.27054479718208313,9.888651847839355,-3.173828125,-1.40380859375,2.01416015625
3.9274999000000004,0.2454056739807129,-0.2406172752380371,9.844358444213867,-3.631591796875,-0.823974609375,1.983642578125
3.9324999000000003,0.49320554733276367,-0.27712884545326233,9.68155288696289,-1.15966796875,1.495361328125,-2.38037109375
3.9374999,0.39803603291511536,-0.31184476613998413,10.001777648925781,5.859375,1.15966796875,-0.244140625
3.9424999,0.29867666959762573,-0.2406172752380371,9.767146110534668,-4.45556640625,0.274658203125,2.01416015625
3.9474999000000004,0.5159504413604736,-0.2825157940387726,9.636063575744629,-0.42724609375,1.52587890625,-2.349853515625
3.9524999000000003,0.3758896589279175,-0.32381579279899597,9.960477828979492,5.096435546875,0.48828125,0.274658203125
3.9574999,0.2693476974964142,-0.2651578485965729,9.6989107131958,-5.157470703125,-0.6103515625,1.52587890625
3.9624999,0.42676645517349243,-0.25498247146606445,9.684545516967773,0.8544921875,0.1220703125,-2.593994140625
3.9674999000000004,0.2944868206977844,-0.27653029561042786,10.021530151367188,4.608154296875,0.3662109375,0.48828125
3.9724999000000003,0.22744916379451752,-0.19213469326496124,9.730035781860352,-5.7373046875,-0.091552734375,0.91552734375
3.9774999,0.4345476031303406,-0.24480712413787842,9.730035781860352,2.0751953125,1.007080078125,-2.593994140625
3.9824999,0.314238965511322,-0.26575639843940735,9.618705749511719,-5.950927734375,-0.946044921875,0.54931640625
3.9874999,0.5099649429321289,-0.33339259028434753,9.677961349487305,3.47900390625,1.617431640625,-2.50244140625
3.9924999000000003,0.34596213698387146,-0.3034650683403015,9.961674690246582,2.288818359375,-0.732421875,1.3427734375
3.9974999,0.3292027413845062,-0.26994624733924866,9.621698379516602,-6.2255859375,-1.0986328125,0.030517578125
4.0024999,0.31184476613998413,-0.23582886159420013,10.028712272644043,1.28173828125,-0.42724609375,1.739501953125
4.0074999,0.3842693865299225,-0.24001872539520264,9.637260437011719,-5.035400390625,0.18310546875,-0.640869140625
4.0124999,0.5440823435783386,-0.32680854201316833,9.845556259155273,4.45556640625,-1.068115234375,-2.349853515625
4.0174999,0.3148375153541565,-0.25677812099456787,9.913191795349121,0,-1.28173828125,2.105712890625
4.022499900000001,0.39624038338661194,-0.27473464608192444,9.560047149658203,-5.31005859375,0,-0.6103515625
4.0274999000000005,0.4794389009475708,-0.3363853394985199,9.90122127532959,5.035400390625,-0.457763671875,-2.044677734375
4.0324999,0.20470423996448517,-0.23822307586669922,9.965864181518555,-1.190185546875,-0.91552734375,2.044677734375
4.0374999,0.25677812099456787,-0.28131869435310364,9.940725326538086,-2.25830078125,-0.18310546875,2.13623046875
4.0424999,0.5033808946609497,-0.3256114423274994,9.665990829467773,-2.960205078125,1.3427734375,-1.617431640625
4.0474999,0.48063600063323975,-0.353743314743042,9.986215591430664,6.011962890625,0.518798828125,-0.946044921875
4.0524999,0.2735375463962555,-0.2950853705406189,9.864110946655273,-3.326416015625,-0.91552734375,2.044677734375
4.0574999,0.4776432514190674,-0.3208230137825012,9.67077922821045,-2.044677734375,0.213623046875,-2.0751953125
4.062499900000001,0.3818751573562622,-0.28969839215278625,10.00955867767334,6.16455078125,1.129150390625,-0.6103515625
4.0674999000000005,0.23104046285152435,-0.243011474609375,9.840767860412598,-4.180908203125,-0.1220703125,1.77001953125
4.0724999,0.4728548228740692,-0.2717418968677521,9.653421401977539,-1.129150390625,-0.823974609375,-2.5634765625
4.0774999,0.3824737071990967,-0.24241292476654053,9.963470458984375,5.79833984375,0.335693359375,-0.30517578125
4.0824999,0.284311443567276,-0.26396074891090393,9.690531730651855,-5.035400390625,-0.79345703125,1.678466796875
4.0874999,0.47644615173339844,-0.2819172441959381,9.604938507080078,0.579833984375,2.01416015625,-2.50244140625
4.0924999,0.23762452602386475,-0.25977087020874023,9.700706481933594,-5.7373046875,-1.068115234375,1.129150390625
4.0974999,0.4213795065879822,-0.24181437492370605,9.710283279418945,1.5869140625,0.3662109375,-2.655029296875
4.1024999,0.31842881441116333,-0.22924481332302094,10.04188060760498,4.2724609375,0.54931640625,0.762939453125
4.1074999000000005,0.284311443567276,-0.262763649225235,9.703699111938477,-5.889892578125,0.30517578125,0.67138671875
4.1124999,0.48722004890441895,-0.2998737692832947,9.70549488067627,3.173828125,1.953125,-2.3193359375
4.1174999,0.3585317134857178,-0.272938996553421,9.965266227722168,2.9296875,0.1220703125,1.28173828125
4.1224999,0.3034650683403015,-0.3292027413845062,9.576807022094727,-5.950927734375,-0.06103515625,0.274658203125
4.1274999,0.4686649739742279,-0.2890998423099518,9.71926212310791,4.21142578125,1.617431640625,-2.593994140625
4.1324999,0.26815059781074524,-0.243011474609375,9.990405082702637,1.922607421875,0,1.5869140625
4.1374999,0.2932897210121155,-0.26096799969673157,9.630077362060547,-5.615234375,0.701904296875,-0.1220703125
4.1424999,0.4884171485900879,-0.2519897222518921,9.876082420349121,5.0048828125,1.434326171875,-2.227783203125
4.147499900000001,0.3016694188117981,-0.24899697303771973,9.980828285217285,0.396728515625,-0.42724609375,2.0751953125
4.1524999000000005,0.38307225704193115,-0.33339259028434753,9.625887870788574,-4.730224609375,-0.42724609375,-1.129150390625
4.1574999,0.4578910768032074,-0.27054479718208313,9.988609313964844,5.645751953125,0.335693359375,-1.922607421875
4.1624999,0.4704606235027313,-0.29149407148361206,10.006566047668457,6.072998046875,1.03759765625,-1.5869140625
4.1674999,0.2621650993824005,-0.3471592366695404,9.856928825378418,-3.082275390625,-0.42724609375,2.197265625
4.1724999,0.47824180126190186,-0.33698388934135437,9.622296333312988,-2.655029296875,0.18310546875,-1.617431640625
4.1774999,0.4141969084739685,-0.2885012924671173,9.970054626464844,5.7373046875,0.54931640625,-0.823974609375
4.1824999,0.2148796021938324,-0.28790274262428284,9.838972091674805,-3.72314453125,-0.67138671875,2.105712890625
4.187499900000001,0.4537012279033661,-0.2753331959247589,9.680954933166504,-1.52587890625,-0.518798828125,-2.410888671875
4.1924999000000005,0.507570743560791,-0.2669534981250763,9.607931137084961,-0.152587890625,0.701904296875,-2.197265625
4.1974999,0.3932476341724396,-0.262763649225235,9.914987564086914,4.913330078125,-0.3662109375,-0.091552734375
4.2024999,0.28371289372444153,-0.304063618183136,9.648633003234863,-5.218505859375,-1.312255859375,1.556396484375
4.2074999,0.4531026780605316,-0.2454056739807129,9.644442558288574,0.79345703125,0.8544921875,-2.349853515625
4.2124999,0.322618693113327,-0.2519897222518921,10.007762908935547,4.425048828125,-0.3662109375,0.457763671875
4.2174999,0.24899697303771973,-0.2124854028224945,9.742605209350586,-6.04248046875,-0.396728515625,1.190185546875
4.2224999,0.4489128291606903,-0.1975216418504715,9.75936508178711,2.227783203125,0.9765625,-2.685546875
4.2274999,0.4489128291606903,-0.1975216418504715,9.75936508178711,2.227783203125,0.9765625,-2.685546875
4.2324999000000005,0.35015198588371277,-0.25258827209472656,10.015543937683105,3.509521484375,0.6103515625,0.91552734375
4.2374999,0.3034650683403015,-0.25079262256622314,9.66419506072998,-5.37109375,0.091552734375,0.79345703125
4.2424999,0.4704606235027313,-0.2795230448246002,9.821614265441895,4.119873046875,0.9765625,-2.44140625
4.2474999,0.4704606235027313,-0.2795230448246002,9.821614265441895,4.119873046875,0.9765625,-2.44140625
4.2524999,0.2801215946674347,-0.2322375625371933,10.035895347595215,0.885009765625,-0.946044921875,1.40380859375
4.2574999,0.35254621505737305,-0.24899697303771973,9.64803409576416,-5.584716796875,-1.312255859375,-0.213623046875
4.2624999,0.5345055460929871,-0.3172317147254944,9.853935241699219,5.218505859375,1.708984375,-2.01416015625
4.2674999,0.3321954905986786,-0.2759317457675934,9.93474006652832,0.335693359375,-1.129150390625,1.64794921875
4.272499900000001,0.4225766062736511,-0.28730419278144836,9.575011253356934,-5.340576171875,-1.495361328125,-0.8544921875
4.2774999000000005,0.5171475410461426,-0.33758243918418884,9.888052940368652,5.55419921875,0.91552734375,-1.617431640625
4.2824999,0.23523031175136566,-0.24361002445220947,9.956287384033203,-1.007080078125,-0.30517578125,2.25830078125
4.2874999,0.37169981002807617,-0.28072014451026917,9.657012939453125,-4.180908203125,0.732421875,-1.03759765625
4.2924999,0.4345476031303406,-0.31603461503982544,10.017339706420898,6.16455078125,1.40380859375,-1.52587890625
4.2974999,0.21667525172233582,-0.2687491476535797,9.96945571899414,-1.617431640625,-0.335693359375,2.044677734375
4.3024999,0.46148237586021423,-0.33758243918418884,10.00836181640625,5.950927734375,-0.152587890625,-1.251220703125
4.3074999,0.2579752206802368,-0.29628247022628784,9.865307807922363,-3.326416015625,-0.823974609375,2.197265625
4.312499900000001,0.4770447015762329,-0.3148375153541565,9.652822494506836,-1.77001953125,1.52587890625,-1.983642578125
4.3174999000000005,0.39145198464393616,-0.29149407148361206,9.993996620178223,5.79833984375,-0.6103515625,-0.6103515625
4.3224999,0.23942017555236816,-0.22924481332302094,9.836577415466309,-4.241943359375,-1.129150390625,1.953125
4.3274999,0.4854243993759155,-0.25737667083740234,9.663596153259277,-1.190185546875,0.579833984375,-2.288818359375
4.3324999,0.4040215313434601,-0.21787235140800476,9.971251487731934,5.06591796875,-0.732421875,-0.396728515625
4.3374999,0.30047231912612915,-0.2537853717803955,9.710882186889648,-5.37109375,-1.373291015625,1.5869140625
4.3424999,0.5009866952896118,-0.29209262132644653,9.594164848327637,-0.091552734375,0,-2.471923828125
4.3474999,0.365115761756897,-0.26396074891090393,9.928754806518555,4.7607421875,-0.6103515625,0.18310546875
4.352499900000001,0.25917232036590576,-0.29209262132644653,9.675567626953125,-5.4931640625,-0.79345703125,1.28173828125
4.3574999000000005,0.25917232036590576,-0.25258827209472656,9.706093788146973,-6.04248046875,-1.068115234375,0.67138671875
4.3624999,0.4537012279033661,-0.27054479718208313,9.704896926879883,2.38037109375,0.091552734375,-2.74658203125
4.3674999,0.3321954905986786,-0.2388216257095337,9.97364616394043,3.265380859375,-0.274658203125,1.129150390625
4.3724999,0.2885012924671173,-0.3196259140968323,9.593565940856934,-5.828857421875,-0.244140625,0.42724609375
4.3774999,0.47405192255973816,-0.2902969419956207,9.718663215637207,3.662109375,-0.1220703125,-2.50244140625
4.3824999,0.2950853705406189,-0.24899697303771973,9.983222961425781,1.983642578125,-0.67138671875,1.64794921875
4.3874999,0.3082534670829773,-0.27653029561042786,9.631275177001953,-5.79833984375,-0.701904296875,0.1220703125
4.3924999,0.5051765441894531,-0.23523031175136566,9.855133056640625,4.058837890625,-0.91552734375,-2.532958984375
4.397499900000001,0.31603461503982544,-0.2406172752380371,9.983820915222168,0.54931640625,-1.129150390625,1.89208984375
4.4024999000000005,0.4010287821292877,-0.31124621629714966,9.59476375579834,-4.8828125,0.79345703125,-0.457763671875
4.4074999,0.5440823435783386,-0.29867666959762573,9.818022727966309,5.31005859375,0.48828125,-2.349853515625
4.4124999,0.45848962664604187,-0.29149407148361206,9.92097282409668,6.16455078125,2.716064453125,-1.617431640625
4.4174999,0.1999158412218094,-0.2795230448246002,9.97603988647461,-1.434326171875,0.823974609375,2.166748046875
4.4224999,0.3818751573562622,-0.3082534670829773,9.68155288696289,-3.692626953125,0.946044921875,-1.3427734375
4.4274999,0.44592007994651794,-0.292691171169281,10.040084838867188,5.523681640625,-0.640869140625,-1.46484375
4.4324999,0.23822307586669922,-0.3489548861980438,9.916783332824707,-2.838134765625,-1.52587890625,2.227783203125
4.437499900000001,0.47584760189056396,-0.3387795388698578,9.653421401977539,-2.471923828125,-0.152587890625,-1.983642578125
4.4424999000000005,0.4507084786891937,-0.31783026456832886,9.988011360168457,5.9814453125,-0.06103515625,-0.823974609375
4.4474999,0.25917232036590576,-0.29628247022628784,9.856928825378418,-3.875732421875,-0.42724609375,2.25830078125
4.4524999,0.49140989780426025,-0.27413609623908997,9.692327499389648,-1.800537109375,-0.213623046875,-2.13623046875
4.4574999,0.40222588181495667,-0.24600422382354736,10.015543937683105,5.55419921875,-0.091552734375,-0.518798828125
4.4624999,0.27054479718208313,-0.2472013235092163,9.821614265441895,-4.302978515625,-1.15966796875,1.739501953125
4.4674999,0.4620809257030487,-0.2585737705230713,9.627683639526367,0.518798828125,0.9765625,-2.197265625
4.4724999,0.3130418658256531,-0.2825157940387726,9.983222961425781,4.302978515625,-0.335693359375,0.518798828125
4.477499900000001,0.22685061395168304,-0.21787235140800476,9.724648475646973,-5.645751953125,-0.732421875,1.129150390625
4.4824999000000005,0.40462008118629456,-0.22445641458034515,9.73781681060791,2.0751953125,1.983642578125,-2.5634765625
4.4874999,0.3124433159828186,-0.2687491476535797,10.019135475158691,4.058837890625,0.335693359375,0.823974609375
4.4924999,0.27413609623908997,-0.24001872539520264,9.66419506072998,-5.615234375,-0.091552734375,0.79345703125
4.4974999,0.4866214990615845,-0.30286651849746704,9.673771858215332,2.593994140625,-0.091552734375,-2.62451171875
4.5024999,0.35733461380004883,-0.2885012924671173,9.942521095275879,2.777099609375,-0.030517578125,1.46484375
4.5074999,0.3256114423274994,-0.2849099934101105,9.59715747833252,-5.645751953125,0.18310546875,0.42724609375
4.5124999,0.5069721937179565,-0.30945056676864624,9.75936508178711,4.119873046875,1.800537109375,-2.532958984375
4.5174999,0.35254621505737305,-0.2561795711517334,9.637260437011719,-5.7373046875,-0.67138671875,-0.152587890625
4.522499900000001,0.5380968451499939,-0.2950853705406189,9.84376049041748,5.035400390625,1.77001953125,-2.227783203125
4.5274999000000005,0.3280056416988373,-0.23942017555236816,9.936535835266113,0.640869140625,0.335693359375,2.044677734375
4.5324999,0.4124012291431427,-0.2346317619085312,9.55585765838623,-4.913330078125,0.6103515625,-0.48828125
4.5374999,0.5051765441894531,-0.3100491166114807,9.832986831665039,5.2490234375,0.42724609375,-2.13623046875
4.5424999,0.2256535142660141,-0.22505496442317963,9.909601211547852,-0.518798828125,-0.8544921875,2.01416015625
4.5474999,0.3381809890270233,-0.262763649225235,9.611522674560547,-4.2724609375,1.0986328125,-0.79345703125
4.5524999,0.42018240690231323,-0.31364041566848755,9.990405082702637,5.4931640625,-0.213623046875,-1.77001953125
4.5574999,0.1999158412218094,-0.2495955228805542,9.983222961425781,-2.0751953125,-1.007080078125,1.953125
4.562499900000001,0.444722980260849,-0.30286651849746704,9.684545516967773,-3.47900390625,0,-1.373291015625
4.5674999000000005,0.4812345504760742,-0.34835633635520935,10.014945983886719,5.828857421875,-0.030517578125,-1.0986328125
4.5724999,0.28550854325294495,-0.3298012912273407,9.876680374145508,-2.960205078125,-0.335693359375,1.953125
4.5774999,0.4345476031303406,-0.3495534360408783,9.99100399017334,5.950927734375,0.54931640625,-0.518798828125
4.5824999,0.25977087020874023,-0.27712884545326233,9.854534149169922,-4.08935546875,-0.152587890625,1.983642578125
4.5874999,0.47884035110473633,-0.2944868206977844,9.679757118225098,-1.068115234375,1.5869140625,-2.227783203125
4.5924999,0.3824737071990967,-0.2513911724090576,10.002974510192871,5.828857421875,0.640869140625,-0.274658203125
4.5974999,0.2603694200515747,-0.25977087020874023,9.758167266845703,-4.791259765625,0,1.800537109375
4.602499900000001,0.46567222476005554,-0.29568392038345337,9.603741645812988,0.30517578125,1.190185546875,-2.38037109375
4.6074999000000005,0.3429693877696991,-0.25438392162323,9.925163269042969,4.974365234375,0.030517578125,0
4.6124999,0.2406172752380371,-0.28311434388160706,9.658807754516602,-5.401611328125,-1.068115234375,1.068115234375
4.6174999,0.42616790533065796,-0.25079262256622314,9.64803409576416,1.15966796875,0.42724609375,-2.655029296875
4.6224999,0.3106476664543152,-0.21188685297966003,10.005967140197754,4.364013671875,-0.579833984375,0.67138671875
4.6274999,0.25438392162323,-0.2256535142660141,9.723451614379883,-6.103515625,-0.18310546875,1.190185546875
4.6324999,0.4596867263317108,-0.24660277366638184,9.714473724365234,1.983642578125,-0.732421875,-2.8076171875
4.6374999,0.314238965511322,-0.30466216802597046,9.5809965133667,-5.67626953125,0.457763671875,0.701904296875
4.6424999,0.49799394607543945,-0.3058592677116394,9.655217170715332,3.662109375,1.434326171875,-2.471923828125
4.647499900000001,0.32202014327049255,-0.24899697303771973,9.9401273727417,2.0751953125,-0.823974609375,1.40380859375
4.6524999000000005,0.304063618183136,-0.284311443567276,9.607333183288574,-6.103515625,-0.885009765625,0
4.6574999,0.4884171485900879,-0.2322375625371933,9.84256362915039,3.96728515625,-0.1220703125,-2.62451171875
4.6624999,0.3016694188117981,-0.228047713637352,10.017339706420898,0.885009765625,-0.3662109375,1.8310546875
4.6674999,0.3800795078277588,-0.29807811975479126,9.622296333312988,-5.218505859375,0.396728515625,-0.244140625
4.6724999,0.5518634915351868,-0.2944868206977844,9.832986831665039,5.2490234375,0.9765625,-2.25830078125
4.6774999,0.3280056416988373,-0.32441434264183044,9.898826599121094,-0.18310546875,-0.640869140625,1.861572265625
4.6824999,0.4118026793003082,-0.3315969407558441,9.561842918395996,-4.852294921875,-0.091552734375,-0.885009765625
4.687499900000001,0.4967968463897705,-0.2819172441959381,9.916184425354004,5.767822265625,1.251220703125,-1.739501953125
4.6924999000000005,0.2214636504650116,-0.26156654953956604,9.977835655212402,-1.251220703125,-0.3662109375,2.197265625
4.6974999,0.24779987335205078,-0.2974795699119568,9.914987564086914,-2.166748046875,-0.701904296875,2.044677734375
4.7024999,0.49619829654693604,-0.3082534670829773,9.621099472045898,-2.838134765625,0.79345703125,-1.77001953125
4.7074999,0.4836287498474121,-0.3298012912273407,9.930550575256348,6.04248046875,1.068115234375,-1.03759765625
4.7124999,0.2819172441959381,-0.3148375153541565,9.810839653015137,-3.5400390625,-0.701904296875,2.13623046875
4.7174999,0.49619829654693604,-0.3058592677116394,9.627683639526367,-2.5634765625,-0.9765625,-1.983642578125
4.7224999,0.40043023228645325,-0.3124433159828186,9.988609313964844,5.767822265625,-0.579833984375,-0.701904296875
4.727499900000001,0.25737667083740234,-0.25977087020874023,9.832986831665039,-4.21142578125,-1.251220703125,1.708984375
4.7324999000000005,0.4926069974899292,-0.2663549482822418,9.654618263244629,-1.190185546875,-0.213623046875,-2.410888671875
4.7374999,0.38726213574409485,-0.2603694200515747,9.9772367477417,5.67626953125,1.190185546875,-0.030517578125
4.7424999,0.2711433470249176,-0.2555810213088989,9.717466354370117,-4.974365234375,0.152587890625,1.77001953125
4.7474999,0.44592007994651794,-0.2693476974964142,9.63067626953125,0.457763671875,1.495361328125,-2.410888671875
4.7524999,0.2148796021938324,-0.24480712413787842,9.724648475646973,-5.615234375,-0.274658203125,1.251220703125
4.7574999,0.41718965768814087,-0.22505496442317963,9.731831550598145,1.89208984375,0.946044921875,-2.716064453125
4.7624999,0.32860419154167175,-0.22206220030784607,10.034697532653809,4.180908203125,0.640869140625,0.8544921875
4.7674999,0.2998737692832947,-0.21787235140800476,9.699509620666504,-5.615234375,0.091552734375,0.885009765625
4.772499900000001,0.5105634927749634,-0.29209262132644653,9.68933391571045,2.349853515625,-0.213623046875,-2.716064453125
4.7774999000000005,0.3758896589279175,-0.26815059781074524,9.95090103149414,3.265380859375,0.030517578125,1.52587890625
4.7824999,0.3232172429561615,-0.3321954905986786,9.579200744628906,-5.584716796875,0.91552734375,0.30517578125
4.7874999,0.4884171485900879,-0.32441434264183044,9.727043151855469,3.96728515625,0.823974609375,-2.471923828125
4.7924999,0.28790274262428284,-0.25438392162323,9.99459457397461,1.739501953125,-0.54931640625,1.617431640625
4.7974999,0.3106476664543152,-0.26815059781074524,9.638457298278809,-5.889892578125,-0.8544921875,-0.244140625
4.8024999,0.5039794445037842,-0.26336219906806946,9.86231517791748,4.82177734375,1.89208984375,-2.166748046875
4.8074999,0.314238965511322,-0.24121582508087158,9.964069366455078,0.79345703125,-0.48828125,1.89208984375
4.812499900000001,0.536899745464325,-0.3214215636253357,9.821614265441895,5.584716796875,1.373291015625,-2.105712890625
4.8174999000000005,0.28072014451026917,-0.2753331959247589,9.900622367858887,-0.48828125,-0.091552734375,2.105712890625
4.8224999,0.3770867586135864,-0.30047231912612915,9.596558570861816,-4.302978515625,0.946044921875,-0.885009765625
4.8274999,0.45190557837486267,-0.26815059781074524,9.965864181518555,5.9814453125,1.5869140625,-1.739501953125
4.8324999,0.19692309200763702,-0.24001872539520264,9.980828285217285,-1.89208984375,-0.3662109375,2.227783203125
4.8374999,0.40521863102912903,-0.3076549172401428,9.667187690734863,-4.0283203125,-1.068115234375,-1.434326171875
4.8424999,0.4572925269603729,-0.2711433470249176,10.001777648925781,6.317138671875,0.823974609375,-1.40380859375
4.8474999,0.2555810213088989,-0.31842881441116333,9.879075050354004,-2.471923828125,-0.48828125,2.13623046875
4.852499900000001,0.4818331003189087,-0.3345896899700165,9.626486778259277,-2.166748046875,2.166748046875,-1.678466796875
4.8574999000000005,0.43754035234451294,-0.25258827209472656,9.983222961425781,5.706787109375,-0.579833984375,-0.946044921875
4.8624999,0.23523031175136566,-0.28371289372444153,9.84376049041748,-4.241943359375,-0.91552734375,2.0751953125
4.8674999,0.47405192255973816,-0.2968810200691223,9.673771858215332,-0.640869140625,2.655029296875,-2.227783203125
4.8724999,0.5099649429321289,-0.314238965511322,9.63067626953125,-0.274658203125,0.579833984375,-2.410888671875
4.8774999,0.3944447338581085,-0.2783259451389313,9.97484302520752,5.18798828125,0.1220703125,-0.06103515625
4.8824999,0.2783259451389313,-0.3298012912273407,9.68813705444336,-5.2490234375,-0.42724609375,1.556396484375
4.8874999,0.2783259451389313,-0.3298012912273407,9.68813705444336,-5.2490234375,-0.42724609375,1.556396484375
4.8924999,0.444722980260849,-0.25677812099456787,9.66958236694336,1.708984375,2.593994140625,-2.349853515625
4.897499900000001,0.30286651849746704,-0.21128830313682556,10.019135475158691,4.39453125,-0.091552734375,0.579833984375
4.9024999000000005,0.22206220030784607,-0.228047713637352,9.734824180603027,-5.7373046875,-1.0986328125,1.28173828125
4.9074999,0.42676645517349243,-0.18076223134994507,9.737217903137207,1.556396484375,-0.885009765625,-2.410888671875
4.9124999,0.3298012912273407,-0.18974047899246216,9.995792388916016,3.448486328125,0.06103515625,0.91552734375
4.9174999,0.3016694188117981,-0.2603694200515747,9.611522674560547,-5.767822265625,0.42724609375,0.823974609375
4.9224999,0.30705636739730835,-0.29628247022628784,10.052654266357422,1.28173828125,0.06103515625,1.739501953125
4.9274999,0.3519476354122162,-0.31364041566848755,9.659406661987305,-5.279541015625,0.091552734375,-0.213623046875
4.9324999,0.5147533416748047,-0.2944868206977844,9.843161582946777,5.157470703125,2.0751953125,-2.3193359375
4.937499900000001,0.29568392038345337,-0.3166331648826599,9.914389610290527,0.18310546875,-0.244140625,1.953125
4.9424999000000005,0.37229835987091064,-0.32620999217033386,9.531915664672852,-5.126953125,-0.457763671875,-0.244140625
4.9474999,0.4752490520477295,-0.29149407148361206,9.838373184204102,5.615234375,1.007080078125,-1.800537109375
4.9524999,0.21308395266532898,-0.2561795711517334,9.924564361572266,-1.0986328125,-0.457763671875,1.983642578125
4.9574999,0.34356793761253357,-0.2663549482822418,9.640253067016602,-4.180908203125,0.152587890625,-0.9765625
4.9624999,0.4321534037590027,-0.2322375625371933,10.007762908935547,6.04248046875,1.434326171875,-1.434326171875
4.9674999,0.43035775423049927,-0.22385786473751068,9.946710586547852,5.55419921875,1.3427734375,-0.762939453125
4.9724999,0.43035775423049927,-0.22385786473751068,9.946710586547852,5.55419921875,1.3427734375,-0.762939453125
4.977499900000001,0.23582886159420013,-0.22625206410884857,9.804854393005371,-4.302978515625,-0.579833984375,2.01416015625
4.9824999000000005,0.4668693244457245,-0.22864626348018646,9.636063575744629,-1.40380859375,0.885009765625,-2.13623046875
4.9874999,0.365115761756897,-0.20290859043598175,9.977835655212402,5.0048828125,-0.1220703125,-0.6103515625
4.9924999,0.25079262256622314,-0.3256114423274994,9.744400978088379,-4.45556640625,-1.312255859375,1.495361328125
4.9974999,0.47824180126190186,-0.3429693877696991,9.61451530456543,-0.030517578125,0.762939453125,-2.227783203125
5.0024999,0.36750996112823486,-0.2998737692832947,9.964667320251465,5.340576171875,-0.18310546875,0.030517578125
5.0074999,0.27712884545326233,-0.3489548861980438,9.694721221923828,-5.706787109375,-1.220703125,1.46484375
5.0124999,0.3274070918560028,-0.21787235140800476,10.036493301391602,4.2724609375,-0.30517578125,0.579833984375
5.0174999,0.25498247146606445,-0.24121582508087158,9.750985145568848,-5.79833984375,0.091552734375,1.220703125
5.022499900000001,0.44771572947502136,-0.21368250250816345,9.741408348083496,1.89208984375,-1.617431640625,-3.082275390625
5.0274999000000005,0.3405751883983612,-0.2346317619085312,9.995792388916016,3.387451171875,-0.213623046875,0.9765625
5.0324999,0.2974795699119568,-0.2932897210121155,9.61451530456543,-5.55419921875,1.007080078125,1.03759765625
5.0374999,0.48303020000457764,-0.2801215946674347,9.674968719482422,3.41796875,0.79345703125,-2.777099609375
5.0424999,0.3196259140968323,-0.2777273952960968,9.962273597717285,2.25830078125,-0.18310546875,1.617431640625
5.0474999,0.2944868206977844,-0.3196259140968323,9.63187313079834,-5.767822265625,0.06103515625,0.244140625
5.0524999,0.47405192255973816,-0.26994624733924866,9.84495735168457,4.119873046875,1.03759765625,-2.716064453125
5.0574999,0.2867056429386139,-0.2795230448246002,10.047865867614746,1.617431640625,-0.67138671875,1.64794921875
5.062499900000001,0.33758243918418884,-0.2968810200691223,9.637859344482422,-5.7373046875,-1.28173828125,-0.06103515625
5.0674999000000005,0.5147533416748047,-0.2759317457675934,9.825204849243164,5.096435546875,1.3427734375,-2.471923828125
5.0724999,0.38905778527259827,-0.2974795699119568,9.501988410949707,-5.767822265625,-1.8310546875,-0.54931640625
5.0774999,0.5039794445037842,-0.28371289372444153,9.815628051757812,5.4931640625,0.946044921875,-2.0751953125
5.0824999,0.24480712413787842,-0.2711433470249176,9.897629737854004,-0.79345703125,-0.48828125,1.89208984375
5.0874999,0.37409400939941406,-0.3082534670829773,9.621099472045898,-3.570556640625,0.946044921875,-1.0986328125
5.0924999,0.46507367491722107,-0.25917232036590576,10.011354446411133,6.011962890625,0.54931640625,-1.678466796875
5.0974999,0.2346317619085312,-0.2885012924671173,9.992799758911133,-2.50244140625,-0.79345703125,2.13623046875
5.102499900000001,0.46088382601737976,-0.31603461503982544,9.697115898132324,-4.08935546875,-1.861572265625,-1.77001953125
5.1074999000000005,0.49320554733276367,-0.2825157940387726,10.016142845153809,5.615234375,0.06103515625,-1.220703125
5.1124999,0.2777273952960968,-0.34356793761253357,9.867103576660156,-2.899169921875,-0.152587890625,2.227783203125
5.1174999,0.48303020000457764,-0.35075053572654724,9.633668899536133,-1.46484375,2.349853515625,-1.983642578125
5.1224999,0.26336219906806946,-0.26815059781074524,9.783307075500488,-4.669189453125,-0.67138671875,1.983642578125
5.1274999,0.507570743560791,-0.2867056429386139,9.639654159545898,-0.1220703125,0.18310546875,-2.50244140625
5.1324999,0.4100070297718048,-0.25258827209472656,9.987412452697754,5.401611328125,0.9765625,0.1220703125
5.1374999,0.3064578175544739,-0.32381579279899597,9.706692695617676,-5.0048828125,0.762939453125,1.708984375
5.1424999,0.4812345504760742,-0.25079262256622314,9.684545516967773,0.579833984375,-0.6103515625,-2.899169921875
5.147499900000001,0.3381809890270233,-0.2064998894929886,10.02691650390625,3.936767578125,-1.15966796875,0.3662109375
5.1524999000000005,0.2585737705230713,-0.24899697303771973,9.745597839355469,-5.950927734375,-1.800537109375,1.007080078125
5.1574999,0.4513070285320282,-0.21009120345115662,9.734225273132324,2.716064453125,2.8076171875,-2.593994140625
5.1624999,0.34356793761253357,-0.2519897222518921,9.989806175231934,3.814697265625,0.457763671875,0.91552734375
5.1674999,0.30047231912612915,-0.31124621629714966,9.609726905822754,-5.950927734375,-0.06103515625,0.67138671875
5.1724999,0.48722004890441895,-0.29867666959762573,9.63187313079834,2.8076171875,-0.48828125,-2.74658203125
5.1774999,0.46327802538871765,-0.243011474609375,9.81263542175293,3.997802734375,0.91552734375,-2.62451171875
5.1824999,0.27653029561042786,-0.24839842319488525,10.059837341308594,1.64794921875,-0.79345703125,1.52587890625
5.187499900000001,0.3292027413845062,-0.2717418968677521,9.682151794433594,-5.615234375,-1.129150390625,-0.1220703125
5.1924999000000005,0.5237316489219666,-0.25737667083740234,9.893440246582031,4.7607421875,0.335693359375,-2.3193359375
5.1974999,0.33339259028434753,-0.2867056429386139,9.965266227722168,0.30517578125,-0.579833984375,1.8310546875
5.2024999,0.43993455171585083,-0.25019407272338867,9.96825885772705,5.9814453125,1.46484375,-1.64794921875
5.2074999,0.19273324310779572,-0.25438392162323,9.97603988647461,-1.983642578125,-0.457763671875,1.953125
5.2124999,0.26156654953956604,-0.3669114112854004,9.879075050354004,-2.9296875,-1.03759765625,1.953125
5.2174999,0.4884171485900879,-0.37469255924224854,9.636063575744629,-2.410888671875,0.79345703125,-1.739501953125
5.2224999,0.436343252658844,-0.32441434264183044,9.970054626464844,5.950927734375,0.701904296875,-0.6103515625
5.227499900000001,0.24241292476654053,-0.31603461503982544,9.848548889160156,-3.936767578125,-0.54931640625,2.197265625
5.2324999000000005,0.4692635238170624,-0.28730419278144836,9.676764488220215,-1.678466796875,0.518798828125,-1.983642578125
5.2374999,0.38905778527259827,-0.23163901269435883,10.016142845153809,5.645751953125,0.335693359375,-0.579833984375
5.2424999,0.27234044671058655,-0.2663549482822418,9.809642791748047,-4.486083984375,-0.91552734375,1.52587890625
