# Time (seconds),Accel_X,Accel_Y,Accel_Z,Gyro_X,Gyro_Y,Gyro_Z
0.0024999,1.5275006294250488,0.07721300423145294,9.815030097961426,-5.706787109375,30.548095703125,-40.46630859375
0.0074999,1.5275006294250488,0.07721300423145294,9.815030097961426,-5.706787109375,30.548095703125,-40.46630859375
0.012499900000000001,0.7733271718025208,0.08798690885305405,9.68933391571045,-6.4697265625,18.341064453125,-53.253173828125
0.0174999,-0.27473464608192444,0.29628247022628784,9.985616683959961,-17.120361328125,-0.3662109375,-45.501708984375
0.0224999,-1.2282254695892334,-0.2908954918384552,9.784503936767578,-24.444580078125,-7.38525390625,-29.6630859375
0.0274999,-1.8531121015548706,-0.19812019169330597,9.68574333190918,-15.68603515625,-10.31494140625,-4.669189453125
0.0324999,-2.2685060501098633,-0.5291185975074768,9.856928825378418,-14.801025390625,-33.294677734375,32.04345703125
0.0374999,-0.10235211998224258,-1.9734207391738892,9.452906608581543,19.22607421875,-21.636962890625,39.459228515625
0.0424999,0.657806932926178,-2.2643163204193115,9.46607494354248,32.989501953125,-14.190673828125,49.8046875
0.0474999,1.01753568649292,-1.9686323404312134,9.547477722167969,23.25439453125,2.50244140625,49.49951171875
0.0524999,1.1653777360916138,-0.9403226971626282,9.8784761428833,16.326904296875,11.3525390625,36.590576171875
0.0574999,1.368884801864624,0.33279404044151306,10.08198356628418,4.791259765625,4.69970703125,12.51220703125
0.0624999,1.7447744607925415,1.072602391242981,10.112509727478027,-4.791259765625,2.532958984375,-15.167236328125
0.0674999,2.122459888458252,0.849941611289978,10.019734382629395,3.662109375,21.392822265625,-26.42822265625
0.0724999,2.382829189300537,0.5793967843055725,9.852738380432129,17.547607421875,35.003662109375,-32.8369140625
0.0774999,2.1733365058898926,0.17896658182144165,9.794678688049316,4.0283203125,35.430908203125,-39.031982421875
0.0824999,1.5544354915618896,0.08379705995321274,9.841365814208984,-6.28662109375,32.745361328125,-41.748046875
0.0874999,0.7571662664413452,0.1735796183347702,9.68694019317627,-6.805419921875,19.683837890625,-55.145263671875
0.0924999,-1.2970588207244873,-0.17717093229293823,9.751583099365234,-27.618408203125,-10.1318359375,-31.707763671875
0.0974999,-1.8369512557983398,-0.11252748221158981,9.516353607177734,-17.059326171875,-8.85009765625,-7.32421875
0.1024999,-2.255337953567505,-0.5877765417098999,9.727043151855469,-14.312744140625,-32.867431640625,32.135009765625
0.1074999,-1.8698714971542358,-0.9983820915222168,9.513360023498535,-18.585205078125,-43.5791015625,42.6025390625
0.1124999,-1.0259153842926025,-1.5442601442337036,9.456498146057129,-6.866455078125,-33.355712890625,38.360595703125
0.1174999,-0.020350715145468712,-1.9847931861877441,9.47265911102295,17.578125,-20.8740234375,39.0625
0.1224999,0.8182184100151062,-2.1362264156341553,9.518148422241211,29.998779296875,-12.6953125,47.515869140625
0.1274999,1.2210428714752197,-1.7812861204147339,9.588777542114258,20.44677734375,3.173828125,43.426513671875
0.1324999,1.3527239561080933,-0.7858967185020447,9.88625717163086,14.862060546875,10.80322265625,28.594970703125
0.1374999,1.446696400642395,0.30286651849746704,10.08318042755127,3.814697265625,4.150390625,5.43212890625
0.1424999,1.6831238269805908,0.8942343592643738,10.113107681274414,-3.753662109375,5.55419921875,-17.822265625
0.1474999,1.9405004978179932,0.5883750915527344,10.020931243896484,5.7373046875,23.223876953125,-24.810791015625
0.1524999,-0.322618693113327,0.5045779943466187,9.894637107849121,-14.34326171875,-1.922607421875,-44.25048828125
0.1574999,-1.2946646213531494,-0.22864626348018646,9.677961349487305,-25.054931640625,-10.009765625,-27.40478515625
0.1624999,-1.8644845485687256,-0.1933317929506302,9.531316757202148,-14.312744140625,-10.31494140625,-3.2958984375
0.1674999,-2.235585927963257,-0.6823474764823914,9.758766174316406,-14.801025390625,-35.064697265625,35.247802734375
0.1724999,-1.7381904125213623,-0.9995791912078857,9.494206428527832,-20.93505859375,-43.9453125,44.219970703125
0.17749990000000002,-0.8732850551605225,-1.5155296325683594,9.511565208435059,-4.150390625,-31.25,38.787841796875
0.1824999,0.15143325924873352,-1.9033904075622559,9.476848602294922,18.768310546875,-17.15087890625,36.68212890625
0.1874999,0.9516952037811279,-1.9979612827301025,9.502586364746094,26.9775390625,-9.674072265625,43.3349609375
0.1924999,1.313219666481018,-1.5975310802459717,9.621698379516602,19.134521484375,4.486083984375,36.285400390625
0.1974999,1.5059528350830078,0.38965633511543274,10.078990936279297,1.373291015625,3.753662109375,-5.06591796875
0.2024999,1.6711528301239014,0.8559271097183228,10.138845443725586,-2.0751953125,11.77978515625,-21.270751953125
0.20749990000000001,1.835754156112671,0.44831427931785583,9.97364616394043,10.07080078125,26.885986328125,-24.169921875
0.2124999,1.988384485244751,0.2819172441959381,9.914987564086914,19.500732421875,38.4521484375,-39.24560546875
0.2174999,1.7142484188079834,-0.03651157766580582,9.815030097961426,3.23486328125,36.19384765625,-40.557861328125
0.2224999,1.2108675241470337,0.0293289702385664,9.822811126708984,-6.011962890625,29.083251953125,-40.252685546875
0.2274999,0.5770025849342346,0.1951274424791336,9.611522674560547,-5.31005859375,13.5498046875,-51.3916015625
0.2324999,-0.6045359373092651,0.08619125932455063,9.883264541625977,-18.524169921875,-7.049560546875,-37.4755859375
0.2374999,-1.3898340463638306,-0.3513490855693817,9.419986724853516,-22.39990234375,-10.68115234375,-19.1650390625
0.2424999,-2.120664119720459,-0.4279635548591614,9.57321548461914,-10.1318359375,-17.02880859375,14.09912109375
0.2474999,-2.321777105331421,-0.5877765417098999,9.685144424438477,-17.852783203125,-42.938232421875,41.50390625
0.2524999,-1.699883222579956,-0.8098387122154236,9.501389503479004,-21.881103515625,-42.388916015625,39.794921875
0.2574999,0.3405751883983612,-1.7753005027770996,9.57321548461914,21.759033203125,-13.97705078125,36.651611328125
0.2624999,0.3405751883983612,-1.7753005027770996,9.57321548461914,21.759033203125,-13.97705078125,36.651611328125
0.2674999,1.062427043914795,-1.933916449546814,9.593565940856934,25.665283203125,-5.706787109375,43.792724609375
0.2724999,1.3623007535934448,-1.4951789379119873,9.708487510681152,18.49365234375,8.148193359375,34.637451171875
0.2774999,1.460463047027588,-0.3711012601852417,9.931148529052734,9.8876953125,8.941650390625,15.2587890625
0.2824999,1.578976035118103,0.5889736413955688,10.095151901245117,-1.953125,3.265380859375,-12.451171875
0.28749990000000003,1.7675193548202515,0.7182605266571045,10.089764595031738,-2.166748046875,15.350341796875,-22.796630859375
0.2924999,1.974617838859558,0.43514615297317505,9.938331604003906,15.960693359375,30.2734375,-26.336669921875
0.2974999,1.9877859354019165,0.17836803197860718,9.88625717163086,15.350341796875,36.865234375,-39.55078125
0.3024999,1.5544354915618896,-0.03890577703714371,9.862914085388184,-1.52587890625,33.660888671875,-34.48486328125
0.3074999,0.9564836025238037,0.12210428714752197,9.736021041870117,-6.378173828125,24.96337890625,-43.64013671875
0.3124999,0.21428105235099792,0.6236895322799683,9.606135368347168,-4.94384765625,6.8359375,-50.445556640625
0.3174999,-1.5155296325683594,-0.21787235140800476,9.172784805297852,-16.2353515625,-9.27734375,-9.94873046875
0.3224999,-0.2663549482822418,-1.6160861253738403,9.733028411865234,7.38525390625,-19.989013671875,29.47998046875
0.3274999,0.6853402256965637,-1.9590555429458618,9.61571216583252,23.98681640625,-10.7421875,36.865234375
0.3324999,1.2318167686462402,-1.9865888357162476,9.61331844329834,23.590087890625,-3.082275390625,39.1845703125
0.3374999,1.3922282457351685,-1.258152961730957,9.765350341796875,15.68603515625,7.843017578125,24.10888671875
0.3424999,1.446696400642395,-0.04489128291606903,9.967061996459961,5.523681640625,5.126953125,3.082275390625
0.34749990000000003,1.5550340414047241,0.7739257216453552,10.116100311279297,-3.753662109375,5.462646484375,-17.7001953125
0.35249990000000003,1.680729627609253,0.7200561761856079,10.063427925109863,0.152587890625,18.035888671875,-19.012451171875
0.3574999,1.8100165128707886,0.37648820877075195,9.923367500305176,16.9677734375,29.23583984375,-27.7099609375
0.3624999,1.2551602125167847,-0.11013327538967133,9.827000617980957,-3.570556640625,30.1513671875,-30.670166015625
0.3674999,0.71766197681427,0.008379706181585789,9.671378135681152,-6.40869140625,20.782470703125,-39.947509765625
0.3724999,-0.01975216343998909,0.38546648621559143,9.808445930480957,-4.730224609375,2.5634765625,-39.61181640625
0.3774999,-1.0881646871566772,-0.4345476031303406,9.730035781860352,-21.78955078125,-11.260986328125,-17.913818359375
0.3824999,-1.488594889640808,-0.23582886159420013,9.458293914794922,-12.176513671875,-9.918212890625,-1.617431640625
0.3874999,-2.072780132293701,-0.619499683380127,9.851541519165039,-11.23046875,-29.876708984375,30.242919921875
0.3924999,-1.7232266664505005,-0.6302735805511475,9.625887870788574,-24.7802734375,-41.168212890625,35.064697265625
0.3974999,-1.0001777410507202,-0.9558850526809692,9.700108528137207,-13.5498046875,-32.806396484375,32.958984375
0.4024999,-0.03172317147254944,-1.5017629861831665,9.64923095703125,10.711669921875,-17.303466796875,28.62548828125
0.4074999,0.7757213711738586,-1.8507179021835327,9.55466079711914,23.284912109375,-9.796142578125,36.468505859375
0.41249990000000003,1.1994950771331787,-1.835754156112671,9.551667213439941,21.026611328125,-0.030517578125,35.33935546875
0.41749990000000003,1.547252893447876,0.7463923692703247,10.090961456298828,-3.570556640625,7.049560546875,-18.524169921875
0.4224999,1.6861165761947632,0.48063600063323975,10.00955867767334,2.655029296875,19.317626953125,-17.364501953125
0.4274999,1.8249802589416504,0.23403321206569672,9.921571731567383,18.4326171875,29.9072265625,-29.022216796875
0.4324999,1.656787633895874,-0.10235211998224258,9.835979461669922,10.040283203125,33.599853515625,-36.31591796875
0.4374999,1.1988965272903442,-0.11791443079710007,9.858723640441895,-5.0048828125,29.144287109375,-28.62548828125
0.4424999,0.6171054840087891,-0.028131870552897453,9.671976089477539,-6.16455078125,18.12744140625,-39.337158203125
0.4474999,-0.2232593148946762,0.29388827085494995,9.85034465789795,-5.37109375,0.213623046875,-35.2783203125
0.4524999,-1.183334231376648,-0.5309142470359802,9.64803409576416,-20.721435546875,-11.016845703125,-14.22119140625
0.4574999,-1.592742681503296,-0.2561795711517334,9.505578994750977,-10.6201171875,-11.932373046875,3.082275390625
0.4624999,-2.0260932445526123,-0.5680243372917175,9.84376049041748,-12.26806640625,-32.470703125,32.684326171875
0.4674999,-1.569997787475586,-0.6063315868377686,9.600150108337402,-25.421142578125,-40.10009765625,33.416748046875
0.47249990000000003,1.2725181579589844,-0.812831461429596,9.822212219238281,11.749267578125,7.38525390625,18.1884765625
0.47749990000000003,1.4113819599151611,0.22385786473751068,9.989806175231934,1.190185546875,1.77001953125,-3.814697265625
0.4824999,1.6059107780456543,0.7541735172271729,10.082581520080566,-3.7841796875,8.392333984375,-19.287109375
0.4874999,1.7830817699432373,0.35913026332855225,9.947309494018555,6.04248046875,20.69091796875,-17.578125
0.4924999,1.935113549232483,0.21428105235099792,9.912593841552734,18.463134765625,31.097412109375,-30.548095703125
0.4974999,1.6609774827957153,-0.15682020783424377,9.821614265441895,6.439208984375,33.233642578125,-32.623291015625
0.5024999,1.1623848676681519,-0.040701430290937424,9.875483512878418,-6.072998046875,28.62548828125,-30.21240234375
0.5074999,0.5051765441894531,-0.03411737456917763,9.671378135681152,-5.79833984375,15.56396484375,-42.78564453125
0.5124999,-0.4273650050163269,0.12629413604736328,9.73781681060791,-6.89697265625,-2.99072265625,-33.599853515625
0.5174999,-1.6891093254089355,-0.3770867586135864,9.362525939941406,-9.765625,-13.3056640625,7.6904296875
0.5224999,-1.9806033372879028,-0.5464765429496765,9.68694019317627,-13.85498046875,-33.87451171875,34.72900390625
0.5274999,-1.4437036514282227,-0.6260837316513062,9.545681953430176,-25.054931640625,-38.4521484375,33.0810546875
0.5324999,-0.6799532771110535,-1.0636241436004639,9.746196746826172,-4.21142578125,-27.740478515625,32.8369140625
0.5374999,0.25318682193756104,-1.611896276473999,9.646238327026367,16.510009765625,-13.5498046875,30.120849609375
0.5424999,0.8792705535888672,-1.8471266031265259,9.621698379516602,22.857666015625,-7.293701171875,37.2314453125
0.5474999,1.1779472827911377,-1.6274585723876953,9.679159164428711,17.547607421875,4.33349609375,31.280517578125
0.5524999,1.269525408744812,-0.6165069341659546,9.86231517791748,10.3759765625,6.8359375,15.13671875
0.5574999,1.4227544069290161,0.36750996112823486,10.006566047668457,-0.48828125,1.861572265625,-8.30078125
0.5624999,1.9195512533187866,0.15682020783424377,9.922170639038086,18.096923828125,32.806396484375,-32.135009765625
0.5674999000000001,1.0552444458007812,0.050876785069704056,9.825204849243164,-6.34765625,27.191162109375,-34.698486328125
0.5724999000000001,0.38726213574409485,-0.028131870552897453,9.63187313079834,-5.645751953125,11.1083984375,-46.844482421875
0.5774999000000001,-0.6865373253822327,-0.0071826050989329815,9.788095474243164,-10.92529296875,-7.080078125,-31.6162109375
0.5824999,-1.3413515090942383,-0.5758054852485657,9.297284126281738,-18.890380859375,-10.528564453125,-11.1083984375
0.5874999,-1.8746598958969116,-0.29807811975479126,9.5223388671875,-8.11767578125,-16.632080078125,13.85498046875
0.5924999,-1.9794062376022339,-0.31842881441116333,9.646238327026367,-17.333984375,-37.109375,35.919189453125
0.5974999,-1.3569138050079346,-0.46746787428855896,9.544485092163086,-23.98681640625,-37.841796875,32.958984375
0.6024999,-0.5135562419891357,-1.0330979824066162,9.734824180603027,2.13623046875,-25.665283203125,34.027099609375
0.6074999,0.406415730714798,-1.6304513216018677,9.606734275817871,19.1650390625,-12.20703125,32.257080078125
0.6124999,0.9888052940368652,-1.834557056427002,9.617507934570312,22.369384765625,-4.45556640625,37.506103515625
0.6174999,1.2300211191177368,-1.4748282432556152,9.734824180603027,15.68603515625,6.683349609375,29.876708984375
0.6224999,1.3060370683670044,-0.37409400939941406,9.920374870300293,8.544921875,5.92041015625,14.007568359375
0.6274999,1.6873136758804321,0.645237386226654,10.078990936279297,-2.166748046875,13.397216796875,-20.782470703125
0.6324999,1.9177556037902832,0.30286651849746704,9.906009674072266,14.404296875,26.702880859375,-20.599365234375
0.6374999,1.9303251504898071,0.11552023142576218,9.882067680358887,14.984130859375,32.3486328125,-30.975341796875
0.6424999,1.501164436340332,-0.07661445438861847,9.840767860412598,-0.54931640625,31.280517578125,-28.045654296875
0.6474999,0.8816647529602051,0.13826514780521393,9.766547203063965,-7.26318359375,24.627685546875,-38.238525390625
0.6524999,0.19812019169330597,0.06165069341659546,9.59715747833252,-4.82177734375,7.110595703125,-47.332763671875
0.6574999,-0.9068039059638977,-0.1430535465478897,9.747992515563965,-14.373779296875,-10.162353515625,-27.77099609375
0.6624999,-1.3658920526504517,-0.5476736426353455,9.245209693908691,-17.120361328125,-9.613037109375,-9.21630859375
0.6674999,-1.9105730056762695,-0.3711012601852417,9.64923095703125,-8.270263671875,-18.890380859375,17.76123046875
0.6724999,-1.8608932495117188,-0.3513490855693817,9.682151794433594,-20.20263671875,-37.994384765625,35.491943359375
0.6774999,-1.2168530225753784,-0.5279214978218079,9.656414031982422,-21.026611328125,-36.0107421875,33.02001953125
0.6824999,-0.3621230125427246,-1.1186907291412354,9.761758804321289,3.7841796875,-22.94921875,30.914306640625
0.6874999,1.0259153842926025,-1.8285715579986572,9.616311073303223,22.15576171875,-4.08935546875,38.299560546875
0.6924999000000001,1.213860273361206,-1.371279001235962,9.734824180603027,15.106201171875,6.9580078125,28.411865234375
0.6974999000000001,1.2826935052871704,-0.2759317457675934,9.907805442810059,7.293701171875,5.06591796875,10.894775390625
0.7024999000000001,1.4622586965560913,0.558447539806366,10.047865867614746,-2.960205078125,1.861572265625,-13.24462890625
0.7074999,1.6531962156295776,0.706289529800415,10.082581520080566,-1.800537109375,14.70947265625,-20.3857421875
0.7124999,1.833359956741333,0.26994624733924866,9.891045570373535,12.847900390625,26.092529296875,-20.050048828125
0.7174999,1.8429367542266846,0.05446808785200119,9.895833969116211,15.5029296875,32.53173828125,-33.50830078125
0.7224999,1.4281413555145264,-0.15682020783424377,9.816825866699219,0.152587890625,31.43310546875,-30.303955078125
0.7274999,0.8810662031173706,0.0011971008498221636,9.762955665588379,-6.7138671875,24.017333984375,-36.2548828125
0.7324999,0.24001872539520264,0.2172738015651703,9.617507934570312,-4.241943359375,7.415771484375,-44.43359375
0.7374999,-0.8421604633331299,-0.16160862147808075,9.762955665588379,-16.082763671875,-9.82666015625,-25.69580078125
0.7424999,-1.301847219467163,-0.32680854201316833,9.285911560058594,-15.899658203125,-8.392333984375,-9.490966796875
0.7474999,-1.8884265422821045,-0.3932476341724396,9.687539100646973,-8.514404296875,-20.1416015625,21.148681640625
0.7524999,-1.8058266639709473,-0.4297592043876648,9.6803560256958,-21.78955078125,-39.642333984375,37.078857421875
0.7574999,-1.1725603342056274,-0.6811503767967224,9.654618263244629,-20.32470703125,-35.7666015625,35.369873046875
0.7624999,-0.3130418658256531,-1.2737152576446533,9.728240013122559,5.401611328125,-22.216796875,32.958984375
0.7674999,0.5404910445213318,-1.7489643096923828,9.579200744628906,21.697998046875,-10.650634765625,34.332275390625
0.7724999,1.0504560470581055,-1.8555063009262085,9.57860279083252,22.796630859375,-2.349853515625,38.543701171875
0.7774999,1.2228385210037231,-1.2880805730819702,9.714473724365234,15.228271484375,8.209228515625,27.28271484375
0.7824999,1.2988544702529907,-0.14185644686222076,9.926959037780762,6.134033203125,5.06591796875,8.30078125
0.7874999,1.4862006902694702,0.6416460275650024,10.08198356628418,-3.72314453125,3.692626953125,-16.41845703125
0.7924999,1.6753426790237427,0.6596025824546814,10.086771965026855,-0.518798828125,17.578125,-21.331787109375
0.7974999,1.8644845485687256,0.2693476974964142,9.922768592834473,15.9912109375,29.083251953125,-23.13232421875
0.8024999,1.8225860595703125,0.021547814831137657,9.8970308303833,14.495849609375,34.332275390625,-36.0107421875
0.8074999,1.367687702178955,-0.0999579206109047,9.864709854125977,-1.739501953125,31.55517578125,-31.890869140625
0.8124999,-0.9959878921508789,-0.2645592987537384,9.619902610778809,-21.1181640625,-13.12255859375,-25.238037109375
0.8174999000000001,-1.4053963422775269,-0.22505496442317963,9.11113452911377,-14.6484375,-8.9111328125,-7.14111328125
0.8224999000000001,-2.0236990451812744,-0.7224503755569458,9.592369079589844,-9.124755859375,-25.81787109375,28.25927734375
0.8274999000000001,-1.7872716188430786,-0.8553285598754883,9.541492462158203,-24.261474609375,-42.6025390625,38.6962890625
0.8324999000000001,-1.0570400953292847,-1.1863269805908203,9.612719535827637,-16.66259765625,-34.332275390625,37.261962890625
0.8374999,-0.1173158809542656,-1.6992846727371216,9.677961349487305,10.68115234375,-19.317626953125,33.782958984375
0.8424999,0.6973112225532532,-2.0045454502105713,9.575610160827637,25.57373046875,-8.697509765625,37.53662109375
0.8474999,1.1204863786697388,-1.9147628545761108,9.598953247070312,22.88818359375,1.617431640625,39.0625
0.8524999,1.2066776752471924,-1.0432734489440918,9.798270225524902,14.312744140625,8.9111328125,25.45166015625
0.8574999,1.2850877046585083,0.17477671802043915,10.017339706420898,3.60107421875,3.5400390625,3.60107421875
0.8624999,1.7202339172363281,0.5650315880775452,10.032303810119629,4.608154296875,21.66748046875,-22.369384765625
0.8674999,1.9853917360305786,0.3693056106567383,9.948506355285645,19.83642578125,33.14208984375,-29.84619140625
0.8724999,1.7938556671142578,-0.04728548228740692,9.864110946655273,9.429931640625,35.33935546875,-34.97314453125
0.8774999,1.2826935052871704,0.02753331884741783,9.906607627868652,-5.157470703125,30.21240234375,-34.85107421875
0.8824999,0.5937620401382446,0.08140286058187485,9.637859344482422,-7.4462890625,16.998291015625,-50.933837890625
0.8874999,0.5937620401382446,0.08140286058187485,9.637859344482422,-7.4462890625,16.998291015625,-50.933837890625
0.8924999,-0.36332011222839355,0.3519476354122162,9.865307807922363,-7.659912109375,-3.72314453125,-46.112060546875
0.8974999,-1.3311761617660522,-0.5829881429672241,9.581595420837402,-23.62060546875,-16.90673828125,-20.69091796875
0.9024999,-1.7639280557632446,-0.4106055796146393,9.491812705993652,-10.92529296875,-12.63427734375,2.8076171875
0.9074999,-2.1595699787139893,-0.8756792545318604,9.84256362915039,-12.5732421875,-35.888671875,38.238525390625
0.9124999,-1.6382324695587158,-0.950498104095459,9.561244010925293,-25.0244140625,-43.701171875,38.9404296875
0.9174999,-0.7990648150444031,-1.3012486696243286,9.724050521850586,-1.495361328125,-30.853271484375,41.19873046875
0.9224999,1.4658499956130981,0.43933600187301636,10.045472145080566,1.28173828125,3.35693359375,-2.25830078125
0.9274999,1.6543933153152466,0.6997054219245911,10.079588890075684,-3.41796875,10.80322265625,-23.98681640625
0.9324999,1.9548656940460205,0.42018240690231323,9.93354320526123,14.16015625,28.167724609375,-24.658203125
0.9374999,2.072181463241577,0.2992752194404602,9.889249801635742,16.90673828125,35.7666015625,-31.402587890625
0.9424999000000001,1.6466121673583984,0.011971008032560349,9.874286651611328,0.79345703125,33.447265625,-28.564453125
0.9474999000000001,0.9780313968658447,0.2106897532939911,9.788095474243164,-7.568359375,25.57373046875,-40.4052734375
0.9524999000000001,0.19213469326496124,0.10295066982507706,9.552266120910645,-5.950927734375,8.60595703125,-54.290771484375
0.9574999000000001,-0.993593692779541,-0.04010287672281265,9.815030097961426,-14.5263671875,-13.48876953125,-33.599853515625
0.9624999,-1.9865888357162476,-0.43035775423049927,9.689932823181152,-9.70458984375,-18.49365234375,16.448974609375
0.9674999,-1.9081788063049316,-0.6368576288223267,9.765350341796875,-19.71435546875,-41.839599609375,42.694091796875
0.9724999,-1.2288240194320679,-0.6440402865409851,9.676166534423828,-18.524169921875,-38.360595703125,38.75732421875
0.9774999,-0.322618693113327,-1.2635399103164673,9.794678688049316,4.913330078125,-24.688720703125,38.57421875
0.9824999,0.579995334148407,-1.5879542827606201,9.640851974487305,15.68603515625,-11.1083984375,32.440185546875
0.9874999,1.1342530250549316,-1.7148469686508179,9.6618013381958,22.918701171875,0.640869140625,38.0859375
0.9924999,1.3293805122375488,-1.3491326570510864,9.734824180603027,16.448974609375,9.3994140625,32.806396484375
0.9974999,1.348534107208252,-0.2759317457675934,9.90361499786377,9.21630859375,7.843017578125,15.350341796875
1.0024999,1.502361536026001,0.4985924959182739,10.054450035095215,-1.77001953125,4.21142578125,-13.153076171875
1.0074999000000002,1.6723499298095703,0.5530605912208557,10.037092208862305,-0.274658203125,17.27294921875,-24.35302734375
1.0124999000000001,1.953070044517517,0.3280056416988373,9.904812812805176,17.63916015625,31.402587890625,-25.69580078125
1.0174999000000002,1.9117701053619385,0.1215057373046875,9.874286651611328,14.251708984375,36.31591796875,-35.09521484375
1.0224999000000001,1.426345705986023,0.03292027488350868,9.869498252868652,-2.410888671875,32.53173828125,-31.829833984375
1.0274999,-1.5831658840179443,-0.3058592677116394,8.992621421813965,-16.693115234375,-12.14599609375,-8.60595703125
1.0324999000000001,-2.1529858112335205,-0.7870938181877136,9.529520988464355,-10.101318359375,-28.13720703125,30.70068359375
1.0374999,-1.8309657573699951,-1.0283095836639404,9.45410442352295,-24.383544921875,-45.562744140625,42.083740234375
1.0424999000000001,0.768538773059845,-1.8201918601989746,9.672574996948242,20.44677734375,-8.270263671875,36.68212890625
1.0474999,0.768538773059845,-1.8201918601989746,9.672574996948242,20.44677734375,-8.270263671875,36.68212890625
1.0524999000000002,1.2216414213180542,-1.799242615699768,9.689932823181152,22.857666015625,4.7607421875,41.93115234375
1.0574999,1.2856862545013428,-1.0492589473724365,9.84376049041748,14.556884765625,10.101318359375,32.257080078125
1.0624999000000002,1.3311761617660522,0.0736217051744461,9.996390342712402,5.645751953125,5.31005859375,10.6201171875
1.0674999,1.5185223817825317,0.7242460250854492,10.096946716308594,-4.669189453125,4.302978515625,-18.402099609375
1.0724999000000002,2.0697872638702393,0.33758243918418884,9.909601211547852,18.6767578125,33.5693359375,-28.13720703125
1.0774999,1.8800468444824219,-0.02454056777060032,9.8784761428833,8.60595703125,35.58349609375,-32.53173828125
1.0824999000000002,1.3192051649093628,0.05985504388809204,9.888052940368652,-5.126953125,30.8837890625,-33.87451171875
1.0874999,0.5626373887062073,0.06404489278793335,9.627683639526367,-7.415771484375,18.035888671875,-51.20849609375
1.0924999000000002,-0.4034229815006256,0.4854243993759155,9.824606895446777,-4.852294921875,-3.173828125,-46.600341796875
1.0974999,-1.3694833517074585,-0.47824180126190186,9.537302017211914,-24.627685546875,-18.310546875,-20.233154296875
1.1024999000000002,-1.7256208658218384,-0.2232593148946762,9.406219482421875,-13.519287109375,-11.5966796875,-1.46484375
1.1074999,-2.078765630722046,-0.657806932926178,9.741408348083496,-12.8173828125,-34.210205078125,38.14697265625
1.1124999000000002,-1.557428240776062,-0.7924807667732239,9.504382133483887,-25.665283203125,-43.51806640625,39.55078125
1.1174999,-0.7439981698989868,-1.1785458326339722,9.637260437011719,-4.7607421875,-30.059814453125,40.557861328125
1.1224999000000002,0.2298433631658554,-1.6723499298095703,9.577404975891113,12.725830078125,-18.4326171875,39.276123046875
1.1274999,0.9175778031349182,-1.8112136125564575,9.57979965209961,24.200439453125,-5.218505859375,40.95458984375
1.1324999000000002,1.2587515115737915,-0.7068880796432495,9.851541519165039,12.75634765625,10.345458984375,28.472900390625
1.1374999000000001,1.3515268564224243,0.31783026456832886,10.029909133911133,2.3193359375,3.90625,2.25830078125
1.1424999000000002,1.5436615943908691,0.7469909191131592,10.143035888671875,-5.096435546875,8.6669921875,-23.8037109375
1.1474999000000001,1.8411411046981812,0.4255693554878235,9.989208221435547,11.23046875,26.397705078125,-25.0244140625
1.1524999000000002,2.053626537322998,0.2908954918384552,9.935338973999023,17.88330078125,35.797119140625,-31.92138671875
1.1574999000000001,1.7292121648788452,-0.041299980133771896,9.898826599121094,3.96728515625,35.2783203125,-33.38623046875
1.1624999,1.1121066808700562,0.16400282084941864,9.819219589233398,-6.89697265625,27.7099609375,-40.283203125
1.1674999000000001,0.33997663855552673,0.090979665517807,9.573814392089844,-5.889892578125,12.603759765625,-57.18994140625
1.1724999,-0.8451532125473022,0.048482585698366165,9.741408348083496,-12.298583984375,-10.986328125,-41.290283203125
1.1774999000000002,-1.512536883354187,-0.6787561774253845,9.191938400268555,-22.64404296875,-17.181396484375,-17.486572265625
1.1824999,-2.007538080215454,-0.5913678407669067,9.367912292480469,-10.894775390625,-16.693115234375,10.31494140625
1.1874999000000002,-2.052429437637329,-0.8481459617614746,9.566033363342285,-16.9677734375,-41.534423828125,42.938232421875
1.1924999,-0.46627077460289,-1.4269442558288574,9.695320129394531,3.692626953125,-27.435302734375,41.534423828125
1.1974999000000002,0.48722004890441895,-1.7830817699432373,9.610923767089844,16.66259765625,-14.862060546875,39.398193359375
1.2024999,1.0797849893569946,-1.84233820438385,9.663596153259277,25.0244140625,0.18310546875,43.51806640625
1.2074999000000002,1.3090298175811768,-1.5041571855545044,9.73542308807373,18.524169921875,10.772705078125,40.985107421875
1.2124999,1.2934675216674805,-0.33279404044151306,9.960477828979492,10.7421875,9.033203125,24.810791015625
1.2174999000000002,1.4419080018997192,0.5392939448356628,10.080187797546387,-0.885009765625,2.8076171875,-5.950927734375
1.2224999,1.6639702320098877,0.6290764808654785,10.087369918823242,-1.739501953125,13.5498046875,-26.55029296875
1.2274999000000002,2.070984363555908,0.4255693554878235,9.943717956542969,18.61572265625,32.135009765625,-26.85546875
1.2324999,2.139219284057617,0.22385786473751068,9.90122127532959,14.556884765625,38.360595703125,-33.599853515625
1.2374999000000002,1.7082629203796387,0.08080431073904037,9.928155899047852,-1.220703125,35.491943359375,-33.26416015625
1.2424999,0.9840168952941895,0.21667525172233582,9.713874816894531,-8.026123046875,23.956298828125,-50.689697265625
1.2474999000000002,-1.6508020162582397,-0.24899697303771973,9.103952407836914,-18.24951171875,-13.824462890625,-13.671875
1.2524999,-2.3104045391082764,-0.5925649404525757,9.673172950744629,-7.6904296875,-25.238037109375,27.618408203125
1.2574999000000002,-2.101510524749756,-1.0630255937576294,9.66419506072998,-23.8037109375,-46.630859375,43.5791015625
1.2624999000000001,-1.3491326570510864,-1.0684125423431396,9.764751434326172,-12.969970703125,-36.68212890625,39.520263671875
1.2674999000000002,-0.29568392038345337,-1.6717513799667358,9.86650562286377,10.955810546875,-23.406982421875,42.05322265625
1.2724999000000001,0.6703764796257019,-1.8022353649139404,9.757569313049316,17.88330078125,-8.48388671875,38.726806640625
1.2774999000000002,1.2791022062301636,-1.7549498081207275,9.767744064331055,22.491455078125,7.01904296875,43.45703125
1.2824999000000001,1.469441294670105,-1.0881646871566772,9.86231517791748,15.31982421875,12.054443359375,35.70556640625
1.2874999,1.5017629861831665,0.06763619929552078,9.982025146484375,6.866455078125,7.476806640625,13.48876953125
1.2924999000000001,1.653794765472412,0.6344634294509888,10.07779312133789,-3.96728515625,5.096435546875,-17.852783203125
1.2974999,1.8806453943252563,0.44532153010368347,9.965266227722168,7.354736328125,22.552490234375,-27.191162109375
1.3024999000000002,-0.5069721937179565,0.5464765429496765,9.801861763000488,-6.16455078125,-5.584716796875,-54.656982421875
1.3074999,-1.5071499347686768,-0.5656301379203796,9.485228538513184,-27.557373046875,-21.575927734375,-25.421142578125
1.3124999000000002,-1.933916449546814,-0.41120412945747375,9.4014310836792,-12.603759765625,-13.0615234375,-1.15966796875
1.3174999,-2.3092074394226074,-0.8140285611152649,9.778518676757812,-11.383056640625,-36.651611328125,41.778564453125
1.3224999000000002,-1.7830817699432373,-1.1073182821273804,9.52353572845459,-26.42822265625,-45.684814453125,40.22216796875
1.3274999,-0.9026140570640564,-1.2348095178604126,9.713874816894531,-0.823974609375,-31.005859375,41.656494140625
1.3324999000000002,0.18914192914962769,-1.7507599592208862,9.650428771972656,13.458251953125,-17.578125,39.825439453125
1.3374999,1.0043675899505615,-1.7322049140930176,9.664793968200684,21.026611328125,-1.434326171875,39.154052734375
1.3424999000000002,1.4401123523712158,-1.5795745849609375,9.713275909423828,19.683837890625,9.82666015625,39.398193359375
1.3474999,1.546055793762207,0.34416648745536804,10.043676376342773,2.38037109375,5.035400390625,-1.251220703125
1.3524999000000002,1.6502034664154053,0.6392518281936646,10.106523513793945,-3.509521484375,11.016845703125,-24.4140625
1.3574999,1.913565754890442,0.36571431159973145,9.942521095275879,14.2822265625,28.411865234375,-25.115966796875
1.3624999000000002,2.035670042037964,0.28550854325294495,9.907805442810059,17.303466796875,36.4990234375,-33.294677734375
1.3674999,1.6633716821670532,-0.028730420395731926,9.874884605407715,2.410888671875,35.125732421875,-31.280517578125
1.3724999000000002,1.0336965322494507,0.16340427100658417,9.75637149810791,-7.049560546875,25.7568359375,-41.32080078125
1.3774999,0.2669534981250763,0.10115502029657364,9.53969669342041,-5.2490234375,9.033203125,-58.685302734375
1.3824999000000002,-0.9558850526809692,-0.13108254969120026,9.773131370544434,-14.46533203125,-14.251708984375,-38.87939453125
1.3874999000000001,-1.4969745874404907,-0.7068880796432495,9.210494041442871,-21.331787109375,-16.326904296875,-16.17431640625
1.3924999000000002,-2.0697872638702393,-0.5488707423210144,9.61331844329834,-7.476806640625,-18.280029296875,16.29638671875
1.3974999000000001,-2.0632033348083496,-0.7368155717849731,9.68813705444336,-18.218994140625,-42.48046875,43.792724609375
1.4024999000000002,-1.426345705986023,-0.7368155717849731,9.610923767089844,-20.965576171875,-39.6728515625,35.247802734375
1.4074999000000001,0.5123591423034668,-1.577778935432434,9.68274974822998,13.0615234375,-12.451171875,34.454345703125
1.4124999,1.1779472827911377,-1.6112977266311646,9.738415718078613,21.331787109375,2.8076171875,36.4990234375
1.4174999000000001,1.4760253429412842,-1.2958617210388184,9.78869342803955,15.68603515625,9.58251953125,31.829833984375
1.4224999,1.5065513849258423,-0.24600422382354736,9.946710586547852,9.033203125,7.843017578125,14.556884765625
1.4274999000000002,1.5933412313461304,0.4572925269603729,10.051457405090332,-1.3427734375,4.8828125,-12.908935546875
1.4324999,1.6717513799667358,0.5518634915351868,10.06701946258545,-0.732421875,16.265869140625,-23.345947265625
1.4374999000000002,1.8848352432250977,0.2406172752380371,9.883264541625977,16.6015625,29.72412109375,-23.834228515625
1.4424999,1.8387469053268433,0.09457096457481384,9.8970308303833,15.045166015625,35.614013671875,-34.576416015625
1.4474999000000002,1.3617022037506104,-0.06344634294509888,9.853337287902832,-0.640869140625,32.16552734375,-28.13720703125
1.4524999,0.7511807680130005,0.028131870552897453,9.687539100646973,-7.720947265625,20.721435546875,-41.6259765625
1.4574999000000002,-0.021547814831137657,0.5345055460929871,9.536105155944824,-2.899169921875,3.143310546875,-51.3916015625
1.4624999,-1.1581950187683105,-0.322618693113327,9.61451530456543,-19.927978515625,-17.181396484375,-25.93994140625
1.4674999000000002,-2.073378562927246,-0.5003881454467773,9.728838920593262,-8.11767578125,-24.2919921875,27.587890625
1.4724999,-1.821987509727478,-0.7439981698989868,9.692925453186035,-23.37646484375,-42.388916015625,38.63525390625
1.4774999000000002,-1.1629834175109863,-0.790086567401886,9.832986831665039,-12.87841796875,-33.8134765625,32.8369140625
1.4824999,-0.21009120345115662,-1.3862427473068237,9.876082420349121,6.77490234375,-22.27783203125,34.97314453125
1.4874999000000002,0.6757634282112122,-1.6645687818527222,9.764751434326172,15.289306640625,-8.60595703125,31.005859375
1.4924999,1.237802267074585,-1.7525556087493896,9.762955665588379,20.93505859375,4.2724609375,34.48486328125
1.4974999000000002,1.4287399053573608,-1.1929110288619995,9.834183692932129,12.786865234375,8.7890625,25.115966796875
1.5024999,1.4802151918411255,-0.10115502029657364,9.967659950256348,6.317138671875,6.256103515625,5.37109375
1.5074999000000002,1.590348482131958,0.5165489912033081,10.063427925109863,-2.50244140625,6.805419921875,-18.402099609375
1.5124999000000001,1.590348482131958,0.5165489912033081,10.063427925109863,-2.50244140625,6.805419921875,-18.402099609375
1.5174999000000002,1.678335428237915,0.4692635238170624,10.02811336517334,2.0751953125,19.500732421875,-20.56884765625
1.5224999000000001,1.215057373046875,-0.11851298063993454,9.81263542175293,-2.410888671875,29.754638671875,-26.85546875
1.5274999000000002,0.629675030708313,-0.05925649031996727,9.603741645812988,-7.568359375,16.510009765625,-42.755126953125
1.5324999000000001,-0.18136078119277954,0.44532153010368347,9.679159164428711,-2.471923828125,-1.0986328125,-45.22705078125
1.5374999000000003,-1.2102689743041992,-0.5632359385490417,9.497797966003418,-22.52197265625,-17.2119140625,-19.805908203125
1.5424999000000001,-1.5304933786392212,-0.3561375141143799,9.311649322509766,-10.68115234375,-11.444091796875,-3.570556640625
1.5474999,-2.0841526985168457,-0.6673837304115295,9.676764488220215,-9.82666015625,-29.022216796875,35.125732421875
1.5524999000000002,-1.7268179655075073,-0.8206126093864441,9.553462982177734,-24.71923828125,-41.351318359375,34.027099609375
1.5574999,-1.039083480834961,-0.8708908557891846,9.744999885559082,-7.50732421875,-30.94482421875,31.982421875
1.5624999000000002,-0.05386953800916672,-1.3946224451065063,9.710882186889648,6.866455078125,-19.683837890625,32.623291015625
1.5674999,0.7876923680305481,-1.557428240776062,9.722254753112793,16.876220703125,-6.103515625,29.96826171875
1.5724999000000002,1.3180080652236938,-1.5855600833892822,9.6989107131958,18.5546875,5.889892578125,31.55517578125
1.5774999,1.4658499956130981,-0.8846575021743774,9.856329917907715,10.92529296875,7.843017578125,19.927978515625
1.5824999000000002,1.6065093278884888,0.6045359373092651,10.08437728881836,-3.35693359375,8.97216796875,-20.1416015625
1.5874999,1.6891093254089355,0.30226796865463257,9.982624053955078,4.119873046875,20.56884765625,-18.646240234375
1.5924999000000002,1.8160020112991333,0.06763619929552078,9.90241813659668,17.974853515625,30.792236328125,-28.533935546875
1.5974999,1.566406488418579,-0.23942017555236816,9.841365814208984,12.14599609375,33.966064453125,-32.5927734375
1.6024999000000002,-0.44173020124435425,0.3292027413845062,9.79408073425293,-4.241943359375,-4.119873046875,-37.567138671875
1.6074999,-1.2449848651885986,-0.4866214990615845,9.514557838439941,-21.66748046875,-15.5029296875,-14.862060546875
1.6124999000000002,-1.647210717201233,-0.14903905987739563,9.585784912109375,-8.85009765625,-12.51220703125,3.021240234375
1.6174999,-1.978209137916565,-0.5213374495506287,9.855133056640625,-12.908935546875,-32.470703125,37.53662109375
1.6224999000000002,-1.533486247062683,-0.6165069341659546,9.662399291992188,-24.566650390625,-39.306640625,29.998779296875
1.6274999,0.14604631066322327,-1.389235496520996,9.675567626953125,7.171630859375,-17.547607421875,31.646728515625
1.6324999000000002,0.8732850551605225,-1.5005658864974976,9.714473724365234,19.256591796875,-4.730224609375,30.914306640625
1.6374999000000001,1.2880805730819702,-1.4335283041000366,9.687539100646973,16.387939453125,5.92041015625,30.2734375
1.6424999000000002,1.3832499980926514,-0.6260837316513062,9.843161582946777,9.70458984375,6.53076171875,17.242431640625
1.6474999000000001,1.4622586965560913,0.22086510062217712,9.97364616394043,1.739501953125,3.326416015625,-4.33349609375
1.6524999000000002,1.5634137392044067,0.6745663285255432,10.077195167541504,-3.875732421875,9.033203125,-20.32470703125
1.6574999000000001,1.6603789329528809,0.2795230448246002,9.958083152770996,4.608154296875,20.263671875,-18.463134765625
1.6624999000000003,1.7375918626785278,0.05626374110579491,9.915586471557617,16.693115234375,29.693603515625,-29.815673828125
1.6674999000000001,1.4562731981277466,-0.24361002445220947,9.82879638671875,9.490966796875,31.6162109375,-32.806396484375
1.6724999,0.9516952037811279,-0.25977087020874023,9.794678688049316,-6.40869140625,23.98681640625,-25.57373046875
1.6774999000000002,0.365115761756897,-0.22086510062217712,9.551667213439941,-5.615234375,12.6953125,-40.4052734375
1.6824999,0.3190273642539978,-1.5029600858688354,9.635464668273926,10.55908203125,-16.05224609375,31.890869140625
1.6874999000000002,0.9187749028205872,-1.790264368057251,9.663596153259277,22.705078125,-4.364013671875,36.285400390625
1.6924999,1.1893197298049927,-1.5765818357467651,9.68574333190918,15.655517578125,5.340576171875,34.3017578125
1.6974999000000002,1.2587515115737915,-0.6350619792938232,9.862914085388184,10.009765625,5.79833984375,19.866943359375
1.7024999,1.4065934419631958,0.21787235140800476,10.00836181640625,-0.244140625,0.823974609375,-3.326416015625
1.7074999000000002,1.6250643730163574,0.7080851793289185,10.077195167541504,-4.669189453125,7.32421875,-21.30126953125
1.7124999,1.820790410041809,0.24600422382354736,9.894637107849121,6.34765625,20.751953125,-20.050048828125
1.7174999000000002,1.9171570539474487,0.13347674906253815,9.893440246582031,15.716552734375,30.670166015625,-31.18896484375
1.7224999,0.9415197968482971,-0.3196259140968323,9.773131370544434,-6.7138671875,22.979736328125,-28.50341796875
1.7274999000000002,0.30047231912612915,-0.2017114907503128,9.566631317138672,-1.800537109375,11.962890625,-39.459228515625
1.7324999,-0.7960720658302307,-0.33099839091300964,9.820416450500488,-10.55908203125,-7.904052734375,-19.927978515625
1.7374999000000002,-1.227626919746399,-0.507570743560791,9.348160743713379,-13.885498046875,-8.087158203125,-6.317138671875
1.7424999,-1.7393875122070312,-0.2495955228805542,9.780912399291992,-7.843017578125,-18.829345703125,17.974853515625
1.7474999000000002,-1.6573861837387085,-0.3148375153541565,9.676764488220215,-19.561767578125,-34.332275390625,32.470703125
1.7524999,-1.0983400344848633,-0.3555389642715454,9.762357711791992,-11.932373046875,-31.158447265625,31.768798828125
1.7574999000000002,-0.32202014327049255,-1.0797849893569946,9.742006301879883,2.197265625,-23.49853515625,32.2265625
1.7624999000000001,0.4626794755458832,-1.425148606300354,9.692925453186035,13.885498046875,-11.016845703125,28.25927734375
1.7674999000000002,1.0001777410507202,-1.6747441291809082,9.675567626953125,19.775390625,-1.251220703125,34.942626953125
1.7724999000000001,1.2108675241470337,-1.236605167388916,9.777320861816406,12.481689453125,7.4462890625,27.28271484375
1.7774999000000002,1.346139907836914,-0.2651578485965729,9.908403396606445,6.53076171875,5.401611328125,8.7890625
1.7824999000000001,1.7411831617355347,0.4704606235027313,10.039485931396484,-0.640869140625,15.93017578125,-20.172119140625
1.7874999000000003,1.9776105880737305,0.040701430290937424,9.837775230407715,14.862060546875,28.6865234375,-21.942138671875
1.7924999000000001,1.9512743949890137,-0.0520738884806633,9.904812812805176,15.533447265625,35.58349609375,-34.881591796875
1.7974999,1.4323312044143677,-0.22385786473751068,9.825803756713867,0.762939453125,32.440185546875,-24.688720703125
1.8024999000000002,0.8415619134902954,-0.12330138683319092,9.66539192199707,-6.317138671875,20.32470703125,-38.75732421875
1.8074999,-0.035913024097681046,0.5183446407318115,9.687539100646973,-2.044677734375,1.495361328125,-43.182373046875
1.8124999000000002,-1.1917139291763306,-0.4082113802433014,9.625288963317871,-18.951416015625,-13.946533203125,-16.6015625
1.8174999,-1.591545581817627,-0.09397241473197937,9.419986724853516,-11.29150390625,-12.359619140625,-1.64794921875
1.8224999000000002,-2.1715409755706787,-0.6889315247535706,9.877279281616211,-10.528564453125,-28.25927734375,32.89794921875
1.8274999,-1.7675193548202515,-0.7601590156555176,9.728240013122559,-23.162841796875,-36.865234375,31.005859375
1.8324999000000002,-1.0313023328781128,-1.016338586807251,9.90122127532959,-6.805419921875,-28.62548828125,31.982421875
1.8374999,-0.03172317147254944,-1.4293384552001953,9.767744064331055,4.2724609375,-18.73779296875,30.975341796875
1.8424999000000002,1.2503718137741089,-1.4401123523712158,9.673172950744629,16.7236328125,2.288818359375,31.829833984375
1.8474999,1.4065934419631958,-0.7439981698989868,9.79288387298584,9.6435546875,6.4697265625,16.11328125
1.8524999000000002,1.5245078802108765,0.11971008777618408,9.917980194091797,2.044677734375,3.662109375,-5.92041015625
1.8574999,1.653794765472412,0.5416881442070007,10.027515411376953,-3.326416015625,10.711669921875,-21.026611328125
1.8624999000000002,1.7842788696289062,0.18315643072128296,9.9401273727417,4.241943359375,22.0947265625,-17.791748046875
1.8674999,1.9015947580337524,-0.12868833541870117,9.877877235412598,18.524169921875,33.203125,-32.196044921875
1.8724999000000002,1.6280571222305298,-0.41958385705947876,9.834183692932129,14.617919921875,37.445068359375,-36.07177734375
1.8774999,1.149815320968628,-0.5752069354057312,9.713275909423828,-1.373291015625,26.397705078125,-23.529052734375
1.8824999000000002,0.5674257874488831,-0.395043283700943,9.591172218322754,-2.685546875,11.77978515625,-41.07666015625
1.8874999000000001,-0.524330198764801,-0.19871874153614044,9.747992515563965,-5.584716796875,-3.997802734375,-28.228759765625
1.8924999000000002,-1.1755530834197998,-0.4710591733455658,9.458293914794922,-16.937255859375,-11.627197265625,-13.397216796875
1.8974999000000001,-1.8638859987258911,-0.16160862147808075,9.715071678161621,-6.072998046875,-14.6484375,11.04736328125
1.9024999000000002,-2.0673930644989014,-0.1735796183347702,9.807847023010254,-14.70947265625,-32.53173828125,39.73388671875
1.9074999000000001,-1.6585832834243774,-0.38546648621559143,9.762357711791992,-20.3857421875,-36.285400390625,23.92578125
1.9124999000000003,-0.8637082576751709,-0.6458359360694885,9.920374870300293,2.655029296875,-25.32958984375,30.731201171875
1.9174999000000001,0.1999158412218094,-1.1480196714401245,9.775525093078613,5.645751953125,-14.190673828125,27.008056640625
1.9224999,0.9917980432510376,-1.1552022695541382,9.832986831665039,13.153076171875,-0.762939453125,22.003173828125
1.9274999000000002,1.4981716871261597,-1.028908133506775,9.794678688049316,10.772705078125,5.035400390625,17.08984375
1.9324999,1.599326729774475,-0.31842881441116333,9.906009674072266,6.53076171875,4.39453125,3.72314453125
1.9374999000000002,1.611896276473999,0.21128830313682556,9.971251487731934,-0.1220703125,4.94384765625,-14.984130859375
1.9424999,1.5304933786392212,0.4297592043876648,10.011953353881836,-1.52587890625,13.763427734375,-17.364501953125
1.9474999000000002,1.525106430053711,-0.09935937076807022,9.837775230407715,6.195068359375,18.890380859375,-14.373779296875
1.9524999,1.5179238319396973,-0.3274070918560028,9.832986831665039,17.51708984375,28.839111328125,-32.745361328125
1.9574999000000002,1.1965023279190063,-0.5015852451324463,9.767146110534668,10.406494140625,31.43310546875,-28.717041015625
1.9624999,0.7918822169303894,-0.760757565498352,9.659406661987305,-3.387451171875,22.3388671875,-14.739990234375
1.9674999000000002,0.17896658182144165,-0.3974374830722809,9.59715747833252,-0.030517578125,7.476806640625,-26.153564453125
1.9724999,-0.9091981053352356,-0.4944026470184326,9.733028411865234,-7.8125,-9.3994140625,-9.796142578125
1.9774999000000002,-1.2952631711959839,-0.4878185987472534,9.43375301361084,-13.580322265625,-13.458251953125,-1.800537109375
1.9824999,-1.8824410438537598,-0.16879121959209442,9.853337287902832,-10.284423828125,-22.308349609375,17.51708984375
1.9874999000000002,-1.688510775566101,0.13587094843387604,9.804255485534668,-18.707275390625,-32.8369140625,30.792236328125
1.9924999,-1.1971008777618408,-0.40462008118629456,9.88386344909668,-15.411376953125,-31.951904296875,21.697998046875
1.9974999000000002,-0.4183867573738098,-0.4213795065879822,9.893440246582031,2.288818359375,-24.017333984375,29.23583984375
2.0024999,0.4944026470184326,-1.1534066200256348,9.778518676757812,5.67626953125,-13.214111328125,28.4423828125
2.0074999,1.1061211824417114,-1.138442873954773,9.778518676757812,8.575439453125,-0.152587890625,19.59228515625
2.0124999000000003,1.5041571855545044,-1.0229226350784302,9.731232643127441,9.21630859375,4.119873046875,16.448974609375
2.0174999000000002,1.5831658840179443,-0.5051765441894531,9.816825866699219,5.7373046875,2.99072265625,4.2724609375
2.0224999,1.6561890840530396,-0.06823474913835526,9.889249801635742,1.373291015625,5.401611328125,-12.451171875
2.0274999,1.567603588104248,-0.09636662155389786,9.91738224029541,4.302978515625,17.913818359375,-11.90185546875
2.0324999000000004,1.4730325937271118,-0.4776432514190674,9.770736694335938,11.199951171875,23.712158203125,-25.0244140625
2.0374999000000003,1.2755109071731567,-0.5374982953071594,9.837775230407715,13.641357421875,31.3720703125,-32.16552734375
2.0424999,0.8667010068893433,-0.6440402865409851,9.728240013122559,2.9296875,26.18408203125,-16.78466796875
2.0474999,0.44771572947502136,-0.7032967209815979,9.59596061706543,-0.48828125,14.5263671875,-21.728515625
2.0524999,-0.3860650360584259,-0.13108254969120026,9.828198432922363,1.617431640625,-0.885009765625,-17.547607421875
2.0574999000000003,-0.9959878921508789,-0.5554547905921936,9.570222854614258,-12.5732421875,-7.75146484375,-6.744384765625
2.0624999,-1.4850035905838013,0.12210428714752197,9.832387924194336,-7.26318359375,-11.77978515625,6.89697265625
2.0674999,-1.7950527667999268,-0.0011971008498221636,9.852738380432129,-13.946533203125,-25.482177734375,29.60205078125
2.0724999,-1.4867992401123047,-0.06165069341659546,9.922170639038086,-17.364501953125,-34.027099609375,23.223876953125
2.0774999000000003,-0.9522937536239624,-0.49978959560394287,9.870695114135742,-7.965087890625,-26.611328125,18.585205078125
2.0824999,1.380257248878479,-0.9630676507949829,9.81024169921875,8.514404296875,2.593994140625,13.031005859375
2.0874999,1.599326729774475,-0.6763619780540466,9.816825866699219,5.67626953125,2.593994140625,4.364013671875
2.0924999,1.600523829460144,-0.22086510062217712,9.854534149169922,3.173828125,3.0517578125,-8.23974609375
2.0974999000000003,1.512536883354187,0.08200141042470932,9.965266227722168,0.3662109375,10.284423828125,-14.862060546875
2.1024999,1.37906014919281,0.15083470940589905,9.937732696533203,0.91552734375,14.923095703125,-10.6201171875
2.1074999,1.3114240169525146,-0.29867666959762573,9.832387924194336,5.645751953125,17.852783203125,-19.012451171875
2.1124999,1.2042834758758545,-0.4471171796321869,9.828198432922363,13.3056640625,27.862548828125,-34.11865234375
2.1174999000000003,0.9858125448226929,-0.5578489899635315,9.759963035583496,9.307861328125,30.181884765625,-23.62060546875
2.1224999,0.6751648783683777,-0.7015010714530945,9.68813705444336,-0.579833984375,20.782470703125,-15.44189453125
2.1274999,0.1885433793067932,-0.31364041566848755,9.565434455871582,0.213623046875,6.53076171875,-26.85546875
2.1324999,-0.7398083209991455,-0.3321954905986786,9.79527759552002,-7.87353515625,-6.927490234375,-10.31494140625
2.1374999000000003,-1.1186907291412354,-0.1454477459192276,9.480440139770508,-13.275146484375,-8.209228515625,-3.84521484375
2.1424999000000002,-0.3232172429561615,-0.6590040326118469,9.9401273727417,-1.678466796875,-22.064208984375,28.01513671875
2.1474999,0.7344213724136353,-1.1683704853057861,9.830592155456543,9.765625,-11.627197265625,33.447265625
2.1524999,1.4012064933776855,-1.3940238952636719,9.685144424438477,7.99560546875,-0.244140625,29.022216796875
2.1574999000000004,1.6723499298095703,-1.1971008777618408,9.674370765686035,10.955810546875,6.072998046875,21.66748046875
2.1624999000000003,1.447893500328064,-0.21308395266532898,9.819219589233398,4.39453125,8.056640625,-15.44189453125
2.1674999,1.447893500328064,-0.21308395266532898,9.819219589233398,4.39453125,8.056640625,-15.44189453125
2.1724999,1.334767460823059,0.1759738177061081,10.020332336425781,2.8076171875,17.76123046875,-18.280029296875
2.1774999000000004,1.335964560508728,0.13587094843387604,10.002376556396484,3.753662109375,24.505615234375,-16.4794921875
2.1824999000000003,1.358709454536438,-0.1909375786781311,9.922768592834473,11.90185546875,33.233642578125,-35.247802734375
2.1874999,0.7876923680305481,-0.5147533416748047,9.459490776062012,-0.396728515625,10.55908203125,-42.29736328125
2.1924999,-0.15143325924873352,-0.21128830313682556,9.677363395690918,-11.016845703125,-7.598876953125,-35.82763671875
2.1974999,-0.9481038451194763,-0.34656068682670593,9.41639518737793,-15.80810546875,-13.671875,-22.491455078125
2.2024999000000003,-1.953070044517517,-0.12928688526153564,9.700108528137207,-11.1083984375,-17.181396484375,8.575439453125
2.2074999,-2.404376983642578,0.008978256024420261,9.82879638671875,-16.54052734375,-36.92626953125,41.168212890625
2.2124999,-2.1362264156341553,-0.20231004059314728,9.870096206665039,-23.37646484375,-45.47119140625,34.48486328125
2.2174999,-1.3000515699386597,-0.7026981711387634,9.87967300415039,-8.636474609375,-29.449462890625,26.9775390625
2.2224999000000003,-0.02693476900458336,-0.9379284977912903,9.927556991577148,12.39013671875,-17.425537109375,36.346435546875
2.2274999,1.1025298833847046,-1.4077905416488647,9.802460670471191,12.5732421875,-2.044677734375,32.623291015625
2.2324999,1.7363947629928589,-1.1079168319702148,9.829395294189453,8.392333984375,5.828857421875,24.84130859375
2.2374999,1.9045875072479248,-0.6943184733390808,9.874884605407715,8.11767578125,6.134033203125,11.962890625
2.2424999000000003,1.5490485429763794,0.2495955228805542,10.00955867767334,3.875732421875,12.6953125,-18.85986328125
2.2474999,1.346139907836914,0.4920084476470947,10.099940299987793,3.90625,20.538330078125,-17.425537109375
2.2524999,1.2312182188034058,0.20889410376548767,9.976638793945312,2.44140625,25.787353515625,-24.871826171875
2.2574999,1.1013327836990356,0.05985504388809204,9.91738224029541,10.7421875,35.5224609375,-46.38671875
2.2624999000000003,0.9540894031524658,-0.2454056739807129,9.761758804321289,12.14599609375,34.24072265625,-50.872802734375
2.2674999000000002,0.7511807680130005,-0.5829881429672241,9.45410442352295,1.953125,17.181396484375,-45.013427734375
2.2724999,0.3148375153541565,-0.30047231912612915,9.50737476348877,-5.67626953125,-0.518798828125,-44.5556640625
2.2774999,-0.40222588181495667,-0.578798234462738,9.529520988464355,-14.984130859375,-10.955810546875,-29.876708984375
2.2824999000000004,-1.1342530250549316,-0.4291606545448303,9.515155792236328,-9.82666015625,-10.040283203125,-10.68115234375
2.2874999000000003,-1.8926163911819458,-0.5602431893348694,9.726444244384766,-11.810302734375,-23.3154296875,29.937744140625
2.2924999,-2.0021512508392334,-0.3770867586135864,9.767744064331055,-18.98193359375,-43.5791015625,44.403076171875
2.2974999,-1.6214730739593506,-0.7386112213134766,9.825803756713867,-14.007568359375,-37.689208984375,32.16552734375
2.3024999000000004,0.48482584953308105,-1.1623848676681519,9.91977596282959,16.78466796875,-8.97216796875,31.79931640625
2.3074999000000003,1.290474772453308,-1.326986312866211,9.848548889160156,12.115478515625,4.119873046875,28.74755859375
2.3124999,1.6765397787094116,-0.8798691034317017,9.9000244140625,9.796142578125,7.38525390625,19.561767578125
2.3174999,1.6819267272949219,-0.284311443567276,9.953893661499023,8.087158203125,6.591796875,2.349853515625
2.3224999,1.5646108388900757,0.22685061395168304,9.995792388916016,5.462646484375,9.21630859375,-14.862060546875
2.3274999000000003,1.4143747091293335,0.569819986820221,10.104129791259766,3.814697265625,16.9677734375,-17.822265625
2.3324999,1.3275848627090454,0.4321534037590027,10.023324966430664,4.39453125,22.430419921875,-16.998291015625
2.3374999,1.245583415031433,-0.14245499670505524,9.865307807922363,12.176513671875,30.792236328125,-34.210205078125
2.3424999,1.227626919746399,-0.3423708379268646,9.836577415466309,19.012451171875,38.482666015625,-47.42431640625
2.3474999000000003,0.9965864419937134,-0.6625953316688538,9.61212158203125,5.92041015625,27.435302734375,-33.599853515625
2.3524999,0.730231523513794,-0.8361749649047852,9.454702377319336,-2.349853515625,13.3056640625,-37.65869140625
2.3574999,-0.10295066982507706,-0.1322796493768692,9.623494148254395,-5.218505859375,-3.96728515625,-35.064697265625
2.3624999,-1.0438719987869263,-0.4668693244457245,9.5223388671875,-19.6533203125,-17.669677734375,-23.895263671875
2.3674999000000003,-1.8315643072128296,0.06404489278793335,9.61212158203125,-10.589599609375,-18.096923828125,-5.401611328125
2.3724999,-2.473809003829956,0.23942017555236816,9.865906715393066,-12.359619140625,-30.426025390625,35.94970703125
2.3774999,-2.3032219409942627,-0.0454898327589035,9.800664901733398,-24.932861328125,-45.440673828125,30.82275390625
2.3824999,-1.6747441291809082,-0.27413609623908997,9.92097282409668,-10.345458984375,-39.36767578125,30.94482421875
2.3874999000000003,-0.5632359385490417,-0.8212111592292786,9.966463088989258,8.36181640625,-22.94921875,34.3017578125
2.3924999000000002,0.5614402890205383,-1.3545196056365967,9.897629737854004,5.67626953125,-6.8359375,27.679443359375
2.3974999,1.3748703002929688,-1.2701239585876465,9.956886291503906,13.24462890625,3.84521484375,30.1513671875
2.4024999,1.768117904663086,-1.060032844543457,9.896432876586914,12.054443359375,8.544921875,29.876708984375
2.4074999000000004,1.8417396545410156,-0.24600422382354736,9.967061996459961,6.866455078125,7.598876953125,12.664794921875
2.4124999000000003,1.8315643072128296,0.2172738015651703,9.971251487731934,-1.739501953125,3.448486328125,-13.427734375
2.4174999,1.8058266639709473,0.38546648621559143,9.982025146484375,-0.54931640625,13.580322265625,-20.294189453125
2.4224999,0.2537853717803955,0.21428105235099792,9.526528358459473,-4.150390625,6.744384765625,-42.236328125
2.4274999000000004,-0.7978677153587341,0.005985504016280174,9.764153480529785,-19.561767578125,-13.824462890625,-25.32958984375
2.4324999000000003,-1.3605051040649414,0.1825578808784485,9.430760383605957,-16.265869140625,-10.955810546875,-11.566162109375
2.4374999,-2.1134815216064453,0.0586579404771328,9.862914085388184,-19.1650390625,-24.444580078125,22.8271484375
2.4424999,-2.208651065826416,-0.363918662071228,10.06043529510498,-30.792236328125,-46.478271484375,38.116455078125
2.4474999,-1.670554280281067,-0.6841431260108948,9.88386344909668,-28.717041015625,-46.051025390625,41.900634765625
2.4524999000000003,-0.7649474143981934,-1.256955862045288,9.913790702819824,2.25830078125,-36.895751953125,54.534912109375
2.4574999,0.33997663855552673,-1.5185223817825317,9.713275909423828,17.2119140625,-18.402099609375,58.746337890625
2.4624999,1.193509578704834,-1.45806884765625,9.569623947143555,15.0146484375,-4.0283203125,63.96484375
2.4674999,1.3509283065795898,0.02513911761343479,9.847949981689453,12.20703125,13.85498046875,34.0576171875
2.4724999000000003,1.3317747116088867,0.30226796865463257,9.941324234008789,-0.732421875,4.241943359375,0.6103515625
2.4774999,1.4383167028427124,0.5195417404174805,9.951498985290527,-2.655029296875,10.101318359375,-31.1279296875
2.4824999,1.4903905391693115,0.2867056429386139,9.906607627868652,-3.692626953125,36.9873046875,-55.450439453125
2.4874999,1.1671733856201172,0.3423708379268646,9.777320861816406,-0.30517578125,38.14697265625,-67.474365234375
2.4924999000000003,0.49320554733276367,0.20889410376548767,9.8599214553833,-10.528564453125,21.331787109375,-72.906494140625
2.4974999,-0.41539400815963745,-0.05686229094862938,9.757569313049316,-19.927978515625,0.18310546875,-63.3544921875
2.5024999,-1.170764684677124,-0.5309142470359802,9.694721221923828,-20.1416015625,-13.214111328125,-39.306640625
2.5074999,-1.7028759717941284,-1.0522516965866089,9.667786598205566,-16.632080078125,-27.2216796875,15.533447265625
2.5124999000000003,-1.5867571830749512,-1.3766659498214722,9.665990829467773,-25.238037109375,-48.33984375,50.079345703125
2.5174999000000002,1.5233107805252075,-1.8997989892959595,9.369110107421875,36.407470703125,-11.5966796875,83.038330078125
2.5224999,1.4065934419631958,-1.4538789987564087,9.381080627441406,29.388427734375,6.8359375,82.244873046875
2.5274999,1.003769040107727,-0.6470330357551575,9.676764488220215,21.54541015625,14.373779296875,63.4765625
2.5324999000000004,0.5416881442070007,0.23283611238002777,10.04427433013916,15.2587890625,11.566162109375,33.599853515625
2.5374999000000003,0.414795458316803,0.7625532150268555,10.235811233520508,2.593994140625,3.265380859375,4.45556640625
2.5424999,0.6805518269538879,0.8277952671051025,10.22503662109375,-3.204345703125,3.72314453125,-23.529052734375
2.5474999,1.12467622756958,0.6643909811973572,10.181941032409668,4.69970703125,21.209716796875,-34.881591796875
2.5524999000000004,1.4305355548858643,0.47405192255973816,10.128670692443848,4.302978515625,30.517578125,-37.445068359375
2.5574999000000003,1.37906014919281,0.345363587141037,10.036493301391602,-4.82177734375,36.712646484375,-54.13818359375
2.5624999,-1.3108254671096802,-0.38127660751342773,9.657610893249512,-22.8271484375,-13.916015625,-36.102294921875
2.5674999,-1.4969745874404907,-1.025316834449768,9.525930404663086,-17.4560546875,-27.801513671875,21.54541015625
2.5724999,-1.1605892181396484,-1.701080322265625,9.55585765838623,-23.773193359375,-44.25048828125,50.201416015625
2.5774999000000003,-0.35075053572654724,-1.9153614044189453,9.532513618469238,-16.265869140625,-39.764404296875,56.427001953125
2.5824999,0.5668272376060486,-2.056619167327881,9.488221168518066,3.021240234375,-27.557373046875,57.4951171875
2.5874999,1.349731206893921,-2.0829553604125977,9.358335494995117,21.78955078125,-18.5546875,63.995361328125
2.5924999,1.6065093278884888,-1.9548656940460205,9.263166427612305,34.48486328125,-6.805419921875,70.648193359375
2.5974999000000003,1.316810965538025,-1.425148606300354,9.370905876159668,35.797119140625,6.439208984375,70.6787109375
2.6024999,0.7571662664413452,-0.7038952708244324,9.688735961914062,26.336669921875,16.66259765625,50.750732421875
2.6074999,0.3010708689689636,0.27234044671058655,10.06043529510498,12.14599609375,11.749267578125,21.17919921875
2.6124999,0.3100491166114807,0.9056068062782288,10.301053047180176,-2.105712890625,-1.739501953125,-9.27734375
2.6174999000000003,-1.2234370708465576,0.13287819921970367,9.793481826782227,-22.003173828125,-9.307861328125,-49.224853515625
2.6224999,-1.8626888990402222,-0.24480712413787842,9.649829864501953,-19.71435546875,-22.0947265625,-10.101318359375
2.6274999,-1.953070044517517,-0.7068880796432495,9.633668899536133,-18.341064453125,-40.71044921875,32.16552734375
2.6324999,-1.3628993034362793,-1.1953052282333374,9.712079048156738,-18.951416015625,-42.694091796875,41.351318359375
2.6374999000000003,-0.35254621505737305,-1.5143325328826904,9.675567626953125,-13.3056640625,-32.806396484375,40.618896484375
2.6424999000000002,0.6919242739677429,-1.8932149410247803,9.668384552001953,8.85009765625,-27.984619140625,53.8330078125
2.6474999,1.368884801864624,-2.074575662612915,9.552865028381348,29.47998046875,-15.960693359375,69.000244140625
2.6524999,1.1641805171966553,-1.1192892789840698,9.610923767089844,22.27783203125,15.228271484375,65.673828125
2.6574999000000004,0.8379706144332886,-0.10055647045373917,9.917980194091797,14.34326171875,12.908935546875,36.62109375
2.6624999000000003,0.8541314601898193,0.5985504388809204,10.069414138793945,2.74658203125,0.823974609375,5.767822265625
2.6674999,1.292868971824646,0.768538773059845,10.136451721191406,-3.84521484375,5.615234375,-24.23095703125
2.6724999,1.8944120407104492,0.5542576909065247,10.06043529510498,5.645751953125,28.411865234375,-36.0107421875
2.6774999000000004,2.2170307636260986,0.1951274424791336,10.00836181640625,8.056640625,39.276123046875,-39.6728515625
2.6824999000000003,2.011728048324585,-0.1364694982767105,9.923367500305176,4.119873046875,42.78564453125,-48.980712890625
2.6874999,1.4131776094436646,0.1975216418504715,9.849146842956543,2.62451171875,35.430908203125,-62.957763671875
2.6924999,0.27653029561042786,0.09816227108240128,9.882665634155273,-17.425537109375,7.4462890625,-63.568115234375
2.6974999,-0.7386112213134766,0.1843535304069519,9.744400978088379,-17.364501953125,-5.4931640625,-54.534912109375
2.7024999000000003,-1.6597803831100464,-0.2902969419956207,9.68274974822998,-15.869140625,-13.336181640625,-24.810791015625
2.7074999,-2.1134815216064453,-0.6278793811798096,9.580398559570312,-14.34326171875,-26.092529296875,27.28271484375
2.7124999,-1.1743559837341309,-1.4245500564575195,9.55705451965332,-12.5732421875,-36.285400390625,38.9404296875
2.7174999,-0.09516951441764832,-1.8261773586273193,9.560047149658203,7.2021484375,-22.430419921875,38.9404296875
2.7224999000000003,0.933738648891449,-2.0272903442382812,9.596558570861816,25.87890625,-12.3291015625,44.097900390625
2.7274999,1.5155296325683594,-1.8525135517120361,9.61331844329834,27.099609375,1.28173828125,51.6357421875
2.7324999,1.591545581817627,-1.1390414237976074,9.780313491821289,19.775390625,13.275146484375,44.00634765625
2.7374999,1.591545581817627,-1.1390414237976074,9.780313491821289,19.775390625,13.275146484375,44.00634765625
2.7424999000000003,1.4425065517425537,-0.13826514780521393,9.996989250183105,12.176513671875,13.763427734375,15.625
2.7474999,1.381454348564148,0.6177040338516235,10.088567733764648,0.701904296875,6.04248046875,-14.617919921875
2.7524999,1.5292962789535522,0.9085995554924011,10.126874923706055,3.23486328125,19.8974609375,-28.01513671875
2.7574999,1.7381904125213623,0.6093243360519409,10.05923843383789,10.498046875,33.416748046875,-26.824951171875
2.7624999000000003,1.845929503440857,0.30705636739730835,9.982025146484375,12.20703125,39.947509765625,-42.022705078125
2.7674999000000002,-1.746570110321045,-0.5273229479789734,9.564835548400879,-12.87841796875,-17.669677734375,-17.15087890625
2.7724999,-2.5731682777404785,-0.7661445140838623,9.588777542114258,-11.3525390625,-25.93994140625,28.289794921875
2.7774999,-2.7305870056152344,-0.7110779285430908,9.79527759552002,-16.78466796875,-48.52294921875,45.7763671875
2.7824999000000004,-2.102707624435425,-1.0516531467437744,9.783905029296875,-12.75634765625,-39.581298828125,30.242919921875
2.7874999000000003,-0.8427590131759644,-1.0869675874710083,9.928155899047852,6.317138671875,-21.820068359375,26.275634765625
2.7924999,0.568622887134552,-1.490989089012146,9.961075782775879,18.6767578125,-8.4228515625,33.75244140625
2.7974999,1.4963760375976562,-1.436521053314209,9.91977596282959,15.7470703125,5.126953125,37.90283203125
2.8024999000000004,1.902193307876587,-1.0540473461151123,9.924564361572266,14.373779296875,11.1083984375,32.1044921875
2.8074999000000003,1.9063831567764282,-0.33518823981285095,9.947908401489258,10.25390625,9.185791015625,10.162353515625
2.8124999,1.9596540927886963,0.3010708689689636,9.84256362915039,7.01904296875,29.78515625,-25.32958984375
2.8174999,1.9596540927886963,0.3010708689689636,9.84256362915039,7.01904296875,29.78515625,-25.32958984375
2.8224999,1.9716250896453857,0.11971008777618408,9.870096206665039,12.420654296875,37.872314453125,-42.816162109375
2.8274999000000003,1.6148890256881714,-0.4381389021873474,9.740809440612793,10.68115234375,35.614013671875,-43.975830078125
2.8324999,1.0959458351135254,-0.8475474119186401,9.551667213439941,0.885009765625,19.134521484375,-43.27392578125
2.8374999,0.2603694200515747,-0.5291185975074768,9.543886184692383,-2.838134765625,2.3193359375,-46.112060546875
2.8424999,-1.0181342363357544,-0.730231523513794,9.556455612182617,-16.17431640625,-12.451171875,-31.43310546875
2.8474999000000003,-1.8273744583129883,-0.30226796865463257,9.495404243469238,-9.46044921875,-17.364501953125,-19.439697265625
2.8524999,-2.7102363109588623,-0.041299980133771896,9.797672271728516,-7.781982421875,-24.0478515625,25.482177734375
2.8574999,-2.6809072494506836,0.023942016065120697,9.824606895446777,-18.5546875,-39.642333984375,36.68212890625
2.8624999,-2.0877439975738525,-0.1867477297782898,10.013150215148926,-12.725830078125,-36.865234375,20.5078125
2.8674999000000003,-1.0091559886932373,-0.4800374507904053,10.084976196289062,6.7138671875,-23.284912109375,31.097412109375
2.8724999,1.1743559837341309,-1.1216834783554077,10.030508041381836,9.796142578125,1.64794921875,32.470703125
2.8774999,1.7729063034057617,-1.0301052331924438,9.88386344909668,10.711669921875,6.40869140625,27.862548828125
2.8824999,2.054823637008667,0.14784196019172668,9.778518676757812,4.8828125,22.88818359375,-16.54052734375
2.8874999000000003,1.9740192890167236,-0.15322890877723694,9.768941879272461,14.70947265625,29.541015625,-29.083251953125
2.8924999000000002,1.6023194789886475,-0.5841852426528931,9.734225273132324,11.41357421875,34.210205078125,-31.158447265625
2.8974999,1.0450690984725952,-0.7003039717674255,9.690531730651855,1.40380859375,26.123046875,-27.28271484375
2.9024999,0.3274070918560028,-0.8343793153762817,9.561842918395996,-0.67138671875,7.6904296875,-37.200927734375
2.9074999000000004,-0.7541735172271729,-0.39205053448677063,9.654618263244629,-4.45556640625,-7.110595703125,-27.557373046875
2.9124999000000003,-1.53707754611969,-0.7589619159698486,9.585784912109375,-20.32470703125,-16.326904296875,-21.942138671875
2.9174999,-2.338536500930786,0.27054479718208313,9.937732696533203,-10.772705078125,-24.71923828125,35.70556640625
2.9224999,-1.933916449546814,0.15921440720558167,9.97603988647461,-19.134521484375,-37.506103515625,19.378662109375
2.9274999000000004,-1.3263877630233765,0.01975216343998909,10.08078670501709,-3.387451171875,-30.487060546875,21.91162109375
2.9324999000000003,-0.2777273952960968,-0.6703764796257019,9.998186111450195,2.685546875,-19.95849609375,28.076171875
2.9374999,0.6596025824546814,-0.9995791912078857,10.032303810119629,5.096435546875,-7.26318359375,23.895263671875
2.9424999,1.4646528959274292,-1.1605892181396484,9.885659217834473,8.36181640625,2.166748046875,24.71923828125
2.9474999,1.8255788087844849,-0.8684966564178467,9.875483512878418,6.9580078125,5.126953125,19.1650390625
2.9524999000000003,2.0195090770721436,-0.36810851097106934,9.801262855529785,5.859375,6.378173828125,3.082275390625
2.9574999,2.0937294960021973,0.0011971008498221636,9.798270225524902,0.457763671875,8.056640625,-15.625
2.9624999,2.0201077461242676,0.0694318488240242,9.73781681060791,1.5869140625,18.1884765625,-15.289306640625
2.9674999,1.9536685943603516,-0.30047231912612915,9.687539100646973,9.82666015625,24.688720703125,-17.913818359375
2.9724999000000003,1.7956513166427612,-0.44771572947502136,9.706692695617676,14.739990234375,31.646728515625,-29.78515625
2.9774999,0.8224082589149475,-0.5877765417098999,9.668384552001953,-1.46484375,21.1181640625,-28.62548828125
2.9824999,0.10175357013940811,-0.4345476031303406,9.625288963317871,-1.495361328125,2.13623046875,-40.8935546875
2.9874999,-0.9929951429367065,-0.3884592354297638,9.70310115814209,-12.237548828125,-8.758544921875,-27.740478515625
2.9924999000000003,-1.4083890914916992,-0.4471171796321869,9.564835548400879,-14.739990234375,-12.0849609375,-23.651123046875
2.9974999,-2.1350293159484863,0.05626374110579491,9.84495735168457,-4.302978515625,-13.671875,12.420654296875
3.0024999,-2.2236149311065674,0.2663549482822418,9.909002304077148,-15.716552734375,-28.778076171875,33.294677734375
3.0074999,-1.8848352432250977,0.17896658182144165,9.989208221435547,-18.890380859375,-38.421630859375,16.66259765625
3.0124999000000003,-1.139639973640442,-0.181959331035614,10.023923873901367,-2.685546875,-28.411865234375,19.805908203125
3.0174999000000002,-0.10354922711849213,-0.667982280254364,10.029909133911133,3.662109375,-16.90673828125,23.98681640625
3.0224999,0.8667010068893433,-0.9624691009521484,9.956886291503906,10.223388671875,-7.171630859375,26.06201171875
3.0274999,1.5107412338256836,-1.0295066833496094,9.90241813659668,6.439208984375,0.274658203125,22.613525390625
3.0324999000000004,1.7615338563919067,-0.6338648796081543,9.832387924194336,6.866455078125,4.7607421875,15.93017578125
3.0374999000000003,1.898003339767456,-0.18734627962112427,9.810839653015137,2.899169921875,3.96728515625,0.3662109375
3.0424999,1.9907786846160889,-0.0035913025494664907,9.783905029296875,-1.800537109375,7.598876953125,-16.998291015625
3.0474999,1.9764134883880615,-0.02753331884741783,9.77672290802002,2.288818359375,18.85986328125,-17.578125
3.0524999000000004,1.9027918577194214,-0.3321954905986786,9.696516990661621,9.70458984375,25.93994140625,-19.47021484375
3.0574999000000003,1.670554280281067,-0.3256114423274994,9.798869132995605,8.30078125,31.707763671875,-30.914306640625
3.0624999,1.148618221282959,-0.4531026780605316,9.716867446899414,1.28173828125,30.09033203125,-29.4189453125
3.0674999,0.641047477722168,-0.29807811975479126,9.624691009521484,-2.74658203125,15.13671875,-37.261962890625
3.0724999000000004,-0.32441434264183044,-0.0975637212395668,9.832986831665039,-12.664794921875,-3.387451171875,-34.759521484375
3.0774999000000003,-1.0516531467437744,-0.27653029561042786,9.654618263244629,-15.07568359375,-6.04248046875,-24.71923828125
3.0824999,-1.857301950454712,-0.053270988166332245,9.801262855529785,-10.25390625,-11.474609375,2.38037109375
3.0874999,-2.3235726356506348,0.020949264988303185,9.954492568969727,-18.24951171875,-32.806396484375,33.63037109375
3.0924999,-2.139817714691162,0,9.910798072814941,-25.146484375,-44.5556640625,31.097412109375
3.0974999000000003,-1.447893500328064,-0.4297592043876648,9.935338973999023,-13.00048828125,-35.33935546875,26.641845703125
3.1024999,-0.3513490855693817,-0.9133879542350769,9.843161582946777,6.103515625,-23.86474609375,31.18896484375
3.1074999,0.6631938815116882,-1.391629695892334,9.786897659301758,18.6767578125,-14.373779296875,46.56982421875
3.1124999,1.2246341705322266,-1.436521053314209,9.679757118225098,17.059326171875,-0.335693359375,56.2744140625
3.1174999000000003,1.3539210557937622,-0.9463081955909729,9.733627319335938,15.0146484375,10.3759765625,47.821044921875
3.1224999,1.5723919868469238,0.2495955228805542,9.834183692932129,-1.861572265625,0.67138671875,-1.708984375
3.1274999,1.944091796875,0.28730419278144836,9.802460670471191,-3.082275390625,10.894775390625,-28.045654296875
3.1324999,2.236783027648926,0.05267243832349777,9.797672271728516,8.23974609375,30.029296875,-33.5693359375
3.1374999000000003,2.2212207317352295,-0.18076223134994507,9.792284965515137,6.622314453125,36.712646484375,-39.12353515625
3.1424999000000002,1.6962919235229492,-0.38067805767059326,9.765948295593262,2.166748046875,35.94970703125,-45.318603515625
3.1474999,0.9062053561210632,0.12389993667602539,9.821614265441895,-3.631591796875,19.805908203125,-53.558349609375
3.1524999,-0.33339259028434753,-0.07781155407428741,9.971251487731934,-21.97265625,-2.593994140625,-47.760009765625
3.1574999000000004,-2.12485408782959,-0.24899697303771973,9.803657531738281,-16.17431640625,-19.775390625,3.265380859375
3.1624999000000003,-2.3762452602386475,-0.47644615173339844,9.838972091674805,-19.1650390625,-41.44287109375,38.6962890625
3.1674999,-1.8465280532836914,-0.7882909178733826,9.75278091430664,-21.30126953125,-44.464111328125,40.8935546875
3.1724999,-0.871489405632019,-1.2012907266616821,9.701305389404297,-7.965087890625,-32.806396484375,37.750244140625
3.1774999000000004,0.22744916379451752,-1.6047136783599854,9.691129684448242,17.852783203125,-23.284912109375,47.8515625
3.1824999000000003,0.9989806413650513,-1.7962498664855957,9.584588050842285,28.411865234375,-11.566162109375,67.68798828125
3.1874999,1.225232720375061,-1.4562731981277466,9.555258750915527,22.552490234375,6.89697265625,72.509765625
3.1924999,1.1378443241119385,-0.6661866307258606,9.748590469360352,19.34814453125,15.93017578125,52.703857421875
3.1974999000000004,1.1444283723831177,0.23104046285152435,9.895236015319824,7.781982421875,6.683349609375,23.98681640625
3.2024999000000003,2.4803929328918457,0.15801730751991272,9.881468772888184,10.1318359375,37.7197265625,-39.886474609375
3.2074999,-2.404975652694702,-0.3824737071990967,9.75278091430664,-13.12255859375,-28.045654296875,20.050048828125
3.2124999,-2.300827741622925,-0.656609833240509,9.730634689331055,-18.12744140625,-43.9453125,43.182373046875
3.2174999,-1.490989089012146,-1.080383539199829,9.690531730651855,-14.22119140625,-35.94970703125,34.271240234375
3.2224999000000003,-0.37648820877075195,-1.4012064933776855,9.717466354370117,4.69970703125,-23.8037109375,33.14208984375
3.2274999,0.7050924301147461,-1.7501614093780518,9.743802070617676,23.773193359375,-18.06640625,52.001953125
3.2324999,1.268328309059143,-1.6861165761947632,9.632472038269043,22.94921875,-2.960205078125,65.032958984375
3.2374999,1.3401544094085693,-1.081580638885498,9.731831550598145,19.744873046875,12.87841796875,54.412841796875
3.2424999000000003,1.291671872138977,-0.17537526786327362,9.86231517791748,12.20703125,10.345458984375,26.702880859375
3.2474999,1.8848352432250977,0.5494692921638489,9.956287384033203,-1.983642578125,13.702392578125,-29.9072265625
3.2524999,2.343324899673462,0.25079262256622314,9.909002304077148,11.16943359375,35.308837890625,-32.77587890625
3.2574999,2.428917646408081,-0.05147533491253853,9.889848709106445,9.735107421875,40.95458984375,-39.154052734375
3.2624999000000003,1.933916449546814,-0.3531447649002075,9.844358444213867,3.2958984375,38.4521484375,-48.4619140625
3.2674999000000002,1.146224021911621,0.21128830313682556,9.836577415466309,-1.556396484375,21.759033203125,-60.24169921875
3.2724999,-0.22026655077934265,-0.09696517139673233,9.907206535339355,-22.3388671875,-2.01416015625,-54.0771484375
3.2774999,-1.2814964056015015,0.08200141042470932,9.686341285705566,-13.885498046875,-8.941650390625,-35.858154296875
3.2824999000000004,-2.2828712463378906,-0.31842881441116333,9.687539100646973,-10.711669921875,-21.17919921875,4.852294921875
3.2874999000000003,-2.667739152908325,-0.42377370595932007,9.717466354370117,-16.632080078125,-39.886474609375,39.48974609375
3.2924999,-2.164358377456665,-0.7817068696022034,9.71926212310791,-20.1416015625,-42.510986328125,34.5458984375
3.2974999,-1.1450269222259521,-1.092953085899353,9.75397777557373,-3.082275390625,-27.52685546875,28.01513671875
3.3024999000000004,0.09277531504631042,-1.5735890865325928,9.837176322937012,19.775390625,-18.61572265625,42.938232421875
3.3074999000000003,1.5418659448623657,0.2795230448246002,9.904812812805176,1.64794921875,2.655029296875,3.631591796875
3.3124999,1.935113549232483,0.6248866319656372,9.953893661499023,-3.72314453125,7.965087890625,-25.81787109375
3.3174999,2.407968282699585,0.3860650360584259,9.864709854125977,8.514404296875,31.158447265625,-31.1279296875
3.3224999000000004,2.6348190307617188,0.11312603205442429,9.849745750427246,13.580322265625,42.144775390625,-37.4755859375
3.3274999000000003,2.2589292526245117,-0.2968810200691223,9.79647445678711,5.79833984375,41.656494140625,-46.539306640625
3.3324999,1.5550340414047241,-0.2717418968677521,9.607931137084961,0.762939453125,26.4892578125,-57.43408203125
3.3374999,0.19153612852096558,-0.07481880486011505,9.768342971801758,-16.54052734375,-0.701904296875,-56.82373046875
3.3424999,-1.0492589473724365,-0.2795230448246002,9.61331844329834,-17.974853515625,-11.810302734375,-40.924072265625
3.3474999000000003,-1.0492589473724365,-0.2795230448246002,9.61331844329834,-17.974853515625,-11.810302734375,-40.924072265625
3.3524999,-2.183511972427368,-0.12270283699035645,9.635464668273926,-10.25390625,-15.56396484375,-9.857177734375
3.3574999,-0.4776432514190674,-1.2725181579589844,9.95329475402832,14.495849609375,-20.721435546875,37.811279296875
3.3624999,-0.4776432514190674,-1.2725181579589844,9.95329475402832,14.495849609375,-20.721435546875,37.811279296875
3.3674999000000003,0.6967126727104187,-1.7298107147216797,9.801861763000488,18.310546875,-9.918212890625,55.694580078125
3.3724999,1.2934675216674805,-1.5514427423477173,9.795876502990723,19.378662109375,7.568359375,57.708740234375
3.3774999,1.5209165811538696,-0.8505401611328125,9.804854393005371,16.998291015625,13.702392578125,41.961669921875
3.3824999,1.6723499298095703,0.08439560979604721,9.856928825378418,4.486083984375,4.7607421875,13.00048828125
3.3874999000000003,2.0165164470672607,0.5518634915351868,9.889249801635742,-4.69970703125,3.692626953125,-20.81298828125
3.3924999000000002,2.471414804458618,0.4058171808719635,9.847352027893066,5.279541015625,26.3671875,-30.609130859375
3.3974999,2.737171173095703,0.1280897855758667,9.82999324798584,15.045166015625,40.6494140625,-34.0576171875
3.4024999,2.427121877670288,-0.292691171169281,9.820416450500488,7.965087890625,42.48046875,-42.633056640625
3.4074999000000004,1.7028759717941284,-0.44592007994651794,9.689932823181152,0.42724609375,27.4658203125,-50.9033203125
3.4124999000000003,-2.7928361892700195,-0.21966800093650818,9.838373184204102,-10.07080078125,-27.069091796875,24.7802734375
3.4174999,-2.7515363693237305,-0.33758243918418884,9.77253246307373,-21.209716796875,-43.8232421875,36.376953125
3.4224999,-2.014122247695923,-0.7015010714530945,9.843161582946777,-12.481689453125,-37.933349609375,27.679443359375
3.4274999000000004,-0.8571242094039917,-1.1569979190826416,9.947309494018555,10.955810546875,-23.101806640625,34.11865234375
3.4324999000000003,0.35913026332855225,-1.6627731323242188,9.880870819091797,16.632080078125,-12.481689453125,51.422119140625
3.4374999,1.092953085899353,-1.6112977266311646,9.876680374145508,18.035888671875,4.94384765625,56.57958984375
3.4424999,1.4347254037857056,-1.058835744857788,9.883264541625977,18.4326171875,13.519287109375,47.454833984375
3.4474999000000004,1.632246971130371,-0.090979665517807,9.894038200378418,8.453369140625,8.60595703125,24.200439453125
3.4524999000000003,2.0189106464385986,0.4776432514190674,9.905410766601562,-3.0517578125,2.716064453125,-11.627197265625
3.4574999,2.518101692199707,0.49320554733276367,9.86111831665039,1.953125,21.148681640625,-31.402587890625
3.4624999,2.0440497398376465,-0.4794389009475708,9.702502250671387,2.044677734375,30.82275390625,-48.27880859375
3.4674999,1.1001356840133667,0.10474632680416107,9.635464668273926,-3.96728515625,11.199951171875,-59.051513671875
3.4724999000000003,-0.5333084464073181,-0.2950853705406189,9.81024169921875,-23.345947265625,-10.162353515625,-47.882080078125
3.4774999,-1.53707754611969,0.10175357013940811,9.563638687133789,-12.237548828125,-13.7939453125,-33.38623046875
3.4824999,-2.742558002471924,-0.19033902883529663,9.832387924194336,-9.46044921875,-21.6064453125,10.101318359375
3.4874999,-3.0621838569641113,-0.16160862147808075,9.821015357971191,-19.134521484375,-38.39111328125,36.285400390625
3.4924999000000003,-2.477998733520508,-0.5333084464073181,9.849745750427246,-18.24951171875,-42.1142578125,27.252197265625
3.4974999,-1.4209587574005127,-0.8720879554748535,9.940725326538086,4.21142578125,-26.42822265625,28.25927734375
3.5024999,-0.05027823522686958,-1.4712369441986084,9.91977596282959,14.434814453125,-16.17431640625,46.08154296875
3.5074999,0.9612720012664795,-1.5981296300888062,9.868300437927246,15.2587890625,-0.1220703125,51.727294921875
3.5124999000000003,2.713827610015869,0.17417816817760468,9.801861763000488,12.8173828125,37.872314453125,-30.364990234375
3.5174999000000002,2.7090392112731934,-0.07661445438861847,9.79288387298584,14.5263671875,43.701171875,-37.750244140625
3.5224999,1.3940238952636719,-0.3345896899700165,9.519944190979004,-2.471923828125,17.242431640625,-59.234619140625
3.5274999,-0.08319851011037827,-0.10175357013940811,9.736021041870117,-17.51708984375,-4.547119140625,-55.60302734375
3.5324999000000004,-1.1791443824768066,-0.3274070918560028,9.517550468444824,-17.791748046875,-14.2822265625,-42.877197265625
3.5374999000000003,-2.4127566814422607,-0.06344634294509888,9.733627319335938,-10.55908203125,-19.34814453125,-9.490966796875
3.5424999,-3.0633809566497803,-0.06584054976701736,9.86111831665039,-15.07568359375,-31.06689453125,32.562255859375
3.5474999,-2.778470993041992,-0.21966800093650818,9.912593841552734,-22.8271484375,-45.8984375,33.905029296875
3.5524999000000004,-0.5716156363487244,-1.1318588256835938,9.996390342712402,14.22119140625,-19.989013671875,38.75732421875
3.5574999000000003,0.6494272351264954,-1.5783774852752686,9.869498252868652,14.2822265625,-8.880615234375,51.422119140625
3.5624999,1.349731206893921,-1.389235496520996,9.8970308303833,16.632080078125,8.36181640625,49.224853515625
3.5674999,1.6789339780807495,-0.7978677153587341,9.870096206665039,14.83154296875,12.87841796875,35.94970703125
3.5724999000000004,1.8860323429107666,0.038307227194309235,9.879075050354004,5.37109375,8.11767578125,11.505126953125
3.5774999000000003,2.1811177730560303,0.36750996112823486,9.8784761428833,-2.99072265625,8.36181640625,-20.3857421875
3.5824999,2.5031378269195557,0.27413609623908997,9.80904483795166,6.561279296875,28.62548828125,-30.76171875
3.5874999,2.630030632019043,0.004189853090792894,9.791686058044434,16.2353515625,41.6259765625,-34.1796875
3.5924999,2.3062148094177246,-0.28790274262428284,9.781511306762695,7.659912109375,39.703369140625,-42.8466796875
3.5974999000000003,1.6424223184585571,-0.4291606545448303,9.660603523254395,-0.823974609375,26.092529296875,-51.971435546875
3.6024999,-2.978386878967285,-0.2017114907503128,9.814431190490723,-22.003173828125,-43.701171875,37.59765625
3.6074999,-2.296039342880249,-0.6625953316688538,9.856329917907715,-15.0146484375,-41.961669921875,30.914306640625
3.6124999,-1.1581950187683105,-0.9660604000091553,9.938929557800293,5.55419921875,-25.115966796875,29.205322265625
3.6174999000000003,0.19033902883529663,-1.4933832883834839,9.93474006652832,16.876220703125,-14.617919921875,45.562744140625
3.6224999,1.1180921792984009,-1.5352818965911865,9.892242431640625,14.434814453125,0.885009765625,53.070068359375
3.6274999,1.534683346748352,-1.0899603366851807,9.905410766601562,16.9677734375,12.908935546875,45.22705078125
3.6324999,1.7274165153503418,-0.2890998423099518,9.882067680358887,10.406494140625,10.406494140625,26.4892578125
3.6374999000000003,1.96683669090271,0.2902969419956207,9.886856079101562,-0.335693359375,4.638671875,-5.06591796875
3.6424999000000002,2.3253684043884277,0.3519476354122162,9.852738380432129,-0.30517578125,16.11328125,-28.045654296875
3.6474999,2.6013002395629883,0.06464344263076782,9.800065994262695,13.214111328125,35.94970703125,-30.57861328125
3.6524999,2.5695769786834717,-0.16160862147808075,9.804255485534668,13.5498046875,42.144775390625,-37.17041015625
3.6574999000000004,-0.15322890877723694,-0.07841010391712189,9.784503936767578,-18.00537109375,-5.950927734375,-52.215576171875
3.6624999000000003,-1.1749545335769653,-0.18375498056411743,9.512163162231445,-15.289306640625,-13.48876953125,-38.482666015625
3.6674999,-2.3271639347076416,-0.10295066982507706,9.73542308807373,-9.429931640625,-18.5546875,-3.143310546875
3.6724999,-2.8999767303466797,-0.21547815203666687,9.808445930480957,-16.05224609375,-32.989501953125,34.66796875
3.6774999000000004,-2.586336374282837,-0.2998737692832947,9.892242431640625,-20.3857421875,-45.0439453125,32.958984375
3.6824999000000003,1.3988122940063477,-1.3299790620803833,9.898826599121094,15.472412109375,8.209228515625,47.4853515625
3.6874999,1.6723499298095703,-0.7422025203704834,9.885659217834473,14.190673828125,12.8173828125,32.77587890625
3.6924999,1.8620903491973877,0.004788403399288654,9.8784761428833,4.57763671875,7.2021484375,8.60595703125
3.6974999000000004,2.4133553504943848,0.17417816817760468,9.816226959228516,7.049560546875,28.13720703125,-27.679443359375
3.7024999000000003,2.5486276149749756,-0.05027823522686958,9.798270225524902,16.78466796875,40.4052734375,-32.623291015625
3.7074999,2.2200236320495605,-0.284311443567276,9.78989028930664,8.636474609375,39.703369140625,-41.3818359375
3.7124999,1.5735890865325928,-0.4878185987472534,9.668384552001953,-1.28173828125,25.604248046875,-50.048828125
3.7174999,0.6129156351089478,0.13287819921970367,9.678560256958008,-6.40869140625,5.279541015625,-58.10546875
3.7224999000000003,-0.7511807680130005,-0.3292027413845062,9.747992515563965,-21.942138671875,-13.427734375,-44.3115234375
3.7274999,-1.6861165761947632,0.060453593730926514,9.577404975891113,-11.138916015625,-14.404296875,-27.40478515625
3.7324999,-2.7120320796966553,-0.2513911724090576,9.831191062927246,-10.650634765625,-23.223876953125,20.538330078125
3.7374999,-2.8437130451202393,-0.09038111567497253,9.821614265441895,-20.69091796875,-41.8701171875,36.102294921875
3.7424999000000003,-2.213439464569092,-0.4902127981185913,9.884461402893066,-15.533447265625,-40.8935546875,30.914306640625
3.7474999,-1.127070426940918,-0.7793126702308655,9.940725326538086,0.1220703125,-26.458740234375,27.34375
3.7524999,0.17417816817760468,-1.294066071510315,9.941922187805176,16.41845703125,-14.129638671875,40.130615234375
3.7574999,1.5580267906188965,-1.1725603342056274,9.852140426635742,15.625,11.41357421875,42.999267578125
3.7624999000000003,1.765723705291748,-0.44532153010368347,9.836577415466309,11.41357421875,11.566162109375,23.3154296875
3.7674999000000002,1.977012038230896,0.10474632680416107,9.837176322937012,0.579833984375,5.9814453125,-5.55419921875
3.7724999,2.279878616333008,0.26815059781074524,9.86351203918457,0.518798828125,16.29638671875,-26.580810546875
3.7774999,2.495955228805542,-0.02274491637945175,9.743802070617676,12.481689453125,34.698486328125,-27.40478515625
3.7824999000000004,2.472013235092163,-0.10594342648983002,9.812037467956543,15.594482421875,41.6259765625,-38.848876953125
3.7874999000000003,1.9297266006469727,-0.3728969097137451,9.747992515563965,3.692626953125,35.15625,-43.5791015625
3.7924999,1.2503718137741089,-0.43754035234451294,9.548076629638672,-3.265380859375,17.669677734375,-55.084228515625
3.7974999,-0.08439560979604721,-0.08798690885305405,9.740809440612793,-13.18359375,-4.547119140625,-54.62646484375
3.8024999000000004,-1.1336544752120972,-0.46627077460289,9.530119895935059,-18.463134765625,-15.045166015625,-38.4521484375
3.8074999000000003,-2.253542423248291,-0.07122749835252762,9.660603523254395,-9.368896484375,-17.547607421875,-7.50732421875
3.8124999,-2.8862102031707764,-0.04429273307323456,9.82759952545166,-13.275146484375,-30.609130859375,35.15625
3.8174999,-0.545877993106842,-0.8762778043746948,10.02452278137207,6.103515625,-20.93505859375,29.022216796875
3.8224999000000004,0.6739677786827087,-1.4047977924346924,9.923367500305176,15.9912109375,-8.48388671875,43.365478515625
3.8274999000000003,1.4101848602294922,-1.4179660081863403,9.876082420349121,13.24462890625,4.852294921875,49.13330078125
3.8324999,1.702277421951294,-1.0013748407363892,9.834781646728516,14.58740234375,12.39013671875,35.125732421875
3.8374999,1.8722656965255737,-0.262763649225235,9.830592155456543,7.14111328125,9.063720703125,11.3525390625
3.8424999,2.099714994430542,0.19033902883529663,9.813833236694336,-2.288818359375,6.77490234375,-17.913818359375
3.8474999000000003,2.3505074977874756,0.11851298063993454,9.805453300476074,4.7607421875,24.2919921875,-26.824951171875
3.8524999,2.4588451385498047,-0.11671733111143112,9.762357711791992,14.129638671875,37.109375,-31.097412109375
3.8574999,2.161365509033203,-0.2669534981250763,9.801861763000488,12.8173828125,39.520263671875,-37.29248046875
3.8624999,1.4957774877548218,-0.5752069354057312,9.709086418151855,0.518798828125,28.1982421875,-39.154052734375
3.8674999000000003,-1.24917471408844,-0.5758054852485657,10.01075553894043,-3.997802734375,-29.693603515625,28.533935546875
3.8724999,-0.0071826050989329815,-0.9253589510917664,10.044873237609863,8.48388671875,-15.899658203125,29.541015625
3.8774999,1.0432734489440918,-1.3545196056365967,9.850942611694336,13.97705078125,-5.096435546875,45.867919921875
3.8824999,1.5316904783248901,-1.2856862545013428,9.852140426635742,12.87841796875,7.14111328125,45.013427734375
3.8874999000000003,1.701080322265625,-0.8176198601722717,9.77013874053955,13.97705078125,12.420654296875,29.083251953125
3.8924999000000002,1.8213889598846436,-0.24121582508087158,9.783905029296875,4.39453125,7.171630859375,3.936767578125
3.8974999,2.0488381385803223,0.13946224749088287,9.821614265441895,-2.197265625,9.002685546875,-21.514892578125
3.9024999,2.337339401245117,-0.1759738177061081,9.812037467956543,14.34326171875,37.53662109375,-33.111572265625
3.9074999000000004,1.9357120990753174,-0.3513490855693817,9.804854393005371,10.223388671875,37.78076171875,-35.858154296875
3.9124999000000003,1.2832920551300049,-0.5937620401382446,9.679159164428711,-0.6103515625,24.47509765625,-41.259765625
3.9174999,1.2832920551300049,-0.5937620401382446,9.679159164428711,-0.6103515625,24.47509765625,-41.259765625
3.9224999,-2.009932279586792,-0.1975216418504715,9.917980194091797,-14.22119140625,-38.909912109375,28.9306640625
3.9274999000000004,-0.9469067454338074,-0.6386532783508301,9.910199165344238,-1.89208984375,-26.458740234375,29.571533203125
3.9324999000000003,0.23523031175136566,-0.973242998123169,9.967659950256348,11.383056640625,-13.641357421875,31.707763671875
3.9374999,1.502361536026001,-1.1528080701828003,9.841964721679688,13.702392578125,8.48388671875,43.51806640625
3.9424999,1.6424223184585571,-0.646434485912323,9.7791166305542,13.7939453125,12.847900390625,25.7568359375
3.9474999000000004,1.7723077535629272,-0.12928688526153564,9.798270225524902,3.23486328125,6.561279296875,-0.732421875
3.9524999000000003,2.029085874557495,0.16819266974925995,9.837176322937012,-1.251220703125,11.688232421875,-23.4375
3.9574999,2.279878616333008,-0.09217676520347595,9.741408348083496,7.9345703125,29.541015625,-26.3671875
3.9624999,2.2876596450805664,-0.17058686912059784,9.821015357971191,14.862060546875,38.818359375,-35.888671875
3.9674999000000004,1.8429367542266846,-0.37469255924224854,9.783307075500488,8.36181640625,36.346435546875,-37.53662109375
3.9724999000000003,1.173158884048462,-0.6422445774078369,9.641449928283691,-2.13623046875,20.81298828125,-45.196533203125
3.9774999,0.17956513166427612,0.0005985504249110818,9.731831550598145,-6.500244140625,1.129150390625,-53.1005859375
3.9824999,-0.9187749028205872,-0.5602431893348694,9.68813705444336,-19.927978515625,-13.336181640625,-37.59765625
3.9874999,-1.7148469686508179,-0.08200141042470932,9.57321548461914,-8.758544921875,-11.77978515625,-14.801025390625
3.9924999000000003,-2.494758129119873,-0.14844051003456116,9.868300437927246,-9.765625,-24.5361328125,28.778076171875
3.9974999,0.4357447028160095,-0.9894038438796997,10.016741752624512,12.75634765625,-12.02392578125,35.0341796875
4.0024999,1.2599486112594604,-1.2485761642456055,9.824606895446777,12.87841796875,-1.220703125,50.140380859375
4.0074999,1.53707754611969,-1.0773907899856567,9.840168952941895,14.434814453125,9.8876953125,43.02978515625
4.0124999,1.6466121673583984,-0.5374982953071594,9.763554573059082,12.969970703125,12.87841796875,23.406982421875
4.0174999,1.79146146774292,-0.06344634294509888,9.773131370544434,1.15966796875,5.31005859375,-4.2724609375
4.022499900000001,2.078166961669922,0.14784196019172668,9.822212219238281,-0.42724609375,13.97705078125,-24.90234375
4.0274999000000005,2.3068132400512695,-0.14245499670505524,9.722254753112793,9.246826171875,31.3720703125,-27.89306640625
4.0324999,2.2655134201049805,-0.20350714027881622,9.816226959228516,14.739990234375,39.6728515625,-37.506103515625
4.0374999,1.7597382068634033,-0.4118026793003082,9.765350341796875,6.561279296875,34.454345703125,-37.261962890625
4.0424999,1.0582371950149536,-0.6368576288223267,9.588179588317871,-2.838134765625,18.06640625,-48.126220703125
4.0474999,-1.0690110921859741,-0.5404910445213318,9.627683639526367,-18.4326171875,-13.336181640625,-34.912109375
4.0524999,-1.9261353015899658,0.02693476900458336,9.624092102050781,-7.904052734375,-12.725830078125,-7.32421875
4.0574999,-2.5576059818267822,-0.01735796220600605,9.928155899047852,-11.1083984375,-28.289794921875,33.355712890625
4.062499900000001,-2.381632089614868,0.046088382601737976,9.879075050354004,-22.15576171875,-43.45703125,32.135009765625
4.0674999000000005,-1.6304513216018677,-0.2603694200515747,10.00716495513916,-9.246826171875,-34.759521484375,28.839111328125
4.0724999,-0.46567222476005554,-0.7038952708244324,10.004770278930664,1.03759765625,-21.575927734375,27.7099609375
4.0774999,0.6715735793113708,-1.191115379333496,9.955689430236816,14.46533203125,-9.613037109375,38.848876953125
4.0824999,1.3652935028076172,-1.3533225059509277,9.824606895446777,12.0849609375,1.15966796875,51.025390625
4.0874999,1.5646108388900757,-1.0899603366851807,9.815628051757812,15.655517578125,11.932373046875,40.374755859375
4.0924999,1.6484078168869019,-0.46986207365989685,9.765948295593262,10.894775390625,11.810302734375,19.134521484375
4.0974999,1.8160020112991333,0.02992752194404602,9.79408073425293,-1.251220703125,4.39453125,-9.307861328125
4.1024999,2.1320366859436035,0.13706804811954498,9.797672271728516,0.732421875,17.333984375,-25.81787109375
4.1074999000000005,0.9642647504806519,-0.4734533727169037,9.561842918395996,-3.0517578125,15.045166015625,-50.750732421875
4.1124999,-0.2753331959247589,-0.0694318488240242,9.765350341796875,-13.427734375,-6.805419921875,-48.431396484375
4.1174999,-1.1222820281982422,-0.36571431159973145,9.539097785949707,-15.960693359375,-12.298583984375,-32.989501953125
4.1224999,-2.078166961669922,0.04908113554120064,9.709086418151855,-8.392333984375,-14.404296875,0.30517578125
4.1274999,-2.5773582458496094,0.04189852997660637,9.922170639038086,-13.763427734375,-31.67724609375,34.820556640625
4.1324999,-2.32297420501709,0.046088382601737976,9.9401273727417,-21.392822265625,-43.182373046875,30.517578125
4.1374999,-1.4766238927841187,-0.40222588181495667,10.013748168945312,-7.26318359375,-32.989501953125,29.449462890625
4.1424999,-0.3016694188117981,-0.8559271097183228,10.01075553894043,3.96728515625,-19.47021484375,28.1982421875
4.147499900000001,0.7864952683448792,-1.3754688501358032,9.889249801635742,15.533447265625,-8.60595703125,42.449951171875
4.1524999000000005,1.368884801864624,-1.446696400642395,9.791088104248047,12.02392578125,2.8076171875,50.6591796875
4.1574999,1.6023194789886475,-0.3902548849582672,9.764751434326172,8.697509765625,9.429931640625,16.29638671875
4.1624999,2.1517887115478516,-0.23403321206569672,9.84495735168457,13.275146484375,38.6962890625,-37.078857421875
4.1674999,1.5496470928192139,-0.49380409717559814,9.75397777557373,2.86865234375,30.1513671875,-36.9873046875
4.1724999,0.8152256608009338,-0.1256955862045288,9.522936820983887,-3.204345703125,12.20703125,-52.001953125
4.1774999,-0.4231751561164856,-0.18315643072128296,9.781511306762695,-16.2353515625,-9.1552734375,-44.49462890625
4.1824999,-1.1827356815338135,-0.19812019169330597,9.453505516052246,-13.36669921875,-10.55908203125,-28.594970703125
4.187499900000001,-2.122459888458252,-0.20051439106464386,9.803657531738281,-7.50732421875,-15.93017578125,8.880615234375
4.1924999000000005,-2.4917654991149902,-0.21667525172233582,9.922768592834473,-15.625,-34.1796875,35.552978515625
4.1974999,-2.1715409755706787,-0.18076223134994507,10.012551307678223,-19.34814453125,-42.022705078125,29.571533203125
4.2024999,1.3605051040649414,-1.3263877630233765,9.81143856048584,13.275146484375,5.4931640625,51.300048828125
4.2074999,1.5065513849258423,-0.9169792532920837,9.768342971801758,16.754150390625,14.251708984375,36.9873046875
4.2124999,1.6190788745880127,-0.28550854325294495,9.77133560180664,6.622314453125,8.23974609375,13.0615234375
4.2174999,1.9045875072479248,0.1735796183347702,9.813234329223633,-2.99072265625,4.180908203125,-16.448974609375
4.2224999,2.256535053253174,0.0586579404771328,9.774328231811523,3.47900390625,23.0712890625,-27.984619140625
4.2274999,2.4211363792419434,-0.09217676520347595,9.808445930480957,13.885498046875,37.65869140625,-32.71484375
4.2324999000000005,2.1481974124908447,-0.2777273952960968,9.81263542175293,11.749267578125,38.4521484375,-36.590576171875
4.2374999,1.4814122915267944,-0.5309142470359802,9.728838920593262,0.18310546875,27.862548828125,-41.900634765625
4.2424999,0.7116764783859253,0.18914192914962769,9.688735961914062,-3.387451171875,8.758544921875,-57.373046875
4.2474999,-2.609679937362671,-0.2603694200515747,9.86889934539795,-18.4326171875,-38.02490234375,37.078857421875
4.2524999,-2.186504602432251,-0.2711433470249176,9.917980194091797,-17.303466796875,-41.839599609375,31.005859375
4.2574999,-1.2204443216323853,-0.7224503755569458,9.9185791015625,-4.2724609375,-29.388427734375,28.38134765625
4.2624999,-0.053270988166332245,-1.0426748991012573,9.968857765197754,12.908935546875,-15.960693359375,34.85107421875
4.2674999,0.9247604012489319,-1.4257471561431885,9.775525093078613,15.19775390625,-5.37109375,54.931640625
4.272499900000001,1.3395558595657349,-1.2880805730819702,9.803657531738281,15.533447265625,9.124755859375,53.03955078125
4.2774999000000005,1.4915876388549805,-0.7428010702133179,9.75936508178711,16.510009765625,14.83154296875,36.224365234375
4.2824999,1.644816517829895,-0.09038111567497253,9.787496566772461,4.302978515625,6.103515625,10.43701171875
4.2874999,1.9818004369735718,0.3166331648826599,9.82879638671875,-3.265380859375,4.974365234375,-19.561767578125
4.2924999,2.358887195587158,0.13287819921970367,9.747992515563965,5.279541015625,26.397705078125,-30.731201171875
4.2974999,2.140416383743286,-0.228047713637352,9.77791976928711,7.32421875,37.2314453125,-38.75732421875
4.3024999,1.4359225034713745,-0.5404910445213318,9.657012939453125,-2.227783203125,24.139404296875,-48.583984375
4.3074999,0.4213795065879822,0.061052143573760986,9.710882186889648,-6.4697265625,2.9296875,-58.502197265625
4.312499900000001,-0.8289923667907715,-0.524330198764801,9.740809440612793,-22.03369140625,-13.5498046875,-41.595458984375
4.3174999000000005,-1.6514005661010742,-0.0520738884806633,9.599552154541016,-10.223388671875,-11.505126953125,-19.6533203125
4.3224999,-2.4851813316345215,-0.2148796021938324,9.883264541625977,-8.575439453125,-22.4609375,23.92578125
4.3274999,-2.537853717803955,-0.1586158573627472,9.86650562286377,-19.561767578125,-40.924072265625,36.773681640625
4.3324999,-1.8997989892959595,-0.4034229815006256,9.940725326538086,-12.6953125,-38.14697265625,30.548095703125
4.3374999,-0.8505401611328125,-0.7960720658302307,9.971850395202637,-0.518798828125,-25.146484375,27.191162109375
4.3424999,0.29388827085494995,-1.2761094570159912,9.980828285217285,15.777587890625,-13.031005859375,40.924072265625
4.3474999,1.082777738571167,-1.4610615968704224,9.819219589233398,13.458251953125,-2.44140625,57.67822265625
4.352499900000001,1.3521254062652588,-1.1899182796478271,9.841964721679688,17.120361328125,11.04736328125,50.384521484375
4.3574999000000005,1.6478092670440674,0.08379705995321274,9.801861763000488,0.91552734375,3.2958984375,2.716064453125
4.3624999,2.0667946338653564,0.33518823981285095,9.79288387298584,-2.50244140625,9.1552734375,-24.4140625
4.3674999,2.431311845779419,0.06703764945268631,9.725846290588379,8.1787109375,31.707763671875,-32.257080078125
4.3724999,2.4791958332061768,-0.03232172131538391,9.794678688049316,13.702392578125,40.46630859375,-37.445068359375
4.3774999,1.998559832572937,-0.35733461380004883,9.748590469360352,5.06591796875,35.15625,-36.895751953125
4.3824999,1.2539631128311157,-0.568622887134552,9.608530044555664,-3.2958984375,19.287109375,-51.971435546875
4.3874999,0.046088382601737976,-0.08738835901021957,9.770736694335938,-11.3525390625,-3.265380859375,-54.6875
4.3924999,-1.0055646896362305,-0.5835866928100586,9.653421401977539,-18.157958984375,-12.237548828125,-36.4990234375
4.397499900000001,-1.8950105905532837,-0.20530278980731964,9.685144424438477,-8.48388671875,-12.725830078125,-8.819580078125
4.4024999000000005,-2.536058187484741,-0.15442600846290588,9.892242431640625,-11.04736328125,-26.9775390625,30.3955078125
4.4074999,-2.388216257095337,-0.09457096457481384,9.894038200378418,-19.8974609375,-41.290283203125,33.233642578125
4.4124999,-1.6280571222305298,-0.3603273630142212,9.920374870300293,-9.857177734375,-34.027099609375,26.55029296875
4.4174999,0.5303156971931458,-1.2731167078018188,9.892841339111328,15.869140625,-11.566162109375,46.44775390625
4.4224999,1.1516109704971313,-1.3976151943206787,9.817423820495605,13.3056640625,1.129150390625,53.802490234375
4.4274999,1.3658920526504517,-1.0833762884140015,9.803058624267578,17.02880859375,12.542724609375,42.236328125
4.4324999,1.4939818382263184,-0.39384618401527405,9.781511306762695,9.368896484375,9.429931640625,21.575927734375
4.437499900000001,1.7980455160140991,0.15981295704841614,9.81143856048584,-1.861572265625,1.739501953125,-8.056640625
4.4424999000000005,2.257133722305298,0.15682020783424377,9.771934509277344,0.396728515625,16.90673828125,-27.587890625
4.4474999,2.535459518432617,-0.07122749835252762,9.77133560180664,12.786865234375,35.614013671875,-29.388427734375
4.4524999,2.434903144836426,-0.2495955228805542,9.766547203063965,13.916015625,39.703369140625,-31.890869140625
4.4574999,1.7956513166427612,-0.5542576909065247,9.719860076904297,1.617431640625,30.94482421875,-35.736083984375
4.4624999,0.9792284965515137,-0.5093663930892944,9.599552154541016,-2.716064453125,13.48876953125,-52.24609375
4.4674999,-0.3016694188117981,-0.22505496442317963,9.771934509277344,-12.298583984375,-7.4462890625,-46.44775390625
4.4724999,-1.1875240802764893,-0.4836287498474121,9.599552154541016,-14.801025390625,-10.3759765625,-31.402587890625
4.477499900000001,-1.449090600013733,-0.28969839215278625,10.005967140197754,-6.195068359375,-29.96826171875,20.843505859375
4.4824999000000005,-0.38905778527259827,-0.7882909178733826,10.035895347595215,9.857177734375,-15.5029296875,28.3203125
4.4874999,0.6374561786651611,-1.2856862545013428,9.906009674072266,11.29150390625,-7.965087890625,43.3349609375
4.4924999,1.2000936269760132,-1.2773065567016602,9.896432876586914,12.939453125,3.90625,41.229248046875
4.4974999,1.2000936269760132,-1.2773065567016602,9.896432876586914,12.939453125,3.90625,41.229248046875
4.5024999,1.5065513849258423,-0.9020155072212219,9.791686058044434,13.763427734375,10.528564453125,30.853271484375
4.5074999,1.754351258277893,-0.17956513166427612,9.822811126708984,4.608154296875,6.77490234375,9.552001953125
4.5124999,2.146401882171631,0.13946224749088287,9.781511306762695,-2.3193359375,6.378173828125,-18.37158203125
4.5174999,2.470816135406494,0.002394201699644327,9.743802070617676,5.218505859375,24.810791015625,-25.177001953125
4.522499900000001,2.563591480255127,-0.21308395266532898,9.783307075500488,17.242431640625,37.750244140625,-27.2216796875
4.5274999000000005,1.5179238319396973,-0.6440402865409851,9.671976089477539,-1.46484375,25.08544921875,-38.055419921875
4.5324999,0.6458359360694885,-0.27712884545326233,9.563638687133789,-2.25830078125,6.53076171875,-51.81884765625
4.5374999,-0.628477931022644,-0.26336219906806946,9.716867446899414,-16.204833984375,-10.162353515625,-41.656494140625
4.5424999,-1.4167689085006714,-0.22086510062217712,9.597756385803223,-13.916015625,-11.566162109375,-31.6162109375
4.5474999,-2.3050177097320557,0.03890577703714371,9.835979461669922,-5.7373046875,-16.41845703125,8.97216796875
4.5524999,-2.6599581241607666,0.33279404044151306,9.967061996459961,-10.8642578125,-27.89306640625,34.0576171875
4.5574999,-2.2613234519958496,0.01496376097202301,9.959878921508789,-19.6533203125,-40.71044921875,26.092529296875
4.562499900000001,-0.26575639843940735,-0.8463503122329712,10.064026832580566,10.284423828125,-13.671875,29.754638671875
4.5674999000000005,-0.26575639843940735,-0.8463503122329712,10.064026832580566,10.284423828125,-13.671875,29.754638671875
4.5724999,0.8086416125297546,-1.2886791229248047,9.963470458984375,9.735107421875,-4.8828125,40.4052734375
4.5774999,1.3886369466781616,-1.2539631128311157,9.924564361572266,11.505126953125,5.37109375,36.346435546875
4.5824999,1.7118542194366455,-0.7727286219596863,9.79647445678711,11.474609375,10.19287109375,26.611328125
4.5874999,2.433706045150757,-0.27892449498176575,9.743204116821289,17.486572265625,38.055419921875,-29.11376953125
4.5924999,2.02848744392395,-0.5650315880775452,9.652822494506836,8.880615234375,35.46142578125,-26.91650390625
4.5974999,1.3239935636520386,-0.6087257862091064,9.627683639526367,-2.01416015625,22.003173828125,-38.51318359375
4.602499900000001,0.38726213574409485,0.15562310814857483,9.509769439697266,-2.593994140625,1.861572265625,-49.62158203125
4.6074999000000005,-0.8313865661621094,-0.2346317619085312,9.737217903137207,-20.32470703125,-11.688232421875,-38.4521484375
4.6124999,-1.5628151893615723,0.2322375625371933,9.560047149658203,-11.3525390625,-11.505126953125,-25.69580078125
4.6174999,-2.4396915435791016,-0.011372458189725876,9.932944297790527,-6.7138671875,-18.4326171875,18.218994140625
4.6224999,-2.630030632019043,0.1628057211637497,9.978434562683105,-14.007568359375,-32.3486328125,33.477783203125
4.6274999,-2.1511902809143066,-0.25438392162323,9.98681354522705,-18.768310546875,-41.1376953125,25.20751953125
4.6324999,1.7633295059204102,-0.6590040326118469,9.75397777557373,10.711669921875,10.68115234375,25.848388671875
4.6374999,1.9614497423171997,-0.07661445438861847,9.784503936767578,0.701904296875,5.126953125,0.6103515625
4.6424999,2.2697031497955322,0.090979665517807,9.752182006835938,-2.25830078125,10.711669921875,-23.92578125
4.647499900000001,2.4624364376068115,-0.16519992053508759,9.709685325622559,9.1552734375,29.296875,-26.18408203125
4.6524999000000005,2.404376983642578,-0.2867056429386139,9.780912399291992,16.876220703125,38.4521484375,-29.9072265625
4.6574999,1.911171555519104,-0.5907692909240723,9.70310115814209,6.34765625,34.3017578125,-27.191162109375
4.6624999,1.1701661348342896,-0.5560533404350281,9.646238327026367,-2.50244140625,19.47021484375,-41.50390625
4.6674999,0.1496376097202301,0.19033902883529663,9.732429504394531,-4.94384765625,-1.46484375,-48.065185546875
4.6724999,-0.9798270463943481,-0.3693056106567383,9.78989028930664,-20.8740234375,-11.077880859375,-35.125732421875
4.6774999,-2.518700122833252,-0.04369417950510979,9.961674690246582,-8.331298828125,-22.03369140625,26.2451171875
4.6824999,-2.5330653190612793,0.08140286058187485,9.852140426635742,-17.39501953125,-36.895751953125,31.982421875
4.687499900000001,-1.9207483530044556,-0.25079262256622314,9.90122127532959,-17.120361328125,-40.283203125,26.55029296875
4.6924999000000005,-0.8834604024887085,-0.5285200476646423,9.980229377746582,1.800537109375,-23.712158203125,22.796630859375
4.6974999,0.28311434388160706,-1.138442873954773,9.930550575256348,13.702392578125,-11.627197265625,38.4521484375
4.7024999,1.1540051698684692,-1.3820528984069824,9.869498252868652,10.284423828125,-1.77001953125,47.2412109375
4.7074999,1.522712230682373,-1.1091139316558838,9.845556259155273,14.16015625,10.25390625,40.985107421875
4.7124999,1.7028759717941284,-0.5027823448181152,9.792284965515137,10.19287109375,11.3525390625,24.993896484375
4.7174999,1.9159599542617798,0.04429273307323456,9.806650161743164,-1.03759765625,3.35693359375,-4.241943359375
4.7224999,2.4660277366638184,-0.1777694821357727,9.718064308166504,11.322021484375,33.111572265625,-29.11376953125
4.727499900000001,2.3930046558380127,-0.304063618183136,9.75397777557373,15.472412109375,39.24560546875,-31.463623046875
4.7324999000000005,0.9989806413650513,-0.5692214369773865,9.578003883361816,-3.021240234375,15.716552734375,-48.248291015625
4.7374999,-0.20350714027881622,-0.058059390634298325,9.728838920593262,-10.162353515625,-5.615234375,-47.393798828125
4.7424999,-1.1976994276046753,-0.48602294921875,9.625887870788574,-18.4326171875,-10.986328125,-32.89794921875
4.7474999,-2.057217836380005,-0.1975216418504715,9.687539100646973,-7.6904296875,-13.885498046875,-3.47900390625
4.7524999,-2.653373956680298,-0.05386953800916672,9.943120002746582,-10.07080078125,-28.778076171875,33.87451171875
4.7574999,-2.426523447036743,-0.10714052617549896,9.924564361572266,-20.99609375,-42.022705078125,29.388427734375
4.7624999,-1.6190788745880127,-0.25917232036590576,9.99100399017334,-10.498046875,-34.423828125,24.017333984375
4.7674999,-0.47824180126190186,-0.5638344883918762,10.032303810119629,6.072998046875,-19.22607421875,27.130126953125
4.772499900000001,0.6308721303939819,-1.14742112159729,9.891045570373535,14.46533203125,-10.223388671875,46.722412109375
4.7774999000000005,1.2737152576446533,-1.2617442607879639,9.827000617980957,12.0849609375,2.38037109375,51.26953125
4.7824999,1.4963760375976562,-0.9074024558067322,9.790489196777344,15.106201171875,12.176513671875,39.4287109375
4.7874999,1.6310498714447021,-0.2651578485965729,9.785700798034668,6.134033203125,6.89697265625,19.71435546875
4.7924999,1.6388310194015503,-0.6254851818084717,9.70310115814209,0.244140625,29.11376953125,-35.82763671875
4.7974999,0.7948749661445618,-0.1173158809542656,9.537302017211914,-2.716064453125,10.284423828125,-51.361083984375
4.8024999,-1.3323732614517212,-0.14185644686222076,9.473258018493652,-12.237548828125,-8.148193359375,-23.4375
4.8074999,-2.2870612144470215,-0.11312603205442429,9.82999324798584,-5.79833984375,-16.876220703125,12.87841796875
4.812499900000001,-2.585737943649292,-0.11192893236875534,9.87967300415039,-17.08984375,-35.064697265625,34.85107421875
4.8174999000000005,-2.139219284057617,-0.16220717132091522,9.962273597717285,-16.448974609375,-39.459228515625,26.702880859375
4.8224999,-1.2042834758758545,-0.5835866928100586,9.992799758911133,-4.33349609375,-27.313232421875,24.47509765625
4.8274999,-0.06584054976701736,-0.960673451423645,10.02811336517334,12.237548828125,-15.19775390625,33.5693359375
4.8324999,1.278503656387329,-1.2042834758758545,9.840168952941895,14.95361328125,8.6669921875,47.05810546875
4.8374999,1.446696400642395,-0.628477931022644,9.77253246307373,13.214111328125,12.26806640625,31.585693359375
4.8424999,1.6609774827957153,0.025737667456269264,9.805453300476074,0.823974609375,2.410888671875,6.439208984375
4.8474999,2.076371431350708,0.2902969419956207,9.797073364257812,-3.72314453125,6.927490234375,-23.5595703125
4.852499900000001,2.4444799423217773,-0.0065840547904372215,9.744400978088379,7.232666015625,29.022216796875,-30.45654296875
4.8574999000000005,2.5558102130889893,-0.10833762586116791,9.77672290802002,15.56396484375,40.069580078125,-33.3251953125
4.8624999,2.1051018238067627,-0.4554968774318695,9.738415718078613,5.31005859375,35.491943359375,-34.60693359375
4.8674999,1.3545196056365967,-0.5764040350914001,9.619303703308105,-3.204345703125,20.6298828125,-48.492431640625
4.8724999,0.24839842319488525,0.08200141042470932,9.70310115814209,-8.148193359375,-0.48828125,-53.77197265625
4.8774999,-0.93254154920578,-0.5632359385490417,9.686341285705566,-20.965576171875,-11.444091796875,-35.64453125
4.8824999,-1.775899052619934,-0.05267243832349777,9.596558570861816,-8.48388671875,-10.68115234375,-13.0615234375
4.8874999,-2.540846586227417,-0.2944868206977844,9.875483512878418,-10.467529296875,-25.848388671875,28.74755859375
4.8924999,-2.4660277366638184,-0.12868833541870117,9.882067680358887,-20.3857421875,-41.290283203125,34.393310546875
4.897499900000001,-1.732803463935852,-0.43694180250167847,9.915586471557617,-13.73291015625,-35.247802734375,25.5126953125
4.9024999000000005,-0.6949170231819153,-0.7152677774429321,9.992799758911133,4.364013671875,-21.087646484375,27.40478515625
4.9074999,0.3992331326007843,-1.2934675216674805,9.894038200378418,15.93017578125,-15.350341796875,49.591064453125
4.9124999,0.9798270463943481,-1.3856441974639893,9.799467086791992,13.946533203125,-2.655029296875,55.35888671875
4.9174999,1.1665748357772827,-1.060032844543457,9.785101890563965,17.303466796875,10.772705078125,44.37255859375
4.9224999,1.2306196689605713,-0.2950853705406189,9.806051254272461,8.331298828125,5.615234375,27.89306640625
4.9274999,1.5598224401474,0.26575639843940735,9.82879638671875,-3.173828125,-2.655029296875,-0.274658203125
4.9324999,2.056020736694336,0.2825157940387726,9.788095474243164,-3.60107421875,9.124755859375,-28.25927734375
4.937499900000001,2.497152328491211,0.008978256024420261,9.768941879272461,10.6201171875,32.28759765625,-34.11865234375
4.9424999000000005,2.535459518432617,-0.23822307586669922,9.711481094360352,9.09423828125,37.628173828125,-31.92138671875
4.9474999,1.9806033372879028,-0.5925649404525757,9.743204116821289,0.030517578125,32.379150390625,-35.888671875
4.9524999,1.2336124181747437,-0.0011971008498221636,9.512163162231445,-1.52587890625,17.364501953125,-47.8515625
4.9574999,-0.09636662155389786,-0.0802057534456253,9.953893661499023,-17.88330078125,-3.60107421875,-40.771484375
4.9624999,-1.047463297843933,0.18555063009262085,9.673771858215332,-14.495849609375,-3.631591796875,-21.942138671875
4.9674999,-1.932719349861145,0.03770867735147476,9.98681354522705,-13.3056640625,-15.472412109375,6.65283203125
4.9724999,-2.297236442565918,-0.12090718746185303,10.114903450012207,-18.829345703125,-33.38623046875,32.196044921875
4.977499900000001,-1.765723705291748,-0.5237316489219666,9.97484302520752,-22.216796875,-36.2548828125,30.548095703125
4.9824999000000005,-0.93254154920578,-0.9654618501663208,9.880870819091797,-4.0283203125,-23.590087890625,29.1748046875
4.9874999,0.14903905987739563,-1.4329297542572021,9.78989028930664,16.998291015625,-22.52197265625,53.1005859375
4.9924999,0.8170213103294373,-1.599326729774475,9.606135368347168,17.913818359375,-15.56396484375,63.018798828125
4.9974999,0.9702502489089966,-1.2300211191177368,9.653421401977539,19.22607421875,3.47900390625,55.7861328125
5.0024999,0.9552865028381348,-0.5392939448356628,9.750386238098145,15.838623046875,10.80322265625,39.886474609375
5.0074999,1.0630255937576294,0.2825157940387726,9.901819229125977,4.302978515625,4.69970703125,16.265869140625
5.0124999,1.5017629861831665,0.6236895322799683,9.961674690246582,-7.110595703125,2.838134765625,-15.2587890625
5.0174999,-0.585382342338562,1.060032844543457,10.361506462097168,-39.61181640625,0.30517578125,-78.857421875
5.022499900000001,-1.4658499956130981,0.31783026456832886,10.386645317077637,-44.158935546875,-11.3525390625,-43.365478515625
5.0274999000000005,-1.699883222579956,-0.4513070285320282,10.195708274841309,-41.961669921875,-25.20751953125,22.064208984375
5.0324999,-1.2497732639312744,-1.6053122282028198,10.019734382629395,-44.7998046875,-44.769287109375,59.844970703125
5.0374999,-0.10534487664699554,-2.3684639930725098,9.560646057128906,-33.355712890625,-31.982421875,61.8896484375
5.0424999,0.6494272351264954,0.790086567401886,10.545860290527344,8.697509765625,24.59716796875,3.72314453125
5.0474999,0.41120412945747375,1.568800687789917,11.481992721557617,-7.598876953125,31.524658203125,-30.670166015625
5.0524999,0.50876784324646,1.9752163887023926,11.650185585021973,-3.5400390625,49.224853515625,-52.8564453125
5.0574999,0.5829881429672241,2.101510524749756,11.323975563049316,0.152587890625,54.962158203125,-80.6884765625
5.062499900000001,0.5333084464073181,2.097320795059204,10.782885551452637,-5.31005859375,52.825927734375,-122.894287109375
5.0674999000000005,0.30226796865463257,2.32297420501709,10.360309600830078,-18.280029296875,40.557861328125,-155.181884765625
5.0724999,-0.11911153793334961,1.4700398445129395,9.944915771484375,-33.111572265625,21.05712890625,-162.53662109375
5.0774999,-0.5961562395095825,0.27473464608192444,9.589376449584961,-46.875,-3.11279296875,-134.246826171875
5.0824999,-1.083974838256836,-1.6184803247451782,9.285911560058594,-40.618896484375,-28.99169921875,-43.8232421875
5.0874999,-1.2647370100021362,-3.2555158138275146,8.791508674621582,-31.982421875,-41.3818359375,57.31201171875
5.0924999,-1.2647370100021362,-3.2555158138275146,8.791508674621582,-31.982421875,-41.3818359375,57.31201171875
5.0974999,0.67815762758255,-4.134187698364258,8.336610794067383,31.3720703125,-21.30126953125,71.380615234375
5.102499900000001,0.67815762758255,-4.134187698364258,8.336610794067383,31.3720703125,-21.30126953125,71.380615234375
5.1074999000000005,1.4802151918411255,-3.154959201812744,8.473678588867188,55.328369140625,-0.9765625,46.478271484375
5.1124999,1.7908629179000854,-2.033275842666626,8.7669677734375,60.24169921875,-2.44140625,46.142578125
5.1174999,1.50355863571167,-0.8738836050033569,9.528923034667969,50.567626953125,0.67138671875,48.370361328125
5.1224999,0.2561795711517334,1.3623007535934448,11.186308860778809,8.209228515625,11.077880859375,0.3662109375
5.1274999,0.2561795711517334,1.3623007535934448,11.186308860778809,8.209228515625,11.077880859375,0.3662109375
5.1324999,0.004788403399288654,2.0260932445526123,11.479598999023438,-5.279541015625,16.66259765625,-30.914306640625
5.1374999,0.12629413604736328,2.1122844219207764,11.367071151733398,-5.767822265625,27.2216796875,-36.1328125
5.1424999,0.33937808871269226,1.66696298122406,10.979808807373047,-5.0048828125,32.8369140625,-39.36767578125
5.147499900000001,0.40222588181495667,1.170764684677124,10.539874076843262,-6.622314453125,37.53662109375,-58.16650390625
5.1524999000000005,0.25019407272338867,0.74040687084198,10.10053825378418,-11.3525390625,30.8837890625,-77.63671875
5.1574999,-0.4812345504760742,1.2234370708465576,10.15141487121582,-43.8232421875,2.44140625,-96.405029296875
5.1624999,-0.8104372620582581,1.0223240852355957,10.38844108581543,-74.493408203125,-11.627197265625,-73.79150390625
5.1674999,-0.812831461429596,-0.14245499670505524,10.212467193603516,-70.61767578125,-21.636962890625,-0.30517578125
5.1724999,-0.43754035234451294,-1.9267338514328003,9.625288963317871,-51.727294921875,-50.048828125,69.793701171875
