# Time (seconds),Accel_X,Accel_Y,Accel_Z,Gyro_X,Gyro_Y,Gyro_Z
0.0024999,0.6105214357376099,-0.026336219161748886,8.325836181640625,-7.843017578125,-10.406494140625,1.495361328125
0.0074999,-0.023942016065120697,0.15143325924873352,9.25179386138916,7.781982421875,7.965087890625,11.505126953125
0.012499900000000001,0.5793967843055725,-0.008978256024420261,8.3306245803833,-8.453369140625,-7.293701171875,2.74658203125
0.0174999,0.0011971008498221636,0.11133038252592087,9.37748908996582,7.781982421875,9.674072265625,13.092041015625
0.0224999,0.4638765752315521,0.060453593730926514,8.468890190124512,-6.317138671875,-7.720947265625,2.25830078125
0.0274999,-0.12270283699035645,0.07062894850969315,9.494206428527832,5.523681640625,6.683349609375,11.1083984375
0.0324999,0.3214215636253357,0.05506663769483566,8.794501304626465,-6.16455078125,-4.425048828125,4.547119140625
0.0374999,-0.18375498056411743,-0.07781155407428741,9.676764488220215,6.2255859375,5.523681640625,12.75634765625
0.0424999,0.3345896899700165,-0.1586158573627472,8.892663955688477,-6.2255859375,-7.537841796875,0.67138671875
0.0474999,-0.05027823522686958,-0.2585737705230713,9.717466354370117,6.89697265625,4.21142578125,9.94873046875
0.0524999,0.38965633511543274,-0.333991140127182,8.710704803466797,-7.598876953125,-2.105712890625,3.692626953125
0.0574999,0.058059390634298325,-0.2890998423099518,9.561842918395996,7.659912109375,3.47900390625,8.60595703125
0.0624999,0.41359832882881165,-0.2777273952960968,8.675390243530273,-5.2490234375,-5.096435546875,0.518798828125
0.0674999,0.21787235140800476,-0.14604631066322327,9.453505516052246,5.18798828125,1.495361328125,6.195068359375
0.0724999,0.29807811975479126,-0.08858546614646912,8.8878755569458,-3.448486328125,2.44140625,4.94384765625
0.0774999,0.304063618183136,-0.015562310814857483,9.384073257446289,2.44140625,-0.946044921875,4.150390625
0.0824999,0.0628477931022644,0.015562310814857483,9.020753860473633,-1.40380859375,-1.373291015625,2.5634765625
0.0874999,0.3130418658256531,-0.016160860657691956,9.190143585205078,1.373291015625,-1.678466796875,3.90625
0.0924999,-0.08080431073904037,0.035913024097681046,8.938752174377441,-1.190185546875,5.889892578125,8.819580078125
0.0974999,0.38067805767059326,-0.05147533491253853,8.917802810668945,0.701904296875,-4.119873046875,2.38037109375
0.1024999,-0.10833762586116791,0.0347159244120121,8.895057678222656,0.79345703125,2.288818359375,5.584716796875
0.1074999,0.4752490520477295,-0.1364694982767105,8.842984199523926,-0.518798828125,-3.448486328125,1.800537109375
0.1124999,-0.09217676520347595,-0.0011971008498221636,9.01476764678955,0.79345703125,7.38525390625,10.31494140625
0.1174999,0.5901707410812378,-0.24420857429504395,8.893261909484863,-1.556396484375,-6.9580078125,-1.617431640625
0.1224999,-0.08499415963888168,0.0035913025494664907,9.211690902709961,2.5634765625,4.852294921875,8.270263671875
0.1274999,0.6230909824371338,-0.23104046285152435,8.904634475708008,-2.410888671875,-4.669189453125,-1.0986328125
0.1324999,-0.13168109953403473,0.08978256583213806,9.357138633728027,2.38037109375,8.026123046875,11.5966796875
0.1374999,0.618302583694458,-0.18974047899246216,8.88907241821289,-3.173828125,-7.26318359375,-3.41796875
0.1424999,-0.12928688526153564,0.14425064623355865,9.406818389892578,3.5400390625,7.2021484375,10.43701171875
0.1474999,0.5776011347770691,-0.1256955862045288,8.744223594665527,-3.753662109375,-5.706787109375,-2.044677734375
0.1524999,-0.07781155407428741,0.16519992053508759,9.363123893737793,4.119873046875,6.89697265625,11.16943359375
0.1574999,0.5662286877632141,-0.038307227194309235,8.548497200012207,-4.2724609375,-7.171630859375,-3.021240234375
0.1624999,-0.013766659423708916,0.15921440720558167,9.292495727539062,4.7607421875,6.40869140625,11.199951171875
0.1674999,-0.013766659423708916,0.15921440720558167,9.292495727539062,4.7607421875,6.40869140625,11.199951171875
0.1724999,0.5153518915176392,-0.019153613597154617,8.399457931518555,-5.4931640625,-5.645751953125,-1.3427734375
0.17749990000000002,0.0293289702385664,0.11133038252592087,9.294290542602539,5.67626953125,5.4931640625,10.009765625
0.1824999,0.41718965768814087,-0.04668693244457245,8.359953880310059,-5.462646484375,-5.767822265625,-2.227783203125
0.1874999,0.047884032130241394,0.030526071786880493,9.355941772460938,5.706787109375,4.5166015625,8.209228515625
0.1924999,0.2950853705406189,-0.11312603205442429,8.473678588867188,-5.950927734375,-4.058837890625,-1.46484375
0.1974999,0.10354922711849213,-0.09038111567497253,9.436147689819336,6.072998046875,3.90625,5.523681640625
0.2024999,0.19931729137897491,-0.21308395266532898,8.73344898223877,-4.94384765625,-3.570556640625,-1.28173828125
0.20749990000000001,0.1538274586200714,-0.17956513166427612,9.472060203552246,5.157470703125,3.11279296875,3.265380859375
0.2124999,0.11432313174009323,-0.28371289372444153,8.99740982055664,-4.57763671875,-2.62451171875,-0.67138671875
0.2174999,0.2555810213088989,-0.16819266974925995,9.415796279907227,4.730224609375,1.495361328125,0.6103515625
0.2224999,0.0454898327589035,-0.2124854028224945,9.09377670288086,-4.241943359375,-1.312255859375,1.129150390625
0.2274999,0.4016273319721222,-0.06344634294509888,9.232041358947754,4.058837890625,0.732421875,-0.67138671875
0.2324999,-0.012569558806717396,-0.0628477931022644,9.07103157043457,-3.814697265625,-0.091552734375,2.5634765625
0.2374999,0.4854243993759155,0.016160860657691956,8.975862503051758,3.47900390625,-0.335693359375,-2.0751953125
0.2424999,-0.08619125932455063,0.0347159244120121,9.035717010498047,-2.5634765625,1.129150390625,4.425048828125
0.2474999,0.5327098965644836,-0.012569558806717396,8.78312873840332,2.44140625,-1.556396484375,-3.23486328125
0.2524999,-0.12689268589019775,0.0454898327589035,9.00160026550293,-1.46484375,2.13623046875,5.889892578125
0.2574999,0.5650315880775452,-0.11911153793334961,8.756793022155762,0.79345703125,-2.471923828125,-4.21142578125
0.2624999,-0.14245499670505524,0.04728548228740692,9.103353500366211,-0.213623046875,3.082275390625,7.4462890625
0.2674999,0.569819986820221,-0.2082955539226532,8.815450668334961,-0.457763671875,-3.662109375,-4.730224609375
0.2724999,-0.16879121959209442,0.0077811554074287415,9.239224433898926,0.946044921875,3.936767578125,8.392333984375
0.2774999,0.5291185975074768,-0.24001872539520264,8.801085472106934,-1.8310546875,-4.425048828125,-4.7607421875
0.2824999,-0.16759411990642548,0.02992752194404602,9.347561836242676,2.349853515625,4.608154296875,9.063720703125
0.28749990000000003,0.5380968451499939,-0.18914192914962769,8.745420455932617,-2.777099609375,-5.0048828125,-4.730224609375
0.2924999,-0.08499415963888168,0.11791443079710007,9.321824073791504,3.23486328125,5.2490234375,9.8876953125
0.2974999,0.5704185366630554,-0.07661445438861847,8.537124633789062,-3.84521484375,-5.157470703125,-4.180908203125
0.3024999,-0.020949264988303185,0.2106897532939911,9.191340446472168,4.241943359375,5.4931640625,10.101318359375
0.3074999,0.5345055460929871,0.03411737456917763,8.323442459106445,-4.119873046875,-5.18798828125,-3.60107421875
0.3124999,0.016160860657691956,0.22505496442317963,9.14225959777832,4.852294921875,4.791259765625,9.613037109375
0.3174999,0.42437225580215454,0.028131870552897453,8.283937454223633,-5.18798828125,-4.33349609375,-2.410888671875
0.3224999,0.011372458189725876,0.12509703636169434,9.19552993774414,5.31005859375,4.608154296875,8.819580078125
0.3274999,0.2693476974964142,-0.023942016065120697,8.464101791381836,-5.06591796875,-3.814697265625,-1.953125
0.3324999,0.03172317147254944,0.013766659423708916,9.36013126373291,5.4931640625,3.021240234375,7.01904296875
0.3374999,0.1801636815071106,-0.11192893236875534,8.71728801727295,-5.43212890625,-2.288818359375,-1.190185546875
0.3424999,0.10714052617549896,-0.09876082092523575,9.439739227294922,5.767822265625,1.64794921875,5.06591796875
0.34749990000000003,0.13108254969120026,-0.17238251864910126,8.802881240844727,-5.523681640625,-1.03759765625,-0.3662109375
0.35249990000000003,0.2346317619085312,-0.10953472554683685,9.315838813781738,5.615234375,0.518798828125,3.143310546875
0.3574999,0.08619125932455063,-0.12210428714752197,8.807669639587402,-5.096435546875,-0.1220703125,0.79345703125
0.3624999,0.40043023228645325,-0.07661445438861847,9.135675430297852,5.157470703125,-0.579833984375,0.152587890625
0.3674999,0.0077811554074287415,-0.08080431073904037,8.860342025756836,-4.364013671875,0.885009765625,2.01416015625
0.3724999,0.4926069974899292,-0.0628477931022644,8.956110000610352,3.90625,-1.5869140625,-1.52587890625
0.3774999,-0.10295066982507706,-0.0586579404771328,8.936357498168945,-3.2958984375,1.983642578125,3.631591796875
0.3824999,0.547075092792511,-0.10055647045373917,8.759785652160645,3.11279296875,-2.5634765625,-3.23486328125
0.3874999,-0.16400282084941864,-0.0802057534456253,8.96269416809082,-1.983642578125,2.838134765625,4.791259765625
0.3924999,0.5859808921813965,-0.21308395266532898,8.705317497253418,1.220703125,-3.173828125,-4.425048828125
0.3974999,-0.17657238245010376,-0.07900865375995636,9.077615737915039,-0.518798828125,3.41796875,6.072998046875
0.4024999,0.6039373874664307,-0.2819172441959381,8.729259490966797,0.030517578125,-3.84521484375,-5.462646484375
0.4074999,-0.15801730751991272,-0.0694318488240242,9.2033109664917,1.007080078125,3.84521484375,7.080078125
0.41249990000000003,0.5985504388809204,-0.2861070930957794,8.667608261108398,-1.46484375,-4.2724609375,-6.439208984375
0.41749990000000003,-0.11013327538967133,-0.002394201699644327,9.23682975769043,2.288818359375,4.180908203125,7.32421875
0.4224999,0.6135141849517822,-0.17956513166427612,8.537723541259766,-2.777099609375,-4.45556640625,-6.9580078125
0.4274999,-0.02513911761343479,0.13347674906253815,9.181763648986816,3.387451171875,4.058837890625,7.2021484375
0.4324999,0.6129156351089478,-0.043095629662275314,8.341997146606445,-3.90625,-4.119873046875,-6.89697265625
0.4374999,0.035913024097681046,0.19153612852096558,9.103952407836914,4.547119140625,3.662109375,6.561279296875
0.4424999,0.5249287486076355,-0.010773907415568829,8.193556785583496,-4.974365234375,-3.570556640625,-6.53076171875
0.4474999,0.03711012750864029,0.1759738177061081,9.132083892822266,5.31005859375,3.2958984375,5.767822265625
0.4524999,0.34656068682670593,-0.020949264988303185,8.242039680480957,-5.67626953125,-3.11279296875,-5.67626953125
0.4574999,0.025737667456269264,0.07422025501728058,9.204508781433105,5.859375,2.38037109375,4.638671875
0.4624999,0.166995570063591,-0.10953472554683685,8.48205852508545,-5.859375,-2.197265625,-3.96728515625
0.4674999,0.04249707981944084,-0.035913024097681046,9.328408241271973,5.9814453125,1.64794921875,3.082275390625
0.47249990000000003,0.06883329898118973,-0.15981295704841614,8.76337718963623,-5.523681640625,-0.946044921875,-2.50244140625
0.47749990000000003,0.16340427100658417,-0.05446808785200119,9.349956512451172,5.523681640625,0.701904296875,1.64794921875
0.4824999,0.043095629662275314,-0.13407529890537262,8.883685111999512,-5.06591796875,-0.18310546875,-0.48828125
0.4874999,0.3561375141143799,-0.04249707981944084,9.17697525024414,4.974365234375,-0.518798828125,-0.274658203125
0.4924999,-0.008978256024420261,-0.08559270948171616,8.948927879333496,-4.0283203125,1.220703125,1.46484375
0.4974999,0.4866214990615845,-0.008379706181585789,8.96149730682373,3.72314453125,-1.52587890625,-1.922607421875
0.5024999,-0.10175357013940811,0.004788403399288654,9.006986618041992,-2.9296875,2.0751953125,3.2958984375
0.5074999,0.5596446394920349,-0.016160860657691956,8.762179374694824,2.288818359375,-2.471923828125,-3.5400390625
0.5124999,-0.14484919607639313,0.03411737456917763,8.975862503051758,-1.678466796875,3.143310546875,4.8828125
0.5174999,0.6039373874664307,-0.13527239859104156,8.644864082336426,0.946044921875,-3.204345703125,-5.126953125
0.5224999,-0.15801730751991272,0.03172317147254944,9.041104316711426,-0.091552734375,3.662109375,5.950927734375
0.5274999,0.5961562395095825,-0.19812019169330597,8.644265174865723,-0.701904296875,-3.84521484375,-6.011962890625
0.5324999,-0.14844051003456116,0.07122749835252762,9.185355186462402,1.373291015625,3.997802734375,7.26318359375
0.5374999,-0.14844051003456116,0.07122749835252762,9.185355186462402,1.373291015625,3.997802734375,7.26318359375
0.5424999,0.5841852426528931,-0.19033902883529663,8.6089506149292,-2.105712890625,-4.5166015625,-6.561279296875
0.5474999,-0.08499415963888168,0.1173158809542656,9.184157371520996,2.777099609375,4.486083984375,7.598876953125
0.5524999,0.5991489887237549,-0.12270283699035645,8.434173583984375,-3.35693359375,-4.669189453125,-6.378173828125
0.5574999,-0.012569558806717396,0.19393034279346466,9.112930297851562,3.936767578125,4.2724609375,7.75146484375
0.5624999,0.5620388388633728,0.016160860657691956,8.26119327545166,-4.2724609375,-4.7607421875,-5.55419921875
0.5674999000000001,0.031124621629714966,0.20350714027881622,9.070432662963867,5.0048828125,4.180908203125,7.62939453125
0.5724999000000001,0.4213795065879822,0.02753331884741783,8.189367294311523,-5.096435546875,-4.119873046875,-4.2724609375
0.5774999000000001,0.010175357572734356,0.10534487664699554,9.12729549407959,5.462646484375,3.41796875,6.805419921875
0.5824999,0.21188685297966003,-0.028131870552897453,8.412027359008789,-5.55419921875,-3.204345703125,-2.777099609375
0.5874999,0.004788403399288654,0.028131870552897453,9.331400871276855,5.706787109375,2.74658203125,5.584716796875
0.5924999,0.08738835901021957,-0.076015904545784,8.742427825927734,-5.67626953125,-2.25830078125,-0.91552734375
0.5974999,0.0999579206109047,-0.043095629662275314,9.390059471130371,5.67626953125,1.8310546875,3.936767578125
0.6024999,0.058059390634298325,-0.12629413604736328,8.886677742004395,-5.279541015625,-0.8544921875,0.732421875
0.6074999,0.27892449498176575,-0.05147533491253853,9.288305282592773,5.2490234375,0.762939453125,2.25830078125
0.6124999,0.0035913025494664907,-0.07422025501728058,8.96149730682373,-4.608154296875,0.335693359375,2.8076171875
0.6174999,0.4465186297893524,0.021547814831137657,9.10993766784668,4.2724609375,-0.762939453125,0.823974609375
0.6224999,-0.07122749835252762,-0.030526071786880493,9.004592895507812,-3.387451171875,1.983642578125,5.0048828125
0.6274999,0.5105634927749634,-0.018555063754320145,8.851962089538574,3.143310546875,-2.01416015625,-0.48828125
0.6324999,-0.15442600846290588,-0.076015904545784,9.03631591796875,-1.77001953125,2.838134765625,6.683349609375
0.6374999,0.5345055460929871,-0.1646013706922531,8.745420455932617,1.556396484375,-3.11279296875,-1.8310546875
0.6424999,-0.19692309200763702,-0.05147533491253853,9.137471199035645,-0.54931640625,3.90625,8.30078125
0.6474999,0.5602431893348694,-0.19632454216480255,8.743025779724121,-0.06103515625,-3.7841796875,-3.204345703125
0.6524999,-0.15143325924873352,0.031124621629714966,9.263765335083008,0.885009765625,4.57763671875,8.72802734375
0.6574999,0.6033388376235962,-0.17058686912059784,8.671798706054688,-1.495361328125,-4.486083984375,-4.364013671875
0.6624999,-0.05626374110579491,0.1041477769613266,9.28531265258789,2.0751953125,5.37109375,9.002685546875
0.6674999,0.639850378036499,-0.10474632680416107,8.53413200378418,-2.716064453125,-4.913330078125,-4.547119140625
0.6724999,-0.0017956512747332454,0.2124854028224945,9.248801231384277,3.41796875,5.340576171875,8.880615234375
0.6774999,0.5889736413955688,0.04010287672281265,8.404845237731934,-3.90625,-5.0048828125,-4.45556640625
0.6824999,0.019153613597154617,0.22864626348018646,9.206304550170898,4.33349609375,4.730224609375,8.544921875
0.6874999,0.4489128291606903,0.048482585698366165,8.303689956665039,-5.0048828125,-4.486083984375,-3.997802734375
0.6924999000000001,0.0293289702385664,0.09157821536064148,9.215282440185547,5.43212890625,3.72314453125,7.38525390625
0.6974999000000001,0.2663549482822418,-0.02693476900458336,8.443750381469727,-5.157470703125,-2.960205078125,-2.44140625
0.7024999000000001,0.047884032130241394,-0.013766659423708916,9.385271072387695,5.615234375,2.593994140625,5.615234375
0.7074999,0.14065934717655182,-0.07841010391712189,8.738237380981445,-5.279541015625,-1.953125,-0.732421875
0.7124999,0.14903905987739563,-0.07182604819536209,9.424176216125488,5.645751953125,1.46484375,3.90625
0.7174999,0.07781155407428741,-0.14664486050605774,8.869918823242188,-4.791259765625,-0.457763671875,1.495361328125
0.7224999,0.30047231912612915,-0.09935937076807022,9.297284126281738,4.5166015625,0.274658203125,2.197265625
0.7274999,-0.05147533491253853,-0.11133038252592087,9.012373924255371,-3.5400390625,0.732421875,3.72314453125
0.7324999,0.41778820753097534,-0.043095629662275314,9.156624794006348,3.265380859375,-1.0986328125,0.579833984375
0.7374999,-0.15741875767707825,0.02992752194404602,9.120711326599121,-2.044677734375,1.983642578125,5.7373046875
0.7424999,0.5015852451324463,-0.040701430290937424,8.96269416809082,1.556396484375,-2.532958984375,-0.8544921875
0.7474999,-0.15263035893440247,0.048482585698366165,9.07103157043457,-1.068115234375,3.570556640625,7.293701171875
0.7524999,0.5889736413955688,-0.19273324310779572,8.78432559967041,0.42724609375,-3.936767578125,-2.8076171875
0.7574999,-0.1454477459192276,-0.023942016065120697,9.155426979064941,0.42724609375,4.852294921875,8.270263671875
0.7624999,0.6117185354232788,-0.28131869435310364,8.787917137145996,-1.007080078125,-4.7607421875,-4.425048828125
0.7674999,-0.12509703636169434,0.0011971008498221636,9.39903736114502,1.8310546875,5.340576171875,8.392333984375
0.7724999,0.6159083843231201,-0.23104046285152435,8.82083797454834,-2.410888671875,-5.096435546875,-5.126953125
0.7774999,-0.03651157766580582,0.06643909960985184,9.423578262329102,3.23486328125,5.126953125,8.575439453125
0.7824999,0.618302583694458,-0.1215057373046875,8.558073997497559,-3.47900390625,-5.37109375,-4.7607421875
0.7874999,0.04189852997660637,0.1586158573627472,9.244012832641602,3.936767578125,5.37109375,8.36181640625
0.7924999,0.4878185987472534,0.07960720360279083,8.333617210388184,-4.180908203125,-4.913330078125,-3.387451171875
0.7974999,0.060453593730926514,0.26755204796791077,9.232041358947754,4.547119140625,4.974365234375,7.293701171875
0.8024999,0.3034650683403015,0.1801636815071106,8.664017677307129,-4.180908203125,-4.57763671875,-1.8310546875
0.8074999,0.10175357013940811,0.14365209639072418,9.5223388671875,4.150390625,4.425048828125,5.79833984375
0.8124999,0.18495208024978638,-0.05626374110579491,9.245209693908691,-3.7841796875,-3.204345703125,-0.396728515625
0.8174999000000001,0.2059013396501541,-0.18974047899246216,9.765350341796875,3.47900390625,2.685546875,3.72314453125
0.8224999000000001,0.03950432687997818,-0.30885201692581177,9.494206428527832,-3.265380859375,-1.89208984375,1.007080078125
0.8274999000000001,0.3196259140968323,-0.29209262132644653,9.729436874389648,2.99072265625,1.03759765625,1.434326171875
0.8324999000000001,-0.08619125932455063,-0.1646013706922531,9.446921348571777,-2.44140625,-0.30517578125,2.3193359375
0.8374999,0.436343252658844,-0.1173158809542656,9.414599418640137,2.044677734375,-0.9765625,-0.640869140625
0.8424999,-0.1322796493768692,0.07841010391712189,9.230844497680664,-1.46484375,1.373291015625,3.7841796875
0.8474999,0.5033808946609497,-0.03890577703714371,9.034520149230957,1.220703125,-2.25830078125,-2.593994140625
0.8524999,-0.13766659796237946,0.09397241473197937,9.096170425415039,-0.54931640625,2.532958984375,4.82177734375
0.8574999,0.5440823435783386,-0.13766659796237946,8.910021781921387,-0.091552734375,-3.7841796875,-4.150390625
0.8624999,-0.12330138683319092,0.05746084079146385,9.263765335083008,0.701904296875,3.997802734375,6.195068359375
0.8674999,0.5650315880775452,-0.2232593148946762,8.979453086853027,-0.579833984375,-5.37109375,-5.43212890625
0.8724999,-0.1215057373046875,0.008379706181585789,9.57441234588623,2.25830078125,4.974365234375,6.927490234375
0.8774999,0.5680243372917175,-0.28371289372444153,9.019556045532227,-2.777099609375,-6.011962890625,-5.828857421875
0.8824999,-0.050876785069704056,-0.047884032130241394,9.62828254699707,3.387451171875,5.950927734375,8.026123046875
0.8874999,0.5554547905921936,-0.2106897532939911,8.822632789611816,-3.47900390625,-6.561279296875,-5.340576171875
0.8924999,0.07541735470294952,0.06883329898118973,9.465476036071777,4.150390625,6.2255859375,8.270263671875
0.8974999,0.4638765752315521,0.10773907601833344,8.771158218383789,-3.90625,-5.859375,-3.72314453125
0.9024999,0.11252748221158981,0.2621650993824005,9.495404243469238,4.302978515625,5.340576171875,7.62939453125
0.9074999,0.11252748221158981,0.2621650993824005,9.495404243469238,4.302978515625,5.340576171875,7.62939453125
0.9124999,0.29149407148361206,0.21787235140800476,9.187748908996582,-3.23486328125,-4.486083984375,-1.373291015625
0.9174999,0.1280897855758667,0.15682020783424377,9.773131370544434,3.326416015625,3.814697265625,6.683349609375
0.9224999,0.002394201699644327,-0.05386953800916672,9.683348655700684,-2.105712890625,-2.716064453125,1.312255859375
0.9274999,0.2017114907503128,-0.16519992053508759,9.966463088989258,2.3193359375,1.708984375,4.8828125
0.9324999,-0.20949265360832214,-0.21009120345115662,9.82879638671875,-1.15966796875,-0.457763671875,4.058837890625
0.9374999,0.31543606519699097,-0.228047713637352,9.84495735168457,0.823974609375,-0.885009765625,1.953125
0.9424999000000001,-0.15921440720558167,-0.04249707981944084,9.654618263244629,0,1.861572265625,5.9814453125
0.9474999000000001,0.4926069974899292,-0.1107318252325058,9.549273490905762,-0.457763671875,-2.74658203125,-0.67138671875
0.9524999000000001,-0.04189852997660637,0.1173158809542656,9.457695007324219,0.823974609375,3.265380859375,6.103515625
0.9574999000000001,0.6530185341835022,-0.11013327538967133,9.34037971496582,-1.129150390625,-4.547119140625,-3.90625
0.9624999,-0.02513911761343479,0.08259996026754379,9.450512886047363,1.922607421875,5.096435546875,6.8359375
0.9674999,0.6943184733390808,-0.2364274114370346,9.322422981262207,-2.3193359375,-6.16455078125,-6.7138671875
0.9724999,-0.10534487664699554,-0.055665191262960434,9.713874816894531,2.86865234375,6.439208984375,7.01904296875
0.9774999,0.6153098344802856,-0.32860419154167175,9.430760383605957,-3.23486328125,-7.01904296875,-7.537841796875
0.9824999,-0.1215057373046875,-0.06404489278793335,10.006566047668457,3.5400390625,7.4462890625,7.904052734375
0.9874999,0.5500678420066833,-0.2232593148946762,9.462483406066895,-3.936767578125,-7.75146484375,-7.4462890625
0.9924999,-0.010773907415568829,0.12210428714752197,10.020332336425781,4.302978515625,8.056640625,8.72802734375
0.9974999,0.5039794445037842,0.061052143573760986,9.342175483703613,-3.90625,-7.720947265625,-6.16455078125
1.0024999,0.07302315533161163,0.2472013235092163,9.880870819091797,4.302978515625,7.354736328125,9.033203125
1.0074999000000002,0.43514615297317505,0.19273324310779572,9.369110107421875,-3.509521484375,-7.049560546875,-4.425048828125
1.0124999000000001,0.10354922711849213,0.1604115068912506,9.870096206665039,3.662109375,5.79833984375,7.476806640625
1.0174999000000002,0.30466216802597046,-0.0011971008498221636,9.601346969604492,-3.0517578125,-4.730224609375,-2.25830078125
1.0224999000000001,0.17298106849193573,-0.05446808785200119,9.999382972717285,2.9296875,3.84521484375,5.0048828125
1.0274999,0.041299980133771896,-0.2214636504650116,9.844358444213867,-1.953125,-2.25830078125,0.274658203125
1.0324999000000001,0.25079262256622314,-0.23822307586669922,10.033500671386719,1.312255859375,1.617431640625,2.044677734375
1.0374999,-0.13168109953403473,-0.22744916379451752,9.873687744140625,-0.8544921875,-0.701904296875,1.52587890625
1.0424999000000001,0.34596213698387146,-0.25079262256622314,9.801262855529785,0.79345703125,-0.54931640625,-1.220703125
1.0474999,-0.090979665517807,-0.02992752194404602,9.670180320739746,0.030517578125,1.708984375,2.9296875
1.0524999000000002,0.5057750940322876,-0.10893617570400238,9.476848602294922,-0.213623046875,-3.082275390625,-4.730224609375
1.0574999,-0.041299980133771896,0.13347674906253815,9.506776809692383,1.03759765625,4.08935546875,4.608154296875
1.0624999000000002,0.6224924325942993,-0.06464344263076782,9.34157657623291,-1.434326171875,-4.913330078125,-6.683349609375
1.0674999,-0.12090718746185303,0.08858546614646912,9.591172218322754,1.678466796875,5.37109375,6.103515625
1.0724999000000002,0.5961562395095825,-0.20709845423698425,9.412803649902344,-2.105712890625,-6.195068359375,-7.50732421875
1.0774999,-0.18495208024978638,-0.031124621629714966,9.903017044067383,2.410888671875,6.744384765625,7.4462890625
1.0824999000000002,0.5099649429321289,-0.2693476974964142,9.526528358459473,-2.5634765625,-6.988525390625,-7.6904296875
1.0874999,-0.06883329898118973,-0.008978256024420261,10.091560363769531,2.655029296875,6.988525390625,7.8125
1.0924999000000002,0.4902127981185913,-0.0802057534456253,9.541492462158203,-2.716064453125,-6.927490234375,-7.26318359375
1.0974999,0.09397241473197937,0.14425064623355865,10.057442665100098,2.960205078125,6.7138671875,7.26318359375
1.1024999000000002,0.5015852451324463,0.1107318252325058,9.57979965209961,-2.716064453125,-6.40869140625,-6.34765625
1.1074999,0.14604631066322327,0.21966800093650818,10.001178741455078,2.655029296875,5.859375,5.889892578125
1.1124999000000002,0.3842693865299225,0.05925649031996727,9.72285270690918,-2.25830078125,-5.06591796875,-4.974365234375
1.1174999,0.15921440720558167,0.06883329898118973,9.996390342712402,2.3193359375,4.45556640625,3.90625
1.1224999000000002,0.10833762586116791,-0.12629413604736328,9.81263542175293,-1.617431640625,-3.5400390625,-2.99072265625
1.1274999,0.22685061395168304,-0.17417816817760468,9.99459457397461,1.678466796875,2.227783203125,1.617431640625
1.1324999000000002,-0.076015904545784,-0.17477671802043915,9.81263542175293,-0.9765625,-1.0986328125,-0.640869140625
1.1374999000000001,0.3124433159828186,-0.20709845423698425,9.854534149169922,0.823974609375,0.274658203125,-0.9765625
1.1424999000000002,-0.09516951441764832,-0.017956512048840523,9.683348655700684,-0.18310546875,0.823974609375,2.01416015625
1.1474999000000001,0.424970805644989,-0.08140286058187485,9.57201862335205,-0.06103515625,-2.13623046875,-3.23486328125
1.1524999000000002,-0.07960720360279083,0.13587094843387604,9.50617790222168,0.6103515625,3.11279296875,4.364013671875
1.1574999000000001,0.547075092792511,-0.0293289702385664,9.369708061218262,-0.946044921875,-3.997802734375,-5.218505859375
1.1624999,-0.11133038252592087,0.14484919607639313,9.50737476348877,1.373291015625,4.730224609375,6.134033203125
1.1674999000000001,0.6093243360519409,-0.12868833541870117,9.388263702392578,-1.708984375,-5.706787109375,-6.866455078125
1.1724999,-0.1454477459192276,0.002992752008140087,9.77133560180664,2.01416015625,6.072998046875,7.171630859375
1.1774999000000002,0.5793967843055725,-0.27892449498176575,9.501988410949707,-1.953125,-6.7138671875,-7.659912109375
1.1824999,-0.08200141042470932,-0.08798690885305405,10.032901763916016,2.410888671875,6.8359375,7.62939453125
1.1874999000000002,0.5057750940322876,-0.22505496442317963,9.552266120910645,-2.38037109375,-6.927490234375,-7.843017578125
1.1924999,0.03172317147254944,0.05985504388809204,10.089165687561035,2.685546875,6.805419921875,7.293701171875
1.1974999000000002,0.47824180126190186,0.048482585698366165,9.600150108337402,-2.410888671875,-6.77490234375,-7.26318359375
1.2024999,0.11133038252592087,0.24420857429504395,10.039485931396484,2.593994140625,6.103515625,6.34765625
1.2074999000000002,0.43514615297317505,0.1586158573627472,9.725247383117676,-2.410888671875,-5.615234375,-5.7373046875
1.2124999,0.16819266974925995,0.16759411990642548,9.987412452697754,2.105712890625,4.974365234375,4.486083984375
1.2174999000000002,0.22026655077934265,-0.055665191262960434,9.795876502990723,-1.678466796875,-3.936767578125,-3.662109375
1.2224999,0.2106897532939911,-0.12090718746185303,9.985017776489258,1.64794921875,2.99072265625,2.44140625
1.2274999000000002,-0.05626374110579491,-0.21966800093650818,9.822811126708984,-1.190185546875,-1.953125,-1.28173828125
1.2324999,0.23942017555236816,-0.24779987335205078,9.92097282409668,0.762939453125,0.885009765625,-0.06103515625
1.2374999000000002,-0.1562216579914093,-0.0999579206109047,9.763554573059082,-0.54931640625,0.396728515625,1.251220703125
1.2424999,0.3519476354122162,-0.13287819921970367,9.685144424438477,0.30517578125,-1.129150390625,-2.593994140625
1.2474999000000002,-0.09576806426048279,0.12030863761901855,9.580398559570312,0.335693359375,2.532958984375,3.570556640625
1.2524999,0.5147533416748047,-0.012569558806717396,9.426570892333984,-0.579833984375,-3.143310546875,-4.638671875
1.2574999000000002,-0.06524199992418289,0.1867477297782898,9.482834815979004,1.190185546875,4.150390625,5.55419921875
1.2624999000000001,0.6135141849517822,-0.08259996026754379,9.369110107421875,-1.40380859375,-5.279541015625,-6.4697265625
1.2674999000000002,-0.1364694982767105,0.046088382601737976,9.636063575744629,1.77001953125,5.67626953125,7.080078125
1.2724999000000001,0.5859808921813965,-0.27473464608192444,9.47146224975586,-1.953125,-6.439208984375,-7.568359375
1.2774999000000002,-0.14484919607639313,-0.06344634294509888,9.956287384033203,2.288818359375,6.591796875,7.75146484375
1.2824999000000001,-0.14484919607639313,-0.06344634294509888,9.956287384033203,2.288818359375,6.591796875,7.75146484375
1.2874999,0.4926069974899292,-0.2579752206802368,9.585186958312988,-2.410888671875,-6.77490234375,-7.9345703125
1.2924999000000001,-0.021547814831137657,0.046088382601737976,10.111910820007324,2.349853515625,7.01904296875,7.476806640625
1.2974999,0.4692635238170624,0.005386953707784414,9.63187313079834,-2.44140625,-6.7138671875,-7.476806640625
1.3024999000000002,0.10773907601833344,0.20530278980731964,10.052654266357422,2.593994140625,6.256103515625,6.65283203125
1.3074999,0.47165772318840027,0.11971008777618408,9.68933391571045,-2.349853515625,-6.011962890625,-6.2255859375
1.3124999000000002,0.1693897694349289,0.166995570063591,9.97484302520752,2.349853515625,5.2490234375,5.096435546875
1.3174999,0.30705636739730835,-0.05506663769483566,9.768342971801758,-1.89208984375,-4.39453125,-4.150390625
1.3224999000000002,0.19033902883529663,-0.04967968538403511,9.971850395202637,1.922607421875,3.692626953125,3.173828125
1.3274999,0.002992752008140087,-0.20769700407981873,9.819219589233398,-1.3427734375,-2.410888671875,-1.800537109375
1.3324999000000002,0.23104046285152435,-0.19452889263629913,9.946710586547852,1.28173828125,1.64794921875,0.701904296875
1.3374999,-0.13706804811954498,-0.12928688526153564,9.783307075500488,-0.732421875,-0.274658203125,0.396728515625
1.3424999000000002,0.3363853394985199,-0.12988543510437012,9.75397777557373,0.518798828125,-0.701904296875,-1.953125
1.3474999,-0.09217676520347595,0.06584054976701736,9.610325813293457,0.152587890625,1.922607421875,3.0517578125
1.3524999000000002,0.47584760189056396,-0.018555063754320145,9.486425399780273,-0.335693359375,-2.685546875,-4.180908203125
1.3574999,-0.06823474913835526,0.1454477459192276,9.480440139770508,0.762939453125,3.60107421875,5.096435546875
1.3624999000000002,0.5710170865058899,-0.05985504388809204,9.363123893737793,-1.220703125,-4.669189453125,-6.04248046875
1.3674999,-0.14185644686222076,0.07541735470294952,9.565434455871582,1.40380859375,5.279541015625,6.65283203125
1.3724999000000002,0.5728127360343933,-0.21607670187950134,9.452906608581543,-1.739501953125,-5.9814453125,-7.537841796875
1.3774999,-0.1628057211637497,-0.016759412363171577,9.88745403289795,2.044677734375,6.439208984375,7.598876953125
1.3824999000000002,0.5033808946609497,-0.25677812099456787,9.591172218322754,-2.288818359375,-6.65283203125,-7.965087890625
1.3874999000000001,-0.04189852997660637,0.010773907415568829,10.099940299987793,2.532958984375,6.866455078125,7.598876953125
1.3924999000000002,0.47225627303123474,-0.08200141042470932,9.637260437011719,-2.38037109375,-6.744384765625,-7.62939453125
1.3974999000000001,0.09935937076807022,0.15322890877723694,10.074800491333008,2.532958984375,6.53076171875,6.988525390625
1.4024999000000002,0.48602294921875,0.08200141042470932,9.680954933166504,-2.38037109375,-6.04248046875,-6.622314453125
1.4074999000000001,0.1586158573627472,0.2124854028224945,9.996989250183105,2.38037109375,5.615234375,5.523681640625
1.4124999,0.3495534360408783,0.035913024097681046,9.77013874053955,-1.8310546875,-4.69970703125,-4.69970703125
1.4174999000000001,0.17717093229293823,0.06703764945268631,9.959280967712402,1.861572265625,3.96728515625,3.509521484375
1.4224999,0.05267243832349777,-0.11252748221158981,9.801861763000488,-1.3427734375,-2.838134765625,-2.62451171875
1.4274999000000002,0.23283611238002777,-0.16101007163524628,9.945513725280762,1.28173828125,2.044677734375,1.007080078125
1.4324999,-0.1149216815829277,-0.14185644686222076,9.7791166305542,-0.79345703125,-0.54931640625,0.152587890625
1.4374999000000002,0.32202014327049255,-0.20470423996448517,9.803058624267578,0.457763671875,-0.3662109375,-1.46484375
1.4424999,-0.10474632680416107,0.0011971008498221636,9.64803409576416,0.030517578125,1.373291015625,2.62451171875
1.4474999000000002,0.4429273009300232,-0.09217676520347595,9.546878814697266,-0.335693359375,-2.532958984375,-3.96728515625
1.4524999,-0.08140286058187485,0.1388636976480484,9.487024307250977,0.79345703125,3.41796875,4.913330078125
1.4574999000000002,0.5506663918495178,-0.058059390634298325,9.387664794921875,-1.068115234375,-4.364013671875,-5.92041015625
1.4624999,-0.1322796493768692,0.1430535465478897,9.524134635925293,1.52587890625,5.0048828125,6.561279296875
1.4674999000000002,0.5823895931243896,-0.16340427100658417,9.430161476135254,-1.739501953125,-5.67626953125,-7.293701171875
1.4724999,-0.16160862147808075,0.03172317147254944,9.819818496704102,1.922607421875,6.011962890625,7.476806640625
1.4774999000000002,0.5303156971931458,-0.25977087020874023,9.55585765838623,-2.25830078125,-6.77490234375,-7.965087890625
1.4824999,-0.06584054976701736,-0.023343466222286224,10.06701946258545,2.3193359375,6.4697265625,7.62939453125
1.4874999000000002,0.4704606235027313,-0.16340427100658417,9.622296333312988,-2.38037109375,-6.927490234375,-7.781982421875
1.4924999,0.060453593730926514,0.10175357013940811,10.093356132507324,2.44140625,6.378173828125,7.049560546875
1.4974999000000002,0.45429977774620056,0.043095629662275314,9.678560256958008,-2.38037109375,-6.16455078125,-6.7138671875
1.5024999,0.12090718746185303,0.2346317619085312,10.019734382629395,2.44140625,5.340576171875,5.79833984375
1.5074999000000002,0.35673606395721436,0.07960720360279083,9.77253246307373,-2.01416015625,-5.0048828125,-4.974365234375
1.5124999000000001,0.16998831927776337,0.12629413604736328,9.963470458984375,2.0751953125,4.08935546875,3.692626953125
1.5174999000000002,0.11372458189725876,-0.09935937076807022,9.793481826782227,-1.5869140625,-3.23486328125,-2.74658203125
1.5224999000000001,0.2555810213088989,-0.14664486050605774,9.934141159057617,1.40380859375,2.105712890625,1.434326171875
1.5274999000000002,-0.07781155407428741,-0.18555063009262085,9.768342971801758,-0.823974609375,-1.0986328125,-0.335693359375
1.5324999000000001,0.31783026456832886,-0.21547815203666687,9.805453300476074,0.579833984375,-0.091552734375,-1.312255859375
1.5374999000000003,-0.11013327538967133,-0.03950432687997818,9.656414031982422,-0.06103515625,1.068115234375,2.288818359375
1.5424999000000001,0.4183867573738098,-0.07721300423145294,9.57201862335205,-0.18310546875,-2.25830078125,-3.692626953125
1.5474999,-0.08259996026754379,0.13168109953403473,9.507973670959473,0.6103515625,2.86865234375,4.608154296875
1.5524999000000002,0.5452794432640076,-0.005386953707784414,9.39784049987793,-0.823974609375,-4.08935546875,-5.67626953125
1.5574999,-0.10534487664699554,0.15502455830574036,9.515754699707031,1.251220703125,4.913330078125,6.34765625
1.5624999000000002,0.6045359373092651,-0.11312603205442429,9.418789863586426,-1.495361328125,-5.43212890625,-7.232666015625
1.5674999,-0.12509703636169434,0.012569558806717396,9.764751434326172,1.708984375,6.134033203125,7.476806640625
1.5724999000000002,0.5566518902778625,-0.2537853717803955,9.543288230895996,-1.89208984375,-6.28662109375,-7.843017578125
1.5774999,-0.04908113554120064,-0.076015904545784,10.032901763916016,2.227783203125,6.7138671875,7.6904296875
1.5824999000000002,0.4596867263317108,-0.17657238245010376,9.647436141967773,-1.922607421875,-6.439208984375,-7.598876953125
1.5874999,0.05386953800916672,0.05626374110579491,10.106523513793945,2.3193359375,6.378173828125,6.988525390625
1.5924999000000002,0.42616790533065796,0.058059390634298325,9.75517463684082,-2.105712890625,-5.828857421875,-6.805419921875
1.5974999,0.12389993667602539,0.20889410376548767,10.046070098876953,1.953125,5.55419921875,5.615234375
1.6024999000000002,0.3423708379268646,0.10833762586116791,9.82759952545166,-1.861572265625,-4.669189453125,-4.8828125
1.6074999,0.1885433793067932,0.10175357013940811,9.95748519897461,1.64794921875,3.997802734375,3.60107421875
1.6124999000000002,0.11013327538967133,-0.07661445438861847,9.785101890563965,-1.28173828125,-3.021240234375,-2.593994140625
1.6174999,0.26755204796791077,-0.17238251864910126,9.896432876586914,1.190185546875,2.0751953125,1.251220703125
1.6224999000000002,-0.07781155407428741,-0.17238251864910126,9.740809440612793,-0.579833984375,-1.007080078125,0.152587890625
1.6274999,0.3190273642539978,-0.24480712413787842,9.784503936767578,0.48828125,-0.244140625,-1.03759765625
1.6324999000000002,-0.11192893236875534,-0.03292027488350868,9.65222454071045,-0.152587890625,0.9765625,2.593994140625
1.6374999000000001,0.414795458316803,-0.11252748221158981,9.583989143371582,-0.18310546875,-2.166748046875,-3.7841796875
1.6424999000000002,-0.076015904545784,0.15442600846290588,9.513958930969238,0.67138671875,3.23486328125,4.69970703125
1.6474999000000001,0.5518634915351868,-0.023343466222286224,9.404424667358398,-0.946044921875,-3.90625,-5.767822265625
1.6524999000000002,0.5518634915351868,-0.023343466222286224,9.404424667358398,-0.946044921875,-3.90625,-5.767822265625
1.6574999000000001,-0.08978256583213806,0.1867477297782898,9.496601104736328,1.220703125,4.852294921875,6.591796875
1.6624999000000003,0.6045359373092651,-0.11611878126859665,9.405022621154785,-1.434326171875,-5.523681640625,-7.01904296875
1.6674999000000001,-0.12330138683319092,0.03770867735147476,9.730035781860352,1.8310546875,5.9814453125,7.537841796875
1.6724999,0.5309142470359802,-0.25079262256622314,9.546280860900879,-1.89208984375,-6.16455078125,-7.50732421875
1.6774999000000002,-0.05027823522686958,-0.05386953800916672,10.02691650390625,1.953125,6.378173828125,7.843017578125
1.6824999,0.4315548539161682,-0.16340427100658417,9.717466354370117,-1.983642578125,-6.4697265625,-7.01904296875
1.6874999000000002,0.07062894850969315,0.07182604819536209,10.122086524963379,2.0751953125,6.04248046875,7.26318359375
1.6924999,0.395043283700943,0.046088382601737976,9.873088836669922,-1.556396484375,-5.767822265625,-5.584716796875
1.6974999000000002,0.1472434103488922,0.2172738015651703,10.032303810119629,1.495361328125,5.279541015625,6.103515625
1.7024999,0.2663549482822418,0.09935937076807022,9.87967300415039,-1.251220703125,-4.39453125,-2.838134765625
1.7074999000000002,0.19572599232196808,0.1280897855758667,9.906607627868652,0.885009765625,3.997802734375,4.57763671875
1.7124999,0.03411737456917763,-0.0347159244120121,9.741408348083496,-0.579833984375,-2.99072265625,-0.030517578125
1.7174999000000002,0.25019407272338867,-0.09935937076807022,9.818022727966309,0.18310546875,2.197265625,3.23486328125
1.7224999,-0.09038111567497253,-0.12389993667602539,9.66299819946289,-0.152587890625,-1.15966796875,2.5634765625
1.7274999000000002,0.32022446393966675,-0.1472434103488922,9.70310115814209,0.152587890625,0.152587890625,0.732421875
1.7324999,-0.07721300423145294,-0.04429273307323456,9.59596061706543,0.335693359375,0.9765625,4.547119140625
1.7374999000000002,0.44831427931785583,-0.050876785069704056,9.5624418258667,-0.640869140625,-2.13623046875,-2.593994140625
1.7424999,-0.03651157766580582,0.07062894850969315,9.518747329711914,1.03759765625,3.326416015625,6.134033203125
1.7474999000000002,0.5883750915527344,-0.025737667456269264,9.454702377319336,-1.3427734375,-4.21142578125,-5.401611328125
1.7524999,-0.06165069341659546,0.08738835901021957,9.55825138092041,1.739501953125,4.94384765625,6.622314453125
1.7574999000000002,0.6380547285079956,-0.1412578970193863,9.487024307250977,-1.922607421875,-5.645751953125,-8.148193359375
1.7624999000000001,-0.0867898091673851,-0.028730420395731926,9.80904483795166,2.044677734375,6.134033203125,6.65283203125
1.7674999000000002,0.5722141861915588,-0.2603694200515747,9.609128952026367,-2.13623046875,-6.744384765625,-9.429931640625
1.7724999000000001,-0.038307227194309235,-0.09217676520347595,10.052654266357422,2.349853515625,6.9580078125,6.89697265625
1.7774999000000002,0.46627077460289,-0.18136078119277954,9.693524360656738,-2.197265625,-6.988525390625,-9.002685546875
1.7824999000000001,0.025737667456269264,0.040701430290937424,10.086173057556152,2.25830078125,7.01904296875,6.805419921875
1.7874999000000003,0.4165911078453064,0.021547814831137657,9.768941879272461,-2.0751953125,-6.622314453125,-7.354736328125
1.7924999000000001,0.07661445438861847,0.18495208024978638,10.004770278930664,1.922607421875,6.103515625,6.103515625
1.7974999,0.3280056416988373,0.07062894850969315,9.798869132995605,-1.64794921875,-5.43212890625,-4.791259765625
1.8024999000000002,0.15682020783424377,0.08918401598930359,9.910199165344238,1.5869140625,4.547119140625,4.302978515625
1.8074999,0.10833762586116791,-0.09696517139673233,9.744999885559082,-1.03759765625,-3.662109375,-2.593994140625
1.8124999000000002,0.2621650993824005,-0.16879121959209442,9.867103576660156,0.885009765625,2.5634765625,1.434326171875
1.8174999,-0.06224924325942993,-0.18914192914962769,9.712677955627441,-0.579833984375,-1.251220703125,-0.06103515625
1.8224999000000002,0.32680854201316833,-0.2214636504650116,9.775525093078613,0.1220703125,0.335693359375,-1.251220703125
1.8274999,-0.08858546614646912,-0.047884032130241394,9.625288963317871,0.274658203125,0.79345703125,2.50244140625
1.8324999000000002,0.42197805643081665,-0.06823474913835526,9.589975357055664,-0.3662109375,-1.800537109375,-3.997802734375
1.8374999,-0.076015904545784,0.12988543510437012,9.503185272216797,0.946044921875,3.143310546875,4.5166015625
1.8424999000000002,0.5404910445213318,0.013766659423708916,9.43494987487793,-1.129150390625,-3.753662109375,-6.28662109375
1.8474999,-0.11971008777618408,0.15981295704841614,9.510966300964355,1.312255859375,4.57763671875,6.2255859375
1.8524999000000002,0.5781996846199036,-0.09157821536064148,9.457097053527832,-1.556396484375,-5.462646484375,-7.598876953125
1.8574999,-0.1430535465478897,0.013168109580874443,9.762955665588379,1.64794921875,6.103515625,7.38525390625
1.8624999000000002,0.5183446407318115,-0.23044191300868988,9.596558570861816,-1.8310546875,-6.378173828125,-7.9345703125
1.8674999,-0.05027823522686958,-0.07841010391712189,10.033500671386719,2.166748046875,6.7138671875,7.598876953125
1.8724999000000002,0.44352585077285767,-0.1562216579914093,9.72285270690918,-1.861572265625,-6.53076171875,-7.6904296875
1.8774999,0.07302315533161163,0.038307227194309235,10.102334022521973,2.044677734375,6.317138671875,7.049560546875
1.8824999000000002,0.43694180250167847,0.02214636653661728,9.82999324798584,-1.739501953125,-6.072998046875,-6.561279296875
1.8874999000000001,0.15143325924873352,0.15801730751991272,10.037092208862305,1.739501953125,5.523681640625,5.31005859375
1.8924999000000002,0.34356793761253357,0.04369417950510979,9.84615421295166,-1.40380859375,-4.913330078125,-4.69970703125
1.8974999000000001,0.2124854028224945,0.05506663769483566,9.91977596282959,1.312255859375,4.150390625,3.448486328125
1.9024999000000002,0.09696517139673233,-0.0867898091673851,9.741408348083496,-1.03759765625,-3.082275390625,-2.38037109375
1.9074999000000001,0.2825157940387726,-0.18495208024978638,9.82640266418457,0.640869140625,2.288818359375,0.79345703125
1.9124999000000003,-0.07841010391712189,-0.1430535465478897,9.654618263244629,-0.18310546875,-1.068115234375,0.213623046875
1.9174999000000001,0.33039984107017517,-0.2406172752380371,9.697115898132324,0.091552734375,-0.1220703125,-1.708984375
1.9224999,-0.09696517139673233,-0.016160860657691956,9.556455612182617,0.457763671875,1.312255859375,2.99072265625
1.9274999000000002,0.42018240690231323,-0.10534487664699554,9.53849983215332,-0.6103515625,-2.105712890625,-4.180908203125
1.9324999,-0.07960720360279083,0.14365209639072418,9.47265911102295,1.03759765625,3.23486328125,5.035400390625
1.9374999000000002,0.5363011956214905,-0.030526071786880493,9.44752025604248,-1.251220703125,-4.058837890625,-6.04248046875
1.9424999,-0.12928688526153564,0.166995570063591,9.53849983215332,1.52587890625,4.8828125,6.683349609375
1.9474999000000002,0.5710170865058899,-0.13587094843387604,9.503783226013184,-1.800537109375,-5.645751953125,-7.50732421875
1.9524999,-0.13706804811954498,0.041299980133771896,9.802460670471191,1.983642578125,5.950927734375,7.62939453125
1.9574999000000002,0.5099649429321289,-0.23702596127986908,9.618106842041016,-1.953125,-6.4697265625,-7.965087890625
1.9624999,-0.0293289702385664,-0.02454056777060032,10.02691650390625,2.197265625,6.622314453125,7.6904296875
1.9674999000000002,0.44592007994651794,-0.12689268589019775,9.715670585632324,-1.8310546875,-6.683349609375,-7.62939453125
1.9724999,0.08798690885305405,0.08499415963888168,10.06582260131836,2.044677734375,6.34765625,6.9580078125
1.9774999000000002,0.43993455171585083,0.0293289702385664,9.813833236694336,-1.861572265625,-6.16455078125,-6.561279296875
1.9824999,0.15322890877723694,0.17417816817760468,10.001178741455078,1.678466796875,5.340576171875,5.401611328125
1.9874999000000002,0.3148375153541565,0.02274491637945175,9.827000617980957,-1.40380859375,-4.69970703125,-4.57763671875
1.9924999,0.19871874153614044,0.05446808785200119,9.906607627868652,1.251220703125,4.08935546875,3.173828125
1.9974999000000002,0.050876785069704056,-0.09876082092523575,9.750985145568848,-0.946044921875,-2.86865234375,-2.3193359375
2.0024999,0.26994624733924866,-0.16819266974925995,9.825204849243164,0.67138671875,1.861572265625,0.823974609375
2.0074999,-0.09696517139673233,-0.13168109953403473,9.654618263244629,-0.30517578125,-0.823974609375,0.518798828125
2.0124999000000003,0.3423708379268646,-0.20470423996448517,9.674370765686035,0,-0.18310546875,-1.861572265625
2.0174999000000002,-0.08738835901021957,-0.011971008032560349,9.52473258972168,0.396728515625,1.28173828125,2.99072265625
2.0224999,-0.08738835901021957,-0.011971008032560349,9.52473258972168,0.396728515625,1.28173828125,2.99072265625
2.0274999,0.44532153010368347,-0.08798690885305405,9.494206428527832,-0.6103515625,-2.288818359375,-4.364013671875
2.0324999000000004,-0.07661445438861847,0.11252748221158981,9.445125579833984,1.03759765625,3.35693359375,5.18798828125
2.0374999000000003,0.5482721924781799,-0.04189852997660637,9.421782493591309,-1.190185546875,-4.364013671875,-6.317138671875
2.0424999,-0.14245499670505524,0.11671733111143112,9.547477722167969,1.40380859375,4.913330078125,6.683349609375
2.0474999,0.5626373887062073,-0.14425064623355865,9.516951560974121,-1.708984375,-5.67626953125,-7.568359375
2.0524999,-0.152031809091568,0.005985504016280174,9.849745750427246,2.044677734375,6.28662109375,7.75146484375
2.0574999000000003,0.4944026470184326,-0.2190694510936737,9.64564037322998,-1.861572265625,-6.53076171875,-8.056640625
2.0624999,-0.03172317147254944,-0.02693476900458336,10.056844711303711,2.044677734375,6.622314453125,7.904052734375
2.0674999,0.4507084786891937,-0.09696517139673233,9.731232643127441,-1.983642578125,-6.744384765625,-7.6904296875
2.0724999,0.11013327538967133,0.08259996026754379,10.059837341308594,1.861572265625,5.9814453125,6.7138671875
2.0774999000000003,0.4572925269603729,0.030526071786880493,9.803657531738281,-1.77001953125,-5.950927734375,-6.439208984375
2.0824999,0.1867477297782898,0.1346738487482071,9.980229377746582,1.678466796875,5.340576171875,5.126953125
2.0874999,0.30526071786880493,-0.004189853090792894,9.81263542175293,-1.3427734375,-4.33349609375,-4.302978515625
2.0924999,0.22026655077934265,-0.0011971008498221636,9.909601211547852,1.0986328125,3.692626953125,3.082275390625
2.0974999000000003,0.02513911761343479,-0.09576806426048279,9.763554573059082,-0.823974609375,-2.74658203125,-2.044677734375
2.1024999,0.284311443567276,-0.18315643072128296,9.847352027893066,0.6103515625,1.617431640625,0.30517578125
2.1074999,-0.10594342648983002,-0.0802057534456253,9.675567626953125,-0.030517578125,-0.335693359375,1.007080078125
2.1124999,0.3693056106567383,-0.1951274424791336,9.676764488220215,-0.18310546875,-0.579833984375,-2.227783203125
2.1174999000000003,-0.0736217051744461,0.03531447425484657,9.537900924682617,0.579833984375,1.678466796875,3.387451171875
2.1224999,0.4812345504760742,-0.0975637212395668,9.492411613464355,-0.8544921875,-2.685546875,-4.669189453125
2.1274999,-0.05925649031996727,0.11791443079710007,9.448118209838867,1.312255859375,3.509521484375,5.615234375
2.1324999,0.5632359385490417,-0.08798690885305405,9.436147689819336,-1.434326171875,-4.638671875,-6.40869140625
2.1374999000000003,-0.14484919607639313,0.08918401598930359,9.569025993347168,1.678466796875,5.2490234375,6.9580078125
2.1424999000000002,0.545877993106842,-0.19632454216480255,9.552266120910645,-1.89208984375,-5.7373046875,-7.87353515625
2.1474999,-0.14604631066322327,0.013766659423708916,9.899425506591797,1.861572265625,6.28662109375,7.781982421875
2.1524999,0.46746787428855896,-0.19033902883529663,9.713275909423828,-2.01416015625,-6.591796875,-8.209228515625
2.1574999000000004,-0.004788403399288654,0.04728548228740692,10.084976196289062,2.105712890625,6.439208984375,7.50732421875
2.1624999000000003,0.44532153010368347,-0.01735796220600605,9.800664901733398,-1.922607421875,-6.317138671875,-7.4462890625
2.1674999,0.14065934717655182,0.13287819921970367,10.046070098876953,2.01416015625,6.256103515625,6.744384765625
2.1724999,0.44771572947502136,0.031124621629714966,9.820416450500488,-1.52587890625,-5.7373046875,-6.04248046875
2.1774999000000004,0.2064998894929886,0.08858546614646912,9.932944297790527,1.40380859375,4.82177734375,5.035400390625
2.1824999000000003,0.24899697303771973,-0.07781155407428741,9.774927139282227,-1.190185546875,-4.241943359375,-3.875732421875
2.1874999,0.21547815203666687,-0.07960720360279083,9.861717224121094,1.15966796875,3.326416015625,2.62451171875
2.1924999,-0.03232172131538391,-0.13347674906253815,9.747992515563965,-0.701904296875,-2.3193359375,-1.617431640625
2.1974999,0.2693476974964142,-0.18614917993545532,9.82999324798584,0.30517578125,1.190185546875,-0.091552734375
2.2024999000000003,-0.12509703636169434,-0.04668693244457245,9.691728591918945,0.030517578125,-0.1220703125,1.068115234375
2.2074999,0.3800795078277588,-0.13108254969120026,9.658209800720215,-0.3662109375,-0.79345703125,-2.74658203125
2.2124999,-0.06823474913835526,0.0867898091673851,9.534908294677734,0.6103515625,2.105712890625,3.631591796875
2.2174999,0.5129576921463013,-0.04908113554120064,9.44752025604248,-0.9765625,-2.8076171875,-5.126953125
2.2224999000000003,-0.05446808785200119,0.1256955862045288,9.428964614868164,1.129150390625,3.875732421875,5.645751953125
2.2274999,0.5871779918670654,-0.09397241473197937,9.41519832611084,-1.5869140625,-4.852294921875,-6.77490234375
2.2324999,-0.1472434103488922,0.047884032130241394,9.587580680847168,1.861572265625,5.43212890625,7.354736328125
2.2374999,0.5422866940498352,-0.21188685297966003,9.561842918395996,-1.89208984375,-5.950927734375,-7.9345703125
2.2424999000000003,-0.1496376097202301,-0.017956512048840523,9.952696800231934,1.8310546875,6.439208984375,7.781982421875
2.2474999,0.4471171796321869,-0.1628057211637497,9.737217903137207,-2.0751953125,-6.622314453125,-8.1787109375
2.2524999,-0.008978256024420261,0.05027823522686958,10.119093894958496,1.983642578125,6.561279296875,7.32421875
2.2574999,0.44173020124435425,0.03711012750864029,9.824007987976074,-1.922607421875,-6.256103515625,-7.4462890625
2.2624999000000003,0.14245499670505524,0.1346738487482071,10.040084838867188,1.89208984375,6.103515625,6.34765625
2.2674999000000002,0.44352585077285767,0.06224924325942993,9.817423820495605,-1.495361328125,-5.4931640625,-5.9814453125
2.2724999,0.22266076505184174,0.048482585698366165,9.910199165344238,1.5869140625,4.669189453125,4.57763671875
2.2774999,0.22505496442317963,-0.0933738648891449,9.758766174316406,-1.0986328125,-3.875732421875,-3.7841796875
2.2824999000000004,0.23523031175136566,-0.15322890877723694,9.848548889160156,0.885009765625,3.0517578125,2.25830078125
2.2874999000000003,-0.060453593730926514,-0.14484919607639313,9.740211486816406,-0.457763671875,-2.0751953125,-1.251220703125
2.2924999,0.25737667083740234,-0.2124854028224945,9.799467086791992,0.152587890625,0.91552734375,-0.274658203125
2.2974999,-0.14664486050605774,-0.002992752008140087,9.677363395690918,0.06103515625,0,1.3427734375
2.3024999000000004,0.3711012601852417,-0.10654197633266449,9.616311073303223,-0.42724609375,-1.15966796875,-2.8076171875
2.3074999000000003,-0.07781155407428741,0.16160862147808075,9.520543098449707,0.91552734375,2.25830078125,3.96728515625
2.3124999,0.5374982953071594,-0.03292027488350868,9.409213066101074,-1.190185546875,-3.265380859375,-5.18798828125
2.3174999,-0.055665191262960434,0.17417816817760468,9.420584678649902,1.5869140625,4.119873046875,5.92041015625
2.3224999,0.6117185354232788,-0.11851298063993454,9.3828763961792,-1.678466796875,-5.157470703125,-7.049560546875
2.3274999000000003,-0.1346738487482071,0.026336219161748886,9.604938507080078,1.861572265625,5.584716796875,7.2021484375
2.3324999,0.545877993106842,-0.2687491476535797,9.543886184692383,-2.044677734375,-6.072998046875,-7.8125
2.3374999,-0.1346738487482071,-0.061052143573760986,9.99100399017334,2.13623046875,6.378173828125,7.904052734375
2.3424999,0.44173020124435425,-0.19572599232196808,9.734225273132324,-2.288818359375,-6.65283203125,-8.11767578125
2.3474999000000003,-0.005985504016280174,0.06883329898118973,10.143633842468262,2.13623046875,6.744384765625,7.62939453125
2.3524999,0.44532153010368347,0.05925649031996727,9.833584785461426,-2.044677734375,-6.34765625,-7.232666015625
2.3574999,0.14425064623355865,0.2017114907503128,10.02691650390625,2.0751953125,5.706787109375,6.16455078125
2.3624999,0.4381389021873474,0.09457096457481384,9.797073364257812,-1.678466796875,-5.218505859375,-5.645751953125
2.3674999000000003,0.23822307586669922,0.07661445438861847,9.86111831665039,1.434326171875,4.8828125,4.364013671875
2.3724999,0.20530278980731964,-0.10893617570400238,9.707290649414062,-1.129150390625,-3.60107421875,-3.326416015625
2.3774999,0.26755204796791077,-0.19273324310779572,9.803058624267578,0.8544921875,2.655029296875,1.800537109375
2.3824999,-0.06703764945268631,-0.18914192914962769,9.706692695617676,-0.3662109375,-1.64794921875,-0.823974609375
2.3874999000000003,0.272938996553421,-0.24660277366638184,9.771934509277344,0.1220703125,0.518798828125,-0.762939453125
2.3924999000000002,0.272938996553421,-0.24660277366638184,9.771934509277344,0.1220703125,0.518798828125,-0.762939453125
2.3974999,-0.14784196019172668,-0.033518824726343155,9.668384552001953,0.18310546875,0.54931640625,2.01416015625
2.4024999,0.375291109085083,-0.09636662155389786,9.607333183288574,-0.457763671875,-1.617431640625,-3.35693359375
2.4074999000000004,-0.09397241473197937,0.15682020783424377,9.528923034667969,1.03759765625,2.685546875,4.33349609375
2.4124999000000003,0.545877993106842,-0.010175357572734356,9.404424667358398,-1.220703125,-3.5400390625,-5.4931640625
2.4174999,-0.08080431073904037,0.19033902883529663,9.441534042358398,1.46484375,4.486083984375,6.134033203125
2.4224999,0.6129156351089478,-0.11851298063993454,9.370905876159668,-1.77001953125,-5.279541015625,-7.2021484375
2.4274999000000004,-0.12988543510437012,0.031124621629714966,9.64564037322998,2.01416015625,5.889892578125,7.4462890625
2.4324999000000003,0.5315127968788147,-0.2777273952960968,9.530119895935059,-2.13623046875,-6.195068359375,-8.026123046875
2.4374999,-0.09816227108240128,-0.0694318488240242,10.012551307678223,2.3193359375,6.34765625,7.904052734375
2.4424999,0.424970805644989,-0.19273324310779572,9.736021041870117,-2.25830078125,-6.744384765625,-8.026123046875
2.4474999,0.01735796220600605,0.07122749835252762,10.159794807434082,2.166748046875,6.561279296875,7.293701171875
2.4524999000000003,0.4339490532875061,0.03950432687997818,9.874884605407715,-2.166748046875,-6.195068359375,-6.77490234375
2.4574999,0.13946224749088287,0.21128830313682556,10.061633110046387,1.922607421875,5.645751953125,6.011962890625
2.4624999,0.38726213574409485,0.06763619929552078,9.85034465789795,-1.617431640625,-5.035400390625,-5.37109375
2.4674999,0.22744916379451752,0.08379705995321274,9.879075050354004,1.617431640625,4.39453125,3.997802734375
2.4724999000000003,0.14185644686222076,-0.11671733111143112,9.706692695617676,-1.15966796875,-3.448486328125,-2.960205078125
2.4774999,0.2795230448246002,-0.18974047899246216,9.771934509277344,0.91552734375,2.410888671875,1.373291015625
2.4824999,-0.08200141042470932,-0.19632454216480255,9.650428771972656,-0.274658203125,-1.190185546875,-0.30517578125
2.4874999,0.30226796865463257,-0.23403321206569672,9.691129684448242,0.06103515625,0.274658203125,-1.312255859375
2.4924999000000003,-0.12868833541870117,-0.04489128291606903,9.598953247070312,0.213623046875,0.732421875,2.349853515625
2.4974999,0.3992331326007843,-0.07481880486011505,9.548674583435059,-0.701904296875,-2.13623046875,-3.84521484375
2.5024999,-0.09696517139673233,0.14425064623355865,9.501389503479004,0.946044921875,3.082275390625,4.791259765625
2.5074999,0.5500678420066833,0.0035913025494664907,9.426570892333984,-1.312255859375,-3.936767578125,-5.889892578125
2.5124999000000003,-0.11671733111143112,0.17537526786327362,9.52353572845459,1.52587890625,4.7607421875,6.7138671875
2.5174999000000002,0.608127236366272,-0.1041477769613266,9.453505516052246,-1.922607421875,-5.767822265625,-7.62939453125
2.5224999,-0.11911153793334961,0.03172317147254944,9.776124000549316,2.044677734375,6.103515625,7.537841796875
2.5274999,0.5464765429496765,-0.22026655077934265,9.589975357055664,-2.105712890625,-6.4697265625,-8.209228515625
2.5324999000000004,-0.02513911761343479,-0.05386953800916672,10.047266960144043,2.227783203125,6.4697265625,7.904052734375
2.5374999000000003,0.46567222476005554,-0.12509703636169434,9.729436874389648,-2.227783203125,-6.561279296875,-7.843017578125
2.5424999,0.08379705995321274,0.050876785069704056,10.105326652526855,2.044677734375,6.4697265625,6.89697265625
2.5474999,0.4489128291606903,0.03411737456917763,9.834183692932129,-1.983642578125,-6.103515625,-6.805419921875
2.5524999000000004,0.1538274586200714,0.1472434103488922,10.020931243896484,1.708984375,5.37109375,5.43212890625
2.5574999000000003,0.31842881441116333,0.04429273307323456,9.837775230407715,-1.434326171875,-4.638671875,-4.69970703125
2.5624999,0.20889410376548767,0.03531447425484657,9.90361499786377,1.373291015625,3.90625,3.326416015625
2.5674999,0.05027823522686958,-0.05985504388809204,9.743204116821289,-0.823974609375,-2.86865234375,-2.25830078125
2.5724999,0.284311443567276,-0.18315643072128296,9.78869342803955,0.579833984375,1.77001953125,0.762939453125
2.5774999000000003,-0.09696517139673233,-0.08140286058187485,9.635464668273926,-0.091552734375,-0.701904296875,0.335693359375
2.5824999,0.363918662071228,-0.21128830313682556,9.624092102050781,-0.335693359375,-0.30517578125,-1.983642578125
2.5874999,-0.08140286058187485,0.035913024097681046,9.525331497192383,0.54931640625,1.556396484375,3.021240234375
2.5924999,0.46986207365989685,-0.1041477769613266,9.475651741027832,-0.8544921875,-2.44140625,-4.57763671875
2.5974999000000003,-0.08140286058187485,0.13527239859104156,9.457097053527832,1.251220703125,3.753662109375,5.279541015625
2.6024999,0.5548562407493591,-0.09457096457481384,9.435548782348633,-1.52587890625,-4.486083984375,-6.683349609375
2.6074999,-0.17298106849193573,0.11133038252592087,9.582193374633789,1.8310546875,5.2490234375,6.77490234375
2.6124999,0.5476736426353455,-0.2017114907503128,9.534309387207031,-2.13623046875,-5.706787109375,-7.6904296875
2.6174999000000003,-0.1711854189634323,0.0293289702385664,9.896432876586914,2.3193359375,6.378173828125,7.720947265625
2.6224999,0.4866214990615845,-0.20949265360832214,9.657610893249512,-2.166748046875,-6.65283203125,-8.270263671875
2.6274999,-0.020350715145468712,0.040701430290937424,10.071807861328125,2.50244140625,6.744384765625,7.75146484375
2.6324999,0.4704606235027313,-0.041299980133771896,9.725247383117676,-2.166748046875,-6.500244140625,-7.598876953125
2.6374999000000003,0.13407529890537262,0.13168109953403473,10.041281700134277,2.38037109375,6.256103515625,6.927490234375
2.6424999000000002,0.4800374507904053,0.03411737456917763,9.785700798034668,-1.922607421875,-5.859375,-6.28662109375
2.6474999,0.20111294090747833,0.12090718746185303,9.95329475402832,1.983642578125,5.126953125,5.218505859375
2.6524999,0.2890998423099518,-0.06344634294509888,9.793481826782227,-1.40380859375,-4.364013671875,-4.39453125
2.6574999000000004,0.21128830313682556,-0.03890577703714371,9.889848709106445,1.190185546875,3.570556640625,2.777099609375
2.6624999000000003,-0.01735796220600605,-0.13587094843387604,9.77253246307373,-0.823974609375,-2.5634765625,-1.953125
2.6674999,0.26096799969673157,-0.16579847037792206,9.821614265441895,0.701904296875,1.434326171875,0.152587890625
2.6724999,-0.13407529890537262,-0.06165069341659546,9.695918083190918,-0.030517578125,-0.06103515625,1.0986328125
2.6774999000000004,0.3728969097137451,-0.12270283699035645,9.61212158203125,-0.1220703125,-0.823974609375,-2.38037109375
2.6824999000000003,-0.07900865375995636,0.076015904545784,9.518148422241211,0.6103515625,1.953125,3.509521484375
2.6874999,0.5159504413604736,-0.035913024097681046,9.394847869873047,-0.8544921875,-2.99072265625,-4.852294921875
2.6924999,-0.06404489278793335,0.1215057373046875,9.412205696105957,1.40380859375,3.997802734375,5.7373046875
2.6974999,0.5949591398239136,-0.09038111567497253,9.366715431213379,-1.556396484375,-4.94384765625,-6.8359375
2.7024999000000003,-0.15801730751991272,0.020949264988303185,9.589975357055664,1.861572265625,5.584716796875,6.927490234375
2.7074999,0.5428852438926697,-0.23942017555236816,9.52473258972168,-1.983642578125,-5.92041015625,-8.026123046875
2.7124999,-0.16160862147808075,-0.05925649031996727,9.967659950256348,2.166748046875,6.40869140625,7.75146484375
2.7174999,0.4495113790035248,-0.19393034279346466,9.70429801940918,-2.227783203125,-6.65283203125,-8.270263671875
2.7224999000000003,-0.015562310814857483,0.03950432687997818,10.124480247497559,2.288818359375,6.8359375,7.62939453125
2.7274999,0.4507084786891937,0.0520738884806633,9.776124000549316,-2.0751953125,-6.40869140625,-7.476806640625
2.7324999,0.14245499670505524,0.16579847037792206,10.017938613891602,2.166748046875,5.92041015625,6.4697265625
2.7374999,0.4554968774318695,0.10354922711849213,9.766547203063965,-1.64794921875,-5.55419921875,-5.889892578125
2.7424999000000003,0.23044191300868988,0.07721300423145294,9.882665634155273,1.64794921875,4.82177734375,4.608154296875
2.7474999,0.2346317619085312,-0.0802057534456253,9.733627319335938,-1.251220703125,-3.84521484375,-3.753662109375
2.7524999,0.24839842319488525,-0.1604115068912506,9.84376049041748,1.0986328125,2.9296875,2.410888671875
2.7574999,-0.061052143573760986,-0.15801730751991272,9.746196746826172,-0.518798828125,-1.861572265625,-1.03759765625
2.7624999000000003,-0.061052143573760986,-0.15801730751991272,9.746196746826172,-0.518798828125,-1.861572265625,-1.03759765625
2.7674999000000002,0.26156654953956604,-0.23044191300868988,9.808445930480957,0.3662109375,0.885009765625,-0.457763671875
2.7724999,-0.15741875767707825,-0.014365210197865963,9.693524360656738,0.244140625,0.274658203125,1.434326171875
2.7774999,0.3669114112854004,-0.10953472554683685,9.61212158203125,-0.396728515625,-1.46484375,-3.143310546875
2.7824999000000004,-0.09816227108240128,0.16579847037792206,9.525331497192383,0.946044921875,2.410888671875,4.08935546875
2.7874999000000003,0.5267243981361389,-0.0293289702385664,9.38167953491211,-1.251220703125,-3.35693359375,-5.279541015625
2.7924999,-0.08200141042470932,0.19273324310779572,9.413402557373047,1.434326171875,4.547119140625,6.103515625
2.7974999,0.5985504388809204,-0.12509703636169434,9.354146003723145,-1.861572265625,-5.218505859375,-7.110595703125
2.8024999000000004,-0.14664486050605774,0.03651157766580582,9.61571216583252,2.044677734375,5.706787109375,7.354736328125
2.8074999000000003,0.536899745464325,-0.2968810200691223,9.525331497192383,-2.166748046875,-6.28662109375,-8.056640625
2.8124999,-0.11851298063993454,-0.07003039866685867,10.012551307678223,2.288818359375,6.622314453125,7.904052734375
2.8174999,0.4381389021873474,-0.228047713637352,9.732429504394531,-2.38037109375,-6.7138671875,-7.904052734375
2.8224999,0.0071826050989329815,0.07182604819536209,10.169371604919434,2.410888671875,6.65283203125,7.4462890625
2.8274999000000003,0.4423287510871887,0.03651157766580582,9.852140426635742,-2.105712890625,-6.40869140625,-7.080078125
2.8324999,0.13587094843387604,0.22924481332302094,10.049661636352539,2.3193359375,5.828857421875,6.103515625
2.8374999,0.41359832882881165,0.08559270948171616,9.81143856048584,-1.800537109375,-5.340576171875,-5.462646484375
2.8424999,0.22924481332302094,0.10714052617549896,9.86231517791748,1.64794921875,4.547119140625,4.180908203125
2.8474999000000003,0.17298106849193573,-0.1173158809542656,9.692327499389648,-1.28173828125,-3.326416015625,-3.082275390625
2.8524999,0.27054479718208313,-0.17477671802043915,9.780313491821289,1.007080078125,2.50244140625,1.52587890625
2.8574999,-0.08140286058187485,-0.21188685297966003,9.670180320739746,-0.579833984375,-1.434326171875,-0.6103515625
2.8624999,0.27712884545326233,-0.22864626348018646,9.715071678161621,0.244140625,0.54931640625,-0.91552734375
2.8674999000000003,-0.14844051003456116,-0.05506663769483566,9.622895240783691,0.091552734375,0.701904296875,2.0751953125
2.8724999,0.38127660751342773,-0.06703764945268631,9.55825138092041,-0.396728515625,-1.77001953125,-3.570556640625
2.8774999,-0.09816227108240128,0.14065934717655182,9.516951560974121,0.885009765625,3.082275390625,4.669189453125
2.8824999,0.5506663918495178,0.01735796220600605,9.411606788635254,-1.251220703125,-3.814697265625,-5.79833984375
2.8874999000000003,-0.0975637212395668,0.16579847037792206,9.495404243469238,1.556396484375,4.669189453125,6.378173828125
2.8924999000000002,0.6153098344802856,-0.09816227108240128,9.402029991149902,-1.678466796875,-5.55419921875,-7.537841796875
2.8974999,-0.12509703636169434,0.0005985504249110818,9.714473724365234,2.044677734375,5.950927734375,7.568359375
2.9024999,0.5428852438926697,-0.24899697303771973,9.53849983215332,-2.13623046875,-6.317138671875,-7.965087890625
2.9074999000000004,-0.0586579404771328,-0.0975637212395668,10.023923873901367,2.3193359375,6.28662109375,7.720947265625
2.9124999000000003,0.45190557837486267,-0.16220717132091522,9.709086418151855,-2.227783203125,-6.591796875,-7.904052734375
2.9174999,0.05686229094862938,0.03711012750864029,10.127472877502441,2.044677734375,6.622314453125,7.14111328125
2.9224999,0.4381389021873474,0.04967968538403511,9.844358444213867,-1.922607421875,-6.072998046875,-6.7138671875
2.9274999000000004,0.1430535465478897,0.17058686912059784,10.050858497619629,1.89208984375,5.37109375,5.55419921875
2.9324999000000003,0.32680854201316833,0.07721300423145294,9.855133056640625,-1.5869140625,-4.69970703125,-4.974365234375
2.9374999,0.20470423996448517,0.04908113554120064,9.912593841552734,1.3427734375,4.08935546875,3.448486328125
2.9424999,0.0694318488240242,-0.06883329898118973,9.742605209350586,-0.823974609375,-2.99072265625,-2.410888671875
2.9474999,0.28371289372444153,-0.20051439106464386,9.786897659301758,0.732421875,1.861572265625,0.946044921875
2.9524999000000003,-0.08918401598930359,-0.11671733111143112,9.639654159545898,-0.30517578125,-0.762939453125,0.091552734375
2.9574999,0.3555389642715454,-0.23762452602386475,9.642048835754395,-0.1220703125,-0.335693359375,-1.8310546875
2.9624999,-0.08798690885305405,0.0077811554074287415,9.5408935546875,0.518798828125,1.46484375,2.899169921875
2.9674999,0.4531026780605316,-0.1107318252325058,9.493608474731445,-0.885009765625,-2.3193359375,-4.364013671875
2.9724999000000003,-0.08499415963888168,0.13527239859104156,9.465476036071777,1.220703125,3.35693359375,5.157470703125
2.9774999,0.5482721924781799,-0.07302315533161163,9.424176216125488,-1.556396484375,-4.302978515625,-6.317138671875
2.9824999,-0.16340427100658417,0.1412578970193863,9.55825138092041,1.708984375,5.279541015625,6.8359375
2.9874999,0.5506663918495178,-0.17956513166427612,9.498994827270508,-2.105712890625,-5.767822265625,-7.75146484375
2.9924999000000003,-0.16998831927776337,0.03292027488350868,9.853935241699219,2.349853515625,6.16455078125,7.75146484375
2.9974999,0.48901569843292236,-0.23942017555236816,9.61451530456543,-2.288818359375,-6.53076171875,-8.148193359375
3.0024999,-0.0293289702385664,-0.002394201699644327,10.038887977600098,2.410888671875,6.683349609375,7.62939453125
3.0074999,0.46627077460289,-0.09457096457481384,9.68694019317627,-2.3193359375,-6.622314453125,-7.87353515625
3.0124999000000003,0.11911153793334961,0.09397241473197937,10.025120735168457,2.349853515625,6.317138671875,6.7138671875
3.0174999000000002,0.4728548228740692,0.010773907415568829,9.767744064331055,-2.01416015625,-5.859375,-6.53076171875
3.0224999,0.19273324310779572,0.10654197633266449,9.956287384033203,1.8310546875,5.18798828125,5.035400390625
3.0274999,0.2885012924671173,-0.07062894850969315,9.800065994262695,-1.708984375,-4.241943359375,-4.33349609375
3.0324999000000004,0.21128830313682556,-0.040701430290937424,9.904812812805176,1.312255859375,3.570556640625,2.716064453125
3.0374999000000003,-0.02274491637945175,-0.13407529890537262,9.79288387298584,-0.91552734375,-2.532958984375,-1.678466796875
3.0424999,0.24779987335205078,-0.16340427100658417,9.840168952941895,0.67138671875,1.28173828125,0.152587890625
3.0474999,-0.14903905987739563,-0.05746084079146385,9.712677955627441,-0.1220703125,-0.274658203125,1.007080078125
3.0524999000000004,0.35733461380004883,-0.12509703636169434,9.616311073303223,-0.030517578125,-0.946044921875,-2.410888671875
3.0574999000000003,-0.08319851011037827,0.08200141042470932,9.509170532226562,0.579833984375,1.922607421875,3.60107421875
3.0624999,0.5141547918319702,-0.04010287672281265,9.384073257446289,-1.03759765625,-2.99072265625,-4.8828125
3.0674999,-0.055665191262960434,0.1346738487482071,9.403825759887695,1.251220703125,3.96728515625,5.9814453125
3.0724999000000004,0.6003460884094238,-0.09816227108240128,9.369110107421875,-1.46484375,-4.913330078125,-6.866455078125
3.0774999000000003,-0.14065934717655182,0.03531447425484657,9.607931137084961,2.044677734375,5.401611328125,7.232666015625
3.0824999,0.5434837937355042,-0.24660277366638184,9.539097785949707,-2.197265625,-6.134033203125,-7.843017578125
3.0874999,-0.1364694982767105,-0.046088382601737976,9.99100399017334,2.166748046875,6.439208984375,7.781982421875
3.0924999,0.4405331015586853,-0.19812019169330597,9.724050521850586,-2.25830078125,-6.561279296875,-8.026123046875
3.0974999000000003,0.0005985504249110818,0.06823474913835526,10.141838073730469,2.197265625,6.77490234375,7.568359375
3.1024999,0.444722980260849,0.04967968538403511,9.81024169921875,-2.288818359375,-6.378173828125,-7.32421875
3.1074999,0.1454477459192276,0.20769700407981873,10.01075553894043,2.227783203125,5.92041015625,6.2255859375
3.1124999,0.44173020124435425,0.09876082092523575,9.765948295593262,-1.800537109375,-5.06591796875,-5.55419921875
3.1174999000000003,0.2406172752380371,0.09277531504631042,9.85034465789795,1.64794921875,4.57763671875,4.241943359375
3.1224999,0.20769700407981873,-0.11192893236875534,9.690531730651855,-1.312255859375,-3.448486328125,-3.509521484375
3.1274999,0.2651578485965729,-0.18495208024978638,9.803058624267578,1.068115234375,2.777099609375,1.708984375
3.1324999,0.2651578485965729,-0.18495208024978638,9.803058624267578,1.068115234375,2.777099609375,1.708984375
3.1374999000000003,-0.07481880486011505,-0.2059013396501541,9.709086418151855,-0.640869140625,-1.678466796875,-0.91552734375
3.1424999000000002,0.26755204796791077,-0.24001872539520264,9.765350341796875,0.244140625,0.6103515625,-1.03759765625
3.1474999,-0.15562310814857483,-0.038307227194309235,9.66539192199707,0.152587890625,0.732421875,1.922607421875
3.1524999,0.3705027103424072,-0.08319851011037827,9.594164848327637,-0.518798828125,-1.64794921875,-3.631591796875
3.1574999000000004,-0.10534487664699554,0.16879121959209442,9.520543098449707,0.885009765625,2.86865234375,4.33349609375
3.1624999000000003,0.5380968451499939,0.004788403399288654,9.39784049987793,-1.220703125,-3.72314453125,-5.706787109375
3.1674999,-0.09876082092523575,0.19931729137897491,9.453505516052246,1.617431640625,4.852294921875,6.4697265625
3.1724999,0.608127236366272,-0.10773907601833344,9.364919662475586,-1.8310546875,-5.401611328125,-7.26318359375
3.1774999000000004,-0.1256955862045288,0.03770867735147476,9.671976089477539,2.0751953125,5.859375,7.537841796875
3.1824999000000003,0.5416881442070007,-0.25917232036590576,9.520543098449707,-2.288818359375,-6.378173828125,-8.11767578125
3.1874999,-0.055665191262960434,-0.06763619929552078,10.014945983886719,2.3193359375,6.561279296875,7.62939453125
3.1924999,0.45489832758903503,-0.1825578808784485,9.716867446899414,-2.288818359375,-6.317138671875,-7.8125
3.1974999000000004,0.06165069341659546,0.058059390634298325,10.144830703735352,2.44140625,6.378173828125,7.049560546875
3.2024999000000003,0.44352585077285767,0.019153613597154617,9.86231517791748,-2.0751953125,-6.195068359375,-6.866455078125
3.2074999,0.1412578970193863,0.19213469326496124,10.06582260131836,2.0751953125,5.615234375,5.55419921875
3.2124999,0.32441434264183044,0.050876785069704056,9.853337287902832,-1.64794921875,-4.7607421875,-4.730224609375
3.2174999,0.1999158412218094,0.07661445438861847,9.901819229125977,1.5869140625,3.90625,3.448486328125
3.2224999000000003,0.05506663769483566,-0.08738835901021957,9.726444244384766,-1.129150390625,-2.838134765625,-2.227783203125
3.2274999,0.27054479718208313,-0.166995570063591,9.75936508178711,0.79345703125,1.922607421875,0.762939453125
3.2324999,-0.10534487664699554,-0.12928688526153564,9.616311073303223,-0.30517578125,-0.67138671875,0.335693359375
3.2374999,0.34656068682670593,-0.21009120345115662,9.604340553283691,0.030517578125,-0.18310546875,-1.922607421875
3.2424999000000003,-0.0933738648891449,-0.0065840547904372215,9.510966300964355,0.42724609375,1.5869140625,2.960205078125
3.2474999,0.4644751250743866,-0.0975637212395668,9.457695007324219,-0.701904296875,-2.777099609375,-4.5166015625
3.2524999,-0.08259996026754379,0.11552023142576218,9.454702377319336,1.312255859375,3.662109375,5.279541015625
3.2574999,0.5596446394920349,-0.07721300423145294,9.419387817382812,-1.495361328125,-4.547119140625,-6.53076171875
3.2624999000000003,-0.16340427100658417,0.09516951441764832,9.588777542114258,1.800537109375,5.157470703125,6.683349609375
3.2674999000000002,0.5428852438926697,-0.19393034279346466,9.527127265930176,-2.105712890625,-5.889892578125,-7.598876953125
3.2724999,-0.1646013706922531,0.011372458189725876,9.907805442810059,2.166748046875,6.16455078125,7.843017578125
3.2774999,0.4704606235027313,-0.2017114907503128,9.657610893249512,-2.288818359375,-6.683349609375,-8.1787109375
3.2824999000000004,-0.01735796220600605,0.05147533491253853,10.06582260131836,2.349853515625,6.561279296875,7.659912109375
3.2874999000000003,0.46327802538871765,-0.008978256024420261,9.717466354370117,-2.38037109375,-6.622314453125,-7.476806640625
3.2924999,0.1430535465478897,0.15801730751991272,10.004171371459961,2.25830078125,6.2255859375,6.591796875
3.2974999,0.47405192255973816,0.046088382601737976,9.764751434326172,-2.0751953125,-5.584716796875,-6.2255859375
3.3024999000000004,0.22266076505184174,0.09397241473197937,9.913790702819824,1.8310546875,5.126953125,4.791259765625
3.3074999000000003,0.2537853717803955,-0.1149216815829277,9.762955665588379,-1.28173828125,-4.058837890625,-3.875732421875
3.3124999,0.22924481332302094,-0.11971008777618408,9.86650562286377,1.28173828125,3.11279296875,2.3193359375
3.3174999,-0.060453593730926514,-0.18974047899246216,9.758766174316406,-0.67138671875,-1.922607421875,-1.251220703125
3.3224999000000004,0.2472013235092163,-0.1933317929506302,9.815030097961426,0.54931640625,1.007080078125,-0.30517578125
3.3274999000000003,-0.15741875767707825,-0.048482585698366165,9.697713851928711,0.030517578125,0.244140625,1.678466796875
3.3324999,0.3728969097137451,-0.08379705995321274,9.599552154541016,-0.244140625,-1.373291015625,-3.0517578125
3.3374999,-0.07900865375995636,0.13407529890537262,9.511565208435059,0.762939453125,2.532958984375,4.2724609375
3.3424999,0.5536591410636902,-0.0035913025494664907,9.352949142456055,-1.190185546875,-3.60107421875,-5.37109375
3.3474999000000003,-0.05686229094862938,0.166995570063591,9.396642684936523,1.46484375,4.2724609375,6.134033203125
3.3524999,0.6224924325942993,-0.10534487664699554,9.336189270019531,-1.739501953125,-4.974365234375,-7.293701171875
3.3574999,-0.12928688526153564,0.020949264988303185,9.622296333312988,1.953125,5.828857421875,7.232666015625
3.3624999,0.547075092792511,-0.27473464608192444,9.528923034667969,-2.197265625,-6.2255859375,-8.087158203125
3.3674999000000003,-0.1041477769613266,-0.07422025501728058,10.023324966430664,2.227783203125,6.561279296875,7.781982421875
3.3724999,0.44173020124435425,-0.21009120345115662,9.727043151855469,-2.3193359375,-6.7138671875,-8.11767578125
3.3774999,0.01735796220600605,0.07003039866685867,10.16757583618164,2.3193359375,6.53076171875,7.38525390625
3.3824999,0.4321534037590027,0.03770867735147476,9.850942611694336,-2.25830078125,-6.195068359375,-7.049560546875
3.3874999000000003,0.13048399984836578,0.2322375625371933,10.053253173828125,2.105712890625,5.79833984375,5.859375
3.3924999000000002,0.37409400939941406,0.08978256583213806,9.829395294189453,-1.89208984375,-5.096435546875,-5.18798828125
3.3974999,0.21847090125083923,0.1107318252325058,9.877877235412598,1.556396484375,4.2724609375,3.753662109375
3.4024999,0.13048399984836578,-0.10474632680416107,9.70549488067627,-1.190185546875,-3.082275390625,-2.8076171875
3.4074999000000004,0.2849099934101105,-0.16819266974925995,9.783307075500488,1.03759765625,2.197265625,1.28173828125
3.4124999000000003,-0.0802057534456253,-0.19452889263629913,9.665990829467773,-0.42724609375,-1.03759765625,-0.213623046875
3.4174999,0.3274070918560028,-0.21547815203666687,9.700108528137207,0.3662109375,0.091552734375,-1.5869140625
3.4224999,-0.11192893236875534,-0.05446808785200119,9.602544784545898,0.274658203125,1.03759765625,2.50244140625
3.4274999000000004,0.4255693554878235,-0.07122749835252762,9.531316757202148,-0.54931640625,-2.044677734375,-4.058837890625
3.4324999000000003,-0.09576806426048279,0.11312603205442429,9.485228538513184,1.03759765625,3.387451171875,4.852294921875
3.4374999,0.5488707423210144,-0.008379706181585789,9.406818389892578,-1.312255859375,-4.150390625,-6.011962890625
3.4424999,-0.14185644686222076,0.13287819921970367,9.533711433410645,1.52587890625,5.126953125,6.65283203125
3.4474999000000004,0.5758054852485657,-0.11911153793334961,9.461286544799805,-1.800537109375,-5.7373046875,-7.62939453125
3.4524999000000003,-0.13766659796237946,0.0077811554074287415,9.813833236694336,1.983642578125,6.28662109375,7.659912109375
3.4574999,0.5105634927749634,-0.1975216418504715,9.592967987060547,-2.227783203125,-6.40869140625,-8.148193359375
3.4624999,-0.01496376097202301,-0.03232172131538391,10.045472145080566,2.288818359375,6.65283203125,7.720947265625
3.4674999,0.4626794755458832,-0.055665191262960434,9.718064308166504,-2.105712890625,-6.591796875,-7.568359375
3.4724999000000003,0.11552023142576218,0.08259996026754379,10.074800491333008,2.288818359375,6.134033203125,6.8359375
3.4774999,0.45669397711753845,0.06165069341659546,9.822212219238281,-1.77001953125,-5.645751953125,-6.072998046875
3.4824999,0.18914192914962769,0.11372458189725876,9.995792388916016,1.89208984375,5.096435546875,5.2490234375
3.4874999,0.2735375463962555,-0.008978256024420261,9.819818496704102,-1.46484375,-4.39453125,-4.21142578125
3.4924999000000003,0.21667525172233582,-0.04668693244457245,9.90361499786377,1.15966796875,3.326416015625,2.777099609375
3.4974999,-0.01735796220600605,-0.09516951441764832,9.764751434326172,-0.823974609375,-2.44140625,-1.64794921875
3.5024999,-0.01735796220600605,-0.09516951441764832,9.764751434326172,-0.823974609375,-2.44140625,-1.64794921875
3.5074999,0.26755204796791077,-0.19632454216480255,9.797672271728516,0.579833984375,1.40380859375,0.06103515625
3.5124999000000003,-0.1280897855758667,-0.04369417950510979,9.655815124511719,-0.030517578125,0,0.9765625
3.5174999000000002,0.3800795078277588,-0.17298106849193573,9.575011253356934,-0.213623046875,-0.946044921875,-2.86865234375
3.5224999,-0.07721300423145294,0.08918401598930359,9.473855972290039,0.67138671875,2.25830078125,3.631591796875
3.5274999,0.5171475410461426,-0.08499415963888168,9.370306968688965,-1.129150390625,-3.0517578125,-5.157470703125
3.5324999000000004,-0.0694318488240242,0.14844051003456116,9.394248962402344,1.3427734375,4.0283203125,5.79833984375
3.5374999000000003,0.5847837924957275,-0.12030863761901855,9.371503829956055,-1.8310546875,-4.974365234375,-6.7138671875
3.5424999,-0.15322890877723694,0.05506663769483566,9.607931137084961,2.044677734375,5.767822265625,7.38525390625
3.5474999,0.5333084464073181,-0.26755204796791077,9.552865028381348,-2.25830078125,-6.16455078125,-7.904052734375
3.5524999000000004,-0.1364694982767105,-0.031124621629714966,10.005369186401367,2.288818359375,6.40869140625,8.026123046875
3.5574999000000003,0.4429273009300232,-0.21847090125083923,9.743204116821289,-2.25830078125,-6.744384765625,-7.843017578125
3.5624999,0.005985504016280174,0.07960720360279083,10.154407501220703,2.44140625,6.591796875,7.537841796875
3.5674999,0.444722980260849,0.03651157766580582,9.823410034179688,-2.288818359375,-6.16455078125,-7.38525390625
3.5724999000000004,0.1412578970193863,0.21428105235099792,10.005967140197754,2.227783203125,5.92041015625,6.2255859375
3.5774999000000003,0.4273650050163269,0.0867898091673851,9.7605619430542,-1.922607421875,-5.2490234375,-5.4931640625
3.5824999,0.22864626348018646,0.090979665517807,9.825803756713867,1.800537109375,4.69970703125,4.180908203125
3.5874999,0.19273324310779572,-0.1149216815829277,9.66419506072998,-1.190185546875,-3.631591796875,-3.143310546875
3.5924999,0.2711433470249176,-0.19273324310779572,9.77253246307373,1.068115234375,2.50244140625,1.739501953125
3.5974999000000003,-0.0694318488240242,-0.20350714027881622,9.679757118225098,-0.54931640625,-1.5869140625,-0.457763671875
3.6024999,0.28790274262428284,-0.2519897222518921,9.742605209350586,0.335693359375,0.42724609375,-1.007080078125
3.6074999,-0.13946224749088287,-0.03890577703714371,9.636661529541016,0.335693359375,0.823974609375,2.288818359375
3.6124999,0.38307225704193115,-0.09816227108240128,9.582792282104492,-0.518798828125,-1.8310546875,-3.631591796875
3.6174999000000003,-0.10773907601833344,0.16519992053508759,9.50857162475586,0.946044921875,3.143310546875,4.69970703125
3.6224999,0.5285200476646423,-0.020350715145468712,9.410409927368164,-1.373291015625,-3.90625,-5.767822265625
3.6274999,-0.12389993667602539,0.20111294090747833,9.478644371032715,1.678466796875,4.69970703125,6.439208984375
3.6324999,0.5859808921813965,-0.13108254969120026,9.394847869873047,-2.01416015625,-5.645751953125,-7.415771484375
3.6374999000000003,-0.14065934717655182,0.04728548228740692,9.701904296875,2.105712890625,5.950927734375,7.720947265625
3.6424999000000002,0.5249287486076355,-0.2651578485965729,9.536105155944824,-2.3193359375,-6.40869140625,-8.148193359375
3.6474999,-0.05506663769483566,-0.0454898327589035,10.016741752624512,2.471923828125,6.622314453125,7.843017578125
3.6524999,0.45190557837486267,-0.17537526786327362,9.706093788146973,-2.532958984375,-6.591796875,-7.781982421875
3.6574999000000004,0.076015904545784,0.07242459803819656,10.113107681274414,2.471923828125,6.256103515625,6.988525390625
3.6624999000000003,0.4537012279033661,0.002394201699644327,9.831191062927246,-2.197265625,-5.889892578125,-6.622314453125
3.6674999,0.16639702022075653,0.17537526786327362,10.033500671386719,2.01416015625,5.401611328125,5.462646484375
3.6724999,0.33039984107017517,0.009576806798577309,9.837775230407715,-1.708984375,-4.730224609375,-4.791259765625
3.6774999000000004,0.22206220030784607,0.05686229094862938,9.9000244140625,1.52587890625,3.90625,3.204345703125
3.6824999000000003,0.0586579404771328,-0.10714052617549896,9.734824180603027,-1.220703125,-2.62451171875,-2.288818359375
3.6874999,0.28550854325294495,-0.15502455830574036,9.75517463684082,0.701904296875,1.739501953125,0.457763671875
3.6924999,-0.10235211998224258,-0.1215057373046875,9.607931137084961,-0.3662109375,-0.6103515625,0.48828125
3.6974999000000004,0.3627215623855591,-0.1711854189634323,9.564237594604492,0,-0.518798828125,-2.105712890625
3.7024999000000003,-0.090979665517807,0.013766659423708916,9.475651741027832,0.518798828125,1.5869140625,3.23486328125
3.7074999,0.47824180126190186,-0.053270988166332245,9.40023422241211,-0.8544921875,-2.838134765625,-4.69970703125
3.7124999,-0.08200141042470932,0.12210428714752197,9.422380447387695,1.0986328125,3.875732421875,5.43212890625
3.7174999,0.5662286877632141,-0.05925649031996727,9.394248962402344,-1.64794921875,-4.791259765625,-6.561279296875
3.7224999000000003,-0.16639702022075653,0.076015904545784,9.606135368347168,1.861572265625,5.4931640625,7.110595703125
3.7274999,0.5392939448356628,-0.20350714027881622,9.548674583435059,-2.166748046875,-6.134033203125,-7.904052734375
3.7324999,-0.16639702022075653,-0.014365210197865963,9.967061996459961,2.3193359375,6.4697265625,7.659912109375
3.7374999,0.45489832758903503,-0.2059013396501541,9.700706481933594,-2.25830078125,-6.683349609375,-8.23974609375
3.7424999000000003,-0.021547814831137657,0.05267243832349777,10.11550235748291,2.38037109375,6.8359375,7.720947265625
3.7474999,0.4537012279033661,0.0065840547904372215,9.766547203063965,-2.3193359375,-6.65283203125,-7.50732421875
3.7524999,0.14006079733371735,0.17896658182144165,10.00836181640625,2.3193359375,6.04248046875,6.561279296875
3.7574999,0.46327802538871765,0.06763619929552078,9.769539833068848,-2.01416015625,-5.55419921875,-6.04248046875
3.7624999000000003,0.23702596127986908,0.10594342648983002,9.88386344909668,1.89208984375,4.82177734375,4.547119140625
3.7674999000000002,0.23942017555236816,-0.11791443079710007,9.734824180603027,-1.52587890625,-3.814697265625,-3.631591796875
3.7724999,0.2561795711517334,-0.12988543510437012,9.841964721679688,1.190185546875,2.960205078125,2.105712890625
3.7774999,-0.06464344263076782,-0.22206220030784607,9.744999885559082,-0.701904296875,-1.678466796875,-1.0986328125
3.7824999000000004,0.2585737705230713,-0.20470423996448517,9.802460670471191,0.518798828125,0.79345703125,-0.732421875
3.7874999000000003,-0.16819266974925995,-0.08140286058187485,9.697713851928711,0.030517578125,0.6103515625,1.708984375
3.7924999,0.3597288131713867,-0.07661445438861847,9.607333183288574,-0.396728515625,-1.64794921875,-3.387451171875
3.7974999,-0.11611878126859665,0.1215057373046875,9.536105155944824,0.732421875,2.716064453125,4.302978515625
3.8024999000000004,0.5315127968788147,0.01496376097202301,9.385271072387695,-1.129150390625,-3.631591796875,-5.55419921875
3.8074999000000003,-0.10055647045373917,0.17896658182144165,9.443329811096191,1.52587890625,4.730224609375,6.2255859375
3.8124999,0.606930136680603,-0.07541735470294952,9.349956512451172,-1.922607421875,-5.37109375,-7.2021484375
3.8174999,-0.13168109953403473,0.03950432687997818,9.66299819946289,2.197265625,5.92041015625,7.4462890625
3.8224999000000004,0.5374982953071594,-0.22625206410884857,9.517550468444824,-2.3193359375,-6.378173828125,-8.087158203125
3.8274999000000003,-0.07062894850969315,-0.06344634294509888,10.014945983886719,2.44140625,6.683349609375,7.75146484375
3.8324999,0.45250412821769714,-0.1586158573627472,9.713874816894531,-2.25830078125,-6.805419921875,-7.8125
3.8374999,0.05626374110579491,0.05446808785200119,10.134655952453613,2.50244140625,6.561279296875,7.171630859375
3.8424999,0.4537012279033661,0.038307227194309235,9.840767860412598,-2.25830078125,-6.28662109375,-7.049560546875
3.8474999000000003,0.152031809091568,0.1777694821357727,10.04307746887207,2.044677734375,5.584716796875,5.584716796875
3.8524999,0.345363587141037,0.06404489278793335,9.834183692932129,-1.77001953125,-4.913330078125,-5.126953125
3.8574999,0.21009120345115662,0.0628477931022644,9.882067680358887,1.495361328125,4.241943359375,3.47900390625
3.8624999,0.06883329898118973,-0.07062894850969315,9.717466354370117,-1.0986328125,-2.9296875,-2.471923828125
3.8674999000000003,0.272938996553421,-0.17537526786327362,9.744400978088379,0.732421875,1.922607421875,0.79345703125
3.8724999,0.272938996553421,-0.17537526786327362,9.744400978088379,0.732421875,1.922607421875,0.79345703125
3.8774999,-0.10055647045373917,-0.10714052617549896,9.607931137084961,-0.244140625,-0.701904296875,0.1220703125
3.8824999,0.3597288131713867,-0.21368250250816345,9.586981773376465,-0.030517578125,-0.335693359375,-2.01416015625
3.8874999000000003,-0.08439560979604721,0.023942016065120697,9.496002197265625,0.701904296875,1.495361328125,2.960205078125
3.8924999000000002,0.4800374507904053,-0.10115502029657364,9.430161476135254,-0.885009765625,-2.655029296875,-4.33349609375
3.8974999,-0.07661445438861847,0.1346738487482071,9.43255615234375,1.190185546875,3.692626953125,5.157470703125
3.9024999,0.5650315880775452,-0.0999579206109047,9.394248962402344,-1.64794921875,-4.669189453125,-6.591796875
3.9074999000000004,-0.16819266974925995,0.09217676520347595,9.582792282104492,2.0751953125,5.2490234375,6.927490234375
3.9124999000000003,0.5374982953071594,-0.22625206410884857,9.518148422241211,-2.166748046875,-6.134033203125,-7.598876953125
3.9174999,-0.16998831927776337,0.008978256024420261,9.923966407775879,2.410888671875,6.4697265625,7.75146484375
3.9224999,0.4638765752315521,-0.21607670187950134,9.660005569458008,-2.5634765625,-6.77490234375,-8.209228515625
3.9274999000000004,-0.011372458189725876,0.06763619929552078,10.079588890075684,2.50244140625,6.8359375,7.6904296875
3.9324999000000003,0.46746787428855896,0.004788403399288654,9.725846290588379,-2.38037109375,-6.683349609375,-7.32421875
3.9374999,0.14844051003456116,0.18794482946395874,9.977835655212402,2.38037109375,6.195068359375,6.28662109375
3.9424999,0.4728548228740692,0.07841010391712189,9.736021041870117,-2.0751953125,-5.615234375,-6.04248046875
3.9474999000000004,0.23403321206569672,0.11791443079710007,9.860519409179688,1.953125,5.035400390625,4.45556640625
3.9524999000000003,0.2454056739807129,-0.09576806426048279,9.71926212310791,-1.52587890625,-3.936767578125,-3.72314453125
3.9574999,0.24600422382354736,-0.13108254969120026,9.832986831665039,1.373291015625,2.99072265625,2.25830078125
3.9624999,-0.06883329898118973,-0.19871874153614044,9.742605209350586,-0.732421875,-1.89208984375,-0.9765625
3.9674999000000004,0.24420857429504395,-0.23403321206569672,9.79288387298584,0.396728515625,0.732421875,-0.518798828125
3.9724999000000003,-0.16879121959209442,-0.06404489278793335,9.6803560256958,0.213623046875,0.54931640625,1.89208984375
3.9774999,0.3585317134857178,-0.11911153793334961,9.577404975891113,-0.48828125,-1.5869140625,-3.387451171875
3.9824999,-0.10953472554683685,0.1412578970193863,9.493608474731445,0.91552734375,2.655029296875,4.33349609375
3.9874999,0.5333084464073181,-0.02992752194404602,9.348758697509766,-1.220703125,-3.570556640625,-5.7373046875
3.9924999000000003,-0.10354922711849213,0.20051439106464386,9.407417297363281,1.708984375,4.638671875,6.072998046875
3.9974999,0.6015431880950928,-0.12090718746185303,9.321226119995117,-1.953125,-5.4931640625,-7.32421875
4.0024999,-0.14065934717655182,0.05746084079146385,9.642647743225098,2.197265625,6.04248046875,7.4462890625
4.0074999,0.535702645778656,-0.26336219906806946,9.487024307250977,-2.5634765625,-6.53076171875,-7.99560546875
4.0124999,-0.07122749835252762,-0.04369417950510979,9.995193481445312,2.471923828125,6.683349609375,7.720947265625
4.0174999,0.45489832758903503,-0.19572599232196808,9.688735961914062,-2.410888671875,-6.89697265625,-7.87353515625
4.022499900000001,0.06344634294509888,0.07541735470294952,10.126276016235352,2.685546875,6.439208984375,7.110595703125
4.0274999000000005,0.45429977774620056,-0.0017956512747332454,9.832387924194336,-2.288818359375,-5.9814453125,-6.7138671875
4.0324999,0.1472434103488922,0.20051439106464386,10.049661636352539,2.166748046875,5.7373046875,5.584716796875
4.0374999,0.3256114423274994,0.02693476900458336,9.847352027893066,-1.922607421875,-4.791259765625,-4.791259765625
4.0424999,0.1975216418504715,0.09277531504631042,9.907805442810059,1.77001953125,3.997802734375,3.35693359375
4.0474999,0.04429273307323456,-0.08978256583213806,9.753378868103027,-1.068115234375,-2.777099609375,-2.25830078125
4.0524999,0.2693476974964142,-0.12270283699035645,9.771934509277344,1.03759765625,1.708984375,0.732421875
4.0574999,-0.11133038252592087,-0.10474632680416107,9.634865760803223,-0.274658203125,-0.518798828125,0.396728515625
4.062499900000001,0.3597288131713867,-0.15143325924873352,9.582792282104492,0.030517578125,-0.396728515625,-1.983642578125
4.0674999000000005,-0.09038111567497253,0.023343466222286224,9.486425399780273,0.457763671875,1.77001953125,3.41796875
4.0724999,0.4854243993759155,-0.05386953800916672,9.39903736114502,-0.762939453125,-2.838134765625,-4.69970703125
4.0774999,-0.08140286058187485,0.10773907601833344,9.412803649902344,1.28173828125,3.997802734375,5.4931640625
4.0824999,0.5764040350914001,-0.07541735470294952,9.371503829956055,-1.556396484375,-4.8828125,-6.744384765625
4.0874999,-0.16220717132091522,0.0293289702385664,9.595361709594727,1.953125,5.4931640625,6.744384765625
4.0924999,0.5416881442070007,-0.22625206410884857,9.526528358459473,-2.13623046875,-6.103515625,-7.904052734375
4.0974999,-0.15562310814857483,-0.06224924325942993,9.97364616394043,2.166748046875,6.4697265625,7.8125
4.1024999,0.45250412821769714,-0.2059013396501541,9.711481094360352,-2.410888671875,-6.77490234375,-8.148193359375
4.1074999000000005,-0.009576806798577309,0.028131870552897453,10.142436981201172,2.38037109375,6.77490234375,7.6904296875
4.1124999,0.4471171796321869,0.04369417950510979,9.806051254272461,-2.197265625,-6.622314453125,-7.110595703125
4.1174999,0.1412578970193863,0.17836803197860718,10.022128105163574,2.349853515625,6.011962890625,6.40869140625
4.1224999,0.43335050344467163,0.11611878126859665,9.781511306762695,-1.8310546875,-5.43212890625,-5.55419921875
4.1274999,0.23403321206569672,0.09516951441764832,9.8599214553833,1.64794921875,4.69970703125,4.425048828125
4.1324999,0.19931729137897491,-0.08080431073904037,9.700108528137207,-1.28173828125,-3.662109375,-3.387451171875
4.1374999,0.26396074891090393,-0.16998831927776337,9.792284965515137,0.885009765625,2.777099609375,1.800537109375
4.1424999,-0.0802057534456253,-0.18375498056411743,9.692925453186035,-0.48828125,-1.46484375,-0.762939453125
4.147499900000001,0.2735375463962555,-0.2406172752380371,9.746794700622559,0.274658203125,0.518798828125,-1.007080078125
4.1524999000000005,-0.1628057211637497,-0.04728548228740692,9.64683723449707,0.335693359375,0.701904296875,2.166748046875
4.1574999,0.3693056106567383,-0.11013327538967133,9.585186958312988,-0.54931640625,-1.922607421875,-3.60107421875
4.1624999,-0.12868833541870117,0.12629413604736328,9.514557838439941,1.129150390625,2.9296875,4.69970703125
4.1674999,0.5201402902603149,-0.03411737456917763,9.41400146484375,-1.251220703125,-4.08935546875,-5.92041015625
4.1724999,-0.1412578970193863,0.15921440720558167,9.48882007598877,1.678466796875,4.8828125,6.500244140625
4.1774999,0.5817909836769104,-0.1215057373046875,9.395445823669434,-2.044677734375,-5.67626953125,-7.537841796875
4.1824999,-0.1454477459192276,0.02513911761343479,9.719860076904297,2.227783203125,6.2255859375,7.50732421875
4.187499900000001,0.5321113467216492,-0.22744916379451752,9.527127265930176,-2.288818359375,-6.683349609375,-8.30078125
4.1924999000000005,-0.031124621629714966,-0.04429273307323456,9.995193481445312,2.410888671875,6.9580078125,7.4462890625
4.1974999,0.48303020000457764,-0.11611878126859665,9.684545516967773,-2.410888671875,-6.683349609375,-7.965087890625
4.2024999,0.11013327538967133,0.07242459803819656,10.070012092590332,2.25830078125,6.34765625,6.8359375
4.2074999,0.46507367491722107,0.02693476900458336,9.810839653015137,-2.044677734375,-5.950927734375,-6.378173828125
4.2124999,0.1759738177061081,0.13587094843387604,9.997588157653809,1.953125,5.2490234375,5.279541015625
4.2174999,0.27473464608192444,-0.02274491637945175,9.825204849243164,-1.5869140625,-4.638671875,-4.241943359375
4.2224999,0.20051439106464386,-0.004189853090792894,9.904213905334473,1.373291015625,3.509521484375,2.99072265625
4.2274999,-0.025737667456269264,-0.12449848651885986,9.776124000549316,-0.8544921875,-2.50244140625,-1.739501953125
4.2324999000000005,0.2561795711517334,-0.15981295704841614,9.800664901733398,0.6103515625,1.312255859375,0
4.2374999,-0.14425064623355865,-0.08619125932455063,9.673771858215332,-0.030517578125,-0.213623046875,0.91552734375
4.2424999,-0.14425064623355865,-0.08619125932455063,9.673771858215332,-0.030517578125,-0.213623046875,0.91552734375
4.2474999,0.37469255924224854,-0.13407529890537262,9.571419715881348,-0.213623046875,-1.007080078125,-2.655029296875
4.2524999,-0.09217676520347595,0.05985504388809204,9.481039047241211,0.640869140625,2.044677734375,3.631591796875
4.2574999,0.52552729845047,-0.0293289702385664,9.348160743713379,-1.15966796875,-3.2958984375,-5.18798828125
4.2624999,-0.07481880486011505,0.12988543510437012,9.384672164916992,1.40380859375,4.21142578125,5.79833984375
4.2674999,0.6045359373092651,-0.06703764945268631,9.34157657623291,-1.52587890625,-5.06591796875,-6.89697265625
4.272499900000001,-0.13946224749088287,0.015562310814857483,9.616311073303223,1.89208984375,5.889892578125,7.2021484375
4.2774999000000005,0.5380968451499939,-0.22266076505184174,9.536105155944824,-2.197265625,-6.2255859375,-7.9345703125
4.2824999,-0.11971008777618408,-0.090979665517807,10.014347076416016,2.25830078125,6.65283203125,7.965087890625
4.2874999,0.4321534037590027,-0.18555063009262085,9.734824180603027,-2.288818359375,-6.866455078125,-7.9345703125
4.2924999,0.014365210197865963,0.02454056777060032,10.159794807434082,2.25830078125,6.53076171875,7.32421875
4.2974999,0.4321534037590027,0.04728548228740692,9.855731010437012,-2.105712890625,-6.28662109375,-7.049560546875
4.3024999,0.14604631066322327,0.18375498056411743,10.023923873901367,1.922607421875,5.92041015625,5.767822265625
4.3074999,0.3734954595565796,0.10953472554683685,9.808445930480957,-1.708984375,-5.126953125,-5.18798828125
4.312499900000001,0.24121582508087158,0.08080431073904037,9.82759952545166,1.495361328125,4.119873046875,3.662109375
4.3174999000000005,0.12629413604736328,-0.05506663769483566,9.667187690734863,-1.007080078125,-3.143310546875,-2.471923828125
4.3224999,0.3076549172401428,-0.18076223134994507,9.712677955627441,0.701904296875,2.0751953125,1.129150390625
4.3274999,-0.06823474913835526,-0.1322796493768692,9.606135368347168,-0.152587890625,-0.946044921875,0.18310546875
4.3324999,0.363918662071228,-0.23044191300868988,9.622296333312988,-0.152587890625,-0.244140625,-1.708984375
4.3374999,-0.09157821536064148,-0.012569558806717396,9.539097785949707,0.6103515625,1.495361328125,2.8076171875
4.3424999,0.45908817648887634,-0.10773907601833344,9.490615844726562,-0.885009765625,-2.5634765625,-4.547119140625
4.3474999,-0.09816227108240128,0.11133038252592087,9.457097053527832,1.373291015625,3.72314453125,5.43212890625
4.352499900000001,0.5488707423210144,-0.08619125932455063,9.426570892333984,-1.52587890625,-4.730224609375,-6.500244140625
4.3574999000000005,-0.17058686912059784,0.08798690885305405,9.573814392089844,2.01416015625,5.340576171875,6.77490234375
4.3624999,0.5321113467216492,-0.20051439106464386,9.522936820983887,-2.166748046875,-5.92041015625,-7.6904296875
4.3674999,-0.15801730751991272,0.004788403399288654,9.90241813659668,2.38037109375,6.439208984375,7.6904296875
4.3724999,0.4578910768032074,-0.19153612852096558,9.674968719482422,-2.197265625,-6.65283203125,-8.11767578125
4.3774999,-0.004788403399288654,0.05027823522686958,10.062231063842773,2.44140625,6.77490234375,7.476806640625
4.3824999,0.45429977774620056,0.021547814831137657,9.762955665588379,-2.25830078125,-6.500244140625,-7.38525390625
4.3874999,0.15442600846290588,0.1646013706922531,9.96945571899414,2.105712890625,6.04248046875,6.317138671875
4.3924999,0.44592007994651794,0.08738835901021957,9.758766174316406,-1.739501953125,-5.462646484375,-5.43212890625
4.397499900000001,0.25438392162323,0.09157821536064148,9.846753120422363,1.556396484375,4.638671875,4.150390625
4.4024999000000005,0.21547815203666687,-0.07302315533161163,9.703699111938477,-1.129150390625,-3.509521484375,-3.23486328125
4.4074999,0.28790274262428284,-0.1388636976480484,9.786897659301758,0.9765625,2.62451171875,1.5869140625
4.4124999,-0.06165069341659546,-0.15083470940589905,9.692327499389648,-0.30517578125,-1.434326171875,-0.54931640625
4.4174999,0.29628247022628784,-0.2059013396501541,9.73781681060791,0.1220703125,0.396728515625,-1.15966796875
4.4224999,-0.14484919607639313,-0.023942016065120697,9.62828254699707,0.54931640625,1.03759765625,2.410888671875
4.4274999,0.37888240814208984,-0.08140286058187485,9.585186958312988,-0.640869140625,-1.953125,-3.7841796875
4.4324999,-0.12629413604736328,0.13946224749088287,9.480440139770508,1.129150390625,3.2958984375,4.974365234375
4.437499900000001,0.5069721937179565,-0.0077811554074287415,9.419387817382812,-1.434326171875,-4.08935546875,-5.767822265625
4.4424999000000005,-0.13946224749088287,0.17238251864910126,9.436147689819336,1.678466796875,5.035400390625,7.26318359375
4.4474999,0.5440823435783386,-0.07960720360279083,9.427767753601074,-1.89208984375,-5.79833984375,-6.744384765625
4.4524999,-0.13168109953403473,0.0586579404771328,9.671976089477539,1.953125,6.53076171875,8.575439453125
4.4574999,0.48303020000457764,-0.16101007163524628,9.633070945739746,-2.13623046875,-6.683349609375,-7.415771484375
4.4624999,-0.0293289702385664,-0.016759412363171577,9.98681354522705,2.105712890625,6.927490234375,8.23974609375
4.4674999,0.4578910768032074,-0.0975637212395668,9.835979461669922,-1.953125,-6.927490234375,-7.598876953125
4.4724999,0.11971008777618408,0.03651157766580582,10.075998306274414,1.983642578125,6.2255859375,6.805419921875
4.477499900000001,0.47824180126190186,-0.035913024097681046,9.891045570373535,-1.46484375,-6.011962890625,-6.561279296875
4.4824999000000005,0.22625206410884857,0.04429273307323456,9.961075782775879,1.3427734375,5.18798828125,4.82177734375
4.4874999,0.29209262132644653,-0.08379705995321274,9.793481826782227,-0.946044921875,-4.33349609375,-4.5166015625
4.4924999,0.25079262256622314,-0.07900865375995636,9.823410034179688,0.48828125,3.5400390625,2.349853515625
4.4974999,-0.008978256024420261,-0.11552023142576218,9.698312759399414,-0.213623046875,-2.38037109375,-1.739501953125
4.5024999,0.26755204796791077,-0.16220717132091522,9.741408348083496,0,1.3427734375,-0.30517578125
4.5074999,-0.1364694982767105,-0.03770867735147476,9.618106842041016,0.48828125,0.213623046875,1.312255859375
4.5124999,0.3579331636428833,-0.09935937076807022,9.589376449584961,-0.67138671875,-1.15966796875,-2.899169921875
4.5174999,-0.10893617570400238,0.09277531504631042,9.485827445983887,1.0986328125,2.25830078125,3.84521484375
4.522499900000001,0.4920084476470947,-0.019153613597154617,9.41519832611084,-1.46484375,-3.2958984375,-5.2490234375
4.5274999000000005,-0.10773907601833344,0.1412578970193863,9.413402557373047,1.556396484375,4.2724609375,5.9814453125
4.5324999,0.5638344883918762,-0.09217676520347595,9.416994094848633,-2.044677734375,-5.279541015625,-6.9580078125
4.5374999,-0.14664486050605774,0.015562310814857483,9.643844604492188,1.89208984375,5.584716796875,7.171630859375
4.5424999,0.5111620426177979,-0.2388216257095337,9.604340553283691,-1.983642578125,-6.34765625,-8.026123046875
4.5474999,-0.08918401598930359,-0.08080431073904037,10.016142845153809,2.13623046875,6.683349609375,7.6904296875
4.5524999,0.4411316514015198,-0.1867477297782898,9.803657531738281,-2.01416015625,-6.683349609375,-7.8125
4.5574999,0.05147533491253853,0.041299980133771896,10.141240119934082,1.922607421875,6.500244140625,7.14111328125
4.562499900000001,0.45429977774620056,-0.013168109580874443,9.916184425354004,-1.708984375,-6.072998046875,-6.89697265625
4.5674999000000005,0.16998831927776337,0.17417816817760468,10.028712272644043,1.5869140625,5.706787109375,5.7373046875
4.5724999,0.3495534360408783,0.020949264988303185,9.847949981689453,-1.03759765625,-5.06591796875,-4.94384765625
4.5774999,0.23702596127986908,0.08738835901021957,9.838972091674805,1.251220703125,4.150390625,3.509521484375
4.5824999,0.08319851011037827,-0.08080431073904037,9.679757118225098,-0.6103515625,-3.11279296875,-2.50244140625
4.5874999,0.2908954918384552,-0.10893617570400238,9.687539100646973,0.18310546875,2.0751953125,0.701904296875
4.5924999,-0.08379705995321274,-0.11133038252592087,9.55705451965332,0.213623046875,-0.8544921875,0.244140625
4.5974999,0.36152446269989014,-0.1412578970193863,9.552865028381348,-0.396728515625,-0.213623046875,-1.8310546875
4.602499900000001,-0.08858546614646912,-0.017956512048840523,9.460687637329102,0.91552734375,1.495361328125,3.11279296875
4.6074999000000005,0.45489832758903503,-0.058059390634298325,9.435548782348633,-1.129150390625,-2.716064453125,-4.57763671875
4.6124999,0.45489832758903503,-0.058059390634298325,9.435548782348633,-1.129150390625,-2.716064453125,-4.57763671875
4.6174999,-0.10773907601833344,0.061052143573760986,9.411606788635254,1.3427734375,3.662109375,5.462646484375
4.6224999,0.5279214978218079,-0.09277531504631042,9.440337181091309,-1.708984375,-4.608154296875,-6.561279296875
4.6274999,-0.18734627962112427,0.012569558806717396,9.600150108337402,1.983642578125,5.523681640625,6.9580078125
4.6324999,0.5057750940322876,-0.23283611238002777,9.589975357055664,-1.953125,-6.04248046875,-7.6904296875
4.6374999,-0.15801730751991272,-0.046088382601737976,9.970054626464844,2.288818359375,6.256103515625,7.659912109375
4.6424999,0.4405331015586853,-0.19632454216480255,9.7791166305542,-2.01416015625,-6.622314453125,-7.99560546875
4.647499900000001,0.004788403399288654,0.06344634294509888,10.13525390625,1.922607421875,6.8359375,7.38525390625
4.6524999000000005,0.4596867263317108,0.02992752194404602,9.877279281616211,-1.922607421875,-6.53076171875,-7.354736328125
4.6574999,0.1604115068912506,0.2106897532939911,9.998785018920898,1.8310546875,5.9814453125,6.256103515625
4.6624999,0.43933600187301636,0.08140286058187485,9.78869342803955,-1.434326171875,-5.340576171875,-5.615234375
4.6674999,0.25498247146606445,0.12749123573303223,9.791088104248047,1.251220703125,4.852294921875,4.21142578125
4.6724999,0.20231004059314728,-0.09935937076807022,9.64564037322998,-0.823974609375,-3.753662109375,-3.448486328125
4.6774999,0.29209262132644653,-0.12090718746185303,9.706692695617676,0.6103515625,2.50244140625,1.678466796875
4.6824999,-0.0520738884806633,-0.18914192914962769,9.619902610778809,0.091552734375,-1.617431640625,-0.579833984375
4.687499900000001,0.3100491166114807,-0.1867477297782898,9.68574333190918,-0.152587890625,0.48828125,-1.220703125
4.6924999000000005,-0.12509703636169434,-0.07721300423145294,9.586981773376465,0.701904296875,0.823974609375,2.105712890625
4.6974999,0.39145198464393616,-0.06165069341659546,9.561842918395996,-0.823974609375,-1.89208984375,-4.058837890625
4.7024999,-0.12629413604736328,0.07781155407428741,9.476250648498535,1.28173828125,3.2958984375,4.608154296875
4.7074999,0.5039794445037842,-0.016759412363171577,9.45410442352295,-1.46484375,-4.119873046875,-6.011962890625
4.7124999,-0.17717093229293823,0.11372458189725876,9.525930404663086,1.739501953125,4.913330078125,6.439208984375
4.7174999,0.5386953949928284,-0.13407529890537262,9.501988410949707,-1.983642578125,-5.79833984375,-7.4462890625
4.7224999,-0.1604115068912506,0.01975216343998909,9.801262855529785,2.0751953125,6.256103515625,7.8125
4.727499900000001,0.4908113479614258,-0.18794482946395874,9.633668899536133,-2.197265625,-6.683349609375,-8.056640625
4.7324999000000005,-0.012569558806717396,0.012569558806717396,9.999382972717285,2.227783203125,6.622314453125,7.659912109375
4.7374999,0.4812345504760742,-0.040701430290937424,9.744999885559082,-1.861572265625,-6.591796875,-7.537841796875
4.7424999,0.1496376097202301,0.12868833541870117,9.99220085144043,1.953125,6.561279296875,6.683349609375
4.7474999,0.4926069974899292,0.02274491637945175,9.79408073425293,-1.617431640625,-5.92041015625,-6.34765625
4.7524999,0.23283611238002777,0.11671733111143112,9.9000244140625,1.52587890625,5.340576171875,5.06591796875
4.7574999,0.27234044671058655,-0.11432313174009323,9.75936508178711,-0.946044921875,-4.33349609375,-3.997802734375
4.7624999,0.23343466222286224,-0.06883329898118973,9.827000617980957,0.79345703125,3.387451171875,2.593994140625
4.7674999,-0.04668693244457245,-0.1951274424791336,9.716867446899414,-0.3662109375,-2.044677734375,-1.495361328125
4.772499900000001,0.24839842319488525,-0.15921440720558167,9.761758804321289,0.06103515625,1.434326171875,-0.244140625
4.7774999000000005,-0.1586158573627472,-0.08738835901021957,9.643245697021484,0.396728515625,0.18310546875,1.434326171875
4.7824999,0.35673606395721436,-0.07062894850969315,9.581595420837402,-0.579833984375,-1.312255859375,-2.9296875
4.7874999,-0.11192893236875534,0.07661445438861847,9.49001693725586,1.007080078125,2.25830078125,3.936767578125
4.7924999,0.5081692934036255,0.0065840547904372215,9.389460563659668,-1.3427734375,-3.509521484375,-5.340576171875
4.7974999,-0.1041477769613266,0.13287819921970367,9.406219482421875,1.708984375,4.302978515625,6.072998046875
4.8024999,0.5829881429672241,-0.08080431073904037,9.372102737426758,-1.739501953125,-5.279541015625,-7.01904296875
4.8074999,-0.13706804811954498,0.010175357572734356,9.63187313079834,1.953125,5.79833984375,7.354736328125
4.812499900000001,0.5279214978218079,-0.23104046285152435,9.55705451965332,-2.01416015625,-6.317138671875,-7.9345703125
4.8174999000000005,-0.076015904545784,-0.08200141042470932,10.006566047668457,2.288818359375,6.8359375,7.75146484375
4.8224999,0.45250412821769714,-0.18136078119277954,9.783307075500488,-1.983642578125,-6.805419921875,-8.026123046875
4.8274999,0.055665191262960434,0.04249707981944084,10.143035888671875,2.105712890625,6.65283203125,7.110595703125
4.8324999,0.45489832758903503,-0.010773907415568829,9.904213905334473,-1.800537109375,-6.256103515625,-6.805419921875
4.8374999,0.15801730751991272,0.1759738177061081,10.036493301391602,1.556396484375,5.79833984375,5.7373046875
4.8424999,0.3315969407558441,0.020949264988303185,9.84376049041748,-1.28173828125,-4.82177734375,-4.852294921875
4.8474999,0.21787235140800476,0.08439560979604721,9.852140426635742,1.068115234375,4.119873046875,3.387451171875
4.852499900000001,0.05626374110579491,-0.05746084079146385,9.687539100646973,-0.457763671875,-2.99072265625,-2.532958984375
4.8574999000000005,0.2819172441959381,-0.13168109953403473,9.704896926879883,0.213623046875,2.105712890625,0.91552734375
4.8624999,-0.09576806426048279,-0.0586579404771328,9.568427085876465,0.396728515625,-0.67138671875,0.579833984375
4.8674999,0.3669114112854004,-0.15921440720558167,9.560047149658203,-0.518798828125,-0.518798828125,-2.01416015625
4.8724999,-0.08499415963888168,0.04010287672281265,9.460687637329102,0.946044921875,1.739501953125,3.5400390625
4.8774999,0.4686649739742279,-0.060453593730926514,9.431957244873047,-1.129150390625,-2.716064453125,-4.638671875
4.8824999,-0.0975637212395668,0.09696517139673233,9.408015251159668,1.5869140625,3.814697265625,5.523681640625
4.8874999,0.536899745464325,-0.0975637212395668,9.436147689819336,-1.678466796875,-4.730224609375,-6.561279296875
4.8924999,-0.17956513166427612,0.01975216343998909,9.604938507080078,1.89208984375,5.37109375,7.01904296875
4.897499900000001,0.5093663930892944,-0.21966800093650818,9.588777542114258,-1.953125,-6.134033203125,-7.8125
4.9024999000000005,-0.15322890877723694,-0.050876785069704056,9.976638793945312,2.105712890625,6.622314453125,7.568359375
4.9074999,0.4405331015586853,-0.16220717132091522,9.77013874053955,-2.01416015625,-6.744384765625,-8.209228515625
4.9124999,0.002992752008140087,0.058059390634298325,10.129867553710938,2.044677734375,6.805419921875,7.4462890625
4.9174999,0.4495113790035248,0.06464344263076782,9.857526779174805,-1.708984375,-6.34765625,-7.32421875
4.9224999,0.15083470940589905,0.19273324310779572,9.992799758911133,1.708984375,6.04248046875,6.34765625
4.9274999,0.41958385705947876,0.11192893236875534,9.782109260559082,-1.312255859375,-5.279541015625,-5.37109375
4.9324999,0.24361002445220947,0.09397241473197937,9.804255485534668,1.129150390625,4.7607421875,4.2724609375
4.937499900000001,0.181959331035614,-0.06883329898118973,9.654019355773926,-0.701904296875,-3.692626953125,-3.143310546875
4.9424999000000005,0.28371289372444153,-0.1604115068912506,9.724648475646973,0.335693359375,2.777099609375,1.373291015625
4.9474999,-0.05985504388809204,-0.15981295704841614,9.624691009521484,-0.06103515625,-1.495361328125,-0.518798828125
4.9524999,0.3100491166114807,-0.22385786473751068,9.695918083190918,-0.30517578125,0.335693359375,-1.251220703125
4.9574999,-0.1149216815829277,-0.05626374110579491,9.589376449584961,0.579833984375,0.8544921875,2.44140625
4.9624999,0.3998316824436188,-0.10534487664699554,9.578003883361816,-1.03759765625,-1.953125,-3.84521484375
4.9674999,-0.11192893236875534,0.08619125932455063,9.48882007598877,1.40380859375,3.11279296875,4.730224609375
4.9724999,0.5093663930892944,-0.05506663769483566,9.473258018493652,-1.64794921875,-4.0283203125,-6.011962890625
4.977499900000001,-0.166995570063591,0.11851298063993454,9.532513618469238,1.708984375,4.974365234375,6.378173828125
4.9824999000000005,-0.166995570063591,0.11851298063993454,9.532513618469238,1.708984375,4.974365234375,6.378173828125
4.9874999,0.5392939448356628,-0.14484919607639313,9.501389503479004,-1.983642578125,-5.706787109375,-7.537841796875
4.9924999,-0.152031809091568,0.02214636653661728,9.792284965515137,2.166748046875,6.2255859375,7.720947265625
4.9974999,0.4884171485900879,-0.18614917993545532,9.627084732055664,-2.01416015625,-6.591796875,-8.026123046875
5.0024999,-0.0077811554074287415,0.002992752008140087,10.001178741455078,2.166748046875,6.622314453125,7.659912109375
5.0074999,0.47225627303123474,-0.041299980133771896,9.747992515563965,-1.953125,-6.7138671875,-7.568359375
5.0124999,0.1472434103488922,0.10474632680416107,10.012551307678223,1.89208984375,6.256103515625,6.622314453125
5.0174999,0.4800374507904053,0.021547814831137657,9.801262855529785,-1.5869140625,-5.828857421875,-6.072998046875
5.022499900000001,0.22625206410884857,0.09516951441764832,9.914389610290527,1.3427734375,5.2490234375,4.8828125
5.0274999000000005,0.2645592987537384,-0.09457096457481384,9.762357711791992,-0.946044921875,-4.21142578125,-4.21142578125
5.0324999,0.23762452602386475,-0.07122749835252762,9.82999324798584,0.823974609375,3.448486328125,2.3193359375
5.0374999,-0.047884032130241394,-0.16101007163524628,9.721057891845703,-0.274658203125,-2.0751953125,-1.495361328125
5.0424999,0.25677812099456787,-0.15921440720558167,9.774328231811523,0.030517578125,0.946044921875,-0.396728515625
5.0474999,-0.15682020783424377,-0.0586579404771328,9.657610893249512,0.30517578125,0.18310546875,1.556396484375
5.0524999,0.35913026332855225,-0.07541735470294952,9.609726905822754,-0.762939453125,-1.15966796875,-3.021240234375
5.0574999,-0.11133038252592087,0.10354922711849213,9.50857162475586,1.0986328125,2.44140625,4.21142578125
5.062499900000001,0.5069721937179565,-0.004189853090792894,9.413402557373047,-1.434326171875,-3.47900390625,-5.462646484375
5.0674999000000005,-0.10235211998224258,0.15562310814857483,9.41639518737793,1.64794921875,4.39453125,6.28662109375
5.0724999,0.5817909836769104,-0.0975637212395668,9.37509536743164,-1.89208984375,-5.2490234375,-7.049560546875
5.0774999,-0.11911153793334961,0.020949264988303185,9.625887870788574,2.01416015625,5.889892578125,7.293701171875
5.0824999,0.5261258482933044,-0.23044191300868988,9.549872398376465,-2.13623046875,-6.40869140625,-8.11767578125
5.0874999,-0.05506663769483566,-0.06763619929552078,9.993996620178223,2.166748046875,6.40869140625,7.75146484375
5.0924999,0.44592007994651794,-0.15682020783424377,9.7791166305542,-1.983642578125,-6.805419921875,-7.8125
5.0974999,0.06524199992418289,0.04967968538403511,10.141838073730469,1.953125,6.561279296875,7.049560546875
5.102499900000001,0.4429273009300232,-0.004788403399288654,9.907805442810059,-1.800537109375,-6.04248046875,-6.53076171875
5.1074999000000005,0.16160862147808075,0.1538274586200714,10.04427433013916,1.5869140625,5.462646484375,5.401611328125
5.1124999,0.3058592677116394,0.0011971008498221636,9.847352027893066,-1.15966796875,-4.7607421875,-4.608154296875
5.1174999,0.21847090125083923,0.04967968538403511,9.865307807922363,1.007080078125,4.0283203125,3.23486328125
5.1224999,0.02992752194404602,-0.07781155407428741,9.698312759399414,-0.42724609375,-2.8076171875,-2.044677734375
5.1274999,0.28072014451026917,-0.1215057373046875,9.712079048156738,0.396728515625,1.77001953125,0.457763671875
5.1324999,-0.09935937076807022,-0.06524199992418289,9.57321548461914,0.213623046875,-0.30517578125,0.732421875
5.1374999,0.37648820877075195,-0.1280897855758667,9.537900924682617,-0.579833984375,-0.54931640625,-2.349853515625
5.1424999,-0.07122749835252762,0.048482585698366165,9.440337181091309,0.8544921875,1.861572265625,3.326416015625
5.147499900000001,0.49140989780426025,-0.04668693244457245,9.382277488708496,-1.190185546875,-2.74658203125,-4.8828125
5.1524999000000005,-0.08379705995321274,0.11312603205442429,9.378087997436523,1.64794921875,4.0283203125,5.523681640625
5.1574999,0.558447539806366,-0.09397241473197937,9.391854286193848,-1.708984375,-4.69970703125,-6.866455078125
5.1624999,-0.1628057211637497,0.021547814831137657,9.600749015808105,1.953125,5.645751953125,7.171630859375
5.1674999,0.5123591423034668,-0.24600422382354736,9.57321548461914,-1.983642578125,-6.28662109375,-7.87353515625
5.1724999,-0.13407529890537262,-0.060453593730926514,10.00716495513916,2.197265625,6.28662109375,7.659912109375
5.1774999,0.43095630407333374,-0.19572599232196808,9.782708168029785,-2.105712890625,-6.622314453125,-8.056640625
5.1824999,0.016759412363171577,0.07062894850969315,10.169371604919434,2.044677734375,6.561279296875,7.293701171875
5.187499900000001,0.44771572947502136,0.03172317147254944,9.88625717163086,-1.861572265625,-6.40869140625,-7.2021484375
5.1924999000000005,0.16160862147808075,0.22445641458034515,10.013150215148926,1.77001953125,5.889892578125,5.828857421875
5.1974999,0.3998316824436188,0.08439560979604721,9.790489196777344,-1.373291015625,-5.096435546875,-5.18798828125
5.2024999,0.2495955228805542,0.12389993667602539,9.78989028930664,1.15966796875,4.5166015625,3.84521484375
5.2074999,0.13946224749088287,-0.07182604819536209,9.621698379516602,-0.701904296875,-3.41796875,-2.655029296875
5.2124999,0.2885012924671173,-0.1256955862045288,9.66419506072998,0.518798828125,2.25830078125,1.40380859375
