# Time (seconds),Accel_X,Accel_Y,Accel_Z,Gyro_X,Gyro_Y,Gyro_Z
0.0024999,-0.7044938206672668,-0.6769605278968811,9.872490882873535,-8.4228515625,-24.0478515625,50.29296875
0.0074999,-0.7044938206672668,-0.6769605278968811,9.872490882873535,-8.4228515625,-24.0478515625,50.29296875
0.012499900000000001,-0.011971008032560349,-1.3844470977783203,9.348160743713379,20.5078125,-18.646240234375,53.497314453125
0.0174999,0.1825578808784485,-1.6292542219161987,9.071630477905273,27.587890625,-9.58251953125,46.93603515625
0.0224999,0.21009120345115662,-0.6177040338516235,9.566033363342285,6.866455078125,-6.011962890625,18.12744140625
0.0274999,0.6374561786651611,0.5315127968788147,10.038289070129395,-7.659912109375,-11.077880859375,-21.148681640625
0.0324999,1.5280991792678833,0.9199720025062561,10.035296440124512,-12.02392578125,15.869140625,-43.548583984375
0.0374999,2.3786394596099854,0.6619967818260193,10.027515411376953,-1.220703125,44.12841796875,-57.12890625
0.0424999,2.5103204250335693,-0.21368250250816345,9.800664901733398,5.218505859375,48.095703125,-61.553955078125
0.0474999,1.8944120407104492,-1.1552022695541382,9.64923095703125,2.777099609375,18.341064453125,-52.032470703125
0.0524999,0.7272387742996216,-1.0678139925003052,10.031704902648926,-7.4462890625,4.730224609375,-51.8798828125
0.0574999,-0.5781996846199036,-0.729034423828125,9.929352760314941,-15.960693359375,3.41796875,-18.5546875
0.0624999,-1.268328309059143,-0.15083470940589905,10.327388763427734,-15.0146484375,-11.90185546875,11.138916015625
0.0674999,-1.533486247062683,0.11911153793334961,10.29865837097168,-23.040771484375,-24.658203125,41.19873046875
0.0724999,-0.889445960521698,-0.1041477769613266,10.02452278137207,-19.561767578125,-26.702880859375,52.093505859375
0.0774999,0.32860419154167175,-1.876455545425415,8.959102630615234,36.865234375,-14.0380859375,55.023193359375
0.0824999,0.15921440720558167,-1.1276689767837524,9.193136215209961,16.632080078125,-5.126953125,33.416748046875
0.0874999,0.15921440720558167,-1.1276689767837524,9.193136215209961,16.632080078125,-5.126953125,33.416748046875
0.0924999,0.3579331636428833,0.002394201699644327,9.86650562286377,-1.953125,-9.918212890625,-5.462646484375
0.0974999,1.060032844543457,0.9385270476341248,10.085575103759766,-11.962890625,0.640869140625,-37.750244140625
0.1024999,1.9991583824157715,0.8637082576751709,10.08198356628418,-6.500244140625,35.2783203125,-51.300048828125
0.1074999,2.5049335956573486,0.35075053572654724,9.925761222839355,1.64794921875,51.33056640625,-65.032958984375
0.1124999,2.161365509033203,-0.7601590156555176,9.713874816894531,6.16455078125,31.31103515625,-55.72509765625
0.1174999,1.357512354850769,-0.6955155730247498,9.847949981689453,-2.410888671875,6.988525390625,-56.70166015625
0.1224999,-0.11372458189725876,-0.9163807034492493,9.995792388916016,-14.434814453125,5.340576171875,-37.811279296875
0.1274999,-0.8768763542175293,0.008978256024420261,10.085575103759766,-15.0146484375,-5.18798828125,-0.579833984375
0.1324999,-1.568800687789917,-0.25438392162323,10.327388763427734,-16.876220703125,-20.44677734375,29.72412109375
0.1374999,-0.5668272376060486,-1.0001777410507202,9.667187690734863,-3.5400390625,-23.01025390625,51.544189453125
0.1424999,0.11432313174009323,-1.6478092670440674,9.20091724395752,25.299072265625,-17.76123046875,56.21337890625
0.1474999,0.3555389642715454,-2.0254945755004883,9.009381294250488,37.933349609375,-16.448974609375,57.891845703125
0.1524999,0.14245499670505524,-1.482010841369629,9.117119789123535,24.169921875,-8.056640625,44.219970703125
0.1574999,0.20530278980731964,-0.36571431159973145,9.70310115814209,3.90625,-7.476806640625,12.3291015625
0.1624999,0.6925228238105774,0.8098387122154236,10.095749855041504,-9.46044921875,-10.07080078125,-25.87890625
0.1674999,1.634641170501709,1.004966139793396,10.065223693847656,-11.23046875,21.54541015625,-45.806884765625
0.1724999,2.42472767829895,0.6973112225532532,10.027515411376953,0.18310546875,47.088623046875,-61.03515625
0.17749990000000002,2.4384944438934326,-0.3321954905986786,9.781511306762695,5.79833984375,44.0673828125,-58.7158203125
0.1824999,1.7753005027770996,-1.1743559837341309,9.631275177001953,0.54931640625,13.97705078125,-52.215576171875
0.1874999,0.5105634927749634,-1.128267526626587,10.022128105163574,-9.70458984375,4.21142578125,-50.10986328125
0.1924999,-0.6697779297828674,-0.6542156338691711,9.859322547912598,-16.021728515625,1.556396484375,-13.153076171875
0.1974999,-1.4574702978134155,0.16160862147808075,10.263343811035156,-23.529052734375,-25.543212890625,44.586181640625
0.2024999,-0.7984662652015686,-0.21128830313682556,10.003573417663574,-16.05224609375,-26.641845703125,53.253173828125
0.20749990000000001,-0.10714052617549896,-0.9888052940368652,9.488221168518066,11.77978515625,-19.22607421875,54.046630859375
0.2124999,0.4165911078453064,-1.6777368783950806,9.090185165405273,36.224365234375,-18.035888671875,60.11962890625
0.2174999,0.2777273952960968,-1.7387889623641968,8.992023468017578,33.5693359375,-11.5966796875,53.28369140625
0.2224999,0.166995570063591,-0.9217676520347595,9.324816703796387,12.5732421875,-4.33349609375,28.3203125
0.2274999,0.44771572947502136,0.23283611238002777,9.946112632751465,-4.0283203125,-11.077880859375,-11.962890625
0.2324999,1.237802267074585,0.9546879529953003,10.084976196289062,-12.5732421875,6.2255859375,-40.46630859375
0.2374999,2.1314380168914795,0.7858967185020447,10.084976196289062,-4.425048828125,39.6728515625,-55.48095703125
0.2424999,2.5318682193756104,0.1412578970193863,9.882665634155273,3.448486328125,50.78125,-65.4296875
0.2474999,2.033275842666626,-0.9391255974769592,9.693524360656738,5.31005859375,25.45166015625,-53.3447265625
0.2524999,1.1174936294555664,-0.7966706156730652,9.997588157653809,-4.302978515625,5.37109375,-56.7626953125
0.2574999,-1.5885528326034546,-0.07481880486011505,10.356119155883789,-20.599365234375,-22.491455078125,34.210205078125
0.2624999,-1.070208191871643,-0.13706804811954498,10.032901763916016,-24.200439453125,-27.40478515625,51.239013671875
0.2674999,-0.3866635859012604,-0.9929951429367065,9.560646057128906,-1.373291015625,-21.026611328125,51.055908203125
0.2724999,0.2735375463962555,-1.7519570589065552,9.045293807983398,29.6630859375,-19.04296875,60.455322265625
0.2774999,0.37888240814208984,-2.070984363555908,8.875306129455566,40.1611328125,-16.90673828125,61.34033203125
0.2824999,0.12090718746185303,-1.5071499347686768,9.017162322998047,22.552490234375,-6.134033203125,43.548583984375
0.28749990000000003,0.2106897532939911,-0.36332011222839355,9.72165584564209,2.288818359375,-7.537841796875,6.866455078125
0.2924999,0.7655459642410278,0.8319851160049438,10.101137161254883,-9.765625,-7.415771484375,-30.548095703125
0.2974999,1.7447744607925415,1.0540473461151123,10.133459091186523,-10.528564453125,28.106689453125,-50.35400390625
0.3024999,2.3983914852142334,0.6482301354408264,10.08198356628418,-1.983642578125,50.4150390625,-66.009521484375
0.3074999,2.3116016387939453,-0.38307225704193115,9.780912399291992,6.4697265625,39.36767578125,-60.516357421875
0.3124999,0.243011474609375,-1.1198878288269043,9.983820915222168,-12.451171875,5.889892578125,-45.95947265625
0.3174999,-0.6913257241249084,-0.23283611238002777,9.877279281616211,-15.960693359375,-1.678466796875,-7.659912109375
0.3224999,-1.2521674633026123,0.0933738648891449,10.19032096862793,-26.91650390625,-25.45166015625,46.966552734375
0.3274999,-0.6224924325942993,-0.5692214369773865,9.943120002746582,-12.481689453125,-22.674560546875,47.91259765625
0.3324999,0.04908113554120064,-1.315613865852356,9.35893440246582,17.364501953125,-17.486572265625,54.931640625
0.3374999,0.4255693554878235,-1.9147628545761108,8.986037254333496,39.794921875,-20.050048828125,64.910888671875
0.3424999,0.17717093229293823,-1.7717092037200928,8.965686798095703,32.806396484375,-12.969970703125,54.901123046875
0.34749990000000003,0.11192893236875534,-0.8601169586181641,9.387664794921875,9.735107421875,-4.2724609375,23.468017578125
0.35249990000000003,0.5003881454467773,0.39624038338661194,9.971850395202637,-4.913330078125,-10.25390625,-16.937255859375
0.3574999,1.3832499980926514,1.0732009410858154,10.124480247497559,-11.53564453125,13.214111328125,-43.51806640625
0.3624999,2.2260091304779053,0.8678981065750122,10.139444351196289,-5.828857421875,44.708251953125,-59.99755859375
0.3674999,1.8872294425964355,-1.015141487121582,9.720458984375,5.55419921875,19.4091796875,-57.098388671875
0.3724999,0.7559691667556763,-1.1569979190826416,9.956287384033203,-6.65283203125,5.096435546875,-56.610107421875
0.3774999,-0.46327802538871765,-0.9385270476341248,9.86111831665039,-16.326904296875,3.875732421875,-23.406982421875
0.3824999,-1.173158884048462,-0.22744916379451752,10.321403503417969,-13.214111328125,-12.237548828125,10.80322265625
0.3874999,-1.4329297542572021,-0.01735796220600605,10.289081573486328,-23.0712890625,-23.223876953125,38.818359375
0.3924999,-0.8523358106613159,-0.08499415963888168,10.070611000061035,-20.782470703125,-24.566650390625,47.607421875
0.3974999,-0.19812019169330597,-0.9307458996772766,9.55585765838623,5.31005859375,-17.669677734375,48.065185546875
0.4024999,2.1966800689697266,-0.5500678420066833,9.774927139282227,7.049560546875,33.294677734375,-57.586669921875
0.4074999,1.3994108438491821,-0.7320271730422974,9.855133056640625,-0.30517578125,7.01904296875,-57.281494140625
0.41249990000000003,-0.02274491637945175,-1.0103530883789062,10.005369186401367,-14.70947265625,5.767822265625,-40.0390625
0.41749990000000003,-0.7996633648872375,-0.023343466222286224,10.059837341308594,-14.892578125,-4.608154296875,-1.3427734375
0.4224999,-1.4856021404266357,-0.28072014451026917,10.43812084197998,-17.547607421875,-19.83642578125,26.9775390625
0.4274999,-1.1641805171966553,-0.05985504388809204,10.137049674987793,-27.16064453125,-25.115966796875,46.9970703125
0.4324999,-0.5327098965644836,-0.8307880163192749,9.822811126708984,-8.48388671875,-20.721435546875,46.905517578125
0.4374999,0.09636662155389786,-1.53707754611969,9.244611740112305,21.759033203125,-17.76123046875,57.037353515625
0.4424999,0.35015198588371277,-2.0027496814727783,8.946533203125,39.764404296875,-20.416259765625,64.605712890625
0.4474999,0.06883329898118973,-1.7094600200653076,8.98005199432373,29.266357421875,-11.505126953125,51.45263671875
0.4524999,0.5889736413955688,0.5811924338340759,10.035296440124512,-5.92041015625,-9.735107421875,-20.8740234375
0.4574999,1.5298948287963867,1.0887632369995117,10.15021800994873,-11.5966796875,18.463134765625,-46.295166015625
0.4624999,2.319382905960083,0.8415619134902954,10.161590576171875,-5.0048828125,46.539306640625,-61.58447265625
0.4674999,2.408566951751709,-0.040701430290937424,9.876082420349121,4.150390625,45.10498046875,-62.92724609375
0.47249990000000003,1.787870168685913,-1.0420763492584229,9.701904296875,4.852294921875,15.9912109375,-56.7626953125
0.47749990000000003,0.5333084464073181,-1.2575544118881226,9.946112632751465,-9.09423828125,5.523681640625,-53.619384765625
0.4824999,0.005386953707784414,-1.2042834758758545,9.184157371520996,16.90673828125,-6.195068359375,34.576416015625
0.4874999,0.29209262132644653,-0.043095629662275314,9.853935241699219,-0.762939453125,-9.185791015625,-3.631591796875
0.4924999,1.081580638885498,0.9666589498519897,10.126874923706055,-10.19287109375,1.46484375,-36.956787109375
0.4974999,2.011728048324585,0.9379284977912903,10.18493366241455,-9.429931640625,36.895751953125,-54.74853515625
0.5024999,2.4672248363494873,0.44173020124435425,10.013748168945312,-0.732421875,48.980712890625,-64.14794921875
0.5074999,2.075772762298584,-0.6488286852836609,9.79408073425293,6.77490234375,30.059814453125,-56.82373046875
0.5124999,1.1623848676681519,-0.9014169573783875,10.012551307678223,-1.03759765625,6.866455078125,-57.586669921875
0.5174999,-0.19393034279346466,-1.0618284940719604,9.910199165344238,-16.143798828125,5.859375,-36.56005859375
0.5224999,-0.8589198589324951,-0.1472434103488922,10.199298858642578,-11.993408203125,-8.087158203125,2.99072265625
0.5274999,-1.4185645580291748,-0.304063618183136,10.318410873413086,-17.578125,-19.95849609375,30.303955078125
0.5324999,-0.9696516990661621,-0.055665191262960434,10.026318550109863,-25.665283203125,-23.25439453125,45.0439453125
0.5374999,-0.38965633511543274,-0.8756792545318604,9.752182006835938,-3.5400390625,-18.463134765625,44.586181640625
0.5424999,0.28969839215278625,-1.92134690284729,8.989029884338379,37.53662109375,-21.05712890625,62.68310546875
0.5474999,0.28969839215278625,-1.92134690284729,8.989029884338379,37.53662109375,-21.05712890625,62.68310546875
0.5524999,0.0077811554074287415,-1.5939397811889648,9.089587211608887,26.2451171875,-11.077880859375,47.515869140625
0.5574999,0.11013327538967133,-0.5494692921638489,9.607333183288574,5.43212890625,-5.859375,14.617919921875
0.5624999,0.6961141228675842,0.6997054219245911,10.059837341308594,-6.16455078125,-8.148193359375,-22.39990234375
0.5674999000000001,1.6747441291809082,1.0648212432861328,10.155006408691406,-11.688232421875,22.216796875,-47.607421875
0.5724999000000001,2.406172752380371,0.7852981686592102,10.137049674987793,-4.57763671875,46.875,-60.577392578125
0.5774999000000001,2.383427858352661,-0.14784196019172668,9.864110946655273,4.486083984375,42.66357421875,-59.906005859375
0.5824999,1.6753426790237427,-0.9528923034667969,9.718064308166504,3.90625,13.427734375,-55.755615234375
0.5874999,0.3274070918560028,-1.2671312093734741,9.947908401489258,-11.29150390625,5.67626953125,-51.8798828125
0.5924999,-0.628477931022644,-0.6218938827514648,9.785700798034668,-15.5029296875,-0.3662109375,-14.251708984375
0.5974999,-1.3515268564224243,-0.4129997789859772,10.36988639831543,-11.90185546875,-16.265869140625,18.9208984375
0.6024999,-0.6494272351264954,-0.322618693113327,10.037690162658691,-15.9912109375,-21.91162109375,44.525146484375
0.6074999,-0.011971008032560349,-1.047463297843933,9.515155792236328,11.65771484375,-16.7236328125,50.384521484375
0.6124999,0.38965633511543274,-1.6789339780807495,9.077016830444336,34.332275390625,-21.1181640625,64.14794921875
0.6174999,0.19931729137897491,-1.7519570589065552,9.03631591796875,34.3017578125,-17.303466796875,58.807373046875
0.6224999,0.04489128291606903,-1.0749965906143188,9.315239906311035,13.702392578125,-5.157470703125,32.1044921875
0.6274999,0.38486793637275696,0.11312603205442429,9.928754806518555,-1.617431640625,-9.21630859375,-6.04248046875
0.6324999,1.2294225692749023,0.9983820915222168,10.148422241210938,-10.43701171875,4.82177734375,-38.787841796875
0.6374999,2.1487960815429688,0.9253589510917664,10.176554679870605,-8.392333984375,39.154052734375,-54.779052734375
0.6424999,2.5127146244049072,0.3627215623855591,9.972448348999023,-0.1220703125,48.980712890625,-63.018798828125
0.6474999,2.0219032764434814,-0.702099621295929,9.764751434326172,6.28662109375,26.885986328125,-56.396484375
0.6524999,0.9792284965515137,-0.9457096457481384,10.004171371459961,-3.2958984375,6.072998046875,-58.013916015625
0.6574999,-0.363918662071228,-1.0414776802062988,9.875483512878418,-17.39501953125,5.340576171875,-34.85107421875
0.6624999,-1.423951506614685,-0.28550854325294495,10.295066833496094,-19.256591796875,-20.721435546875,32.28759765625
0.6674999,-0.8732850551605225,-0.08738835901021957,9.991601943969727,-25.69580078125,-22.705078125,44.189453125
0.6724999,-0.2495955228805542,-0.9720458984375,9.654019355773926,-0.701904296875,-17.88330078125,46.20361328125
0.6774999,0.262763649225235,-1.632246971130371,9.10993766784668,27.740478515625,-19.47021484375,61.34033203125
0.6824999,0.3250128924846649,-1.9829975366592407,8.930971145629883,39.276123046875,-20.751953125,64.51416015625
0.6874999,0.008379706181585789,-1.5634137392044067,9.078812599182129,24.658203125,-9.552001953125,46.539306640625
0.6924999000000001,0.12509703636169434,-0.4100070297718048,9.679757118225098,4.058837890625,-6.40869140625,12.02392578125
0.6974999000000001,0.7398083209991455,0.8277952671051025,10.111910820007324,-7.293701171875,-7.049560546875,-26.2451171875
0.7024999000000001,1.7322049140930176,1.1007342338562012,10.18912410736084,-11.8408203125,25.32958984375,-49.346923828125
0.7074999,2.44747257232666,0.7882909178733826,10.144830703735352,-3.570556640625,47.66845703125,-60.546875
0.7124999,2.3684639930725098,-0.2190694510936737,9.865307807922363,5.584716796875,41.107177734375,-59.539794921875
0.7174999,1.6274585723876953,-0.9050082564353943,9.745597839355469,3.173828125,12.02392578125,-56.45751953125
0.7224999,0.12749123573303223,-1.7094600200653076,9.054272651672363,32.65380859375,-15.44189453125,55.23681640625
0.7274999,0.018555063754320145,-0.910993754863739,9.372102737426758,11.749267578125,-5.889892578125,26.763916015625
0.7324999,0.4297592043876648,0.33339259028434753,9.97065258026123,-2.99072265625,-9.307861328125,-11.3525390625
0.7374999,1.280897855758667,1.037886381149292,10.163984298706055,-11.90185546875,9.82666015625,-42.327880859375
0.7424999,2.163759708404541,0.8918401598930359,10.1753568649292,-7.354736328125,40.679931640625,-54.8095703125
0.7474999,1.8896236419677734,-0.8948329091072083,9.7605619430542,6.256103515625,22.674560546875,-55.999755859375
0.7524999,0.8445546627044678,-1.0444705486297607,9.958083152770996,-5.37109375,5.67626953125,-57.769775390625
0.7574999,-0.40282443165779114,-0.9780313968658447,9.847352027893066,-16.632080078125,4.69970703125,-29.937744140625
0.7624999,-1.0223240852355957,-0.1693897694349289,10.257957458496094,-11.474609375,-10.25390625,7.568359375
0.7674999,-1.3820528984069824,-0.1825578808784485,10.264541625976562,-20.44677734375,-21.30126953125,35.58349609375
0.7724999,-0.8277952671051025,-0.07302315533161163,10.042478561401367,-23.8037109375,-24.23095703125,47.027587890625
0.7774999,-0.2172738015651703,-0.9205705523490906,9.661202430725098,1.007080078125,-17.730712890625,46.966552734375
0.7824999,0.2849099934101105,-1.5682021379470825,9.120112419128418,27.52685546875,-18.890380859375,59.6923828125
0.7874999,0.292691171169281,-1.909974455833435,8.945934295654297,37.445068359375,-18.707275390625,59.814453125
0.7924999,0.008379706181585789,-1.4664485454559326,9.097966194152832,22.674560546875,-8.758544921875,40.313720703125
0.7974999,0.17956513166427612,-0.26156654953956604,9.703699111938477,2.8076171875,-7.9345703125,5.9814453125
0.8024999,0.7829039692878723,0.8242039084434509,10.110713958740234,-9.429931640625,-4.425048828125,-31.585693359375
0.8074999,-0.657806932926178,-0.25258827209472656,9.86111831665039,-14.495849609375,-2.50244140625,-6.622314453125
0.8124999,-1.3210008144378662,-0.383670836687088,10.367491722106934,-14.923095703125,-17.08984375,23.223876953125
0.8174999000000001,-1.1025298833847046,-0.0065840547904372215,10.14902114868164,-27.740478515625,-24.59716796875,46.356201171875
0.8224999000000001,-0.5063736438751221,-0.6117185354232788,9.965266227722168,-12.542724609375,-22.064208984375,48.431396484375
0.8274999000000001,0.10115502029657364,-1.2850877046585083,9.386467933654785,15.56396484375,-17.2119140625,55.35888671875
0.8324999000000001,0.3932476341724396,-1.856104850769043,8.976460456848145,37.4755859375,-19.71435546875,63.53759765625
0.8374999,0.11312603205442429,-1.8052281141281128,8.973467826843262,34.210205078125,-13.12255859375,52.642822265625
0.8424999,0.002394201699644327,-0.9062053561210632,9.34037971496582,11.1083984375,-5.645751953125,22.705078125
0.8474999,1.823184609413147,-0.9882067441940308,9.750985145568848,5.828857421875,22.27783203125,-56.427001953125
0.8524999,0.7703344225883484,-1.095347285270691,9.972448348999023,-6.28662109375,6.195068359375,-56.915283203125
0.8574999,-0.3734954595565796,-0.9684545993804932,9.886856079101562,-16.387939453125,3.7841796875,-26.30615234375
0.8624999,-1.0127472877502441,-0.2669534981250763,10.322002410888672,-12.5732421875,-10.772705078125,8.392333984375
0.8674999,-1.2587515115737915,-0.13048399984836578,10.301053047180176,-22.369384765625,-21.697998046875,38.6962890625
0.8724999,-0.7003039717674255,-0.1412578970193863,10.079588890075684,-21.697998046875,-24.96337890625,51.055908203125
0.8774999,-0.09457096457481384,-0.9199720025062561,9.594164848327637,3.41796875,-17.88330078125,51.422119140625
0.8824999,0.3663128614425659,-1.591545581817627,9.034520149230957,30.029296875,-18.463134765625,61.58447265625
0.8874999,0.28790274262428284,-1.8800468444824219,8.917203903198242,39.1845703125,-16.448974609375,58.380126953125
0.8924999,0.152031809091568,-0.08858546614646912,9.782708168029785,1.40380859375,-9.1552734375,-0.18310546875
0.8974999,0.7727286219596863,0.8882488012313843,10.13286018371582,-11.138916015625,-2.0751953125,-36.0107421875
0.9024999,1.7627309560775757,1.0426748991012573,10.199897766113281,-10.711669921875,31.585693359375,-48.27880859375
0.9074999,2.3307554721832275,0.5560533404350281,10.074800491333008,0.48828125,45.0439453125,-58.28857421875
0.9124999,2.118868589401245,-0.5422866940498352,9.830592155456543,7.01904296875,35.2783203125,-57.769775390625
0.9174999,1.3880383968353271,-0.828393816947937,9.774328231811523,0.335693359375,10.31494140625,-58.16650390625
0.9224999,0.09636662155389786,-1.0576386451721191,9.977835655212402,-12.847900390625,5.4931640625,-43.0908203125
0.9274999,-0.6739677786827087,-0.16879121959209442,9.98681354522705,-13.85498046875,-2.899169921875,-4.425048828125
0.9324999,-1.3120225667953491,-0.33339259028434753,10.397418975830078,-16.265869140625,-17.15087890625,24.688720703125
0.9374999,-1.0576386451721191,-0.01735796220600605,10.199298858642578,-26.947021484375,-25.726318359375,49.163818359375
0.9424999000000001,-0.46327802538871765,-0.7122750282287598,9.922768592834473,-9.857177734375,-22.125244140625,50.59814453125
0.9474999000000001,0.13168109953403473,-1.3832499980926514,9.322422981262207,18.24951171875,-16.845703125,55.694580078125
0.9524999000000001,0.0933738648891449,-1.7345991134643555,8.986037254333496,31.25,-11.505126953125,46.356201171875
0.9574999000000001,0.04728548228740692,-0.6584054827690125,9.45410442352295,8.11767578125,-7.232666015625,15.838623046875
0.9624999,0.47405192255973816,0.5536591410636902,10.04307746887207,-6.591796875,-9.58251953125,-22.369384765625
0.9674999,1.3329718112945557,1.082777738571167,10.181343078613281,-14.434814453125,17.242431640625,-43.914794921875
0.9724999,2.1505916118621826,0.8559271097183228,10.173561096191406,-3.387451171875,40.252685546875,-52.001953125
0.9774999,2.2673089504241943,-0.06464344263076782,9.913191795349121,4.5166015625,43.243408203125,-60.516357421875
0.9824999,1.7016788721084595,-1.1468225717544556,9.682151794433594,4.425048828125,20.32470703125,-57.43408203125
0.9874999,0.6482301354408264,-1.2120646238327026,9.939528465270996,-6.683349609375,5.4931640625,-55.0537109375
0.9924999,-0.4411316514015198,-0.9115923047065735,9.828198432922363,-14.5263671875,2.960205078125,-19.561767578125
0.9974999,-1.0480618476867676,-0.33099839091300964,10.314221382141113,-12.6953125,-11.077880859375,11.41357421875
1.0024999,-1.259350061416626,0.040701430290937424,10.281899452209473,-23.98681640625,-22.613525390625,41.07666015625
1.0074999000000002,-0.6865373253822327,-0.11432313174009323,10.11430549621582,-20.20263671875,-26.18408203125,53.009033203125
1.0124999000000001,0.2711433470249176,-1.799242615699768,8.978256225585938,37.59765625,-14.556884765625,55.2978515625
1.0174999000000002,0.015562310814857483,-1.183334231376648,9.156624794006348,17.08984375,-6.591796875,31.73828125
1.0224999000000001,0.2555810213088989,0.07003039866685867,9.881468772888184,-0.640869140625,-10.101318359375,-5.4931640625
1.0274999,0.8864531517028809,0.9193734526634216,10.126276016235352,-13.18359375,1.3427734375,-38.0859375
1.0324999000000001,1.857301950454712,1.0031704902648926,10.211869239807129,-8.544921875,32.989501953125,-46.69189453125
1.0374999,2.316988706588745,0.4106055796146393,10.031106948852539,1.312255859375,44.586181640625,-59.02099609375
1.0424999000000001,1.3036428689956665,-0.7829039692878723,9.867103576660156,-0.91552734375,9.27734375,-59.326171875
1.0474999,0,-0.9870096445083618,9.979032516479492,-13.458251953125,5.157470703125,-38.909912109375
1.0524999000000002,-0.6721721291542053,-0.07122749835252762,10.107122421264648,-14.09912109375,-3.96728515625,-1.983642578125
1.0574999,-1.3084312677383423,-0.27712884545326233,10.368688583374023,-18.035888671875,-18.310546875,27.89306640625
1.0624999000000002,1.4191631078720093,1.0881646871566772,10.202890396118164,-13.5498046875,20.294189453125,-44.342041015625
1.0674999,2.210446834564209,0.8038532137870789,10.18912410736084,-2.0751953125,41.900634765625,-54.351806640625
1.0724999000000002,2.2852654457092285,-0.15083470940589905,9.92097282409668,5.340576171875,42.999267578125,-60.699462890625
1.0774999,1.6837223768234253,-1.1234791278839111,9.694721221923828,3.143310546875,18.37158203125,-58.135986328125
1.0824999000000002,0.5327098965644836,-1.1671733856201172,10.002974510192871,-8.6669921875,5.18798828125,-54.8095703125
1.0874999,0.04967968538403511,-0.9959878921508789,9.518747329711914,8.087158203125,-18.157958984375,55.328369140625
1.0924999000000002,0.4602852761745453,-1.7519570589065552,8.980650901794434,36.376953125,-18.157958984375,62.408447265625
1.0974999,0.2406172752380371,-1.9153614044189453,8.903437614440918,40.252685546875,-14.22119140625,56.09130859375
1.1024999000000002,-0.040701430290937424,-1.1647791862487793,9.136872291564941,16.11328125,-5.645751953125,30.120849609375
1.1074999,0.1825578808784485,0.1454477459192276,9.932944297790527,-1.77001953125,-10.8642578125,-8.697509765625
1.1124999000000002,0.9056068062782288,1.0229226350784302,10.183736801147461,-13.671875,2.8076171875,-39.4287109375
1.1174999,1.8908207416534424,1.0450690984725952,10.239401817321777,-7.62939453125,35.491943359375,-49.713134765625
1.1224999000000002,2.3702597618103027,0.41778820753097534,10.04188060760498,2.38037109375,46.539306640625,-61.737060546875
1.1274999,2.0171148777008057,-0.74040687084198,9.792284965515137,6.2255859375,31.280517578125,-57.464599609375
1.1324999000000002,-0.10714052617549896,-0.8864531517028809,10.022727012634277,-15.350341796875,5.462646484375,-38.909912109375
1.1374999000000001,-0.10714052617549896,-0.8864531517028809,10.022727012634277,-15.350341796875,5.462646484375,-38.909912109375
1.1424999000000002,-0.7841010689735413,0.03890577703714371,10.15560531616211,-17.364501953125,-4.852294921875,-3.265380859375
1.1474999000000001,-1.3886369466781616,-0.2082955539226532,10.38724422454834,-19.34814453125,-20.660400390625,30.1513671875
1.1524999000000002,-1.0133458375930786,-0.21667525172233582,10.079588890075684,-26.336669921875,-27.862548828125,54.290771484375
1.1574999000000001,-0.3519476354122162,-1.0295066833496094,9.627683639526367,-5.615234375,-24.322509765625,59.539794921875
1.1624999,0.29209262132644653,-1.7501614093780518,9.008782386779785,27.374267578125,-19.53125,66.89453125
1.1674999000000001,0.4183867573738098,-2.1356279850006104,8.835203170776367,44.73876953125,-16.54052734375,69.000244140625
1.1724999,0.04489128291606903,-1.6310498714447021,8.918401718139648,27.130126953125,-5.767822265625,51.971435546875
1.1774999000000002,-0.02454056777060032,-0.395043283700943,9.662399291992188,4.547119140625,-6.7138671875,15.472412109375
1.1824999,0.436343252658844,0.8026561141014099,10.177152633666992,-9.27734375,-11.016845703125,-26.763916015625
1.1874999000000002,1.434126853942871,1.1013327836990356,10.18792724609375,-11.65771484375,22.216796875,-49.8046875
1.1924999,0.518943190574646,-1.0504560470581055,10.06701946258545,-10.1318359375,4.57763671875,-58.624267578125
1.1974999000000002,-0.6380547285079956,-0.7068880796432495,9.926360130310059,-19.012451171875,2.3193359375,-22.491455078125
1.2024999,-1.290474772453308,-0.25019407272338867,10.345345497131348,-16.387939453125,-14.2822265625,12.237548828125
1.2074999000000002,-1.3251906633377075,-0.046088382601737976,10.279504776000977,-22.3388671875,-25.604248046875,46.112060546875
1.2124999,-0.6404489278793335,-0.3866635859012604,9.914389610290527,-17.242431640625,-26.153564453125,54.901123046875
1.2174999000000002,0.023343466222286224,-1.1893197298049927,9.355342864990234,12.603759765625,-19.744873046875,58.380126953125
1.2224999,0.45010992884635925,-1.8112136125564575,8.984241485595703,40.130615234375,-18.951416015625,67.81005859375
1.2274999000000002,0.20231004059314728,-1.7860745191574097,8.917203903198242,36.07177734375,-12.786865234375,59.26513671875
1.2324999,-0.04010287672281265,-0.8984242081642151,9.319430351257324,12.451171875,-4.852294921875,32.16552734375
1.2374999000000002,0.2214636504650116,0.36332011222839355,10.034099578857422,-3.387451171875,-11.749267578125,-7.293701171875
1.2424999,2.079364061355591,0.9696516990661621,10.212467193603516,-5.43212890625,40.863037109375,-59.02099609375
1.2474999000000002,2.5707740783691406,0.2825157940387726,9.95209789276123,3.021240234375,51.177978515625,-65.765380859375
1.2524999,2.103306293487549,-0.8152256608009338,9.754576683044434,5.18798828125,26.30615234375,-54.290771484375
1.2574999000000002,1.2042834758758545,-0.7260416746139526,10.031704902648926,-3.84521484375,6.28662109375,-60.6689453125
1.2624999000000001,-0.2777273952960968,-0.8762778043746948,9.988609313964844,-17.608642578125,5.462646484375,-38.360595703125
1.2674999000000002,-0.9612720012664795,-0.023942016065120697,10.137648582458496,-16.998291015625,-6.8359375,-1.373291015625
1.2724999000000001,-1.5017629861831665,-0.30526071786880493,10.244190216064453,-17.578125,-22.430419921875,33.355712890625
1.2774999000000002,-0.9971849918365479,-0.3585317134857178,9.843161582946777,-22.88818359375,-26.30615234375,52.154541015625
1.2824999000000001,-0.30705636739730835,-1.193509578704834,9.45410442352295,-1.434326171875,-20.3857421875,51.788330078125
1.2874999,0.30526071786880493,-1.8279730081558228,9.023746490478516,30.120849609375,-18.463134765625,62.80517578125
1.2924999000000001,0.37229835987091064,-2.0590133666992188,8.911218643188477,40.679931640625,-17.7001953125,64.666748046875
1.2974999,0.03292027488350868,-1.4287399053573608,9.09257984161377,22.491455078125,-7.8125,45.562744140625
1.3024999000000002,0.6374561786651611,0.9870096445083618,10.180145263671875,-10.25390625,-7.9345703125,-28.80859375
1.3074999,1.6525976657867432,1.1180921792984009,10.159195899963379,-11.1083984375,27.64892578125,-52.1240234375
1.3124999000000002,2.429516077041626,0.6859387755393982,10.085575103759766,1.129150390625,49.62158203125,-65.24658203125
1.3174999,2.38462495803833,-0.44412440061569214,9.780313491821289,6.40869140625,40.069580078125,-58.013916015625
1.3224999000000002,1.73519766330719,-1.1534066200256348,9.640851974487305,0.67138671875,11.383056640625,-58.013916015625
1.3274999,0.42437225580215454,-1.161187767982483,10.042478561401367,-11.77978515625,5.06591796875,-53.863525390625
1.3324999000000002,-0.6147112846374512,-0.5758054852485657,9.877279281616211,-18.463134765625,1.007080078125,-15.2587890625
1.3374999,-1.359906554222107,-0.3148375153541565,10.404003143310547,-14.83154296875,-15.899658203125,17.88330078125
1.3424999000000002,-1.3437457084655762,0.0065840547904372215,10.250176429748535,-23.13232421875,-26.275634765625,47.91259765625
1.3474999,-0.7134721279144287,-0.46088382601737976,9.9185791015625,-14.312744140625,-24.90234375,52.24609375
1.3524999000000002,-0.0454898327589035,-1.2216414213180542,9.366715431213379,16.41845703125,-17.974853515625,56.610107421875
1.3574999,0.3734954595565796,-1.7842788696289062,9.024943351745605,39.73388671875,-18.646240234375,65.765380859375
1.3624999000000002,0.33758243918418884,0.52552729845047,10.04427433013916,-5.43212890625,-11.90185546875,-12.603759765625
1.3674999,1.1737574338912964,1.0169371366500854,10.080187797546387,-13.824462890625,9.857177734375,-44.5556640625
1.3724999000000002,2.161964178085327,0.7846996188163757,10.127472877502441,-1.861572265625,42.144775390625,-59.63134765625
1.3774999,2.5067291259765625,-0.02214636653661728,9.847949981689453,5.035400390625,47.54638671875,-60.9130859375
1.3824999000000002,1.9931728839874268,-0.9750386476516724,9.721057891845703,3.72314453125,22.552490234375,-51.69677734375
1.3874999000000001,1.0845733880996704,-0.7529764175415039,10.066421508789062,-5.43212890625,5.096435546875,-59.478759765625
1.3924999000000002,-0.33518823981285095,-0.7320271730422974,10.00716495513916,-17.425537109375,5.157470703125,-31.8603515625
1.3974999000000001,-0.973242998123169,0.047884032130241394,10.259753227233887,-15.716552734375,-8.11767578125,4.425048828125
1.4024999000000002,-1.4634557962417603,-0.1909375786781311,10.31601619720459,-17.88330078125,-22.369384765625,36.43798828125
1.4074999000000001,-0.9391255974769592,-0.29807811975479126,9.93593692779541,-22.430419921875,-27.03857421875,52.581787109375
1.4124999,-0.30945056676864624,-1.1665748357772827,9.474454879760742,0.640869140625,-19.561767578125,51.483154296875
1.4174999000000001,0.2735375463962555,-2.0045454502105713,8.901042938232422,38.116455078125,-16.05224609375,59.87548828125
1.4224999,0.002992752008140087,-1.3108254671096802,9.131484985351562,19.989013671875,-7.110595703125,40.58837890625
1.4274999000000002,0.1472434103488922,-0.023942016065120697,9.841365814208984,0.48828125,-9.002685546875,4.974365234375
1.4324999,0.750582218170166,1.0181342363357544,10.129867553710938,-12.451171875,-4.39453125,-33.38623046875
1.4374999000000002,1.7603367567062378,1.0402805805206299,10.1568021774292,-9.429931640625,31.31103515625,-52.886962890625
1.4424999,2.40736985206604,0.5811924338340759,10.017938613891602,2.227783203125,47.821044921875,-62.896728515625
1.4474999000000002,2.2415714263916016,-0.5716156363487244,9.771934509277344,6.195068359375,35.7666015625,-56.0302734375
1.4524999,1.547252893447876,-0.9558850526809692,9.691129684448242,-0.732421875,9.674072265625,-58.990478515625
1.4574999000000002,0.21847090125083923,-1.0684125423431396,10.007762908935547,-13.73291015625,5.279541015625,-48.4619140625
1.4624999,-0.6865373253822327,-0.3124433159828186,9.84495735168457,-17.608642578125,-1.007080078125,-9.21630859375
1.4674999000000002,-1.3634978532791138,-0.3405751883983612,10.350133895874023,-15.106201171875,-17.303466796875,21.8505859375
1.4724999,-0.5452794432640076,-0.6757634282112122,9.831789016723633,-11.505126953125,-23.223876953125,51.666259765625
1.4774999000000002,0.10235211998224258,-1.4143747091293335,9.312846183776855,19.439697265625,-16.204833984375,55.35888671875
1.4824999,0.40940847992897034,-1.9141643047332764,8.991424560546875,39.4287109375,-18.218994140625,61.767578125
1.4874999000000002,0.1107318252325058,-1.6753426790237427,9.024943351745605,31.280517578125,-12.26806640625,49.774169921875
1.4924999,0.011372458189725876,-0.5919663906097412,9.517550468444824,8.4228515625,-6.927490234375,20.6298828125
1.4974999000000002,0.3992331326007843,0.6560112833976746,10.092158317565918,-7.598876953125,-11.505126953125,-18.463134765625
1.5024999,1.2527660131454468,1.105522632598877,10.169371604919434,-14.556884765625,15.106201171875,-45.7763671875
1.5074999000000002,2.162562608718872,0.8553285598754883,10.14902114868164,-2.3193359375,41.961669921875,-57.525634765625
1.5124999000000001,2.3732523918151855,-0.11791443079710007,9.86231517791748,5.0048828125,45.562744140625,-61.279296875
1.5174999000000002,1.8525135517120361,-1.1037269830703735,9.677961349487305,4.302978515625,20.69091796875,-56.396484375
1.5224999000000001,0.8571242094039917,-1.0893617868423462,9.991601943969727,-6.28662109375,5.126953125,-56.427001953125
1.5274999000000002,-0.34416648745536804,-0.884058952331543,9.874884605407715,-16.54052734375,4.486083984375,-22.735595703125
1.5324999000000001,-0.7721300721168518,-0.22026655077934265,9.976638793945312,-20.56884765625,-26.42822265625,52.581787109375
1.5374999000000003,-0.17836803197860718,-1.083974838256836,9.496601104736328,6.011962890625,-17.120361328125,50.018310546875
1.5424999000000001,0.32381579279899597,-1.669357180595398,9.062053680419922,32.8369140625,-16.937255859375,57.769775390625
1.5474999,0.2214636504650116,-1.853710651397705,8.942941665649414,36.468505859375,-15.594482421875,53.924560546875
1.5524999000000002,0,-1.0911574363708496,9.223662376403809,18.218994140625,-7.843017578125,32.53173828125
1.5574999,0.1933317929506302,0.1843535304069519,9.906009674072266,-1.708984375,-10.68115234375,-2.685546875
1.5624999000000002,0.8421604633331299,1.036689281463623,10.136451721191406,-14.0380859375,0.1220703125,-36.56005859375
1.5674999,1.8279730081558228,1.0085574388504028,10.177152633666992,-7.080078125,32.196044921875,-49.041748046875
1.5724999000000002,2.3505074977874756,0.41359832882881165,9.985616683959961,2.960205078125,44.769287109375,-58.563232421875
1.5774999,2.0835540294647217,-0.7116764783859253,9.77253246307373,5.37109375,33.905029296875,-55.633544921875
1.5824999000000002,1.3640964031219482,-0.8451532125473022,9.714473724365234,-1.678466796875,9.09423828125,-57.7392578125
1.5874999,-1.0348936319351196,-0.1256955862045288,10.156203269958496,-25.7568359375,-26.641845703125,50.537109375
1.5924999000000002,-0.4704606235027313,-0.8170213103294373,9.831789016723633,-7.75146484375,-21.881103515625,50.079345703125
1.5974999,0.10773907601833344,-1.4975731372833252,9.303269386291504,21.942138671875,-15.411376953125,51.788330078125
1.6024999000000002,0.3166331648826599,-1.9291280508041382,8.969278335571289,37.017822265625,-17.02880859375,54.74853515625
1.6074999,0.08978256583213806,-1.5765818357467651,9.057265281677246,27.587890625,-10.6201171875,41.229248046875
1.6124999000000002,0.12689268589019775,-0.4010287821292877,9.595361709594727,5.950927734375,-7.75146484375,12.02392578125
1.6174999,0.5859808921813965,0.6661866307258606,10.054450035095215,-9.429931640625,-8.331298828125,-24.566650390625
1.6224999000000002,1.4622586965560913,1.0432734489440918,10.147225379943848,-12.51220703125,20.1416015625,-43.51806640625
1.6274999,2.209848165512085,0.6919242739677429,10.095749855041504,0.335693359375,39.55078125,-52.032470703125
1.6324999000000002,2.251746654510498,-0.29628247022628784,9.843161582946777,5.31005859375,43.121337890625,-59.38720703125
1.6374999000000001,0.6129156351089478,-1.2144588232040405,9.955090522766113,-6.866455078125,4.608154296875,-51.45263671875
1.6424999000000002,-0.47165772318840027,-0.8020575642585754,9.78989028930664,-12.969970703125,3.0517578125,-12.51220703125
1.6474999000000001,-1.094150185585022,-0.3196259140968323,10.269330024719238,-11.444091796875,-11.810302734375,14.862060546875
1.6524999000000002,-1.2886791229248047,0.04668693244457245,10.22264289855957,-23.37646484375,-23.49853515625,42.236328125
1.6574999000000001,-0.7541735172271729,-0.11312603205442429,10.029909133911133,-18.00537109375,-26.2451171875,51.26953125
1.6624999000000003,-0.18555063009262085,-0.9151836037635803,9.603741645812988,8.880615234375,-16.082763671875,47.119140625
1.6674999000000001,0.2795230448246002,-1.5388731956481934,9.174580574035645,31.494140625,-16.54052734375,52.520751953125
1.6724999,0.20051439106464386,-1.6753426790237427,9.078812599182129,32.440185546875,-14.251708984375,47.393798828125
1.6774999000000002,0.11372458189725876,-0.8960300087928772,9.349357604980469,14.2822265625,-7.232666015625,25.32958984375
1.6824999,0.4034229815006256,0.25498247146606445,9.944316864013672,-3.631591796875,-10.467529296875,-9.002685546875
1.6874999000000002,1.091755986213684,0.9301473498344421,10.097545623779297,-14.34326171875,5.55419921875,-37.78076171875
1.6924999,1.9602526426315308,0.7906851172447205,10.113107681274414,-3.875732421875,32.012939453125,-44.5556640625
1.6974999000000002,1.9243396520614624,-0.900818407535553,9.727043151855469,4.852294921875,31.67724609375,-56.304931640625
1.7024999,1.2042834758758545,-0.838569164276123,9.749788284301758,-2.471923828125,7.659912109375,-55.938720703125
1.7074999000000002,-0.05746084079146385,-0.9457096457481384,9.888052940368652,-11.1083984375,4.7607421875,-30.2734375
1.7124999,-0.7015010714530945,-0.09038111567497253,9.982025146484375,-10.894775390625,-4.730224609375,6.89697265625
1.7174999000000002,-1.3192051649093628,-0.28072014451026917,10.275315284729004,-16.326904296875,-17.913818359375,30.09033203125
1.7224999,-1.0055646896362305,-0.1388636976480484,10.117298126220703,-24.200439453125,-26.885986328125,50.47607421875
1.7274999000000002,-0.5135562419891357,-0.8367735147476196,9.764751434326172,-4.058837890625,-20.843505859375,48.40087890625
1.7324999,0.046088382601737976,-1.4832079410552979,9.343372344970703,23.773193359375,-15.777587890625,49.9267578125
1.7374999000000002,0.22924481332302094,-1.813009262084961,9.083003044128418,33.538818359375,-15.716552734375,50.96435546875
1.7424999,0.076015904545784,-1.3760673999786377,9.186552047729492,22.705078125,-9.552001953125,37.109375
1.7474999000000002,0.22266076505184174,-0.1933317929506302,9.755773544311523,3.265380859375,-8.48388671875,8.1787109375
1.7524999,0.7338228225708008,0.689530074596405,10.047266960144043,-11.3525390625,-6.53076171875,-27.374267578125
1.7574999000000002,-1.2557587623596191,0.16400282084941864,10.262146949768066,-25.238037109375,-24.5361328125,43.609619140625
1.7624999000000001,-0.6865373253822327,-0.12210428714752197,10.019734382629395,-17.181396484375,-25.238037109375,50.323486328125
1.7674999000000002,-0.13287819921970367,-0.8912416100502014,9.542689323425293,10.7421875,-16.7236328125,47.515869140625
1.7724999000000001,0.30226796865463257,-1.5646108388900757,9.097966194152832,32.440185546875,-17.15087890625,52.032470703125
1.7774999000000002,0.19452889263629913,-1.6711528301239014,9.021950721740723,31.67724609375,-13.7939453125,46.112060546875
1.7824999000000001,0.1604115068912506,-0.8631097078323364,9.344569206237793,13.00048828125,-7.110595703125,22.918701171875
1.7874999000000003,1.2306196689605713,0.8876502513885498,10.104129791259766,-14.007568359375,8.60595703125,-38.75732421875
1.7924999000000001,1.2306196689605713,0.8876502513885498,10.104129791259766,-14.007568359375,8.60595703125,-38.75732421875
1.7974999,2.0422539710998535,0.7535749673843384,10.108319282531738,-3.570556640625,33.111572265625,-44.464111328125
1.8024999000000002,2.3074119091033936,0.0454898327589035,9.923966407775879,2.99072265625,44.036865234375,-58.441162109375
1.8074999,1.8399440050125122,-0.9690531492233276,9.715071678161621,5.279541015625,29.205322265625,-57.12890625
1.8124999000000002,1.0666168928146362,-0.8738836050033569,9.937732696533203,-2.593994140625,6.89697265625,-54.107666015625
1.8174999,-0.20051439106464386,-0.9133879542350769,9.892841339111328,-11.688232421875,4.669189453125,-24.35302734375
1.8224999000000002,-0.7649474143981934,-0.023942016065120697,10.20528507232666,-10.3759765625,-7.080078125,9.613037109375
1.8274999,-1.3515268564224243,-0.1759738177061081,10.28010368347168,-20.1416015625,-19.287109375,32.71484375
1.8324999000000002,-0.950498104095459,-0.06404489278793335,10.070012092590332,-24.871826171875,-26.397705078125,49.530029296875
1.8374999,-0.4638765752315521,-0.861314058303833,9.678560256958008,-1.007080078125,-18.9208984375,45.22705078125
1.8424999000000002,0.05925649031996727,-1.4407109022140503,9.136273384094238,22.4609375,-10.19287109375,34.820556640625
1.8474999,0.05925649031996727,-1.4407109022140503,9.136273384094238,22.4609375,-10.19287109375,34.820556640625
1.8524999000000002,0.2825157940387726,-0.20051439106464386,9.761159896850586,2.349853515625,-8.36181640625,4.94384765625
1.8574999,0.8523358106613159,0.7015010714530945,10.06582260131836,-11.627197265625,-3.997802734375,-29.815673828125
1.8624999000000002,1.756745457649231,0.970848798751831,10.15560531616211,-10.19287109375,24.749755859375,-41.290283203125
1.8674999,2.3092074394226074,0.4866214990615845,10.023923873901367,0.640869140625,40.34423828125,-52.337646484375
1.8724999000000002,2.144606113433838,-0.5033808946609497,9.798270225524902,5.43212890625,40.252685546875,-59.26513671875
1.8774999,1.4838064908981323,-1.2306196689605713,9.595361709594727,1.03759765625,14.190673828125,-55.267333984375
1.8824999000000002,0.30885201692581177,-1.2862848043441772,9.913790702819824,-8.36181640625,4.547119140625,-41.748046875
1.8874999000000001,-0.5464765429496765,-0.6260837316513062,9.794678688049316,-11.688232421875,-0.06103515625,-1.251220703125
1.8924999000000002,-1.1994950771331787,-0.40282443165779114,10.365097999572754,-13.00048828125,-14.495849609375,21.392822265625
1.8974999000000001,-1.1522095203399658,0.1885433793067932,10.202292442321777,-26.824951171875,-24.871826171875,45.0439453125
1.9024999000000002,0.27473464608192444,-1.6059107780456543,9.088988304138184,33.203125,-17.120361328125,52.8564453125
1.9074999000000001,0.13587094843387604,-1.6095020771026611,9.106945037841797,30.242919921875,-13.18359375,45.41015625
1.9124999000000003,0.14664486050605774,-0.656609833240509,9.474454879760742,9.979248046875,-7.049560546875,20.416259765625
1.9174999000000001,0.5363011956214905,0.3884592354297638,10.014347076416016,-6.34765625,-10.101318359375,-16.021728515625
1.9224999,2.1284453868865967,0.7218518257141113,10.108319282531738,-2.227783203125,34.271240234375,-44.921875
1.9274999000000002,2.1284453868865967,0.7218518257141113,10.108319282531738,-2.227783203125,34.271240234375,-44.921875
1.9324999,2.3325510025024414,-0.05925649031996727,9.898826599121094,3.204345703125,44.342041015625,-59.234619140625
1.9374999000000002,1.7818846702575684,-1.0336965322494507,9.685144424438477,3.936767578125,26.3671875,-55.84716796875
1.9424999,0.9205705523490906,-0.9289502501487732,9.977835655212402,-4.08935546875,6.134033203125,-52.581787109375
1.9474999000000002,-0.2998737692832947,-0.8684966564178467,9.841964721679688,-12.63427734375,4.39453125,-19.866943359375
1.9524999,-0.8463503122329712,-0.08559270948171616,10.274118423461914,-10.772705078125,-8.453369140625,11.383056640625
1.9574999000000002,-0.811634361743927,-0.10055647045373917,10.061633110046387,-23.8037109375,-26.0009765625,50.811767578125
1.9624999,-0.3034650683403015,-0.9032126069068909,9.622895240783691,2.0751953125,-18.157958984375,47.698974609375
1.9674999000000002,0.1999158412218094,-1.6077064275741577,9.120112419128418,27.923583984375,-16.082763671875,52.032470703125
1.9724999,0.24181437492370605,-1.8411411046981812,8.969876289367676,36.041259765625,-15.777587890625,52.18505859375
1.9774999000000002,0.06224924325942993,-1.290474772453308,9.141660690307617,20.233154296875,-8.7890625,32.867431640625
1.9824999,0.2711433470249176,-0.06763619929552078,9.824606895446777,0.152587890625,-8.9111328125,-1.15966796875
1.9874999000000002,0.8361749649047852,0.7799112200737,10.096946716308594,-12.87841796875,-1.5869140625,-33.38623046875
1.9924999,1.7256208658218384,0.9181763529777527,10.178350448608398,-7.568359375,26.214599609375,-39.886474609375
1.9974999000000002,2.228403329849243,0.3998316824436188,10.02452278137207,1.556396484375,40.740966796875,-54.50439453125
2.0024999,1.3952209949493408,-1.1994950771331787,9.607333183288574,-0.274658203125,12.26806640625,-55.938720703125
2.0074999,1.3952209949493408,-1.1994950771331787,9.607333183288574,-0.274658203125,12.26806640625,-55.938720703125
2.0124999000000003,0.24839842319488525,-1.2000936269760132,9.874884605407715,-8.1787109375,4.180908203125,-39.1845703125
2.0174999000000002,-1.1641805171966553,-0.3669114112854004,10.304644584655762,-14.251708984375,-14.312744140625,23.040771484375
2.0224999,-1.0396820306777954,0.17896658182144165,10.214861869812012,-26.55029296875,-25.360107421875,47.393798828125
2.0274999,-0.5590460896492004,-0.35434186458587646,9.983820915222168,-10.8642578125,-23.468017578125,50.72021484375
2.0324999000000004,-0.023942016065120697,-1.070208191871643,9.482834815979004,17.547607421875,-15.80810546875,50.567626953125
2.0374999000000003,0.27653029561042786,-1.6316484212875366,9.099761962890625,33.935546875,-15.594482421875,52.886962890625
2.0424999,0.09876082092523575,-1.5286977291107178,9.126696586608887,28.289794921875,-11.444091796875,42.144775390625
2.0474999,0.14604631066322327,-0.5123591423034668,9.537302017211914,7.659912109375,-7.598876953125,13.7939453125
2.0524999,0.5404910445213318,0.40940847992897034,10.011354446411133,-8.30078125,-9.27734375,-22.4609375
2.0574999000000003,1.3605051040649414,0.882861852645874,10.107122421264648,-12.420654296875,15.44189453125,-37.7197265625
2.0624999,2.1110873222351074,0.5716156363487244,10.052056312561035,0.06103515625,34.912109375,-46.38671875
2.0674999,2.2170307636260986,-0.20530278980731964,9.847949981689453,4.119873046875,43.914794921875,-61.126708984375
2.0724999,1.6466121673583984,-1.1019313335418701,9.66299819946289,2.3193359375,22.796630859375,-56.09130859375
2.0774999000000003,-0.3561375141143799,-0.7954735159873962,9.837775230407715,-11.16943359375,3.753662109375,-15.594482421875
2.0824999,-0.8852560520172119,-0.15083470940589905,10.26513957977295,-10.92529296875,-8.6669921875,14.068603515625
2.0874999,-1.2521674633026123,-0.05925649031996727,10.235212326049805,-21.78955078125,-21.575927734375,37.567138671875
2.0924999,-0.7799112200737,-0.15921440720558167,10.049062728881836,-20.69091796875,-26.85546875,52.032470703125
2.0974999000000003,-0.2795230448246002,-0.9080010056495667,9.600150108337402,4.5166015625,-18.85986328125,50.079345703125
2.1024999,0.20709845423698425,-1.5831658840179443,9.170391082763672,29.632568359375,-16.2353515625,53.131103515625
2.1074999,0.20290859043598175,-1.7196353673934937,9.033323287963867,32.928466796875,-13.85498046875,49.74365234375
2.1124999,0.09576806426048279,-1.0181342363357544,9.244012832641602,16.143798828125,-7.26318359375,28.961181640625
2.1174999000000003,0.3381809890270233,0.0628477931022644,9.885659217834473,-1.861572265625,-9.94873046875,-6.53076171875
2.1224999,0.961870551109314,0.8277952671051025,10.075399398803711,-13.275146484375,1.495361328125,-34.271240234375
2.1274999,1.8471266031265259,0.7451952695846558,10.118494987487793,-4.39453125,28.289794921875,-40.22216796875
2.1324999,2.2703018188476562,0.2190694510936737,9.95329475402832,2.716064453125,42.877197265625,-57.342529296875
2.1374999000000003,1.9536685943603516,-0.7876923680305481,9.747992515563965,4.5166015625,35.09521484375,-58.013916015625
2.1424999000000002,1.2653355598449707,-1.1210849285125732,9.639056205749512,-1.89208984375,9.613037109375,-56.2744140625
2.1474999,0.11312603205442429,-1.0899603366851807,9.906009674072266,-8.4228515625,3.326416015625,-36.529541015625
2.1524999,-0.6117185354232788,-0.3926490843296051,9.856329917907715,-10.6201171875,-1.861572265625,5.218505859375
2.1574999000000004,-1.1887211799621582,-0.29628247022628784,10.302249908447266,-15.167236328125,-15.228271484375,24.96337890625
2.1624999000000003,-0.5327098965644836,-0.47225627303123474,9.889848709106445,-8.941650390625,-23.529052734375,52.30712890625
2.1674999,0.0005985504249110818,-1.1893197298049927,9.433155059814453,19.71435546875,-16.41845703125,52.67333984375
2.1724999,0.26156654953956604,-1.6543933153152466,9.133280754089355,34.3017578125,-15.19775390625,52.947998046875
2.1774999000000004,0.0975637212395668,-1.414973258972168,9.139864921569824,24.139404296875,-9.521484375,39.12353515625
2.1824999000000003,0.19632454216480255,-0.38067805767059326,9.663596153259277,5.37109375,-7.6904296875,9.246826171875
2.1874999,0.6200982332229614,0.4704606235027313,10.007762908935547,-9.552001953125,-8.514404296875,-25.32958984375
2.1924999,1.4395138025283813,0.7978677153587341,10.081384658813477,-10.284423828125,17.27294921875,-36.43798828125
2.1974999,2.1344308853149414,0.45848962664604187,10.011953353881836,1.739501953125,35.797119140625,-48.736572265625
2.2024999000000003,2.1529858112335205,-0.3561375141143799,9.816226959228516,4.2724609375,43.0908203125,-61.03515625
2.2074999,1.5436615943908691,-1.1528080701828003,9.671976089477539,1.03759765625,20.782470703125,-55.267333984375
2.2124999,0.6596025824546814,-1.0091559886932373,9.997588157653809,-4.852294921875,3.96728515625,-51.81884765625
2.2174999,-0.4345476031303406,-0.7541735172271729,9.877279281616211,-11.04736328125,3.23486328125,-12.176513671875
2.2224999000000003,-0.943913996219635,-0.19692309200763702,10.271723747253418,-11.65771484375,-9.70458984375,15.838623046875
2.2274999,-1.2000936269760132,0,10.259154319763184,-22.186279296875,-22.125244140625,38.726806640625
2.2324999,-0.7170634269714355,-0.16160862147808075,10.029311180114746,-18.85986328125,-26.580810546875,52.1240234375
2.2374999,-0.21368250250816345,-0.9355342984199524,9.55466079711914,6.561279296875,-17.669677734375,49.591064453125
2.2424999000000003,1.9267338514328003,0.7134721279144287,10.118494987487793,-2.777099609375,29.23583984375,-40.95458984375
2.2474999,2.3050177097320557,0.12270283699035645,9.940725326538086,3.448486328125,43.212890625,-57.80029296875
2.2524999,1.9249382019042969,-0.851138710975647,9.752182006835938,3.96728515625,33.355712890625,-55.7861328125
2.2574999,1.2000936269760132,-1.0301052331924438,9.668983459472656,-2.593994140625,8.48388671875,-55.96923828125
2.2624999000000003,0.013766659423708916,-1.0103530883789062,9.888052940368652,-8.941650390625,3.41796875,-33.538818359375
2.2674999000000002,-0.6979097723960876,-0.25438392162323,9.885659217834473,-10.101318359375,-3.021240234375,8.331298828125
2.2724999,-1.2629413604736328,-0.27413609623908997,10.272920608520508,-16.4794921875,-16.204833984375,25.32958984375
2.2774999,-1.0157400369644165,0.0293289702385664,10.175955772399902,-24.169921875,-26.214599609375,48.7060546875
2.2824999000000004,-0.5398924946784973,-0.6380547285079956,9.832387924194336,-6.683349609375,-22.430419921875,50.048828125
2.2874999000000003,0.0017956512747332454,-1.3772644996643066,9.409213066101074,22.39990234375,-15.93017578125,50.9033203125
2.2924999,0.243011474609375,-1.7753005027770996,9.133280754089355,34.393310546875,-15.289306640625,51.239013671875
2.2974999,2.2882583141326904,0.46088382601737976,9.973047256469727,3.570556640625,37.200927734375,-49.072265625
2.3024999000000004,2.23199462890625,-0.375291109085083,9.783307075500488,4.547119140625,42.144775390625,-56.365966796875
2.3074999000000003,1.5382746458053589,-1.1061211824417114,9.662399291992188,-0.48828125,18.9208984375,-52.154541015625
2.3124999,0.5734112858772278,-0.960673451423645,10.020931243896484,-5.096435546875,2.777099609375,-50.47607421875
2.3174999,-0.5452794432640076,-0.6727706789970398,9.909002304077148,-9.796142578125,2.593994140625,-9.21630859375
2.3224999,-0.3214215636253357,-0.8882488012313843,9.551667213439941,7.049560546875,-18.280029296875,48.980712890625
2.3274999000000003,0.5063736438751221,0.21308395266532898,9.929951667785645,-4.21142578125,-11.04736328125,-9.82666015625
2.3324999,1.2222399711608887,0.7368155717849731,9.99339771270752,-12.87841796875,4.69970703125,-33.477783203125
2.3374999,2.0853497982025146,0.5015852451324463,10.025120735168457,-0.396728515625,29.78515625,-41.6259765625
2.3424999,2.4235305786132812,-0.06224924325942993,9.832387924194336,4.302978515625,43.182373046875,-55.023193359375
2.3474999000000003,1.9536685943603516,-0.9331400990486145,9.725247383117676,2.9296875,32.012939453125,-50.59814453125
2.3524999,1.1779472827911377,-1.1222820281982422,9.64683723449707,-3.35693359375,7.720947265625,-53.009033203125
2.3574999,-0.055665191262960434,-0.9361328482627869,9.888052940368652,-8.026123046875,2.38037109375,-31.463623046875
2.3624999,-0.7835025191307068,-0.3429693877696991,9.871294021606445,-9.674072265625,-2.899169921875,8.85009765625
2.3674999000000003,-1.324592113494873,-0.2059013396501541,10.20767879486084,-15.594482421875,-15.594482421875,24.658203125
2.3724999,-1.0887632369995117,0.06883329898118973,10.210073471069336,-20.5078125,-26.18408203125,48.76708984375
2.3774999,0.3944447338581085,-0.19812019169330597,9.797672271728516,2.593994140625,-8.4228515625,6.256103515625
2.3824999,0.9127894043922424,0.5656301379203796,9.996390342712402,-10.55908203125,-6.65283203125,-25.482177734375
2.3874999000000003,1.7531541585922241,0.6362590789794922,9.989806175231934,-7.537841796875,20.233154296875,-36.773681640625
2.3924999000000002,2.3738510608673096,0.2992752194404602,9.877877235412598,4.364013671875,37.200927734375,-48.76708984375
2.3974999,2.2254104614257812,-0.5380968451499939,9.728240013122559,4.33349609375,41.07666015625,-53.436279296875
2.4024999,1.4856021404266357,-1.1593921184539795,9.616909980773926,-1.3427734375,17.578125,-49.9267578125
2.4074999000000004,0.5261258482933044,-0.973242998123169,10.029311180114746,-5.126953125,2.3193359375,-47.91259765625
2.4124999000000003,-0.6099228858947754,-0.6763619780540466,9.93593692779541,-9.1552734375,2.105712890625,-7.32421875
2.4174999,-1.0899603366851807,-0.2322375625371933,10.2561616897583,-11.41357421875,-9.27734375,16.7236328125
2.4224999,0.1346738487482071,-1.45806884765625,9.173383712768555,23.834228515625,-10.92529296875,41.412353515625
2.4274999000000004,0.1346738487482071,-1.45806884765625,9.173383712768555,23.834228515625,-10.92529296875,41.412353515625
2.4324999000000003,0.2555810213088989,-0.6189011335372925,9.518148422241211,9.613037109375,-6.805419921875,21.148681640625
2.4374999,0.639850378036499,0.29568392038345337,9.970054626464844,-4.791259765625,-11.16943359375,-11.077880859375
2.4424999,1.3988122940063477,0.6961141228675842,9.971251487731934,-12.542724609375,6.805419921875,-33.538818359375
2.4474999,2.2020668983459473,0.43335050344467163,9.989208221435547,0.91552734375,30.364990234375,-41.56494140625
2.4524999000000003,2.472611904144287,-0.14903905987739563,9.780912399291992,4.45556640625,42.938232421875,-53.070068359375
2.4574999,1.9129672050476074,-0.9433154463768005,9.703699111938477,1.983642578125,30.57861328125,-48.553466796875
2.4624999,1.0761936902999878,-0.9750386476516724,9.659406661987305,-4.302978515625,7.049560546875,-51.910400390625
2.4674999,-0.10893617570400238,-1.338358759880066,9.456498146057129,24.017333984375,-16.7236328125,48.03466796875
2.4724999000000003,0.13108254969120026,-1.6531962156295776,9.208698272705078,30.731201171875,-15.106201171875,47.8515625
2.4774999,0.09516951441764832,-1.204882025718689,9.309853553771973,17.578125,-8.575439453125,33.69140625
2.4824999,0.3770867586135864,-0.12928688526153564,9.848548889160156,1.64794921875,-9.368896484375,5.950927734375
2.4874999,0.9493009448051453,0.6470330357551575,10.01075553894043,-11.16943359375,-6.40869140625,-25.7568359375
2.4924999000000003,1.84233820438385,0.6637924313545227,10.021530151367188,-7.32421875,21.66748046875,-38.909912109375
2.4974999,2.4636335372924805,0.30526071786880493,9.857526779174805,4.608154296875,38.87939453125,-49.346923828125
2.5024999,2.2858641147613525,-0.608127236366272,9.729436874389648,4.241943359375,40.496826171875,-51.45263671875
2.5074999,-0.34656068682670593,-0.849941611289978,9.53849983215332,10.711669921875,-16.448974609375,44.464111328125
2.5124999000000003,0.12449848651885986,-1.4389152526855469,9.272144317626953,30.94482421875,-16.510009765625,48.675537109375
2.5174999000000002,0.1215057373046875,-1.4269442558288574,9.17577838897705,24.078369140625,-11.8408203125,40.71044921875
2.5224999,0.2717418968677521,-0.5704185366630554,9.535507202148438,8.72802734375,-7.50732421875,18.6767578125
2.5274999,0.6841431260108948,0.3208230137825012,9.983222961425781,-5.889892578125,-10.223388671875,-13.336181640625
2.5324999000000004,1.4688427448272705,0.6883329749107361,9.979631423950195,-12.908935546875,9.857177734375,-35.58349609375
2.5374999000000003,-0.23523031175136566,-0.7727286219596863,9.945513725280762,-8.392333984375,3.0517578125,-22.430419921875
2.5424999,-0.8768763542175293,-0.02513911761343479,9.998785018920898,-9.27734375,-4.45556640625,12.115478515625
2.5474999,-1.4047977924346924,-0.1843535304069519,10.289680480957031,-16.7236328125,-17.76123046875,29.60205078125
2.5524999000000004,-1.0797849893569946,-0.13108254969120026,10.160393714904785,-20.01953125,-26.79443359375,48.2177734375
2.5574999000000003,-0.6344634294509888,-0.8571242094039917,9.746794700622559,-1.5869140625,-18.890380859375,42.938232421875
2.5624999,0.12030863761901855,-1.1438298225402832,9.338583946228027,15.869140625,-8.697509765625,30.120849609375
2.5674999,0.436343252658844,-0.005985504016280174,9.881468772888184,0,-9.46044921875,1.52587890625
2.5724999,0.37169981002807617,-1.146224021911621,9.95209789276123,-6.7138671875,2.9296875,-41.93115234375
2.5774999000000003,-0.6613982319831848,-0.7056909799575806,9.82759952545166,-9.46044921875,1.52587890625,1.0986328125
2.5824999,-1.2090718746185303,-0.3687070608139038,10.218452453613281,-12.725830078125,-11.65771484375,19.378662109375
2.5874999,-1.2653355598449707,0.16819266974925995,10.192116737365723,-21.881103515625,-24.932861328125,43.975830078125
2.5924999,-0.7613561153411865,-0.18555063009262085,9.911396026611328,-13.824462890625,-24.261474609375,48.15673828125
2.5974999000000003,-0.2364274114370346,-0.8475474119186401,9.52114200592041,14.0380859375,-16.7236328125,49.163818359375
2.6024999,0.18555063009262085,-1.4317326545715332,9.232640266418457,32.928466796875,-15.960693359375,52.459716796875
2.6074999,0.10714052617549896,-1.3934253454208374,9.17577838897705,24.444580078125,-10.31494140625,41.961669921875
2.6124999,0.6224924325942993,0.4129997789859772,10.022727012634277,-7.87353515625,-10.650634765625,-17.242431640625
2.6174999000000003,1.4024035930633545,0.6224924325942993,9.99220085144043,-12.359619140625,12.26806640625,-38.177490234375
2.6224999,2.252943754196167,0.34596213698387146,9.972448348999023,3.7841796875,33.782958984375,-45.47119140625
2.6274999,2.408566951751709,-0.3597288131713867,9.774927139282227,4.730224609375,43.792724609375,-53.64990234375
2.6324999,1.8291701078414917,-1.0851719379425049,9.687539100646973,0.67138671875,25.146484375,-48.88916015625
2.6374999000000003,1.0235211849212646,-0.6099228858947754,9.82999324798584,-5.523681640625,4.913330078125,-54.3212890625
2.6424999000000002,-0.304063618183136,-0.6302735805511475,9.983222961425781,-9.09423828125,2.5634765625,-22.979736328125
2.6474999,-0.8942343592643738,0.09576806426048279,10.06043529510498,-11.199951171875,-5.615234375,13.0615234375
2.6524999,-1.3706804513931274,-0.11192893236875534,10.283096313476562,-18.096923828125,-19.195556640625,33.14208984375
2.6574999000000004,-0.9864110946655273,-0.2364274114370346,10.119691848754883,-20.81298828125,-27.191162109375,50.47607421875
2.6624999000000003,-0.4991910457611084,-0.9510966539382935,9.635464668273926,-1.3427734375,-19.6533203125,49.346923828125
2.6674999,0.02753331884741783,-1.632246971130371,9.296086311340332,29.388427734375,-17.730712890625,54.50439453125
2.6724999,0.08200141042470932,-1.1180921792984009,9.240421295166016,15.289306640625,-7.171630859375,28.839111328125
2.6774999000000004,0.3794809579849243,0.02992752194404602,9.877279281616211,-0.885009765625,-10.43701171875,-3.173828125
2.6824999000000003,0.9828197956085205,0.6847416758537292,10.00716495513916,-13.0615234375,0,-33.02001953125
2.6874999,1.9279309511184692,0.6494272351264954,10.075998306274414,-3.265380859375,27.252197265625,-40.924072265625
2.6924999,2.426523447036743,0.1825578808784485,9.871294021606445,5.218505859375,42.236328125,-52.91748046875
2.6974999,2.1362264156341553,-0.7170634269714355,9.79288387298584,4.058837890625,35.7666015625,-51.94091796875
2.7024999000000003,1.3832499980926514,-1.2587515115737915,9.57979965209961,-3.814697265625,10.589599609375,-54.01611328125
2.7074999,0.2172738015651703,-1.0690110921859741,10.016741752624512,-7.537841796875,2.44140625,-43.5791015625
2.7124999,-0.7122750282287598,-0.6147112846374512,9.853935241699219,-9.674072265625,-0.091552734375,2.3193359375
2.7174999,-1.2587515115737915,-0.34835633635520935,10.29865837097168,-13.5498046875,-13.092041015625,22.4609375
2.7224999000000003,-0.6853402256965637,-0.2669534981250763,9.907206535339355,-11.810302734375,-22.705078125,47.271728515625
2.7274999,0.16998831927776337,-1.4963760375976562,9.200318336486816,33.355712890625,-15.045166015625,50.079345703125
2.7324999,0.07661445438861847,-1.338358759880066,9.179967880249023,22.979736328125,-9.918212890625,37.29248046875
2.7374999,0.2322375625371933,-0.3411737382411957,9.631275177001953,5.218505859375,-9.002685546875,11.41357421875
2.7424999000000003,0.6913257241249084,0.47165772318840027,10.005967140197754,-9.246826171875,-8.636474609375,-21.881103515625
2.7474999,1.5119383335113525,0.6817489266395569,9.983820915222168,-10.986328125,16.4794921875,-37.567138671875
2.7524999,2.270900249481201,0.35733461380004883,9.938331604003906,3.936767578125,35.064697265625,-46.56982421875
2.7574999,2.296039342880249,-0.40940847992897034,9.762955665588379,4.94384765625,42.327880859375,-55.877685546875
2.7624999000000003,1.659181833267212,-1.1294646263122559,9.651026725769043,0,20.904541015625,-50.35400390625
2.7674999000000002,0.8068459630012512,-0.7481880187988281,10.022727012634277,-5.43212890625,3.936767578125,-52.42919921875
2.7724999,-0.424970805644989,-0.6332663297653198,9.992799758911133,-9.58251953125,2.471923828125,-14.739990234375
2.7774999,-0.943913996219635,-0.023942016065120697,10.272322654724121,-11.3525390625,-7.843017578125,15.228271484375
2.7824999000000004,-1.3090298175811768,-0.03292027488350868,10.301053047180176,-20.32470703125,-20.965576171875,36.346435546875
2.7874999000000003,0.07481880486011505,-1.656787633895874,9.180566787719727,30.82275390625,-17.242431640625,52.978515625
2.7924999,0.09576806426048279,-1.7459715604782104,9.02015495300293,30.57861328125,-12.0849609375,46.630859375
2.7974999,0.07481880486011505,-0.9888052940368652,9.275136947631836,13.458251953125,-7.38525390625,26.4892578125
2.8024999000000004,1.9716250896453857,0.6631938815116882,10.096946716308594,-3.082275390625,28.4423828125,-41.534423828125
2.8074999000000003,2.3570916652679443,0.09876082092523575,9.897629737854004,3.997802734375,42.48046875,-56.0302734375
2.8124999,1.9865888357162476,-0.828393816947937,9.766547203063965,3.662109375,33.0810546875,-52.886962890625
2.8174999,1.270722508430481,-1.1851298809051514,9.57860279083252,-3.35693359375,9.368896484375,-53.070068359375
2.8224999,0.07721300423145294,-1.01753568649292,9.909601211547852,-8.30078125,2.86865234375,-35.2783203125
2.8274999000000003,-1.2336124181747437,-0.25917232036590576,10.271723747253418,-14.862060546875,-15.13671875,25.054931640625
2.8324999,-1.0456676483154297,0.14065934717655182,10.216058731079102,-23.01025390625,-25.848388671875,47.66845703125
2.8374999,-0.5716156363487244,-0.4578910768032074,9.903017044067383,-7.8125,-22.003173828125,47.943115234375
2.8424999,-0.06524199992418289,-1.1839327812194824,9.485228538513184,21.514892578125,-17.059326171875,51.1474609375
2.8474999000000003,0.19632454216480255,-1.6502034664154053,9.193734169006348,34.423828125,-15.350341796875,51.116943359375
2.8524999,0.05985504388809204,-1.3634978532791138,9.197325706481934,22.03369140625,-9.3994140625,37.841796875
2.8574999,0.24779987335205078,-0.2885012924671173,9.716867446899414,3.72314453125,-8.270263671875,10.345458984375
2.8624999,0.7475894689559937,0.5979518890380859,10.046669006347656,-9.796142578125,-8.056640625,-23.74267578125
2.8674999000000003,1.6184803247451782,0.767341673374176,10.017339706420898,-10.406494140625,19.134521484375,-39.154052734375
2.8724999,2.3319525718688965,0.42676645517349243,9.955689430236816,3.631591796875,38.330078125,-50.4150390625
2.8774999,2.2846670150756836,-0.4297592043876648,9.745597839355469,4.730224609375,41.778564453125,-55.11474609375
2.8824999,-0.5213374495506287,-0.7050924301147461,9.882665634155273,-10.009765625,2.471923828125,-10.040283203125
2.8874999000000003,-1.0372878313064575,-0.2190694510936737,10.228628158569336,-10.8642578125,-9.3994140625,16.90673828125
2.8924999000000002,-1.259350061416626,0.02214636653661728,10.229825019836426,-19.83642578125,-21.881103515625,38.848876953125
2.8974999,-0.7882909178733826,-0.21787235140800476,9.958083152770996,-16.6015625,-25.543212890625,48.9501953125
2.9024999,-0.31783026456832886,-0.9127894043922424,9.529520988464355,8.056640625,-18.035888671875,48.76708984375
2.9074999000000004,0.10893617570400238,-1.5658079385757446,9.240421295166016,32.196044921875,-16.876220703125,52.154541015625
2.9124999000000003,0.06165069341659546,-1.5652093887329102,9.102754592895508,27.191162109375,-12.20703125,45.196533203125
2.9174999,0.09277531504631042,-0.727837324142456,9.43375301361084,10.223388671875,-7.62939453125,24.47509765625
2.9224999,0.4854243993759155,0.3076549172401428,9.988609313964844,-4.8828125,-11.199951171875,-9.09423828125
2.9274999000000004,1.2401964664459229,0.7170634269714355,9.983820915222168,-13.641357421875,4.82177734375,-34.393310546875
2.9324999000000003,2.1571757793426514,0.5345055460929871,10.031704902648926,0.18310546875,30.6396484375,-43.27392578125
2.9374999,2.4857800006866455,-0.10534487664699554,9.813833236694336,4.608154296875,43.487548828125,-54.3212890625
2.9424999,1.161187767982483,-1.0576386451721191,9.64564037322998,-4.638671875,7.87353515625,-53.314208984375
2.9474999,-0.08559270948171616,-0.9175778031349182,9.926959037780762,-7.965087890625,1.953125,-31.280517578125
2.9524999000000003,-0.7984662652015686,-0.33997663855552673,9.851541519165039,-9.58251953125,-2.8076171875,10.25390625
2.9574999,-1.2952631711959839,-0.2759317457675934,10.213664054870605,-15.045166015625,-15.289306640625,26.42822265625
2.9624999,-0.08798690885305405,-1.3353660106658936,9.484031677246094,24.261474609375,-17.02880859375,50.750732421875
2.9674999,0.1173158809542656,-1.6502034664154053,9.227851867675781,31.8603515625,-14.068603515625,47.515869140625
2.9724999000000003,0.03172317147254944,-1.1683704853057861,9.288305282592773,17.2119140625,-8.7890625,33.294677734375
2.9774999,0.33099839091300964,-0.07422025501728058,9.828198432922363,1.15966796875,-9.6435546875,5.157470703125
2.9824999,0.8978256583213806,0.6871358752250671,10.022128105163574,-11.383056640625,-6.072998046875,-26.06201171875
2.9874999,1.8417396545410156,0.6877344250679016,10.012551307678223,-6.89697265625,21.66748046875,-38.14697265625
2.9924999000000003,2.299630641937256,-0.5680243372917175,9.75637149810791,3.84521484375,39.520263671875,-50.23193359375
2.9974999,1.5191209316253662,-1.2054805755615234,9.597756385803223,-2.685546875,16.632080078125,-49.163818359375
3.0024999,0.49380409717559814,-1.025316834449768,10.016142845153809,-5.462646484375,1.89208984375,-47.18017578125
3.0074999,-0.6380547285079956,-0.6985083222389221,9.8784761428833,-8.48388671875,1.495361328125,-3.936767578125
3.0124999000000003,-1.1348515748977661,-0.33518823981285095,10.217854499816895,-11.962890625,-9.521484375,17.730712890625
3.0174999000000002,-1.2653355598449707,0.09157821536064148,10.211869239807129,-19.287109375,-22.3388671875,40.069580078125
3.0224999,-1.2653355598449707,0.09157821536064148,10.211869239807129,-19.287109375,-22.3388671875,40.069580078125
3.0274999,-0.8110358119010925,-0.24899697303771973,9.91738224029541,-14.22119140625,-25.054931640625,47.4853515625
3.0324999000000004,-0.35254621505737305,-0.8565256595611572,9.50857162475586,10.284423828125,-17.303466796875,46.93603515625
3.0374999000000003,0.06224924325942993,-1.5436615943908691,9.291297912597656,32.16552734375,-16.29638671875,48.7060546875
3.0424999,0.02992752194404602,-1.4431051015853882,9.169194221496582,23.5595703125,-11.993408203125,40.4052734375
3.0474999,0.18974047899246216,-0.5943605899810791,9.551667213439941,7.843017578125,-7.9345703125,19.53125
3.0524999000000004,1.478419542312622,0.6619967818260193,9.963470458984375,-12.6953125,9.33837890625,-34.454345703125
3.0574999000000003,2.3044190406799316,0.39803603291511536,9.990405082702637,1.953125,32.470703125,-43.5791015625
3.0624999,2.519298791885376,-0.26575639843940735,9.767744064331055,5.035400390625,43.39599609375,-52.67333984375
3.0674999,1.9027918577194214,-1.0570400953292847,9.686341285705566,1.52587890625,28.289794921875,-46.38671875
3.0724999000000004,1.0360907316207886,-0.9427168965339661,9.639056205749512,-4.21142578125,6.134033203125,-52.154541015625
3.0774999000000003,-0.21847090125083923,-0.8068459630012512,9.90122127532959,-7.2021484375,1.983642578125,-25.054931640625
3.0824999,-0.9157821536064148,-0.1562216579914093,9.876680374145508,-8.941650390625,-3.2958984375,12.451171875
3.0874999,-1.3796586990356445,-0.11971008777618408,10.217255592346191,-15.777587890625,-16.082763671875,27.130126953125
3.0924999,-1.0797849893569946,0,10.193313598632812,-18.463134765625,-25.726318359375,46.44775390625
3.0974999000000003,-0.6494272351264954,-0.6763619780540466,9.773131370544434,-3.448486328125,-19.195556640625,42.54150390625
3.1024999,-0.15263035893440247,-1.3652935028076172,9.534908294677734,25.2685546875,-16.448974609375,47.454833984375
3.1074999,0.03651157766580582,-1.6190788745880127,9.261969566345215,28.472900390625,-14.373779296875,43.914794921875
3.1124999,2.5055320262908936,0.19931729137897491,9.849146842956543,5.035400390625,38.970947265625,-49.74365234375
3.1174999000000003,2.5055320262908936,0.19931729137897491,9.849146842956543,5.035400390625,38.970947265625,-49.74365234375
3.1224999,2.230797529220581,-0.6949170231819153,9.725846290588379,3.387451171875,37.506103515625,-48.004150390625
3.1274999,1.468244194984436,-1.2850877046585083,9.569623947143555,-2.532958984375,14.678955078125,-49.25537109375
3.1324999,0.39384618401527405,-1.1228805780410767,9.939528465270996,-5.4931640625,1.922607421875,-42.755126953125
3.1374999000000003,-0.6745663285255432,-0.7493851184844971,9.814431190490723,-7.781982421875,1.556396484375,1.03759765625
3.1424999000000002,-1.1953052282333374,-0.3968389332294464,10.159794807434082,-11.444091796875,-10.3759765625,18.5546875
3.1474999,-1.2802993059158325,0.10235211998224258,10.15021800994873,-18.646240234375,-22.5830078125,40.22216796875
3.1524999,-0.8277952671051025,-0.24779987335205078,9.874884605407715,-11.962890625,-23.101806640625,43.975830078125
3.1574999000000004,-0.36152446269989014,-0.8421604633331299,9.542689323425293,13.48876953125,-15.68603515625,44.677734375
3.1624999000000003,0.7170634269714355,0.497395396232605,10.083779335021973,-7.38525390625,-10.711669921875,-14.0380859375
3.1674999,1.5634137392044067,0.645237386226654,9.961075782775879,-11.5966796875,11.383056640625,-34.698486328125
3.1724999,2.3995885848999023,0.35673606395721436,9.961674690246582,3.753662109375,32.806396484375,-43.365478515625
3.1774999000000004,2.5103204250335693,-0.3621230125427246,9.727641105651855,4.69970703125,41.748046875,-48.248291015625
3.1824999000000003,1.8501193523406982,-1.0696096420288086,9.667786598205566,0.091552734375,25.970458984375,-43.76220703125
3.1874999,0.9612720012664795,-0.8469488620758057,9.640253067016602,-4.7607421875,4.730224609375,-50.84228515625
3.1924999,-0.3208230137825012,-0.7266402244567871,9.914389610290527,-6.622314453125,1.46484375,-19.927978515625
3.1974999000000004,-0.9750386476516724,-0.13048399984836578,9.862914085388184,-9.002685546875,-4.45556640625,13.580322265625
3.2024999000000003,-1.0833762884140015,-0.12270283699035645,10.158597946166992,-16.754150390625,-26.06201171875,47.66845703125
3.2074999,2.1493945121765137,0.5135562419891357,9.979631423950195,-2.197265625,24.84130859375,-39.55078125
3.2124999,2.6665420532226562,0.06404489278793335,9.747393608093262,5.767822265625,40.557861328125,-46.69189453125
3.2174999,2.301426410675049,-0.7092822790145874,9.745597839355469,1.8310546875,36.62109375,-42.90771484375
3.2224999000000003,1.4293384552001953,-1.161187767982483,9.603142738342285,-4.7607421875,13.427734375,-49.86572265625
3.2274999,0.25677812099456787,-0.9169792532920837,9.98681354522705,-5.706787109375,0.8544921875,-43.45703125
3.2324999,-0.8421604633331299,-0.6817489266395569,9.84495735168457,-8.23974609375,0.79345703125,1.739501953125
3.2374999,-1.27191960811615,0.017956512048840523,10.154407501220703,-17.547607421875,-23.284912109375,43.975830078125
3.2424999000000003,-0.767341673374176,-0.38905778527259827,9.804854393005371,-12.237548828125,-24.078369140625,47.8515625
3.2474999,-0.28131869435310364,-0.9576807022094727,9.497200012207031,15.13671875,-17.39501953125,49.896240234375
3.2524999,0.07841010391712189,-1.5280991792678833,9.311649322509766,32.71484375,-14.801025390625,48.309326171875
3.2574999,0.033518824726343155,-1.260547161102295,9.248202323913574,19.561767578125,-8.575439453125,36.62109375
3.2624999000000003,0.2561795711517334,-0.3010708689689636,9.706692695617676,4.669189453125,-8.880615234375,13.519287109375
3.2674999000000002,0.760757565498352,0.5261258482933044,10.030508041381836,-8.97216796875,-10.162353515625,-19.134521484375
3.2724999,1.6077064275741577,0.5871779918670654,9.953893661499023,-9.613037109375,14.83154296875,-36.529541015625
3.2774999,2.4229321479797363,0.3345896899700165,9.911396026611328,5.706787109375,34.332275390625,-43.548583984375
3.2824999000000004,0.8277952671051025,-0.6434416770935059,9.768342971801758,-5.67626953125,3.082275390625,-55.999755859375
3.2874999000000003,-0.9983820915222168,-0.09576806426048279,9.92097282409668,-9.70458984375,-4.974365234375,14.5263671875
3.2924999,-1.3593080043792725,-0.16519992053508759,10.204686164855957,-15.625,-17.51708984375,32.04345703125
3.2974999,-1.0103530883789062,-0.29807811975479126,10.078392028808594,-17.059326171875,-26.824951171875,49.163818359375
3.3024999000000004,-0.5919663906097412,-0.9050082564353943,9.627683639526367,0.3662109375,-19.256591796875,46.234130859375
3.3074999000000003,-0.11911153793334961,-1.5298948287963867,9.486425399780273,29.23583984375,-17.547607421875,50.140380859375
3.3124999,0.0065840547904372215,-1.5795745849609375,9.187150001525879,24.810791015625,-11.322021484375,41.56494140625
3.3174999,0.10714052617549896,-0.8200140595436096,9.462483406066895,11.444091796875,-7.476806640625,26.336669921875
3.3224999000000004,0.5339069962501526,0.20051439106464386,9.926360130310059,-2.99072265625,-11.5966796875,-4.119873046875
3.3274999000000003,1.2216414213180542,0.6212953329086304,9.931747436523438,-13.00048828125,1.5869140625,-31.219482421875
3.3324999,2.1553800106048584,0.47165772318840027,9.99100399017334,-0.152587890625,26.611328125,-38.787841796875
3.3374999,2.56000018119812,-0.06224924325942993,9.759963035583496,5.7373046875,40.252685546875,-48.126220703125
3.3424999,2.1368250846862793,-0.8421604633331299,9.755773544311523,2.13623046875,34.698486328125,-46.966552734375
3.3474999000000003,0.11791443079710007,-1.015141487121582,9.904213905334473,-5.218505859375,1.129150390625,-38.909912109375
3.3524999,-0.8158242106437683,-0.702099621295929,9.783905029296875,-6.805419921875,0.1220703125,5.43212890625
3.3574999,-1.3084312677383423,-0.3345896899700165,10.084976196289062,-12.847900390625,-11.322021484375,20.538330078125
3.3624999,-1.2312182188034058,0.1346738487482071,10.165780067443848,-18.00537109375,-24.5361328125,45.654296875
3.3674999000000003,-0.7763199210166931,-0.28790274262428284,9.82999324798584,-10.040283203125,-22.15576171875,44.219970703125
3.3724999,-0.29628247022628784,-0.8744821548461914,9.609726905822754,18.310546875,-16.693115234375,46.905517578125
3.3774999,0.03651157766580582,-1.4059948921203613,9.334393501281738,28.717041015625,-14.251708984375,44.647216796875
3.3824999,0.03292027488350868,-1.1025298833847046,9.34397029876709,17.27294921875,-9.033203125,34.576416015625
3.3874999000000003,0.3411737382411957,-0.17058686912059784,9.755773544311523,3.509521484375,-9.307861328125,11.29150390625
3.3924999000000002,0.8912416100502014,0.5482721924781799,9.983820915222168,-9.857177734375,-8.148193359375,-20.965576171875
3.3974999,1.7495628595352173,0.5530605912208557,9.937732696533203,-8.36181640625,16.876220703125,-35.64453125
3.4024999,2.474407434463501,0.2519897222518921,9.849745750427246,5.67626953125,33.416748046875,-41.961669921875
3.4074999000000004,0.7589619159698486,-0.6613982319831848,9.873088836669922,-4.8828125,2.62451171875,-50.445556640625
3.4124999000000003,-0.5111620426177979,-0.6302735805511475,9.987412452697754,-6.53076171875,1.251220703125,-12.359619140625
3.4174999,-0.983418345451355,-0.03411737456917763,10.078392028808594,-10.589599609375,-5.950927734375,14.34326171875
3.4224999,-1.3455413579940796,-0.05925649031996727,10.29746150970459,-17.27294921875,-18.798828125,34.210205078125
3.4274999000000004,-0.9888052940368652,-0.26156654953956604,10.049661636352539,-17.08984375,-26.031494140625,47.4853515625
3.4324999000000003,-0.5662286877632141,-0.9044097065925598,9.627084732055664,2.838134765625,-18.1884765625,44.00634765625
3.4374999,-0.10654197633266449,-1.5496470928192139,9.41639518737793,29.144287109375,-17.02880859375,47.8515625
3.4424999,0.5674257874488831,0.21547815203666687,9.93354320526123,-3.509521484375,-11.016845703125,-5.096435546875
3.4474999000000004,1.2755109071731567,0.6709750294685364,9.95090103149414,-13.519287109375,3.509521484375,-32.470703125
3.4524999000000003,1.2659341096878052,-1.3748703002929688,9.541492462158203,-3.814697265625,9.1552734375,-51.361083984375
3.4574999,0.06524199992418289,-1.058835744857788,9.90122127532959,-5.462646484375,1.861572265625,-33.050537109375
3.4624999,-0.7565677165985107,-0.6242880821228027,9.79288387298584,-7.99560546875,-0.91552734375,7.32421875
3.4674999,-1.2946646213531494,-0.2651578485965729,10.196306228637695,-13.97705078125,-13.0615234375,22.27783203125
3.4724999000000003,-1.1755530834197998,0.2082955539226532,10.228029251098633,-20.111083984375,-25.482177734375,46.722412109375
3.4774999,-0.7499836683273315,-0.2579752206802368,9.867103576660156,-8.575439453125,-21.881103515625,44.73876953125
3.4824999,-0.24839842319488525,-0.9127894043922424,9.601945877075195,20.355224609375,-17.39501953125,47.698974609375
3.4874999,0.0520738884806633,-1.4077905416488647,9.278130531311035,28.9306640625,-14.373779296875,45.928955078125
3.4924999000000003,0.05386953800916672,-1.1426327228546143,9.311649322509766,18.1884765625,-8.85009765625,35.5224609375
3.4974999,0.35494041442871094,-0.19033902883529663,9.7605619430542,3.41796875,-8.60595703125,10.528564453125
3.5024999,2.410961151123047,0.2687491476535797,9.88386344909668,4.302978515625,34.0576171875,-43.5791015625
3.5074999,2.2846670150756836,-0.5524620413780212,9.728838920593262,4.241943359375,39.947509765625,-52.032470703125
3.5124999000000003,1.5753847360610962,-1.2030863761901855,9.597756385803223,-0.640869140625,19.439697265625,-49.13330078125
3.5174999000000002,0.6985083222389221,-0.8876502513885498,9.961075782775879,-4.21142578125,3.35693359375,-47.30224609375
3.5224999,-0.4854243993759155,-0.7068880796432495,9.925761222839355,-7.62939453125,2.13623046875,-8.30078125
3.5274999,-0.9648633003234863,-0.1454477459192276,10.195708274841309,-10.55908203125,-7.293701171875,15.2587890625
3.5324999000000004,-1.2946646213531494,-0.0035913025494664907,10.247182846069336,-18.61572265625,-20.721435546875,37.59765625
3.5374999000000003,-0.9127894043922424,-0.22685061395168304,9.936535835266113,-16.693115234375,-25.45166015625,47.698974609375
3.5424999,-0.4967968463897705,-0.8744821548461914,9.549273490905762,7.293701171875,-18.035888671875,45.806884765625
3.5474999,-0.05925649031996727,-1.5376760959625244,9.28531265258789,29.937744140625,-16.754150390625,48.27880859375
3.5524999000000004,0.5758054852485657,0.33039984107017517,9.982025146484375,-4.486083984375,-11.138916015625,-6.622314453125
3.5574999000000003,1.325789213180542,0.7463923692703247,10.007762908935547,-13.824462890625,4.669189453125,-34.11865234375
3.5624999,2.2194249629974365,0.5704185366630554,10.047865867614746,-1.64794921875,28.839111328125,-40.1611328125
3.5674999,2.5043349266052246,-0.11133038252592087,9.807847023010254,4.08935546875,41.412353515625,-51.513671875
3.5724999000000004,2.0207061767578125,-0.9636662006378174,9.712079048156738,2.685546875,31.524658203125,-49.560546875
3.5774999000000003,1.2539631128311157,-1.2761094570159912,9.552865028381348,-3.387451171875,8.7890625,-51.055908203125
3.5824999,0.005386953707784414,-1.0295066833496094,9.859322547912598,-6.89697265625,2.655029296875,-29.23583984375
3.5874999,-0.718859076499939,-0.4686649739742279,9.767146110534668,-8.697509765625,-1.953125,9.246826171875
3.5924999,-1.2982559204101562,-0.26755204796791077,10.213664054870605,-14.22119140625,-14.801025390625,25.7568359375
3.5974999000000003,-1.1115081310272217,0.08738835901021957,10.163386344909668,-20.99609375,-25.177001953125,45.196533203125
3.6024999,1.8417396545410156,0.7338228225708008,10.018536567687988,-9.613037109375,20.904541015625,-38.482666015625
3.6074999,2.454056739807129,0.3489548861980438,9.910199165344238,3.936767578125,37.2314453125,-46.93603515625
3.6124999,2.2667105197906494,-0.6003460884094238,9.718663215637207,4.33349609375,39.459228515625,-51.8798828125
3.6174999000000003,1.5400702953338623,-1.3036428689956665,9.579200744628906,-0.67138671875,16.815185546875,-49.31640625
3.6224999,1.5400702953338623,-1.3036428689956665,9.579200744628906,-0.67138671875,16.815185546875,-49.31640625
3.6274999,0.5279214978218079,-1.1073182821273804,9.9401273727417,-5.0048828125,3.082275390625,-45.501708984375
3.6324999,-0.5871779918670654,-0.7858967185020447,9.833584785461426,-8.636474609375,1.953125,-4.0283203125
3.6374999000000003,-1.1198878288269043,-0.2717418968677521,10.20648193359375,-10.68115234375,-9.765625,17.88330078125
3.6424999000000002,-0.8631097078323364,-0.1472434103488922,9.928155899047852,-15.625,-22.857666015625,42.6025390625
3.6474999,-0.3944447338581085,-0.8277952671051025,9.589376449584961,10.986328125,-16.90673828125,44.86083984375
3.6524999,0.04010287672281265,-1.4891934394836426,9.299078941345215,30.57861328125,-16.9677734375,49.072265625
3.6574999000000004,0.053270988166332245,-1.4431051015853882,9.206304550170898,24.2919921875,-13.153076171875,42.724609375
3.6624999000000003,0.20530278980731964,-0.6356605291366577,9.550470352172852,8.575439453125,-7.659912109375,22.369384765625
3.6674999,0.6889315247535706,0.4141969084739685,10.017339706420898,-5.9814453125,-9.6435546875,-11.3525390625
3.6724999,1.4664485454559326,0.7972691655158997,10.021530151367188,-14.007568359375,8.85009765625,-36.376953125
3.6774999000000004,2.252345323562622,0.5506663918495178,10.02452278137207,-0.91552734375,31.280517578125,-42.633056640625
3.6824999000000003,1.0911574363708496,-0.9199720025062561,9.683947563171387,-3.082275390625,6.561279296875,-50.537109375
3.6874999,1.0911574363708496,-0.9199720025062561,9.683947563171387,-3.082275390625,6.561279296875,-50.537109375
3.6924999,-0.1735796183347702,-0.93254154920578,9.846753120422363,-8.36181640625,3.326416015625,-21.697998046875
3.6974999000000004,-1.346139907836914,-0.1999158412218094,10.255562782287598,-16.54052734375,-17.63916015625,29.205322265625
3.7024999000000003,-1.0372878313064575,-0.08319851011037827,10.105326652526855,-21.240234375,-24.261474609375,43.15185546875
3.7074999,-0.6218938827514648,-0.8164227604866028,9.764153480529785,-0.640869140625,-18.4326171875,42.572021484375
3.7124999,-0.11432313174009323,-1.50355863571167,9.43494987487793,26.55029296875,-17.08984375,49.530029296875
3.7174999,0.047884032130241394,-1.7399860620498657,9.1847562789917,29.9072265625,-15.167236328125,47.607421875
3.7224999000000003,0.04908113554120064,-1.1689690351486206,9.340977668762207,15.80810546875,-8.941650390625,33.26416015625
3.7274999,0.42377370595932007,-0.013168109580874443,9.867103576660156,-0.457763671875,-8.544921875,3.448486328125
3.7324999,1.0528502464294434,0.7870938181877136,10.053851127624512,-12.14599609375,-2.3193359375,-29.4189453125
3.7374999,1.9446903467178345,0.7643488645553589,10.037690162658691,-8.026123046875,24.932861328125,-40.10009765625
3.7424999000000003,2.4199392795562744,0.28969839215278625,9.914389610290527,3.448486328125,39.36767578125,-51.727294921875
3.7474999,2.145803213119507,-0.7326257228851318,9.691129684448242,4.730224609375,35.980224609375,-52.276611328125
3.7524999,1.4425065517425537,-1.4107834100723267,9.518747329711914,-0.701904296875,12.298583984375,-50.811767578125
3.7574999,-0.5847837924957275,-0.778714120388031,9.755773544311523,-8.9111328125,0.640869140625,2.74658203125
3.7624999000000003,-0.33937808871269226,-0.823006808757782,9.601945877075195,16.357421875,-16.326904296875,46.142578125
3.7674999000000002,0.04010287672281265,-1.4299370050430298,9.311649322509766,30.975341796875,-16.571044921875,50.018310546875
3.7724999,0.03411737456917763,-1.280897855758667,9.292495727539062,22.27783203125,-12.054443359375,41.9921875
3.7774999,0.2513911724090576,-0.4082113802433014,9.685144424438477,5.645751953125,-6.866455078125,18.218994140625
3.7824999000000004,0.7823054194450378,0.547075092792511,10.06043529510498,-8.087158203125,-8.85009765625,-17.120361328125
3.7874999000000003,1.599326729774475,0.7733271718025208,10.008959770202637,-13.18359375,13.946533203125,-37.322998046875
3.7924999,2.320580005645752,0.45190557837486267,10.007762908935547,0.946044921875,34.36279296875,-45.379638671875
3.7974999,2.3564929962158203,-0.4213795065879822,9.743802070617676,4.7607421875,40.95458984375,-53.955078125
3.8024999000000004,-0.3429693877696991,-0.8631097078323364,9.907805442810059,-9.033203125,3.41796875,-14.34326171875
3.8074999000000003,-0.8852560520172119,-0.023942016065120697,10.219650268554688,-8.97216796875,-7.293701171875,15.472412109375
3.8124999,-1.3724761009216309,-0.09816227108240128,10.266935348510742,-18.035888671875,-19.71435546875,31.951904296875
3.8174999,-1.0001777410507202,-0.11192893236875534,10.013150215148926,-18.4326171875,-23.8037109375,41.900634765625
3.8224999000000004,-0.5728127360343933,-0.872686505317688,9.616311073303223,4.425048828125,-17.120361328125,42.6025390625
3.8274999000000003,-0.08259996026754379,-1.5065513849258423,9.314641952514648,28.4423828125,-16.78466796875,49.31640625
3.8324999,0.0035913025494664907,-1.5969325304031372,9.150040626525879,26.947021484375,-14.923095703125,45.47119140625
3.8374999,0.07003039866685867,-0.9032126069068909,9.405621528625488,12.237548828125,-8.30078125,29.754638671875
3.8424999,0.49619829654693604,0.23762452602386475,9.947309494018555,-2.685546875,-9.490966796875,-1.007080078125
3.8474999000000003,1.2042834758758545,0.8643068075180054,10.050260543823242,-13.275146484375,0.946044921875,-31.402587890625
3.8524999,2.099714994430542,0.7122750282287598,10.047865867614746,-5.828857421875,27.77099609375,-41.168212890625
3.8574999,2.0907366275787354,-0.9020155072212219,9.655217170715332,4.302978515625,32.53173828125,-48.797607421875
3.8624999,1.3772644996643066,-1.3982137441635132,9.524134635925293,-1.0986328125,10.009765625,-50.079345703125
3.8674999000000003,0.17956513166427612,-1.2342109680175781,9.846753120422363,-7.171630859375,3.60107421875,-33.111572265625
3.8724999,-0.6488286852836609,-0.5919663906097412,9.769539833068848,-9.09423828125,-1.068115234375,7.75146484375
3.8774999,-1.278503656387329,-0.3034650683403015,10.308834075927734,-13.031005859375,-14.404296875,22.705078125
3.8824999,-1.2198457717895508,0.17657238245010376,10.192116737365723,-22.216796875,-23.406982421875,39.154052734375
3.8874999000000003,-0.7954735159873962,-0.32381579279899597,9.938331604003906,-8.11767578125,-19.83642578125,40.496826171875
3.8924999000000002,-0.2950853705406189,-1.0456676483154297,9.551069259643555,19.989013671875,-16.29638671875,47.943115234375
3.8974999,0.016759412363171577,-1.534683346748352,9.261969566345215,31.494140625,-16.815185546875,49.6826171875
3.9024999,-0.008978256024420261,-1.2318167686462402,9.28531265258789,19.805908203125,-11.505126953125,39.215087890625
3.9074999000000004,0.2651578485965729,-0.2513911724090576,9.753378868103027,3.11279296875,-7.659912109375,13.824462890625
3.9124999000000003,2.2912509441375732,-0.5273229479789734,9.68813705444336,4.638671875,39.55078125,-53.741455078125
3.9174999,1.6531962156295776,-1.3365631103515625,9.575610160827637,2.197265625,18.890380859375,-48.583984375
3.9224999,0.7475894689559937,-1.2228385210037231,9.882665634155273,-3.631591796875,4.69970703125,-46.20361328125
3.9274999000000004,-0.3818751573562622,-0.9139865040779114,9.799467086791992,-9.6435546875,3.509521484375,-7.415771484375
3.9324999000000003,-0.9546879529953003,-0.21188685297966003,10.228029251098633,-9.8876953125,-9.307861328125,16.7236328125
3.9374999,-1.2713210582733154,-0.002394201699644327,10.232817649841309,-20.416259765625,-20.904541015625,33.99658203125
3.9424999,-0.8780734539031982,-0.07122749835252762,9.989806175231934,-17.303466796875,-22.94921875,41.80908203125
3.9474999000000004,-0.4159925580024719,-0.8553285598754883,9.59177017211914,7.8125,-16.05224609375,43.64013671875
3.9524999000000003,0.030526071786880493,-1.5143325328826904,9.26795482635498,30.82275390625,-16.41845703125,50.47607421875
3.9574999,0.0347159244120121,-1.5376760959625244,9.130288124084473,27.069091796875,-14.2822265625,45.623779296875
3.9624999,2.367266893386841,-0.002992752008140087,9.872490882873535,3.7841796875,40.008544921875,-53.955078125
3.9674999000000004,1.9183541536331177,-1.0055646896362305,9.660005569458008,4.08935546875,29.327392578125,-49.957275390625
3.9724999000000003,1.2186486721038818,-1.1713632345199585,9.600749015808105,-1.068115234375,8.087158203125,-51.605224609375
3.9774999,0.02214636653661728,-1.138442873954773,9.822212219238281,-8.4228515625,4.2724609375,-28.076171875
3.9824999,-0.6637924313545227,-0.2801215946674347,9.856928825378418,-9.246826171875,-2.960205078125,10.19287109375
3.9874999,-1.2898762226104736,-0.27712884545326233,10.309432983398438,-14.434814453125,-16.11328125,25.2685546875
3.9924999000000003,-1.104325532913208,0.050876785069704056,10.169970512390137,-22.552490234375,-24.23095703125,41.44287109375
3.9974999,-0.6985083222389221,-0.5985504388809204,9.883264541625977,-5.035400390625,-18.9208984375,41.290283203125
4.0024999,-0.18495208024978638,-1.301847219467163,9.499593734741211,23.162841796875,-16.021728515625,48.431396484375
4.0074999,0.922366201877594,0.7356184720993042,10.061034202575684,-10.25390625,-6.744384765625,-23.162841796875
4.0124999,1.7926585674285889,0.8577227592468262,10.027515411376953,-11.474609375,20.965576171875,-39.9169921875
4.0174999,2.3750481605529785,0.3974374830722809,9.979032516479492,1.800537109375,37.445068359375,-49.957275390625
4.022499900000001,2.2409727573394775,-0.5949591398239136,9.673771858215332,5.035400390625,38.14697265625,-52.825927734375
4.0274999000000005,1.5759832859039307,-1.3670891523361206,9.589975357055664,2.0751953125,16.448974609375,-49.957275390625
4.0324999,0.5871779918670654,-1.3215993642807007,9.875483512878418,-5.035400390625,4.45556640625,-44.281005859375
4.0374999,-0.4572925269603729,-0.8607155084609985,9.816825866699219,-10.040283203125,3.143310546875,-4.2724609375
4.0424999,-1.058835744857788,-0.3034650683403015,10.264541625976562,-9.979248046875,-10.55908203125,17.578125
4.0474999,-1.2677297592163086,0.10295066982507706,10.247182846069336,-21.3623046875,-21.728515625,36.1328125
4.0524999,-0.8559271097183228,-0.07302315533161163,9.996989250183105,-15.655517578125,-22.15576171875,41.290283203125
4.0574999,0.047884032130241394,-1.48081374168396,9.258976936340332,31.463623046875,-16.876220703125,50.72021484375
4.062499900000001,0.02274491637945175,-1.4634557962417603,9.151237487792969,26.06201171875,-14.190673828125,45.074462890625
4.0674999000000005,0.12749123573303223,-0.7110779285430908,9.498994827270508,9.063720703125,-7.171630859375,23.4375
4.0724999,0.5895721912384033,0.436343252658844,10.014347076416016,-5.279541015625,-9.82666015625,-9.063720703125
4.0774999,1.3766659498214722,0.9331400990486145,10.078990936279297,-13.763427734375,7.4462890625,-35.003662109375
4.0824999,2.360682964324951,-0.11671733111143112,9.843161582946777,3.997802734375,39.48974609375,-53.52783203125
4.0874999,1.8525135517120361,-1.081580638885498,9.64683723449707,4.39453125,27.28271484375,-50.10986328125
4.0924999,1.1402385234832764,-1.0522516965866089,9.672574996948242,-1.312255859375,7.049560546875,-51.422119140625
4.0974999,-0.06524199992418289,-1.060032844543457,9.821015357971191,-9.490966796875,4.69970703125,-24.078369140625
4.1024999,-0.6823474764823914,-0.10594342648983002,9.938331604003906,-9.429931640625,-4.33349609375,11.65771484375
4.1074999000000005,-1.3012486696243286,-0.2472013235092163,10.293272018432617,-15.5029296875,-17.15087890625,27.069091796875
4.1124999,-0.641047477722168,-0.7739257216453552,9.79647445678711,-2.99072265625,-17.913818359375,40.863037109375
4.1174999,-0.13287819921970367,-1.4628572463989258,9.43375301361084,25.421142578125,-16.17431640625,49.25537109375
4.1224999,0.06464344263076782,-1.7310078144073486,9.167398452758789,31.3720703125,-16.815185546875,50.384521484375
4.1274999,0.011372458189725876,-1.2521674633026123,9.296685218811035,17.669677734375,-9.552001953125,36.92626953125
4.1324999,0.3298012912273407,-0.09636662155389786,9.838972091674805,1.0986328125,-8.4228515625,7.781982421875
4.1374999,0.9493009448051453,0.8200140595436096,10.087369918823242,-10.8642578125,-5.645751953125,-24.993896484375
4.1424999,1.8142063617706299,0.9074024558067322,10.088567733764648,-11.29150390625,23.040771484375,-41.290283203125
4.147499900000001,2.343923568725586,0.4124012291431427,10.001178741455078,1.739501953125,37.322998046875,-50.1708984375
4.1524999000000005,2.168548107147217,-0.6242880821228027,9.687539100646973,5.096435546875,36.834716796875,-52.79541015625
4.1574999,1.5197194814682007,-1.3910311460494995,9.582193374633789,1.922607421875,14.617919921875,-51.45263671875
4.1624999,0.4985924959182739,-1.3736732006072998,9.852738380432129,-6.2255859375,4.791259765625,-42.17529296875
4.1674999,-0.4602852761745453,-0.8493430614471436,9.783905029296875,-10.589599609375,2.166748046875,-2.716064453125
4.1724999,-1.2270283699035645,0.15083470940589905,10.22503662109375,-22.03369140625,-22.979736328125,38.970947265625
4.1774999,-0.8182184100151062,-0.0867898091673851,9.983222961425781,-14.95361328125,-22.308349609375,41.68701171875
4.1824999,-0.31783026456832886,-0.8104372620582581,9.565434455871582,12.75634765625,-15.411376953125,44.5556640625
4.187499900000001,0.0867898091673851,-1.469441294670105,9.221866607666016,32.470703125,-17.486572265625,52.215576171875
4.1924999000000005,0.03950432687997818,-1.4335283041000366,9.150638580322266,26.275634765625,-13.48876953125,46.69189453125
4.1974999,0.1430535465478897,-0.6619967818260193,9.520543098449707,8.575439453125,-6.561279296875,22.979736328125
4.2024999,0.5937620401382446,0.497395396232605,10.036493301391602,-5.79833984375,-10.7421875,-10.07080078125
4.2074999,1.3832499980926514,0.9744400978088379,10.09934139251709,-14.5263671875,7.965087890625,-36.68212890625
4.2124999,2.1380221843719482,0.6943184733390808,10.105925559997559,-3.47900390625,31.982421875,-45.0439453125
4.2174999,2.3469161987304688,-0.1364694982767105,9.846753120422363,3.7841796875,39.9169921875,-53.89404296875
4.2224999,1.8411411046981812,-1.1103110313415527,9.66958236694336,4.608154296875,26.702880859375,-51.116943359375
4.2274999,1.1378443241119385,-1.0157400369644165,9.778518676757812,-1.708984375,6.8359375,-49.86572265625
4.2324999000000005,-1.290474772453308,-0.2621650993824005,10.273519515991211,-15.56396484375,-17.608642578125,30.303955078125
4.2374999,-1.0169371366500854,-0.1346738487482071,10.07779312133789,-20.965576171875,-25.20751953125,45.074462890625
4.2424999,-0.6177040338516235,-0.8589198589324951,9.731232643127441,-1.03759765625,-17.242431640625,41.107177734375
4.2474999,-0.10534487664699554,-1.4993687868118286,9.388861656188965,25.543212890625,-15.838623046875,48.4619140625
4.2524999,0.0520738884806633,-1.688510775566101,9.16081428527832,30.3955078125,-16.2353515625,49.8046875
4.2574999,0.004788403399288654,-1.2132617235183716,9.311649322509766,17.425537109375,-8.6669921875,34.7900390625
4.2624999,0.3274070918560028,0.0035913025494664907,9.871294021606445,0.518798828125,-8.7890625,5.37109375
4.2674999,0.9534908533096313,0.8409633636474609,10.073004722595215,-11.810302734375,-4.45556640625,-27.313232421875
4.272499900000001,0.9534908533096313,0.8409633636474609,10.073004722595215,-11.810302734375,-4.45556640625,-27.313232421875
4.2774999000000005,1.823184609413147,0.9115923047065735,10.099940299987793,-10.345458984375,24.47509765625,-41.778564453125
4.2824999,1.5047557353973389,-1.4257471561431885,9.563039779663086,1.190185546875,13.214111328125,-52.24609375
4.2874999,0.4710591733455658,-1.40180504322052,9.821015357971191,-6.4697265625,4.852294921875,-41.07666015625
4.2924999,-0.45489832758903503,-0.8541314601898193,9.727641105651855,-9.796142578125,2.0751953125,-1.495361328125
4.2974999,-1.1019313335418701,-0.45848962664604187,10.186131477355957,-10.162353515625,-11.322021484375,19.317626953125
4.3024999,-1.2132617235183716,0.1496376097202301,10.129867553710938,-21.270751953125,-24.169921875,42.694091796875
4.3074999,-0.8146271109580994,-0.14844051003456116,9.926959037780762,-12.847900390625,-22.369384765625,42.724609375
4.312499900000001,-0.30945056676864624,-0.7697358727455139,9.576807022094727,13.85498046875,-14.434814453125,43.609619140625
4.3174999000000005,0.10354922711849213,-1.390432596206665,9.264962196350098,30.487060546875,-16.387939453125,49.37744140625
4.3224999,0.6518214344978333,0.5069721937179565,10.04188060760498,-6.622314453125,-9.674072265625,-13.336181640625
4.3274999,0.6518214344978333,0.5069721937179565,10.04188060760498,-6.622314453125,-9.674072265625,-13.336181640625
4.3324999,2.299032211303711,-0.23582886159420013,9.818621635437012,4.302978515625,39.337158203125,-53.497314453125
4.3374999,1.7717092037200928,-1.1558008193969727,9.660005569458008,4.119873046875,24.96337890625,-52.490234375
4.3424999,1.0761936902999878,-1.028908133506775,9.761758804321289,-2.50244140625,6.2255859375,-50.96435546875
4.3474999,-0.11552023142576218,-1.0067617893218994,9.825803756713867,-8.7890625,5.340576171875,-20.050048828125
4.352499900000001,-0.6727706789970398,-0.15263035893440247,10.00716495513916,-8.087158203125,-4.608154296875,11.505126953125
4.3574999000000005,-1.2982559204101562,-0.27473464608192444,10.18912410736084,-15.2587890625,-18.12744140625,31.768798828125
4.3624999,-1.025316834449768,-0.15741875767707825,10.015543937683105,-19.287109375,-25.7568359375,45.59326171875
4.3674999,-0.6470330357551575,-0.8475474119186401,9.689932823181152,0.9765625,-16.6015625,40.130615234375
4.3724999,-0.13168109953403473,-1.4484920501708984,9.41400146484375,25.238037109375,-14.7705078125,45.83740234375
4.3774999,0.03770867735147476,-1.591545581817627,9.203909873962402,26.885986328125,-14.22119140625,45.2880859375
4.3824999,0.05686229094862938,-1.0516531467437744,9.39903736114502,15.594482421875,-8.30078125,31.55517578125
4.3874999,1.8962076902389526,0.7978677153587341,10.078990936279297,-7.26318359375,23.651123046875,-37.689208984375
4.3924999,2.364872694015503,0.2735375463962555,9.909002304077148,4.058837890625,35.64453125,-46.5087890625
4.397499900000001,2.098517894744873,-0.6979097723960876,9.722254753112793,4.5166015625,35.491943359375,-51.666259765625
4.4024999000000005,1.3982137441635132,-1.370081901550293,9.560646057128906,-1.15966796875,12.298583984375,-51.08642578125
4.4074999,0.38307225704193115,-1.2521674633026123,9.913790702819824,-6.103515625,4.058837890625,-40.069580078125
4.4124999,-0.5740098357200623,-0.7918822169303894,9.816226959228516,-8.514404296875,2.01416015625,0.18310546875
4.4174999,-1.146224021911621,-0.4207809567451477,10.267534255981445,-10.894775390625,-10.986328125,18.98193359375
4.4224999,-1.2533645629882812,0.14664486050605774,10.239401817321777,-20.721435546875,-24.200439453125,42.572021484375
4.4274999,-0.8391677141189575,-0.16759411990642548,9.959280967712402,-12.664794921875,-22.705078125,42.694091796875
4.4324999,-0.33937808871269226,-0.7817068696022034,9.618705749511719,14.251708984375,-15.045166015625,43.02978515625
4.437499900000001,0.07541735470294952,-1.40180504322052,9.28650951385498,29.35791015625,-15.411376953125,46.417236328125
4.4424999000000005,0.7242460250854492,0.42676645517349243,10.017339706420898,-6.89697265625,-9.27734375,-13.24462890625
4.4474999,0.7242460250854492,0.42676645517349243,10.017339706420898,-6.89697265625,-9.27734375,-13.24462890625
4.4524999,1.5221136808395386,0.838569164276123,10.0580415725708,-13.702392578125,11.41357421875,-35.7666015625
4.4574999,2.20924973487854,0.48602294921875,10.019734382629395,-0.274658203125,30.303955078125,-40.435791015625
4.4624999,2.3289597034454346,-0.2777273952960968,9.798270225524902,4.33349609375,39.48974609375,-52.764892578125
4.4674999,1.7639280557632446,-1.12467622756958,9.65222454071045,3.143310546875,24.810791015625,-51.45263671875
4.4724999,1.0384849309921265,-0.9235633015632629,9.761159896850586,-3.204345703125,6.256103515625,-50.384521484375
4.477499900000001,-0.166995570063591,-0.9175778031349182,9.879075050354004,-8.544921875,4.974365234375,-20.263671875
4.4824999000000005,-1.0678139925003052,-0.1628057211637497,10.075998306274414,-20.08056640625,-25.69580078125,45.135498046875
4.4874999,-0.6733692288398743,-0.8661024570465088,9.700706481933594,0.335693359375,-16.9677734375,39.794921875
4.4924999,0.04429273307323456,-1.6603789329528809,9.1632080078125,27.496337890625,-13.916015625,44.769287109375
4.4974999,0.0586579404771328,-1.1204863786697388,9.362525939941406,16.143798828125,-8.7890625,31.494140625
4.5024999,0.4118026793003082,0.08140286058187485,9.875483512878418,-0.06103515625,-9.063720703125,4.730224609375
4.5074999,1.0235211849212646,0.8086416125297546,10.040084838867188,-12.8173828125,-2.838134765625,-27.7099609375
4.5124999,1.8746598958969116,0.8403648138046265,10.062829971313477,-7.965087890625,22.88818359375,-37.322998046875
4.5174999,2.33913516998291,0.29388827085494995,9.90361499786377,3.5400390625,35.369873046875,-46.69189453125
4.522499900000001,2.1164743900299072,-0.6805518269538879,9.713275909423828,4.791259765625,35.614013671875,-53.009033203125
4.5274999000000005,1.4317326545715332,-1.391629695892334,9.557653427124023,-0.640869140625,13.00048828125,-51.025390625
4.5324999,0.4429273009300232,-1.2976573705673218,9.914987564086914,-5.767822265625,4.45556640625,-40.0390625
4.5374999,-0.5183446407318115,-0.8337807655334473,9.798869132995605,-8.331298828125,2.227783203125,0.244140625
4.5424999,-1.1091139316558838,-0.43694180250167847,10.247182846069336,-10.1318359375,-10.8642578125,18.85986328125
4.5474999,-1.2515689134597778,0.14185644686222076,10.192116737365723,-20.5078125,-24.017333984375,41.6259765625
4.5524999,-0.3627215623855591,-0.7445967197418213,9.59596061706543,13.73291015625,-14.984130859375,42.144775390625
4.5574999,0.06584054976701736,-1.3634978532791138,9.28531265258789,28.50341796875,-14.892578125,45.7763671875
4.562499900000001,0.07003039866685867,-1.3078327178955078,9.272743225097656,22.4609375,-11.474609375,40.22216796875
4.5674999000000005,0.24899697303771973,-0.4620809257030487,9.616909980773926,7.87353515625,-7.598876953125,20.5078125
4.5724999,0.7068880796432495,0.44771572947502136,10.04427433013916,-6.77490234375,-9.33837890625,-12.0849609375
4.5774999,1.4939818382263184,0.8517372608184814,10.062231063842773,-13.916015625,10.040283203125,-35.400390625
4.5824999,2.208651065826416,0.49559974670410156,10.023324966430664,-0.1220703125,29.632568359375,-39.6728515625
4.5874999,2.3570916652679443,-0.2693476974964142,9.80904483795166,4.425048828125,39.36767578125,-52.276611328125
4.5924999,1.8112136125564575,-1.1300631761550903,9.638457298278809,2.899169921875,25.146484375,-49.86572265625
4.5974999,1.092953085899353,-0.9421183466911316,9.722254753112793,-3.11279296875,6.53076171875,-50.048828125
4.602499900000001,-0.12749123573303223,-0.9373299479484558,9.844358444213867,-8.331298828125,4.638671875,-21.1181640625
4.6074999000000005,-0.7116764783859253,-0.10534487664699554,9.983222961425781,-8.72802734375,-3.814697265625,10.711669921875
4.6124999,-1.3545196056365967,-0.2513911724090576,10.234613418579102,-15.411376953125,-17.63916015625,30.517578125
4.6174999,-1.0905588865280151,-0.14844051003456116,10.088567733764648,-19.989013671875,-25.634765625,44.98291015625
4.6224999,-0.7056909799575806,-0.8307880163192749,9.740211486816406,-0.3662109375,-17.822265625,39.9169921875
4.6274999,-0.17657238245010376,-1.4658499956130981,9.443928718566895,24.84130859375,-14.801025390625,44.769287109375
4.6324999,0.048482585698366165,-1.6508020162582397,9.208698272705078,27.313232421875,-13.5498046875,43.975830078125
4.6374999,0.06165069341659546,-1.1252747774124146,9.3828763961792,16.2353515625,-9.124755859375,32.04345703125
4.6424999,0.42437225580215454,0.04967968538403511,9.9000244140625,0.3662109375,-8.880615234375,5.523681640625
4.647499900000001,1.0235211849212646,0.7709329724311829,10.062829971313477,-12.6953125,-3.41796875,-26.947021484375
4.6524999000000005,1.886630892753601,0.8224082589149475,10.070012092590332,-8.30078125,22.125244140625,-36.285400390625
4.6574999,2.363675594329834,0.2753331959247589,9.91738224029541,3.631591796875,35.15625,-46.32568359375
4.6624999,2.160767078399658,-0.6835445761680603,9.710283279418945,4.852294921875,35.888671875,-52.734375
4.6674999,1.4760253429412842,-1.3922282457351685,9.551667213439941,-0.6103515625,13.641357421875,-50.29296875
4.6724999,-0.49380409717559814,-0.8493430614471436,9.780912399291992,-8.697509765625,2.8076171875,-1.312255859375
4.6774999,-1.0923545360565186,-0.4345476031303406,10.235212326049805,-9.735107421875,-10.31494140625,18.49365234375
4.6824999,-1.2737152576446533,0.10714052617549896,10.166977882385254,-20.111083984375,-23.590087890625,40.6494140625
4.687499900000001,-0.8870517015457153,-0.1472434103488922,9.925761222839355,-12.176513671875,-22.64404296875,41.56494140625
4.6924999000000005,-0.4106055796146393,-0.7398083209991455,9.594164848327637,12.969970703125,-14.556884765625,40.71044921875
4.6974999,0.023343466222286224,-1.3503297567367554,9.300276756286621,27.679443359375,-14.2822265625,43.88427734375
4.7024999,0.05027823522686958,-1.294066071510315,9.294889450073242,22.4609375,-12.20703125,38.604736328125
4.7074999,0.23403321206569672,-0.45429977774620056,9.633070945739746,8.270263671875,-8.209228515625,19.927978515625
4.7124999,0.706289529800415,0.4159925580024719,10.045472145080566,-6.622314453125,-8.7890625,-11.749267578125
4.7174999,1.5005658864974976,0.8607155084609985,10.086173057556152,-13.214111328125,9.82666015625,-33.538818359375
4.7224999,2.3487119674682617,-0.2454056739807129,9.82640266418457,4.5166015625,38.604736328125,-52.093505859375
4.727499900000001,-1.3706804513931274,-0.2777273952960968,10.256759643554688,-15.2587890625,-17.2119140625,28.961181640625
4.7324999000000005,-1.1085153818130493,-0.13826514780521393,10.107122421264648,-19.83642578125,-24.932861328125,43.731689453125
4.7374999,-0.7314286231994629,-0.8248024582862854,9.776124000549316,-0.67138671875,-17.547607421875,38.39111328125
4.7424999,-0.20709845423698425,-1.4460978507995605,9.478644371032715,23.37646484375,-13.824462890625,41.778564453125
4.7474999,0.041299980133771896,-1.6352397203445435,9.247604370117188,26.763916015625,-13.946533203125,41.19873046875
4.7524999,0.07661445438861847,-1.1192892789840698,9.394847869873047,16.265869140625,-10.31494140625,29.510498046875
4.7574999,0.45489832758903503,0.011971008032560349,9.881468772888184,0.6103515625,-8.60595703125,4.2724609375
4.7624999,1.0618284940719604,0.7026981711387634,10.02811336517334,-11.993408203125,-2.74658203125,-25.604248046875
4.7674999,1.902193307876587,0.7846996188163757,10.053851127624512,-6.927490234375,20.69091796875,-32.379150390625
4.772499900000001,2.147000312805176,-0.6380547285079956,9.731831550598145,4.69970703125,36.285400390625,-52.581787109375
4.7774999000000005,1.4437036514282227,-1.3287819623947144,9.580398559570312,-0.54931640625,14.984130859375,-48.065185546875
4.7824999,0.48063600063323975,-1.1994950771331787,9.884461402893066,-4.425048828125,4.39453125,-39.0625
4.7874999,-0.5273229479789734,-0.8200140595436096,9.773131370544434,-7.904052734375,2.899169921875,-0.518798828125
4.7924999,-1.115697979927063,-0.3531447649002075,10.173561096191406,-10.07080078125,-9.8876953125,17.02880859375
4.7974999,-1.3000515699386597,0.10175357013940811,10.14782428741455,-20.294189453125,-22.430419921875,37.78076171875
4.8024999,1.070208191871643,-1.0301052331924438,9.633070945739746,-2.593994140625,7.38525390625,-47.332763671875
4.8074999,-0.07122749835252762,-0.9804255962371826,9.841365814208984,-6.744384765625,3.96728515625,-20.69091796875
4.812499900000001,-0.6889315247535706,-0.20889410376548767,9.882067680358887,-7.9345703125,-2.44140625,10.43701171875
4.8174999000000005,-1.315613865852356,-0.2849099934101105,10.261548042297363,-14.95361328125,-16.204833984375,25.543212890625
4.8224999,-1.091755986213684,0.0017956512747332454,10.156203269958496,-20.477294921875,-24.688720703125,43.670654296875
4.8274999,-0.7320271730422974,-0.6727706789970398,9.856329917907715,-2.593994140625,-18.00537109375,38.330078125
4.8324999,-0.2190694510936737,-1.294066071510315,9.542689323425293,21.54541015625,-13.275146484375,40.130615234375
4.8374999,0.047884032130241394,-1.566406488418579,9.27334213256836,26.519775390625,-13.97705078125,40.4052734375
4.8424999,0.07781155407428741,-1.139639973640442,9.388861656188965,16.9677734375,-10.68115234375,30.09033203125
4.8474999,1.0259153842926025,0.6099228858947754,10.00836181640625,-11.444091796875,-3.662109375,-23.406982421875
4.852499900000001,1.8417396545410156,0.768538773059845,10.034697532653809,-7.4462890625,18.85986328125,-31.219482421875
4.8574999000000005,2.3074119091033936,0.2711433470249176,9.906009674072266,2.777099609375,31.646728515625,-42.755126953125
4.8624999,2.1152772903442383,-0.5608417391777039,9.72165584564209,4.058837890625,36.468505859375,-52.490234375
4.8674999,1.4431051015853882,-1.2449848651885986,9.578003883361816,0.030517578125,17.120361328125,-47.943115234375
4.8724999,0.5554547905921936,-1.1276689767837524,9.891644477844238,-3.875732421875,4.119873046875,-39.306640625
4.8774999,-0.4842272996902466,-0.7996633648872375,9.79527759552002,-7.781982421875,3.204345703125,-0.823974609375
4.8824999,-1.0235211849212646,-0.28550854325294495,10.210073471069336,-9.6435546875,-9.124755859375,15.777587890625
4.8874999,-1.3060370683670044,0.07841010391712189,10.192715644836426,-20.8740234375,-21.636962890625,36.19384765625
4.8924999,-0.9091981053352356,-0.08439560979604721,9.982624053955078,-14.556884765625,-23.895263671875,43.5791015625
4.897499900000001,-0.44771572947502136,-0.7769184708595276,9.626486778259277,8.941650390625,-14.129638671875,38.51318359375
4.9024999000000005,-0.44771572947502136,-0.7769184708595276,9.626486778259277,8.941650390625,-14.129638671875,38.51318359375
4.9074999,0.07242459803819656,-1.4437036514282227,9.24940013885498,23.895263671875,-13.153076171875,38.787841796875
4.9124999,0.22864626348018646,-0.6811503767967224,9.53849983215332,10.162353515625,-8.087158203125,21.331787109375
4.9174999,0.6637924313545227,0.23104046285152435,9.980828285217285,-4.913330078125,-8.60595703125,-8.453369140625
4.9224999,1.381454348564148,0.7978677153587341,10.049062728881836,-12.14599609375,6.683349609375,-29.60205078125
4.9274999,2.1134815216064453,0.5123591423034668,10.010157585144043,-0.91552734375,26.275634765625,-34.149169921875
4.9324999,2.3056161403656006,-0.11971008777618408,9.850942611694336,3.997802734375,36.834716796875,-49.8046875
4.937499900000001,1.8363527059555054,-0.9612720012664795,9.649829864501953,3.23486328125,29.693603515625,-49.4384765625
4.9424999000000005,1.1504138708114624,-1.303044319152832,9.561244010925293,-1.678466796875,8.575439453125,-48.583984375
4.9474999,0.013168109580874443,-1.1312602758407593,9.767744064331055,-5.096435546875,3.90625,-24.139404296875
4.9524999,-0.6422445774078369,-0.4920084476470947,9.773730278015137,-5.706787109375,-1.03759765625,10.1318359375
4.9574999,-1.2952631711959839,-0.33698388934135437,10.181941032409668,-12.39013671875,-14.09912109375,22.39990234375
4.9624999,1.8728642463684082,0.6027402877807617,9.986215591430664,-6.072998046875,18.035888671875,-29.4189453125
4.9674999,1.8728642463684082,0.6027402877807617,9.986215591430664,-6.072998046875,18.035888671875,-29.4189453125
4.9724999,2.3702597618103027,0.12210428714752197,9.850942611694336,3.143310546875,30.914306640625,-39.642333984375
4.977499900000001,2.2164323329925537,-0.5752069354057312,9.701305389404297,4.241943359375,36.80419921875,-50.689697265625
4.9824999000000005,1.5179238319396973,-1.2324153184890747,9.566033363342285,0.274658203125,18.585205078125,-46.966552734375
4.9874999,0.706289529800415,-0.9894038438796997,9.882665634155273,-1.800537109375,3.814697265625,-43.121337890625
4.9924999,-0.46088382601737976,-0.8026561141014099,9.832986831665039,-5.126953125,3.570556640625,-4.791259765625
4.9974999,-1.07379949092865,-0.0736217051744461,9.966463088989258,-15.167236328125,-25.115966796875,44.5556640625
5.0024999,-1.07379949092865,-0.0736217051744461,9.966463088989258,-15.167236328125,-25.115966796875,44.5556640625
5.0074999,-0.6147112846374512,-0.7236474752426147,9.645041465759277,4.791259765625,-14.556884765625,35.797119140625
5.0124999,-0.090979665517807,-1.3000515699386597,9.425373077392578,22.735595703125,-12.8173828125,37.933349609375
5.0174999,0.08080431073904037,-1.371279001235962,9.300276756286621,20.01953125,-12.0849609375,33.782958984375
5.022499900000001,0.29388827085494995,-0.6631938815116882,9.558850288391113,10.711669921875,-8.6669921875,20.20263671875
5.0274999000000005,0.7170634269714355,0.04189852997660637,9.90241813659668,-4.180908203125,-8.48388671875,-7.171630859375
5.0324999,1.4036006927490234,0.6212953329086304,10.004171371459961,-9.765625,5.2490234375,-25.0244140625
5.0374999,2.0895395278930664,0.3196259140968323,9.93354320526123,-0.3662109375,23.284912109375,-29.60205078125
5.0424999,2.3259668350219727,-0.14604631066322327,9.85034465789795,3.84521484375,34.210205078125,-46.81396484375
5.0474999,1.8950105905532837,-0.8912416100502014,9.673771858215332,3.5400390625,31.73828125,-47.8515625
5.0524999,1.18094003200531,-1.4951789379119873,9.55585765838623,-1.373291015625,10.162353515625,-45.34912109375
5.0574999,-0.9085995554924011,0.07302315533161163,10.00955867767334,-9.918212890625,-21.240234375,38.482666015625
5.062499900000001,-0.41958385705947876,-0.4836287498474121,9.794678688049316,11.260986328125,-13.24462890625,33.5693359375
5.0674999000000005,0.0017956512747332454,-1.0283095836639404,9.506776809692383,21.026611328125,-14.068603515625,35.7666015625
5.0724999,0.11013327538967133,-0.9528923034667969,9.456498146057129,15.44189453125,-12.176513671875,29.693603515625
5.0774999,0.4489128291606903,-0.3298012912273407,9.725247383117676,5.126953125,-8.758544921875,12.6953125
5.0824999,0.9678560495376587,0.17178396880626678,9.894637107849121,-8.270263671875,-6.927490234375,-14.58740234375
5.0874999,1.7357962131500244,0.5069721937179565,9.966463088989258,-7.781982421875,11.65771484375,-26.611328125
5.0924999,2.233790159225464,0.05386953800916672,9.855731010437012,1.220703125,25.87890625,-34.271240234375
5.0974999,2.230797529220581,-0.375291109085083,9.806650161743164,2.38037109375,34.97314453125,-49.346923828125
5.102499900000001,0.8529343605041504,-0.9672574996948242,9.628880500793457,-1.0986328125,6.65283203125,-40.618896484375
5.1074999000000005,-0.2454056739807129,-0.9074024558067322,9.82999324798584,-3.96728515625,3.204345703125,-10.7421875
5.1124999,-0.7601590156555176,-0.18794482946395874,9.857526779174805,-8.026123046875,-3.387451171875,11.505126953125
5.1174999,-1.2407950162887573,-0.181959331035614,10.25855541229248,-15.869140625,-15.411376953125,21.78955078125
5.1224999,-0.6368576288223267,-0.6314706802368164,9.880870819091797,-2.532958984375,-16.90673828125,37.811279296875
5.1274999,-0.21547815203666687,-1.2419921159744263,9.576208114624023,20.6298828125,-14.190673828125,38.726806640625
5.1324999,-0.03531447425484657,-1.5263035297393799,9.315239906311035,24.84130859375,-15.44189453125,40.58837890625
5.1374999,-0.016160860657691956,-1.105522632598877,9.426570892333984,15.472412109375,-11.16943359375,31.8603515625
5.1424999,0.39863458275794983,-0.1041477769613266,9.833584785461426,0.9765625,-8.72802734375,8.514404296875
5.147499900000001,1.071405291557312,0.5566518902778625,9.99459457397461,-10.955810546875,-4.39453125,-21.270751953125
5.1524999000000005,1.9165585041046143,0.5961562395095825,9.972448348999023,-7.87353515625,19.378662109375,-34.24072265625
