# Time (seconds),Accel_X,Accel_Y,Accel_Z,Gyro_X,Gyro_Y,Gyro_Z
0.0024999,0.6715735793113708,-0.45429977774620056,9.85034465789795,6.927490234375,0.3662109375,-1.556396484375
0.0074999,0.6715735793113708,-0.45429977774620056,9.85034465789795,6.927490234375,0.3662109375,-1.556396484375
0.012499900000000001,0.6129156351089478,-0.39205053448677063,9.800065994262695,-2.685546875,0.823974609375,3.143310546875
0.0174999,0.6314706802368164,-0.5889736413955688,9.666589736938477,-5.0048828125,-1.739501953125,-2.197265625
0.0224999,0.6111199855804443,-0.3998316824436188,9.77133560180664,-2.471923828125,1.0986328125,3.143310546875
0.0274999,0.6380547285079956,-0.6063315868377686,9.64683723449707,-4.21142578125,-2.166748046875,-2.5634765625
0.0324999,0.6757634282112122,-0.4692635238170624,9.819219589233398,7.049560546875,0.579833984375,-1.52587890625
0.0374999,0.6200982332229614,-0.43694180250167847,9.752182006835938,-2.471923828125,1.251220703125,2.99072265625
0.0424999,0.6482301354408264,-0.6033388376235962,9.632472038269043,-4.302978515625,-1.40380859375,-2.471923828125
0.0474999,0.6703764796257019,-0.4752490520477295,9.812037467956543,6.89697265625,0.701904296875,-1.28173828125
0.0524999,0.6123170852661133,-0.4040215313434601,9.732429504394531,-2.899169921875,1.3427734375,3.082275390625
0.0574999,0.628477931022644,-0.5883750915527344,9.627084732055664,-4.150390625,-1.800537109375,-2.62451171875
0.0624999,0.6422445774078369,-0.4626794755458832,9.798270225524902,7.01904296875,0.54931640625,-1.220703125
0.0674999,0.5871779918670654,-0.41120412945747375,9.716867446899414,-2.8076171875,1.03759765625,3.021240234375
0.0724999,0.6093243360519409,-0.5985504388809204,9.601346969604492,-3.96728515625,-1.495361328125,-2.532958984375
0.0774999,0.6290764808654785,-0.45250412821769714,9.768941879272461,7.232666015625,0.213623046875,-1.40380859375
0.0824999,0.6123170852661133,-0.5692214369773865,9.585784912109375,-3.84521484375,-1.77001953125,-2.349853515625
0.0874999,0.6320692300796509,-0.414795458316803,9.761758804321289,6.9580078125,0.54931640625,-1.03759765625
0.0924999,0.5793967843055725,-0.3824737071990967,9.686341285705566,-3.41796875,1.007080078125,2.86865234375
0.0974999,0.6153098344802856,-0.5656301379203796,9.59476375579834,-3.84521484375,-1.708984375,-2.74658203125
0.1024999,0.619499683380127,-0.4345476031303406,9.782109260559082,7.080078125,0.762939453125,-1.190185546875
0.1074999,0.619499683380127,-0.4345476031303406,9.782109260559082,7.080078125,0.762939453125,-1.190185546875
0.1124999,0.5680243372917175,-0.4016273319721222,9.701305389404297,-3.143310546875,0.946044921875,3.0517578125
0.1174999,0.6003460884094238,-0.5817909836769104,9.607333183288574,-3.60107421875,-1.678466796875,-2.62451171875
0.1224999,0.5961562395095825,-0.44173020124435425,9.785700798034668,6.683349609375,0.6103515625,-1.190185546875
0.1274999,0.5416881442070007,-0.4183867573738098,9.701305389404297,-3.509521484375,0.9765625,2.960205078125
0.1324999,0.5841852426528931,-0.5776011347770691,9.610923767089844,-3.509521484375,-1.89208984375,-2.838134765625
0.1374999,0.5847837924957275,-0.44352585077285767,9.799467086791992,7.26318359375,0.885009765625,-1.007080078125
0.1424999,0.558447539806366,-0.3711012601852417,9.726444244384766,-3.509521484375,0.885009765625,2.960205078125
0.1474999,0.6099228858947754,-0.5482721924781799,9.635464668273926,-3.23486328125,-1.983642578125,-2.99072265625
0.1524999,0.6033388376235962,-0.3998316824436188,9.831191062927246,7.110595703125,0.946044921875,-0.732421875
0.1574999,0.5596446394920349,-0.3926490843296051,9.75397777557373,-3.753662109375,0.6103515625,3.0517578125
0.1624999,0.586579442024231,-0.4118026793003082,9.862914085388184,6.744384765625,0.67138671875,-0.885009765625
0.1674999,0.586579442024231,-0.4118026793003082,9.862914085388184,6.744384765625,0.67138671875,-0.885009765625
0.1724999,0.5494692921638489,-0.3770867586135864,9.779715538024902,-3.875732421875,1.007080078125,2.838134765625
0.17749990000000002,0.6009446382522583,-0.5386953949928284,9.674968719482422,-2.899169921875,-1.77001953125,-2.99072265625
0.1824999,0.569819986820221,-0.3908534348011017,9.871891975402832,7.01904296875,0.79345703125,-0.67138671875
0.1874999,0.5380968451499939,-0.36571431159973145,9.793481826782227,-3.90625,0.518798828125,2.86865234375
0.1924999,0.5548562407493591,-0.3256114423274994,9.843161582946777,-4.5166015625,0.823974609375,2.655029296875
0.1974999,0.5548562407493591,-0.3256114423274994,9.843161582946777,-4.5166015625,0.823974609375,2.655029296875
0.2024999,0.6242880821228027,-0.4950011968612671,9.719860076904297,-3.265380859375,-1.678466796875,-2.86865234375
0.20749990000000001,0.5961562395095825,-0.33698388934135437,9.924564361572266,7.2021484375,1.220703125,-0.3662109375
0.2124999,0.5506663918495178,-0.3148375153541565,9.831191062927246,-3.936767578125,0.946044921875,2.62451171875
0.2174999,0.6153098344802856,-0.5081692934036255,9.719860076904297,-2.838134765625,-1.312255859375,-3.082275390625
0.2224999,0.5692214369773865,-0.3627215623855591,9.939528465270996,7.415771484375,1.007080078125,-0.518798828125
0.2274999,0.5392939448356628,-0.35075053572654724,9.853337287902832,-4.241943359375,0.762939453125,3.021240234375
0.2324999,0.6123170852661133,-0.5321113467216492,9.737217903137207,-3.082275390625,-2.288818359375,-2.9296875
0.2374999,0.5482721924781799,-0.3423708379268646,9.841365814208984,-4.39453125,0.67138671875,3.0517578125
0.2424999,0.619499683380127,-0.5273229479789734,9.732429504394531,-2.8076171875,-1.678466796875,-2.9296875
0.2474999,0.619499683380127,-0.5273229479789734,9.732429504394531,-2.8076171875,-1.678466796875,-2.9296875
0.2524999,0.578798234462738,-0.37828385829925537,9.938331604003906,6.9580078125,0.640869140625,-0.335693359375
0.2574999,0.5482721924781799,-0.34656068682670593,9.845556259155273,-4.486083984375,0.6103515625,2.74658203125
0.2624999,0.6266822814941406,-0.535702645778656,9.741408348083496,-2.5634765625,-2.3193359375,-3.387451171875
0.2674999,0.5931634902954102,-0.3555389642715454,9.949105262756348,6.7138671875,1.068115234375,-0.396728515625
0.2724999,0.558447539806366,-0.32441434264183044,9.850942611694336,-4.5166015625,0.762939453125,2.8076171875
0.2774999,0.6314706802368164,-0.4908113479614258,9.740809440612793,-2.471923828125,-1.3427734375,-3.082275390625
0.2824999,0.5877765417098999,-0.3387795388698578,9.93593692779541,6.7138671875,0.8544921875,-0.213623046875
0.28749990000000003,0.558447539806366,-0.30885201692581177,9.833584785461426,-4.57763671875,0.6103515625,2.838134765625
0.2924999,0.6326677799224854,-0.5141547918319702,9.730035781860352,-2.0751953125,-1.5869140625,-3.0517578125
0.2974999,0.5991489887237549,-0.37648820877075195,9.922768592834473,6.89697265625,1.0986328125,-0.244140625
0.3024999,0.6446388363838196,-0.5351040959358215,9.731831550598145,-2.197265625,-1.800537109375,-3.265380859375
0.3074999,0.6093243360519409,-0.3705027103424072,9.924564361572266,7.01904296875,1.220703125,-0.091552734375
0.3124999,0.5722141861915588,-0.3232172429561615,9.828198432922363,-4.425048828125,0.640869140625,2.716064453125
0.3174999,0.6440402865409851,-0.5105634927749634,9.721057891845703,-2.38037109375,-1.77001953125,-3.082275390625
0.3224999,0.6075286865234375,-0.3603273630142212,9.914987564086914,6.744384765625,1.068115234375,-0.152587890625
0.3274999,0.5776011347770691,-0.33937808871269226,9.797672271728516,-4.8828125,0.885009765625,2.44140625
0.3324999,0.656609833240509,-0.5422866940498352,9.712677955627441,-1.983642578125,-1.861572265625,-3.265380859375
0.3374999,0.6272808313369751,-0.40222588181495667,9.898826599121094,6.8359375,1.15966796875,0.06103515625
0.3424999,0.5985504388809204,-0.3824737071990967,9.784503936767578,-5.18798828125,0.30517578125,2.50244140625
0.34749990000000003,0.6715735793113708,-0.5554547905921936,9.707889556884766,-2.105712890625,-1.373291015625,-3.265380859375
0.35249990000000003,0.6314706802368164,-0.4165911078453064,9.880870819091797,6.866455078125,1.312255859375,0.1220703125
0.3574999,0.5991489887237549,-0.36810851097106934,9.763554573059082,-4.94384765625,0.946044921875,2.532958984375
0.3624999,0.657806932926178,-0.5752069354057312,9.688735961914062,-1.5869140625,-2.3193359375,-3.204345703125
0.3674999,0.6063315868377686,-0.4357447028160095,9.855133056640625,6.65283203125,1.3427734375,0.396728515625
0.3724999,0.5776011347770691,-0.4076128304004669,9.73661994934082,-5.401611328125,0.396728515625,2.349853515625
0.3774999,0.6446388363838196,-0.6135141849517822,9.694721221923828,-1.52587890625,-1.556396484375,-3.35693359375
0.3824999,0.6027402877807617,-0.45848962664604187,9.864709854125977,6.805419921875,1.251220703125,0.335693359375
0.3874999,0.5835866928100586,-0.4279635548591614,9.743204116821289,-5.462646484375,0.701904296875,2.44140625
0.3924999,0.5985504388809204,-0.4620809257030487,9.736021041870117,-5.06591796875,0.396728515625,2.50244140625
0.3974999,0.669179379940033,-0.6218938827514648,9.697713851928711,-1.77001953125,-2.01416015625,-3.326416015625
0.4024999,0.6212953329086304,-0.48961424827575684,9.8599214553833,6.317138671875,1.0986328125,0.48828125
0.4074999,0.6099228858947754,-0.45010992884635925,9.723451614379883,-5.462646484375,0.518798828125,2.44140625
0.41249990000000003,0.6727706789970398,-0.6087257862091064,9.679757118225098,-1.068115234375,-2.349853515625,-3.35693359375
0.41749990000000003,0.6189011335372925,-0.4602852761745453,9.837176322937012,6.4697265625,1.46484375,0.396728515625
0.4224999,0.6093243360519409,-0.44592007994651794,9.692327499389648,-5.37109375,0.18310546875,1.953125
0.4274999,0.6625953316688538,-0.5931634902954102,9.660005569458008,-0.8544921875,-1.40380859375,-3.41796875
0.4324999,0.6051344871520996,-0.4572925269603729,9.821015357971191,6.53076171875,1.3427734375,0.640869140625
0.4374999,0.5985504388809204,-0.42018240690231323,9.678560256958008,-5.7373046875,0.396728515625,2.3193359375
0.4424999,0.6524199843406677,-0.5793967843055725,9.651026725769043,-0.518798828125,-1.800537109375,-3.448486328125
0.4474999,0.6021417379379272,-0.4225766062736511,9.6618013381958,-5.706787109375,0.518798828125,2.044677734375
0.4524999,0.6542156338691711,-0.5877765417098999,9.634267807006836,-0.6103515625,-1.28173828125,-3.509521484375
0.4574999,0.6033388376235962,-0.4273650050163269,9.800065994262695,6.866455078125,1.3427734375,0.67138671875
0.4624999,0.606930136680603,-0.42018240690231323,9.659406661987305,-5.767822265625,0.274658203125,2.13623046875
0.4674999,0.6596025824546814,-0.568622887134552,9.636661529541016,-0.579833984375,-2.25830078125,-3.662109375
0.47249990000000003,0.6045359373092651,-0.406415730714798,9.813833236694336,6.500244140625,1.40380859375,0.67138671875
0.47749990000000003,0.6051344871520996,-0.40940847992897034,9.661202430725098,-6.04248046875,0.18310546875,2.349853515625
0.4824999,0.6530185341835022,-0.5764040350914001,9.637260437011719,-0.732421875,-1.40380859375,-3.2958984375
0.4874999,0.5859808921813965,-0.4165911078453064,9.819818496704102,6.65283203125,1.64794921875,0.54931640625
0.4924999,0.5823895931243896,-0.4465186297893524,9.655815124511719,-5.645751953125,0.335693359375,2.01416015625
0.4974999,0.628477931022644,-0.5937620401382446,9.64923095703125,-0.18310546875,-1.5869140625,-3.47900390625
0.5024999,0.5512649416923523,-0.41778820753097534,9.830592155456543,6.378173828125,1.5869140625,0.640869140625
0.5074999,0.6057330369949341,-0.5638344883918762,9.68813705444336,-0.213623046875,-1.64794921875,-3.23486328125
0.5124999,0.5428852438926697,-0.4034229815006256,9.873687744140625,6.317138671875,1.3427734375,0.946044921875
0.5174999,0.558447539806366,-0.4381389021873474,9.71926212310791,-6.28662109375,-0.54931640625,2.13623046875
0.5224999,0.6224924325942993,-0.569819986820221,9.719860076904297,-0.42724609375,-1.77001953125,-3.509521484375
0.5274999,0.5560533404350281,-0.40222588181495667,9.873088836669922,6.34765625,1.15966796875,0.79345703125
0.5324999,0.5829881429672241,-0.4357447028160095,9.700706481933594,-6.195068359375,-0.152587890625,1.89208984375
0.5374999,0.641047477722168,-0.545877993106842,9.692925453186035,0.396728515625,-1.922607421875,-3.631591796875
0.5424999,0.5704185366630554,-0.375291109085083,9.865307807922363,6.28662109375,1.40380859375,1.068115234375
0.5474999,0.5883750915527344,-0.41778820753097534,9.701305389404297,-6.16455078125,-0.213623046875,1.739501953125
0.5524999,0.6356605291366577,-0.5440823435783386,9.715071678161621,-0.396728515625,-1.373291015625,-3.814697265625
0.5574999,0.5524620413780212,-0.37409400939941406,9.892242431640625,5.828857421875,1.5869140625,1.068115234375
0.5624999,0.5608417391777039,-0.4429273009300232,9.727043151855469,-6.4697265625,0.152587890625,2.044677734375
0.5674999000000001,0.5147533416748047,-0.36152446269989014,9.924564361572266,5.889892578125,1.40380859375,1.129150390625
0.5724999000000001,0.5339069962501526,-0.4225766062736511,9.771934509277344,-6.40869140625,0.1220703125,1.64794921875
0.5774999000000001,0.5793967843055725,-0.5279214978218079,9.79408073425293,0.335693359375,-1.89208984375,-3.753662109375
0.5824999,0.5045779943466187,-0.35733461380004883,9.962273597717285,5.706787109375,1.495361328125,1.068115234375
0.5874999,0.5309142470359802,-0.41539400815963745,9.80904483795166,-6.561279296875,-0.152587890625,1.5869140625
0.5924999,0.5901707410812378,-0.5333084464073181,9.831789016723633,0.579833984375,-1.068115234375,-3.662109375
0.5974999,0.5315127968788147,-0.3585317134857178,9.974244117736816,5.645751953125,1.3427734375,1.129150390625
0.6024999,0.5644330382347107,-0.42377370595932007,9.81143856048584,-6.4697265625,-0.152587890625,1.8310546875
0.6074999,0.6212953329086304,-0.5380968451499939,9.806650161743164,0.762939453125,-1.739501953125,-3.448486328125
0.6124999,0.5446808934211731,-0.3321954905986786,9.960477828979492,5.584716796875,1.617431640625,1.0986328125
0.6174999,0.5608417391777039,-0.3908534348011017,9.798869132995605,-6.77490234375,0,1.52587890625
0.6224999,0.5979518890380859,-0.497395396232605,9.799467086791992,1.373291015625,-1.220703125,-3.5400390625
0.6274999,0.5345055460929871,-0.30466216802597046,9.92097282409668,5.37109375,1.861572265625,1.617431640625
0.6324999,0.5380968451499939,-0.375291109085083,9.783307075500488,-6.256103515625,0,2.38037109375
0.6374999,0.5758054852485657,-0.4920084476470947,9.785101890563965,1.251220703125,-1.708984375,-3.173828125
0.6424999,0.5225345492362976,-0.3082534670829773,9.925163269042969,4.94384765625,0.823974609375,1.190185546875
0.6474999,1.1091139316558838,-0.45669397711753845,9.870695114135742,17.27294921875,0.1220703125,-15.625
0.6524999,1.4185645580291748,-0.6021417379379272,9.729436874389648,105.65185546875,8.36181640625,-104.30908203125
0.6574999,2.5336639881134033,-0.5937620401382446,10.036493301391602,199.03564453125,-22.125244140625,-226.1962890625
0.6624999,3.2992098331451416,-0.7625532150268555,9.841365814208984,215.63720703125,-56.94580078125,-294.98291015625
0.6674999,4.067748546600342,0.12749123573303223,9.38048267364502,211.60888671875,-75.286865234375,-299.407958984375
0.6724999,3.955221176147461,0.7164648771286011,7.726089000701904,121.429443359375,-94.78759765625,-299.713134765625
0.6774999,3.3686418533325195,1.0833762884140015,5.941810131072998,116.973876953125,-100.189208984375,-282.806396484375
0.6824999,2.167949676513672,2.1487960815429688,3.2986114025115967,85.174560546875,-103.668212890625,-253.265380859375
0.6874999,0.9786299467086792,1.5161281824111938,2.0219032764434814,79.559326171875,-91.4306640625,-241.51611328125
0.6924999000000001,0.2519897222518921,2.3127987384796143,1.0785878896713257,122.833251953125,-77.63671875,-239.349365234375
0.6974999000000001,-0.29388827085494995,1.9877859354019165,1.1127052307128906,119.110107421875,-70.587158203125,-220.76416015625
0.7024999000000001,-0.2495955228805542,2.234388828277588,2.098517894744873,117.7978515625,-57.281494140625,-207.3974609375
0.7074999,0.10714052617549896,1.6364368200302124,5.6209869384765625,-35.70556640625,24.84130859375,-115.264892578125
0.7124999,0.6745663285255432,0.7200561761856079,7.084442615509033,-89.874267578125,74.15771484375,-71.83837890625
0.7174999,1.5364789962768555,-0.7475894689559937,8.101978302001953,-105.224609375,130.218505859375,-31.8603515625
0.7224999,1.5364789962768555,-0.7475894689559937,8.101978302001953,-105.224609375,130.218505859375,-31.8603515625
0.7274999,1.787870168685913,-1.8501193523406982,7.957727909088135,9.58251953125,210.38818359375,-7.659912109375
0.7324999,1.7818846702575684,-2.7778725624084473,7.872135162353516,57.769775390625,217.041015625,32.77587890625
0.7374999,0.6961141228675842,-2.120065689086914,7.5668745040893555,13.397216796875,167.205810546875,71.1669921875
0.7424999,-0.800261914730072,-1.0773907899856567,8.058284759521484,-26.79443359375,134.033203125,60.97412109375
0.7474999,-2.3457190990448,0.9690531492233276,8.646659851074219,-65.61279296875,121.9482421875,76.934814453125
0.7524999,-3.7918169498443604,2.44747257232666,9.565434455871582,-97.686767578125,90.02685546875,73.66943359375
0.7574999,-4.730343818664551,3.3452982902526855,9.998785018920898,-91.033935546875,48.004150390625,73.089599609375
0.7624999,-5.158905982971191,3.600879430770874,10.153210639953613,-94.512939453125,13.85498046875,76.934814453125
0.7674999,-4.358644008636475,1.6633716821670532,8.793902397155762,-95.15380859375,-27.740478515625,61.920166015625
0.7724999,-3.4973301887512207,0.7649474143981934,7.969100475311279,-96.282958984375,-39.00146484375,54.229736328125
0.7774999,-2.3313539028167725,-0.22924481332302094,7.746439456939697,-79.986572265625,-55.23681640625,30.2734375
0.7824999,-1.468244194984436,0.0999579206109047,7.779359817504883,-81.6650390625,-63.873291015625,25.0244140625
0.7874999,-0.524330198764801,0.0454898327589035,8.580220222473145,-101.25732421875,-63.812255859375,18.585205078125
0.7924999,0.23283611238002777,0.19213469326496124,9.19972038269043,-96.893310546875,-57.6171875,8.758544921875
0.7974999,0.9050082564353943,0.7829039692878723,9.770736694335938,-101.37939453125,-53.192138671875,19.4091796875
0.8024999,0.970848798751831,-2.4001872539520264,9.709685325622559,-18.37158203125,-13.97705078125,-18.00537109375
0.8074999,0.778714120388031,-2.3756465911865234,9.989806175231934,-8.36181640625,-7.26318359375,-16.7236328125
0.8124999,0.7439981698989868,-2.804807186126709,9.912593841552734,-14.434814453125,-7.293701171875,-16.387939453125
0.8174999000000001,0.862511157989502,-2.9526493549346924,9.94970417022705,9.918212890625,-2.99072265625,-17.15087890625
0.8224999000000001,0.8469488620758057,-2.448071241378784,9.570821762084961,-0.732421875,-1.617431640625,6.744384765625
0.8274999000000001,0.9373299479484558,-2.427121877670288,9.276932716369629,8.1787109375,-1.89208984375,-3.60107421875
0.8324999000000001,0.8750807046890259,-1.614290475845337,9.178771018981934,14.068603515625,1.983642578125,0.946044921875
0.8374999,0.7763199210166931,-0.7206547260284424,8.92917537689209,-5.7373046875,1.007080078125,6.561279296875
0.8424999,0.6733692288398743,-0.3124433159828186,9.209895133972168,4.852294921875,-0.244140625,1.52587890625
0.8474999,0.4728548228740692,0.2454056739807129,9.485228538513184,-4.669189453125,-1.434326171875,12.115478515625
0.8524999,0.27234044671058655,0.19153612852096558,9.99220085144043,3.570556640625,-8.026123046875,5.2490234375
0.8574999,0.21428105235099792,0.07302315533161163,9.967061996459961,-13.946533203125,-12.054443359375,4.0283203125
0.8624999,0.3010708689689636,-0.07422025501728058,10.001777648925781,1.52587890625,-12.542724609375,-2.38037109375
0.8674999,0.3992331326007843,-0.12689268589019775,10.087369918823242,-1.190185546875,-11.5966796875,5.9814453125
0.8724999,0.5925649404525757,-0.5716156363487244,9.759963035583496,-7.568359375,-11.749267578125,-0.457763671875
0.8774999,0.8343793153762817,-0.5895721912384033,9.891045570373535,8.453369140625,-8.544921875,0.67138671875
0.8824999,0.9762357473373413,-0.6829460263252258,9.703699111938477,-7.110595703125,-6.28662109375,4.547119140625
0.8874999,1.1737574338912964,-0.7793126702308655,9.5809965133667,2.74658203125,-4.180908203125,-3.2958984375
0.8924999,1.1857284307479858,-0.47225627303123474,9.78869342803955,3.72314453125,-0.6103515625,4.08935546875
0.8974999,1.2012907266616821,-0.6027402877807617,9.496601104736328,-8.819580078125,0,0.1220703125
0.9024999,1.192312479019165,-0.4339490532875061,9.719860076904297,7.75146484375,2.685546875,-1.28173828125
0.9074999,1.0336965322494507,-0.29568392038345337,9.6989107131958,-5.279541015625,3.143310546875,4.33349609375
0.9124999,0.4866214990615845,-0.32860419154167175,9.90361499786377,-1.861572265625,0.762939453125,3.692626953125
0.9174999,0.46806642413139343,-0.5482721924781799,9.710882186889648,-4.058837890625,-1.251220703125,-3.204345703125
0.9224999,0.5201402902603149,-0.33758243918418884,9.983820915222168,8.087158203125,-0.91552734375,0.213623046875
0.9274999,0.50876784324646,-0.3214215636253357,9.835380554199219,-9.185791015625,-2.593994140625,2.44140625
0.9324999,0.608127236366272,-0.44352585077285767,9.789292335510254,3.2958984375,-3.021240234375,-4.119873046875
0.9374999,0.6278793811798096,-0.23403321206569672,9.956886291503906,2.349853515625,-1.89208984375,3.753662109375
0.9424999000000001,0.6655880808830261,-0.5081692934036255,9.650428771972656,-8.087158203125,-2.777099609375,-1.03759765625
0.9474999000000001,0.7894880175590515,-0.47405192255973816,9.84376049041748,8.48388671875,-1.52587890625,-1.5869140625
0.9524999000000001,0.7547720670700073,-0.41120412945747375,9.778518676757812,-5.462646484375,-1.03759765625,3.84521484375
0.9574999000000001,0.861314058303833,-0.3429693877696991,9.876680374145508,5.9814453125,0.701904296875,2.01416015625
0.9624999,0.8756792545318604,-0.5201402902603149,9.640253067016602,-9.002685546875,-0.091552734375,1.15966796875
0.9674999,0.8708908557891846,-0.49380409717559814,9.706692695617676,6.4697265625,0.335693359375,-3.35693359375
0.9724999,0.7930793166160583,-0.35494041442871094,9.835380554199219,-0.9765625,1.46484375,3.936767578125
0.9774999,0.7709329724311829,-0.5351040959358215,9.608530044555664,-5.2490234375,0.244140625,-2.838134765625
0.9824999,0.7625532150268555,-0.37648820877075195,9.905410766601562,8.636474609375,1.28173828125,-0.701904296875
0.9874999,0.6733692288398743,-0.3728969097137451,9.791686058044434,-7.32421875,0.3662109375,2.9296875
0.9924999,0.702099621295929,-0.5069721937179565,9.723451614379883,2.105712890625,0.1220703125,-4.180908203125
0.9974999,0.6260837316513062,-0.284311443567276,9.938929557800293,4.150390625,0.701904296875,2.86865234375
1.0024999,0.6518214344978333,-0.4596867263317108,9.68574333190918,-8.23974609375,-0.885009765625,-0.274658203125
1.0074999000000002,0.6631938815116882,-0.4495113790035248,9.821614265441895,7.415771484375,-0.30517578125,-2.899169921875
1.0124999000000001,0.6817489266395569,-0.3363853394985199,9.830592155456543,-3.509521484375,-0.640869140625,3.997802734375
1.0174999000000002,0.7637503147125244,-0.3794809579849243,9.893440246582031,7.99560546875,-0.518798828125,0.152587890625
1.0224999000000001,0.7218518257141113,-0.41778820753097534,9.753378868103027,-8.30078125,-1.40380859375,2.410888671875
1.0274999,0.7697358727455139,-0.49799394607543945,9.726444244384766,3.448486328125,-1.28173828125,-3.936767578125
1.0324999000000001,0.7182605266571045,-0.3064578175544739,9.923966407775879,2.9296875,-0.091552734375,3.021240234375
1.0374999,0.7380126714706421,-0.5015852451324463,9.625887870788574,-8.087158203125,-0.91552734375,-0.732421875
1.0424999000000001,0.7942764163017273,-0.46507367491722107,9.824606895446777,8.056640625,0.18310546875,-2.288818359375
1.0474999,0.7727286219596863,-0.41359832882881165,9.778518676757812,-3.662109375,0.396728515625,3.662109375
1.0524999000000002,0.8313865661621094,-0.5841852426528931,9.618705749511719,-2.593994140625,0.244140625,-3.47900390625
1.0574999,0.7978677153587341,-0.4291606545448303,9.868300437927246,7.537841796875,1.007080078125,0.518798828125
1.0624999000000002,0.7511807680130005,-0.37409400939941406,9.68155288696289,-8.11767578125,0.18310546875,2.0751953125
1.0674999,0.74040687084198,-0.4944026470184326,9.727043151855469,4.119873046875,0.1220703125,-4.180908203125
1.0724999000000002,0.67815762758255,-0.23283611238002777,9.908403396606445,2.227783203125,0.67138671875,3.204345703125
1.0774999,0.6548141837120056,-0.4602852761745453,9.66299819946289,-7.50732421875,-0.457763671875,-1.007080078125
1.0824999000000002,0.679354727268219,-0.4423287510871887,9.875483512878418,8.209228515625,0.06103515625,-2.38037109375
1.0874999,0.6482301354408264,-0.37469255924224854,9.81024169921875,-3.84521484375,-0.396728515625,3.753662109375
1.0924999000000002,0.6943184733390808,-0.5752069354057312,9.663596153259277,-2.899169921875,-1.0986328125,-3.2958984375
1.0974999,0.7092822790145874,-0.38905778527259827,9.881468772888184,7.415771484375,0.274658203125,0.457763671875
1.1024999000000002,0.6751648783683777,-0.39145198464393616,9.726444244384766,-8.087158203125,-1.220703125,2.25830078125
1.1074999,0.729034423828125,-0.4854243993759155,9.727043151855469,3.41796875,-1.0986328125,-3.96728515625
1.1124999000000002,0.6925228238105774,-0.2717418968677521,9.920374870300293,3.0517578125,0.18310546875,2.838134765625
1.1174999,0.74040687084198,-0.47405192255973816,9.654618263244629,-7.965087890625,-0.8544921875,-0.396728515625
1.1224999000000002,0.7733271718025208,-0.4554968774318695,9.810839653015137,7.38525390625,0.091552734375,-2.593994140625
1.1274999,0.800261914730072,-0.3800795078277588,9.821015357971191,-3.021240234375,0.457763671875,3.72314453125
1.1324999000000002,0.8098387122154236,-0.5704185366630554,9.607931137084961,-3.96728515625,-0.213623046875,-2.960205078125
1.1374999000000001,0.8337807655334473,-0.4165911078453064,9.862914085388184,7.781982421875,0.885009765625,-0.152587890625
1.1424999000000002,0.7260416746139526,-0.32680854201316833,9.886856079101562,4.608154296875,1.15966796875,2.38037109375
1.1474999000000001,0.7086837291717529,-0.46627077460289,9.667187690734863,-8.087158203125,-0.030517578125,0.335693359375
1.1524999000000002,0.706289529800415,-0.45250412821769714,9.762357711791992,6.4697265625,-0.030517578125,-3.692626953125
1.1574999000000001,0.6554127335548401,-0.32860419154167175,9.861717224121094,-0.946044921875,0.457763671875,3.509521484375
1.1624999,0.6506243348121643,-0.5165489912033081,9.630077362060547,-5.462646484375,-0.8544921875,-2.38037109375
1.1674999000000001,0.6943184733390808,-0.40521863102912903,9.879075050354004,7.99560546875,0.48828125,-1.0986328125
1.1724999,0.6476315855979919,-0.32441434264183044,9.798869132995605,-5.7373046875,-0.274658203125,3.2958984375
1.1774999000000002,0.7691373229026794,-0.5434837937355042,9.704896926879883,-0.732421875,-0.91552734375,-4.0283203125
1.1824999,0.718859076499939,-0.31842881441116333,9.919178009033203,6.256103515625,0.030517578125,1.15966796875
1.1874999000000002,0.7679402232170105,-0.4141969084739685,9.728240013122559,-8.270263671875,-1.068115234375,1.617431640625
1.1924999,0.7817068696022034,-0.3776853084564209,9.81143856048584,-3.35693359375,0.518798828125,3.875732421875
1.1974999000000002,0.7960720658302307,-0.547075092792511,9.631275177001953,-3.5400390625,-0.244140625,-2.8076171875
1.2024999,0.71766197681427,-0.43514615297317505,9.733028411865234,4.974365234375,0.06103515625,-3.60107421875
1.2074999000000002,0.6829460263252258,-0.2998737692832947,9.838373184204102,0.91552734375,0.3662109375,3.35693359375
1.2124999,0.7200561761856079,-0.45908817648887634,9.860519409179688,7.843017578125,-0.18310546875,-2.105712890625
1.2174999000000002,0.689530074596405,-0.39803603291511536,9.824606895446777,-3.41796875,-0.48828125,3.387451171875
1.2224999,0.7451952695846558,-0.5650315880775452,9.686341285705566,-3.23486328125,-0.701904296875,-3.173828125
1.2274999000000002,0.7745242714881897,-0.41120412945747375,9.897629737854004,7.537841796875,0.30517578125,-0.06103515625
1.2324999,0.7170634269714355,-0.41120412945747375,9.75637149810791,-6.805419921875,-0.42724609375,2.62451171875
1.2374999000000002,0.8068459630012512,-0.5363011956214905,9.727043151855469,1.5869140625,-0.823974609375,-3.936767578125
1.2424999,0.7559691667556763,-0.3387795388698578,9.86111831665039,4.82177734375,0.42724609375,1.861572265625
1.2474999000000002,0.7733271718025208,-0.4644751250743866,9.647436141967773,-7.843017578125,-0.457763671875,0.885009765625
1.2524999,0.7541735172271729,-0.4489128291606903,9.697115898132324,5.4931640625,0.091552734375,-3.448486328125
1.2574999000000002,0.7314286231994629,-0.3423708379268646,9.81143856048584,1.220703125,0.54931640625,3.23486328125
1.2624999000000001,0.6835445761680603,-0.47405192255973816,9.642647743225098,-6.40869140625,-0.91552734375,-1.3427734375
1.2674999000000002,0.7254431247711182,-0.43754035234451294,9.840767860412598,7.38525390625,0.42724609375,-2.5634765625
1.2724999000000001,0.7242460250854492,-0.5374982953071594,9.674370765686035,-3.662109375,-0.244140625,-2.74658203125
1.2774999000000002,0.7445967197418213,-0.4076128304004669,9.890447616577148,7.50732421875,0.701904296875,-0.396728515625
1.2824999000000001,0.6841431260108948,-0.38486793637275696,9.783307075500488,-6.439208984375,-0.335693359375,2.593994140625
1.2874999,0.7655459642410278,-0.5476736426353455,9.731232643127441,0.67138671875,-0.457763671875,-4.119873046875
1.2924999000000001,0.7050924301147461,-0.3477577865123749,9.916783332824707,5.523681640625,0.42724609375,1.52587890625
1.2974999,0.7368155717849731,-0.4381389021873474,9.702502250671387,-7.9345703125,-0.823974609375,1.556396484375
1.3024999000000002,0.7218518257141113,-0.45429977774620056,9.71926212310791,3.96728515625,-0.42724609375,-3.814697265625
1.3074999,0.702099621295929,-0.3082534670829773,9.856329917907715,2.166748046875,0.30517578125,2.5634765625
1.3124999000000002,0.707486629486084,-0.4405331015586853,9.663596153259277,-7.354736328125,-0.79345703125,-0.42724609375
1.3174999,0.727837324142456,-0.4537012279033661,9.79647445678711,6.744384765625,0.152587890625,-2.960205078125
1.3224999000000002,0.7445967197418213,-0.37169981002807617,9.883264541625977,-1.129150390625,0.518798828125,3.5400390625
1.3274999,0.7422025203704834,-0.5734112858772278,9.647436141967773,-5.126953125,-0.457763671875,-1.983642578125
1.3324999000000002,0.8026561141014099,-0.47465047240257263,9.741408348083496,1.8310546875,-0.18310546875,-3.96728515625
1.3374999,0.7266402244567871,-0.3082534670829773,9.847352027893066,4.730224609375,0.640869140625,2.044677734375
1.3424999000000002,0.7344213724136353,-0.4357447028160095,9.654019355773926,-7.50732421875,-0.579833984375,0.762939453125
1.3474999,0.7134721279144287,-0.4465186297893524,9.702502250671387,4.7607421875,-0.06103515625,-3.7841796875
1.3524999000000002,0.7015010714530945,-0.33698388934135437,9.840767860412598,1.3427734375,0.640869140625,2.899169921875
1.3574999,0.6877344250679016,-0.4734533727169037,9.691728591918945,-6.500244140625,-0.732421875,-0.732421875
1.3624999000000002,0.7206547260284424,-0.37409400939941406,9.901819229125977,-1.983642578125,-0.152587890625,3.448486328125
1.3674999,0.7098808288574219,-0.5464765429496765,9.66419506072998,-4.730224609375,-0.8544921875,-2.288818359375
1.3724999000000002,0.7703344225883484,-0.47824180126190186,9.871294021606445,7.38525390625,0.091552734375,-1.220703125
1.3774999,0.7110779285430908,-0.3932476341724396,9.762357711791992,-4.7607421875,-0.3662109375,3.23486328125
1.3824999000000002,0.7942764163017273,-0.5752069354057312,9.662399291992188,-1.77001953125,-0.732421875,-3.509521484375
1.3874999000000001,0.7930793166160583,-0.38546648621559143,9.861717224121094,6.927490234375,0.48828125,0.335693359375
1.3924999000000002,0.7511807680130005,-0.38307225704193115,9.73542308807373,-6.622314453125,-0.335693359375,2.25830078125
1.3974999000000001,0.8337807655334473,-0.5069721937179565,9.72165584564209,1.678466796875,-0.152587890625,-4.0283203125
1.4024999000000002,0.7835025191307068,0.21547815203666687,9.528324127197266,14.373779296875,2.25830078125,-5.06591796875
1.4074999000000001,1.5179238319396973,0.013766659423708916,10.125079154968262,74.432373046875,10.80322265625,-77.178955078125
1.4124999,2.625840663909912,0.729034423828125,10.176554679870605,177.581787109375,9.27734375,-179.046630859375
1.4174999000000001,3.999513864517212,0.30466216802597046,11.374852180480957,226.348876953125,-11.8408203125,-236.419677734375
1.4224999,5.147533416748047,0.5219359993934631,11.521496772766113,276.30615234375,-22.5830078125,-281.707763671875
1.4274999000000002,1.4083890914916992,1.678335428237915,7.003039836883545,348.114013671875,-26.824951171875,-219.329833984375
1.4324999,1.4083890914916992,1.678335428237915,7.003039836883545,348.114013671875,-26.824951171875,-219.329833984375
1.4374999000000002,0.4644751250743866,2.0147206783294678,5.458181381225586,328.30810546875,-23.284912109375,-181.915283203125
1.4424999,-0.5285200476646423,1.8237831592559814,4.175487995147705,273.895263671875,-22.308349609375,-128.814697265625
1.4474999000000002,-0.6063315868377686,1.4951789379119873,3.447052001953125,262.26806640625,-16.357421875,-103.729248046875
1.4524999,-0.7098808288574219,0.8649053573608398,3.2160115242004395,225.006103515625,-16.17431640625,-50.445556640625
1.4574999000000002,-0.5925649404525757,0.4471171796321869,3.02986216545105,195.4345703125,-16.54052734375,-20.050048828125
1.4624999,-0.17298106849193573,0.2472013235092163,3.046621561050415,169.00634765625,-16.7236328125,24.139404296875
1.4674999000000002,-0.1322796493768692,0.24001872539520264,2.8215668201446533,129.302978515625,-21.453857421875,65.24658203125
1.4724999,-0.06224924325942993,0.3232172429561615,2.806602954864502,111.4501953125,-27.862548828125,92.132568359375
1.4774999000000002,-0.7194576263427734,0.5901707410812378,3.0873231887817383,47.393798828125,-36.224365234375,140.68603515625
1.4824999,-1.3736732006072998,1.0109516382217407,3.691260576248169,33.599853515625,-32.65380859375,153.350830078125
1.4874999000000002,-2.1553800106048584,1.568800687789917,4.613626480102539,-20.5078125,-19.561767578125,163.9404296875
1.4924999,-2.825756549835205,2.6797101497650146,5.969343185424805,-58.77685546875,24.932861328125,138.7939453125
1.4974999000000002,-3.292625904083252,4.573523998260498,8.0145902633667,-134.857177734375,77.972412109375,125.6103515625
1.5024999,-3.339911460876465,6.2165446281433105,9.431957244873047,-190.521240234375,85.357666015625,101.715087890625
1.5074999000000002,-2.7467479705810547,8.474276542663574,10.736797332763672,-203.18603515625,46.966552734375,104.30908203125
1.5124999000000001,-1.8405425548553467,9.17936897277832,10.912771224975586,-209.04541015625,37.65869140625,101.50146484375
1.5174999000000002,-0.5997475385665894,9.223063468933105,10.414178848266602,-156.18896484375,56.976318359375,107.879638671875
1.5224999000000001,0.2717418968677521,8.248024940490723,9.930550575256348,-149.688720703125,19.500732421875,127.44140625
1.5274999000000002,0.730231523513794,6.235698223114014,9.060257911682129,-171.783447265625,-15.80810546875,112.640380859375
1.5324999000000001,1.0420763492584229,4.423287868499756,8.902838706970215,-170.745849609375,-11.3525390625,92.132568359375
1.5374999000000003,1.4071919918060303,0.8505401611328125,8.488641738891602,-167.78564453125,-28.80859375,53.28369140625
1.5424999000000001,2.056619167327881,-0.6123170852661133,8.871115684509277,-186.34033203125,-39.947509765625,43.365478515625
1.5474999,2.7042508125305176,-1.547252893447876,8.934561729431152,-169.3115234375,-0.8544921875,30.6396484375
1.5524999000000002,3.2998085021972656,-1.7735048532485962,9.625887870788574,-117.034912109375,35.7666015625,27.89306640625
1.5574999,3.242946147918701,-1.2958617210388184,9.722254753112793,-151.153564453125,-5.279541015625,21.240234375
1.5624999000000002,2.9484593868255615,-0.11971008777618408,9.589376449584961,-168.5791015625,-15.594482421875,9.82666015625
1.5674999,2.2200236320495605,1.245583415031433,9.198522567749023,-186.492919921875,-4.302978515625,4.0283203125
1.5724999000000002,1.5999252796173096,2.204461097717285,8.367734909057617,-190.826416015625,-4.39453125,0.8544921875
1.5774999,1.4191631078720093,3.007715940475464,8.207921981811523,-198.150634765625,-1.800537109375,16.11328125
1.5824999000000002,1.3096283674240112,3.0555999279022217,7.704541206359863,-220.458984375,12.115478515625,20.660400390625
1.5874999,1.5723919868469238,2.8580782413482666,7.76020622253418,-209.808349609375,30.487060546875,28.594970703125
1.5924999000000002,1.680729627609253,2.4678235054016113,7.773374557495117,-229.888916015625,42.022705078125,47.4853515625
1.5974999,2.118868589401245,1.1276689767837524,8.364143371582031,-226.1962890625,74.920654296875,66.71142578125
1.6024999000000002,2.963423252105713,-0.3405751883983612,9.780313491821289,-210.845947265625,103.790283203125,69.793701171875
1.6074999,4.201824188232422,-2.470816135406494,12.008118629455566,-62.957763671875,177.55126953125,65.765380859375
1.6124999000000002,4.882375717163086,-4.867412090301514,13.878588676452637,24.35302734375,156.646728515625,54.6875
1.6174999,4.920084476470947,-7.202955722808838,14.361618995666504,6.8359375,85.44921875,41.015625
1.6224999000000002,3.3219549655914307,-8.095394134521484,13.057975769042969,-10.25390625,73.211669921875,40.283203125
1.6274999,1.0055646896362305,-7.749432563781738,10.177152633666992,-17.242431640625,78.125,20.599365234375
1.6324999000000002,-1.256955862045288,-6.210559368133545,7.707533836364746,-2.13623046875,72.3876953125,6.317138671875
1.6374999000000001,-2.935291290283203,-4.275445461273193,6.379350662231445,-7.720947265625,59.02099609375,4.21142578125
1.6424999000000002,-3.491344690322876,-2.612074136734009,6.8378400802612305,13.916015625,47.18017578125,-7.62939453125
1.6474999000000001,-3.4111387729644775,-1.0133458375930786,8.650849342346191,17.333984375,35.33935546875,3.753662109375
1.6524999000000002,-2.7964274883270264,0.016759412363171577,10.36569595336914,-9.674072265625,14.312744140625,6.561279296875
1.6574999000000001,-1.6879122257232666,1.0522516965866089,11.601104736328125,-7.049560546875,-13.336181640625,7.354736328125
1.6624999000000003,-1.304241418838501,0.6721721291542053,10.813411712646484,-2.960205078125,-24.10888671875,0.885009765625
1.6674999000000001,-1.161187767982483,0.5201402902603149,10.22383975982666,7.32421875,-26.031494140625,6.011962890625
1.6724999,-0.8361749649047852,-0.06524199992418289,9.68574333190918,-5.279541015625,-33.416748046875,1.953125
1.6774999000000002,-0.414795458316803,-0.6745663285255432,9.730035781860352,11.71875,-35.33935546875,-2.74658203125
1.6824999,-0.0867898091673851,-0.8690952062606812,9.8784761428833,3.35693359375,-37.04833984375,2.197265625
1.6874999000000002,0.44771572947502136,-0.7990648150444031,9.79408073425293,6.134033203125,-41.44287109375,-10.07080078125
1.6924999,0.8942343592643738,-1.0522516965866089,9.803058624267578,6.011962890625,-31.3720703125,-39.215087890625
1.6974999000000002,1.204882025718689,-0.47884035110473633,9.544485092163086,-9.307861328125,-18.951416015625,-23.5595703125
1.7024999,1.6765397787094116,-0.8672995567321777,9.315838813781738,7.080078125,-9.185791015625,-1.03759765625
1.7074999000000002,1.802833914756775,-0.6572083830833435,9.276334762573242,8.087158203125,0.579833984375,-5.31005859375
1.7124999,1.8608932495117188,-0.8948329091072083,9.050681114196777,-5.157470703125,6.195068359375,-6.805419921875
1.7174999000000002,1.426345705986023,-0.7463923692703247,9.212289810180664,-5.767822265625,14.0380859375,1.312255859375
1.7224999,1.1288660764694214,-0.5141547918319702,9.300874710083008,-0.3662109375,18.463134765625,-14.22119140625
1.7274999000000002,0.8984242081642151,-0.2693476974964142,9.609726905822754,-0.244140625,23.92578125,1.03759765625
1.7324999,0.7870938181877136,-0.14006079733371735,9.413402557373047,-12.115478515625,25.57373046875,-10.162353515625
1.7374999000000002,0.7996633648872375,-0.18076223134994507,9.47146224975586,2.0751953125,33.203125,0.335693359375
1.7424999,0.8667010068893433,0.05626374110579491,9.024943351745605,-11.627197265625,34.912109375,11.65771484375
1.7474999000000002,0.6625953316688538,-0.5291185975074768,8.926780700683594,1.220703125,34.332275390625,-2.99072265625
1.7524999,0.536899745464325,-0.4339490532875061,9.061454772949219,-5.06591796875,33.477783203125,13.885498046875
1.7574999000000002,0.03770867735147476,-0.6823474764823914,9.121310234069824,-9.246826171875,23.101806640625,-9.979248046875
1.7624999000000001,-0.7104793787002563,-0.444722980260849,9.586383819580078,-11.077880859375,9.674072265625,-4.150390625
1.7674999000000002,-0.9097966551780701,-0.4489128291606903,9.52114200592041,-0.54931640625,3.814697265625,-2.166748046875
1.7724999000000001,0.6045359373092651,-0.4231751561164856,9.982025146484375,-2.86865234375,-44.00634765625,0.42724609375
1.7774999000000002,0.9253589510917664,-0.38905778527259827,9.874286651611328,5.645751953125,-41.50390625,-6.04248046875
1.7824999000000001,1.0773907899856567,-0.0867898091673851,9.975440979003906,4.486083984375,-34.3017578125,3.021240234375
1.7874999000000003,1.2090718746185303,-0.17178396880626678,9.61331844329834,-5.7373046875,-31.55517578125,-1.89208984375
1.7924999000000001,1.4024035930633545,-0.2579752206802368,9.771934509277344,10.009765625,-24.322509765625,-1.5869140625
1.7974999,1.6310498714447021,-0.48961424827575684,9.412803649902344,1.15966796875,-10.19287109375,-4.608154296875
1.8024999000000002,1.6561890840530396,-0.3447650372982025,9.599552154541016,4.547119140625,-1.15966796875,4.425048828125
1.8074999,1.698686122894287,-0.507570743560791,9.326014518737793,-7.75146484375,3.997802734375,0.823974609375
1.8124999000000002,1.7423802614212036,-0.5327098965644836,9.5809965133667,8.544921875,12.237548828125,-0.91552734375
1.8174999,1.5286977291107178,-0.3770867586135864,9.589975357055664,-7.26318359375,17.578125,4.730224609375
1.8224999000000002,1.502361536026001,-0.5219359993934631,9.5007905960083,-0.79345703125,20.20263671875,-3.5400390625
1.8274999,1.2270283699035645,-0.27712884545326233,9.766547203063965,5.279541015625,24.7802734375,2.960205078125
1.8324999000000002,0.9953893423080444,-0.31603461503982544,9.604938507080078,-11.199951171875,23.74267578125,0.67138671875
1.8374999,0.8062474131584167,-0.39624038338661194,9.79408073425293,5.43212890625,24.139404296875,-2.86865234375
1.8424999000000002,0.3621230125427246,-0.518943190574646,9.782109260559082,-5.096435546875,18.85986328125,-3.814697265625
1.8474999,0.14006079733371735,-0.5536591410636902,10.003573417663574,5.584716796875,18.463134765625,1.434326171875
1.8524999000000002,-0.005386953707784414,-0.49799394607543945,9.77791976928711,-9.613037109375,12.542724609375,1.495361328125
1.8574999,-0.08200141042470932,-0.6655880808830261,9.845556259155273,4.608154296875,7.965087890625,-3.47900390625
1.8624999000000002,-0.21547815203666687,-0.5392939448356628,9.961674690246582,-0.396728515625,5.43212890625,4.669189453125
1.8674999,-0.2017114907503128,-0.6386532783508301,9.776124000549316,-4.94384765625,-1.89208984375,-2.50244140625
1.8724999000000002,-0.1472434103488922,-0.6314706802368164,10.041281700134277,9.307861328125,-3.326416015625,0.457763671875
1.8774999,-0.16759411990642548,-0.4686649739742279,9.8599214553833,-6.011962890625,-7.415771484375,2.9296875
1.8824999000000002,0.011971008032560349,-0.5315127968788147,9.831191062927246,3.997802734375,-11.077880859375,-4.57763671875
1.8874999000000001,0.05746084079146385,-0.35075053572654724,9.98681354522705,4.2724609375,-10.223388671875,3.0517578125
1.8924999000000002,0.18974047899246216,-0.3357867896556854,9.734824180603027,-6.103515625,-13.48876953125,-1.89208984375
1.8974999000000001,0.42197805643081665,-0.4668693244457245,9.937732696533203,9.58251953125,-12.14599609375,-2.25830078125
1.9024999000000002,0.43335050344467163,-0.333991140127182,9.849146842956543,-4.119873046875,-10.650634765625,3.0517578125
1.9074999000000001,0.7122750282287598,-0.48482584953308105,9.698312759399414,-0.30517578125,-11.77978515625,-5.06591796875
1.9124999000000003,0.7272387742996216,-0.3908534348011017,9.841365814208984,6.805419921875,-7.598876953125,1.46484375
1.9174999000000001,0.8110358119010925,-0.4507084786891937,9.836577415466309,-0.67138671875,-2.105712890625,3.7841796875
1.9224999,0.8475474119186401,-0.5656301379203796,9.620500564575195,-4.791259765625,-3.265380859375,-3.265380859375
1.9274999000000002,0.8517372608184814,-0.5692214369773865,9.908403396606445,8.30078125,0.8544921875,0.1220703125
1.9324999,0.7655459642410278,-0.3471592366695404,9.712677955627441,-7.568359375,1.77001953125,2.44140625
1.9374999000000002,0.8206126093864441,-0.517746090888977,9.632472038269043,2.410888671875,2.044677734375,-4.058837890625
1.9424999,0.7236474752426147,-0.32441434264183044,9.85034465789795,3.021240234375,5.889892578125,3.631591796875
1.9474999000000002,0.6973112225532532,-0.3477577865123749,9.557653427124023,-8.392333984375,4.57763671875,-1.068115234375
1.9524999,0.7469909191131592,-0.5027823448181152,9.851541519165039,7.659912109375,7.049560546875,-1.678466796875
1.9574999000000002,0.5907692909240723,-0.322618693113327,9.807847023010254,-5.218505859375,8.331298828125,4.302978515625
1.9624999,0.6805518269538879,-0.6003460884094238,9.701904296875,-2.593994140625,5.279541015625,-3.875732421875
1.9674999000000002,0.4812345504760742,-0.4118026793003082,9.693524360656738,-9.033203125,5.37109375,1.251220703125
1.9724999,0.4339490532875061,-0.5464765429496765,9.740809440612793,4.8828125,3.387451171875,-3.84521484375
1.9774999000000002,0.2992752194404602,-0.3513490855693817,9.894637107849121,0.48828125,3.90625,3.753662109375
1.9824999,0.2992752194404602,-0.3513490855693817,9.894637107849121,0.48828125,3.90625,3.753662109375
1.9874999000000002,0.23104046285152435,-0.5919663906097412,9.695918083190918,-6.591796875,-1.190185546875,-2.471923828125
1.9924999,0.2669534981250763,-0.5758054852485657,9.93354320526123,8.6669921875,-0.946044921875,-1.434326171875
1.9974999000000002,0.18555063009262085,-0.46567222476005554,9.857526779174805,-6.2255859375,-2.227783203125,3.2958984375
2.0024999,0.3866635859012604,-0.4124012291431427,9.699509620666504,-7.4462890625,-6.439208984375,0.18310546875
2.0074999,0.3866635859012604,-0.4124012291431427,9.699509620666504,-7.4462890625,-6.439208984375,0.18310546875
2.0124999000000003,0.4926069974899292,-0.535702645778656,9.81263542175293,6.744384765625,-6.134033203125,-3.631591796875
2.0174999000000002,0.4626794755458832,-0.3274070918560028,9.922170639038086,-0.79345703125,-3.96728515625,3.936767578125
2.0224999,0.7739257216453552,-0.518943190574646,9.658807754516602,1.8310546875,-2.25830078125,-4.69970703125
2.0274999,0.7362170219421387,-0.26096799969673157,9.857526779174805,4.82177734375,1.800537109375,2.288818359375
2.0324999000000004,0.7182605266571045,-0.4106055796146393,9.628880500793457,-8.636474609375,0.762939453125,-0.091552734375
2.0374999000000003,0.7529764175415039,-0.4357447028160095,9.748590469360352,6.683349609375,2.0751953125,-2.99072265625
2.0424999,0.6488286852836609,-0.3423708379268646,9.861717224121094,-2.38037109375,4.21142578125,3.936767578125
2.0474999,0.639850378036499,-0.5805938839912415,9.644442558288574,-5.0048828125,1.617431640625,-3.0517578125
2.0524999,0.619499683380127,-0.4513070285320282,9.925163269042969,8.1787109375,3.84521484375,-0.213623046875
2.0574999000000003,0.48482584953308105,-0.4554968774318695,9.783307075500488,-7.476806640625,3.387451171875,2.9296875
2.0624999,0.5345055460929871,-0.568622887134552,9.723451614379883,1.556396484375,1.03759765625,-4.08935546875
2.0674999,0.43335050344467163,-0.365115761756897,9.913191795349121,4.547119140625,3.448486328125,2.685546875
2.0724999,0.4189853072166443,-0.45489832758903503,9.803657531738281,-6.7138671875,-1.03759765625,2.777099609375
2.0774999000000003,0.5309142470359802,-0.5596446394920349,9.700108528137207,1.129150390625,-3.23486328125,-4.2724609375
2.0824999,0.545877993106842,-0.45908817648887634,9.739013671875,6.2255859375,-2.410888671875,-3.692626953125
2.0874999,0.545877993106842,-0.45908817648887634,9.739013671875,6.2255859375,-2.410888671875,-3.692626953125
2.0924999,0.4818331003189087,-0.3621230125427246,9.856928825378418,-0.274658203125,-0.18310546875,3.662109375
2.0974999000000003,0.4967968463897705,-0.5374982953071594,9.642048835754395,-6.2255859375,-2.838134765625,-2.25830078125
2.1024999,0.5776011347770691,-0.4836287498474121,9.875483512878418,8.209228515625,-0.762939453125,-1.15966796875
2.1074999,0.5758054852485657,-0.34356793761253357,9.858723640441895,1.77001953125,2.899169921875,3.570556640625
2.1124999,0.5758054852485657,-0.34356793761253357,9.858723640441895,1.77001953125,2.899169921875,3.570556640625
2.1174999000000003,0.5464765429496765,-0.5129576921463013,9.612719535827637,-7.2021484375,0,-1.40380859375
2.1224999,0.619499683380127,-0.5309142470359802,9.867103576660156,7.6904296875,1.52587890625,-2.166748046875
2.1274999,0.5219359993934631,-0.4578910768032074,9.816226959228516,-3.631591796875,2.838134765625,3.60107421875
2.1324999,0.5877765417098999,-0.6218938827514648,9.692327499389648,-3.143310546875,-0.213623046875,-3.47900390625
2.1374999000000003,0.5793967843055725,-0.47165772318840027,9.911994934082031,7.62939453125,2.288818359375,0.152587890625
2.1424999000000002,0.46148237586021423,-0.39863458275794983,9.734225273132324,-7.32421875,1.15966796875,2.288818359375
2.1474999,0.5398924946784973,-0.5141547918319702,9.730634689331055,2.044677734375,-1.0986328125,-4.21142578125
2.1524999,0.44173020124435425,-0.43095630407333374,9.931148529052734,-0.518798828125,0.518798828125,3.662109375
2.1574999000000004,0.4734533727169037,-0.6212953329086304,9.702502250671387,-5.79833984375,-2.899169921875,-2.44140625
2.1624999000000003,0.5506663918495178,-0.5422866940498352,9.923367500305176,8.453369140625,-1.068115234375,-1.28173828125
2.1674999,0.46088382601737976,-0.44412440061569214,9.840168952941895,-5.2490234375,-0.518798828125,3.326416015625
2.1724999,0.6087257862091064,-0.608127236366272,9.683947563171387,-1.3427734375,-2.99072265625,-3.692626953125
2.1774999000000004,0.5656301379203796,-0.39384618401527405,9.909002304077148,6.988525390625,0.48828125,1.220703125
2.1824999000000003,0.558447539806366,-0.3728969097137451,9.694721221923828,-8.056640625,-0.6103515625,1.495361328125
2.1874999,0.6224924325942993,-0.4878185987472534,9.719860076904297,3.2958984375,-1.708984375,-4.058837890625
2.1924999,0.558447539806366,-0.28730419278144836,9.90241813659668,3.082275390625,1.5869140625,3.021240234375
2.1974999,0.5716156363487244,-0.49619829654693604,9.68694019317627,-7.904052734375,-0.9765625,-0.701904296875
2.2024999000000003,0.5829881429672241,-0.6236895322799683,9.667187690734863,-5.218505859375,-0.67138671875,-2.593994140625
2.2074999,0.5973533391952515,-0.48602294921875,9.907206535339355,7.8125,1.40380859375,-0.79345703125
2.2124999,0.47584760189056396,-0.4279635548591614,9.81263542175293,-5.7373046875,1.3427734375,3.143310546875
2.2174999,0.5877765417098999,-0.5692214369773865,9.689932823181152,-0.6103515625,-0.823974609375,-3.875732421875
2.2224999000000003,0.5027823448181152,-0.365115761756897,9.911396026611328,6.256103515625,1.983642578125,1.312255859375
2.2274999,0.497395396232605,-0.40222588181495667,9.68694019317627,-7.8125,-0.213623046875,1.52587890625
2.2324999,0.5297171473503113,-0.46327802538871765,9.694122314453125,3.448486328125,-1.068115234375,-3.997802734375
2.2374999,0.4602852761745453,-0.33758243918418884,9.860519409179688,2.960205078125,1.739501953125,3.021240234375
2.2424999000000003,0.4794389009475708,-0.44532153010368347,9.914389610290527,-1.190185546875,1.190185546875,3.509521484375
2.2474999,0.46088382601737976,-0.4165911078453064,9.809642791748047,-5.035400390625,-0.091552734375,2.99072265625
2.2524999,0.7152677774429321,-0.578798234462738,9.27334213256836,-3.173828125,-2.471923828125,-2.5634765625
2.2574999,0.7924807667732239,-0.6171054840087891,8.71369743347168,10.955810546875,19.744873046875,37.261962890625
2.2624999000000003,1.1623848676681519,-1.890222191810608,7.518392086029053,26.2451171875,28.50341796875,108.428955078125
2.2674999000000002,1.534683346748352,-1.427542805671692,6.660669326782227,147.003173828125,71.197509765625,183.258056640625
2.2724999,1.4664485454559326,-3.1723172664642334,5.855618953704834,-38.4521484375,65.36865234375,196.136474609375
2.2774999,1.4203602075576782,-1.1982979774475098,5.31812047958374,133.23974609375,9.6435546875,182.12890625
2.2824999000000004,0.6458359360694885,-1.5526398420333862,5.2672438621521,55.6640625,-29.4189453125,175.750732421875
2.2874999000000003,0.6063315868377686,1.1635819673538208,4.960785865783691,130.18798828125,-46.844482421875,108.21533203125
2.2924999,0.7003039717674255,1.1414356231689453,5.111021995544434,43.8232421875,-58.319091796875,131.2255859375
2.2974999,0.7463923692703247,3.5649664402008057,5.224148273468018,92.620849609375,-75.74462890625,111.114501953125
2.3024999000000004,1.0013748407363892,4.674678802490234,5.133767127990723,71.502685546875,-109.649658203125,63.53759765625
2.3074999000000003,0.7428010702133179,3.7439329624176025,4.434061527252197,-0.30517578125,-120.880126953125,69.82421875
2.3124999,1.4155718088150024,3.5260605812072754,5.875969409942627,84.228515625,-105.072021484375,46.417236328125
2.3174999,1.3796586990356445,1.844732403755188,4.972158432006836,12.420654296875,-93.26171875,77.94189453125
2.3224999,2.384026288986206,1.2635399103164673,6.1321492195129395,-29.60205078125,-86.42578125,80.108642578125
2.3274999000000003,2.5779566764831543,0.8810662031173706,5.602431774139404,67.626953125,-76.080322265625,54.6875
2.3324999,3.0861260890960693,1.5322890281677246,5.676652431488037,-50.689697265625,-48.187255859375,74.127197265625
2.3374999,3.449446201324463,2.454056739807129,5.692812919616699,-39.642333984375,-32.40966796875,41.3818359375
2.3424999,3.5709519386291504,3.450643301010132,5.879560947418213,-73.974609375,-38.177490234375,58.258056640625
2.3474999000000003,3.8079779148101807,4.003703594207764,5.95677375793457,-83.251953125,-17.39501953125,43.975830078125
2.3524999,3.7457284927368164,4.148552894592285,6.084265232086182,-142.364501953125,-4.638671875,48.7060546875
2.3574999,3.9636008739471436,3.6601357460021973,6.859986305236816,-124.969482421875,15.869140625,33.050537109375
2.3624999,5.679046630859375,-1.0348936319351196,11.966219902038574,-13.85498046875,132.01904296875,1.800537109375
2.3674999000000003,5.725733280181885,-3.134010076522827,13.50030517578125,14.617919921875,95.458984375,-2.99072265625
2.3724999,5.0715179443359375,-5.01405668258667,13.19743824005127,-26.214599609375,80.26123046875,-20.08056640625
2.3774999,3.4799721240997314,-5.670666694641113,11.616067886352539,-22.735595703125,111.572265625,-15.594482421875
2.3824999,1.8052281141281128,-5.937620162963867,9.317634582519531,-14.862060546875,119.44580078125,-39.337158203125
2.3874999000000003,0.1951274424791336,-5.2444987297058105,7.5668745040893555,1.3427734375,121.917724609375,-25.787353515625
2.3924999000000002,-0.5811924338340759,-4.508281707763672,6.845621109008789,19.683837890625,118.377685546875,-27.77099609375
2.3974999,-1.0845733880996704,-3.290231704711914,7.517194747924805,16.9677734375,116.424560546875,-2.838134765625
2.4024999,-1.148618221282959,-2.09672212600708,9.024943351745605,21.881103515625,88.07373046875,-11.16943359375
2.4074999000000004,-1.404199242591858,-0.6326677799224854,10.66137981414795,-9.307861328125,67.93212890625,0.030517578125
2.4124999000000003,-1.756745457649231,0.6123170852661133,11.802217483520508,7.354736328125,37.384033203125,-18.37158203125
2.4174999,-2.765302896499634,1.787870168685913,11.583745956420898,2.50244140625,-0.1220703125,-18.85986328125
2.4224999,-2.964021682739258,1.5939397811889648,10.527304649353027,-23.13232421875,-7.75146484375,-4.33349609375
2.4274999000000004,-2.6617536544799805,0.7320271730422974,10.011953353881836,7.14111328125,-11.383056640625,3.5400390625
2.4324999000000003,-2.1284453868865967,-0.028730420395731926,9.281721115112305,-18.096923828125,-18.798828125,13.214111328125
2.4374999,-1.3988122940063477,-1.002571940422058,9.518747329711914,19.22607421875,-27.252197265625,9.979248046875
2.4424999,-0.6817489266395569,-1.522712230682373,9.367912292480469,-7.62939453125,-35.2783203125,3.96728515625
2.4474999,-0.1885433793067932,-1.8441338539123535,9.853935241699219,24.7802734375,-36.895751953125,-0.3662109375
2.4524999000000003,0.26156654953956604,-1.7764976024627686,9.68694019317627,-4.82177734375,-40.252685546875,-4.974365234375
2.4574999,0.42377370595932007,-1.467047095298767,9.988011360168457,27.191162109375,-35.614013671875,-2.3193359375
2.4624999,0.6434416770935059,-1.0396820306777954,9.707889556884766,-4.150390625,-37.78076171875,-6.04248046875
2.4674999,0.6919242739677429,-0.4507084786891937,9.99339771270752,20.904541015625,-30.181884765625,-1.251220703125
2.4724999000000003,0.8313865661621094,-0.15143325924873352,9.73781681060791,-10.986328125,-32.379150390625,-6.439208984375
2.4774999,0.9582792520523071,0.1364694982767105,9.704896926879883,-15.44189453125,-24.96337890625,-4.69970703125
2.4824999,1.1366472244262695,-0.8960300087928772,9.354146003723145,-13.18359375,1.068115234375,-3.662109375
2.4874999,1.137245774269104,-0.629675030708313,9.75637149810791,14.739990234375,11.65771484375,2.960205078125
2.4924999000000003,1.0785878896713257,-0.7212532758712769,9.41519832611084,-13.885498046875,9.6435546875,-3.0517578125
2.4974999,1.0313023328781128,-0.3298012912273407,9.81263542175293,14.0380859375,18.829345703125,3.47900390625
2.5024999,0.9648633003234863,-0.4692635238170624,9.494206428527832,-16.29638671875,15.9912109375,-1.983642578125
2.5074999,0.8445546627044678,-0.12868833541870117,9.88625717163086,12.39013671875,22.430419921875,3.082275390625
2.5124999000000003,0.5781996846199036,-0.2041056901216507,9.983222961425781,11.871337890625,21.8505859375,1.77001953125
2.5174999000000002,0.4866214990615845,-0.4991910457611084,9.699509620666504,-17.63916015625,16.448974609375,-1.800537109375
2.5224999,0.272938996553421,-0.4231751561164856,10.037690162658691,12.664794921875,17.730712890625,0.732421875
2.5274999,0.17477671802043915,-0.5416881442070007,9.77013874053955,-16.693115234375,11.688232421875,-0.8544921875
2.5324999000000004,-0.002394201699644327,-0.5650315880775452,10.020332336425781,14.129638671875,10.833740234375,-0.42724609375
2.5374999000000003,-0.12928688526153564,-0.536899745464325,9.708487510681152,-15.716552734375,5.43212890625,0.152587890625
2.5424999,-0.1975216418504715,-0.6189011335372925,9.963470458984375,15.411376953125,2.410888671875,-1.434326171875
2.5474999,-0.2998737692832947,-0.547075092792511,9.691129684448242,-14.251708984375,-2.288818359375,1.46484375
2.5524999000000004,-0.22505496442317963,-0.6512228846549988,9.979032516479492,15.655517578125,-6.072998046875,-3.082275390625
2.5574999000000003,-0.22266076505184174,-0.5363011956214905,9.81263542175293,-12.75634765625,-8.23974609375,2.655029296875
2.5624999,0.5404910445213318,-0.5123591423034668,9.738415718078613,8.148193359375,-12.786865234375,-6.317138671875
2.5674999,0.5404910445213318,-0.5123591423034668,9.738415718078613,8.148193359375,-12.786865234375,-6.317138671875
2.5724999,0.585382342338562,-0.26096799969673157,9.785700798034668,-4.57763671875,-6.103515625,6.072998046875
2.5774999000000003,0.7284358739852905,-0.5428852438926697,9.619902610778809,3.631591796875,-9.613037109375,-7.110595703125
2.5824999,0.6596025824546814,-0.37169981002807617,9.81263542175293,-0.42724609375,-1.190185546875,6.195068359375
2.5874999,0.800261914730072,-0.6003460884094238,9.528324127197266,-1.40380859375,-5.37109375,-6.622314453125
2.5924999,0.7433996200561523,-0.3932476341724396,9.857526779174805,4.0283203125,3.60107421875,5.67626953125
2.5974999000000003,0.7775170207023621,-0.6051344871520996,9.498396873474121,-6.591796875,-1.007080078125,-5.523681640625
2.6024999,0.7613561153411865,-0.34596213698387146,9.8599214553833,8.331298828125,7.14111328125,4.45556640625
2.6074999,0.6931213736534119,-0.6153098344802856,9.53849983215332,-11.29150390625,2.899169921875,-3.90625
2.6124999,0.6506243348121643,-0.35434186458587646,9.867103576660156,11.566162109375,8.544921875,2.349853515625
2.6174999000000003,0.5596446394920349,-0.43754035234451294,9.915586471557617,13.36669921875,8.11767578125,-0.1220703125
2.6224999,0.5596446394920349,-0.43754035234451294,9.915586471557617,13.36669921875,8.11767578125,-0.1220703125
2.6274999,0.4692635238170624,-0.49799394607543945,9.689932823181152,-14.801025390625,5.55419921875,1.03759765625
2.6324999,0.4465186297893524,-0.5165489912033081,9.923367500305176,12.847900390625,5.157470703125,-2.62451171875
2.6374999000000003,0.2944868206977844,-0.34656068682670593,9.75936508178711,-12.786865234375,5.43212890625,3.936767578125
2.6424999000000002,0.20111294090747833,-0.23343466222286224,9.800664901733398,-7.87353515625,4.150390625,5.7373046875
2.6474999,0.20111294090747833,-0.23343466222286224,9.800664901733398,-7.87353515625,4.150390625,5.7373046875
2.6524999,0.24181437492370605,-0.5542576909065247,9.748590469360352,4.364013671875,-2.3193359375,-6.34765625
2.6574999000000004,0.1107318252325058,-0.3232172429561615,9.873088836669922,-1.40380859375,2.349853515625,5.828857421875
2.6624999000000003,0.1843535304069519,-0.6290764808654785,9.637260437011719,-1.953125,-5.096435546875,-6.53076171875
2.6674999,0.1454477459192276,-0.45908817648887634,9.973047256469727,5.79833984375,0.48828125,4.974365234375
2.6724999,0.20709845423698425,-0.7398083209991455,9.632472038269043,-8.026123046875,-6.256103515625,-4.608154296875
2.6774999000000004,0.2825157940387726,-0.49380409717559814,9.959280967712402,11.505126953125,-1.434326171875,2.3193359375
2.6824999000000003,0.4686649739742279,-0.47584760189056396,9.721057891845703,-12.847900390625,-3.875732421875,1.89208984375
2.6874999,0.4686649739742279,-0.47584760189056396,9.721057891845703,-12.847900390625,-3.875732421875,1.89208984375
2.6924999,0.5680243372917175,-0.4818331003189087,9.84376049041748,12.115478515625,-4.21142578125,-3.96728515625
2.6974999,0.5171475410461426,-0.2861070930957794,9.817423820495605,-9.21630859375,-0.823974609375,4.913330078125
2.7024999000000003,0.5961562395095825,-0.5027823448181152,9.731831550598145,6.2255859375,-3.875732421875,-5.950927734375
2.7074999,0.497395396232605,-0.2519897222518921,9.86889934539795,-2.288818359375,2.01416015625,5.859375
2.7124999,0.5548562407493591,-0.5512649416923523,9.625288963317871,-1.8310546875,-2.50244140625,-5.889892578125
2.7174999,0.5111620426177979,-0.3423708379268646,9.90241813659668,5.645751953125,4.119873046875,4.7607421875
2.7224999000000003,0.5374982953071594,-0.6649895310401917,9.57201862335205,-9.368896484375,-0.18310546875,-3.90625
2.7274999,0.5548562407493591,-0.4231751561164856,9.910199165344238,11.016845703125,4.5166015625,1.708984375
2.7324999,0.5099649429321289,-0.6506243348121643,9.610923767089844,-13.24462890625,2.532958984375,0.213623046875
2.7374999,0.3555389642715454,-0.26815059781074524,9.945513725280762,-4.2724609375,4.7607421875,5.645751953125
2.7424999000000003,0.3555389642715454,-0.26815059781074524,9.945513725280762,-4.2724609375,4.7607421875,5.645751953125
2.7474999,0.37169981002807617,-0.5105634927749634,9.674370765686035,-0.54931640625,-1.251220703125,-5.9814453125
2.7524999,0.27054479718208313,-0.2801215946674347,9.888651847839355,4.669189453125,3.448486328125,5.096435546875
2.7574999,0.27413609623908997,-0.646434485912323,9.545083999633789,-8.392333984375,-2.25830078125,-3.875732421875
2.7624999000000003,0.2753331959247589,-0.44352585077285767,9.88386344909668,11.16943359375,0.79345703125,1.373291015625
2.7674999000000002,0.2693476974964142,-0.6649895310401917,9.636661529541016,-12.115478515625,-2.25830078125,0.244140625
2.7724999,0.3381809890270233,-0.5596446394920349,9.897629737854004,12.176513671875,-2.74658203125,-2.8076171875
2.7774999,0.2992752194404602,-0.45250412821769714,9.86231517791748,-9.246826171875,-0.885009765625,4.119873046875
2.7824999000000004,0.4225766062736511,-0.5530605912208557,9.821614265441895,6.317138671875,-4.852294921875,-5.828857421875
2.7874999000000003,0.36990416049957275,-0.284311443567276,9.9772367477417,-1.068115234375,0.030517578125,5.67626953125
2.7924999,0.4225766062736511,-0.3064578175544739,9.939528465270996,7.598876953125,0.579833984375,3.35693359375
2.7974999,0.42676645517349243,-0.5650315880775452,9.586383819580078,-10.772705078125,-2.471923828125,-1.77001953125
2.8024999000000004,0.524330198764801,-0.4692635238170624,9.886856079101562,12.176513671875,-0.396728515625,-0.91552734375
2.8074999000000003,0.5111620426177979,-0.547075092792511,9.662399291992188,-11.41357421875,0.67138671875,2.716064453125
2.8124999,0.6200982332229614,-0.5680243372917175,9.77672290802002,8.4228515625,-0.91552734375,-4.730224609375
2.8174999,0.5015852451324463,-0.36750996112823486,9.836577415466309,-4.08935546875,3.5400390625,5.279541015625
2.8224999,0.5285200476646423,-0.5464765429496765,9.6618013381958,-0.91552734375,-1.373291015625,-5.4931640625
2.8274999000000003,0.4429273009300232,-0.29568392038345337,9.987412452697754,5.4931640625,3.96728515625,4.2724609375
2.8324999,0.44352585077285767,-0.5704185366630554,9.652822494506836,-9.307861328125,-0.152587890625,-2.62451171875
2.8374999,0.4710591733455658,-0.4572925269603729,9.960477828979492,11.16943359375,2.5634765625,0
2.8424999,0.43514615297317505,-0.5770025849342346,9.702502250671387,-11.5966796875,2.044677734375,2.13623046875
2.8474999000000003,0.4878185987472534,-0.5985504388809204,9.825803756713867,8.97216796875,-0.457763671875,-4.45556640625
2.8524999,0.3693056106567383,-0.5907692909240723,9.68813705444336,-0.457763671875,-2.01416015625,-5.706787109375
2.8574999,0.29628247022628784,-0.322618693113327,9.996390342712402,5.706787109375,2.62451171875,3.84521484375
2.8624999,0.3034650683403015,-0.5722141861915588,9.661202430725098,-9.429931640625,-1.861572265625,-2.349853515625
2.8674999000000003,0.37888240814208984,-0.456095427274704,9.979631423950195,11.23046875,-0.06103515625,-0.579833984375
2.8724999,0.36990416049957275,-0.5560533404350281,9.743204116821289,-10.772705078125,0,2.532958984375
2.8774999,0.4638765752315521,-0.5811924338340759,9.818022727966309,7.965087890625,-2.74658203125,-4.8828125
2.8824999,0.34656068682670593,-0.35733461380004883,9.955090522766113,7.171630859375,1.15966796875,2.838134765625
2.8874999000000003,0.32620999217033386,-0.5841852426528931,9.625887870788574,-10.1318359375,-1.77001953125,-1.007080078125
2.8924999000000002,0.44532153010368347,-0.5015852451324463,9.921571731567383,10.955810546875,-0.762939453125,-1.89208984375
2.8974999,0.3992331326007843,-0.4878185987472534,9.79647445678711,-8.880615234375,1.03759765625,3.875732421875
2.9024999,0.47824180126190186,-0.5285200476646423,9.618106842041016,-10.986328125,0.48828125,1.0986328125
2.9074999000000004,0.5141547918319702,-0.5033808946609497,9.779715538024902,8.97216796875,-0.8544921875,-4.08935546875
2.9124999000000003,0.4034229815006256,-0.35733461380004883,9.805453300476074,-4.852294921875,3.021240234375,4.8828125
2.9174999,0.436343252658844,-0.5159504413604736,9.658209800720215,-0.732421875,-1.800537109375,-5.18798828125
2.9224999,0.3585317134857178,-0.2968810200691223,9.95748519897461,5.584716796875,3.11279296875,3.387451171875
2.9274999000000004,0.3232172429561615,-0.5333084464073181,9.634267807006836,-9.765625,-0.335693359375,-1.434326171875
2.9324999000000003,0.39863458275794983,-0.48243165016174316,9.939528465270996,10.406494140625,0.3662109375,-1.953125
2.9374999,0.33997663855552673,-0.4967968463897705,9.793481826782227,-8.544921875,1.953125,3.662109375
2.9424999,0.4465186297893524,-0.5829881429672241,9.746196746826172,4.150390625,-2.349853515625,-5.37109375
2.9474999,0.44532153010368347,-0.5566518902778625,9.59177017211914,-6.988525390625,-2.197265625,-3.326416015625
2.9524999000000003,0.4626794755458832,-0.395043283700943,9.88506031036377,10.009765625,0.152587890625,0.091552734375
2.9574999,0.41539400815963745,-0.5159504413604736,9.676166534423828,-10.009765625,0.274658203125,2.50244140625
2.9624999,0.45848962664604187,-0.568622887134552,9.794678688049316,6.77490234375,-2.655029296875,-4.730224609375
2.9674999,0.3687070608139038,-0.39863458275794983,9.911994934082031,-1.495361328125,1.495361328125,4.913330078125
2.9724999000000003,0.41359832882881165,-0.6224924325942993,9.68574333190918,-4.058837890625,-3.0517578125,-4.241943359375
2.9774999,0.3842693865299225,-0.414795458316803,9.988011360168457,8.60595703125,0.640869140625,1.28173828125
2.9824999,0.3944447338581085,-0.5518634915351868,9.668983459472656,-10.101318359375,-0.48828125,1.15966796875
2.9874999,0.46567222476005554,-0.5225345492362976,9.829395294189453,8.514404296875,-1.953125,-3.84521484375
2.9924999000000003,0.38486793637275696,-0.39384618401527405,9.856329917907715,-3.814697265625,2.197265625,4.425048828125
2.9974999,0.46746787428855896,-0.585382342338562,9.70549488067627,-2.105712890625,-2.3193359375,-5.06591796875
3.0024999,0.42437225580215454,-0.3711012601852417,9.991601943969727,7.01904296875,2.197265625,2.38037109375
3.0074999,0.4016273319721222,-0.39803603291511536,9.856928825378418,-5.279541015625,3.082275390625,4.39453125
3.0124999000000003,0.4602852761745453,-0.5925649404525757,9.712079048156738,-0.518798828125,-1.800537109375,-5.096435546875
3.0174999000000002,0.37469255924224854,-0.36810851097106934,9.953893661499023,5.889892578125,2.655029296875,3.021240234375
3.0224999,0.36571431159973145,-0.5578489899635315,9.654618263244629,-9.552001953125,-0.274658203125,-0.518798828125
3.0274999,0.4489128291606903,-0.5398924946784973,9.855133056640625,9.185791015625,-0.701904296875,-2.899169921875
3.0324999000000004,0.35913026332855225,-0.42197805643081665,9.807847023010254,-5.950927734375,2.3193359375,4.2724609375
3.0374999000000003,0.42856210470199585,-0.5991489887237549,9.698312759399414,0.3662109375,-2.777099609375,-5.0048828125
3.0424999,0.36990416049957275,-0.4345476031303406,9.849146842956543,-5.828857421875,1.678466796875,4.21142578125
3.0474999,0.5009866952896118,-0.5021837949752808,9.835380554199219,9.063720703125,-0.9765625,-2.960205078125
3.0524999000000004,0.40043023228645325,-0.41359832882881165,9.798869132995605,-5.0048828125,1.89208984375,4.21142578125
3.0574999000000003,0.48482584953308105,-0.6200982332229614,9.658209800720215,-0.48828125,-2.593994140625,-4.669189453125
3.0624999,0.4297592043876648,-0.37229835987091064,9.901819229125977,6.2255859375,2.0751953125,2.838134765625
3.0674999,0.4279635548591614,-0.5327098965644836,9.628880500793457,-9.33837890625,-0.457763671875,-0.30517578125
3.0724999000000004,0.49978959560394287,-0.5099649429321289,9.793481826782227,8.30078125,-0.79345703125,-3.41796875
3.0774999000000003,0.4118026793003082,-0.3944447338581085,9.803657531738281,-3.997802734375,2.50244140625,4.669189453125
3.0824999,0.4854243993759155,-0.6434416770935059,9.664793968200684,-2.13623046875,-2.38037109375,-4.547119140625
3.0874999,0.40043023228645325,-0.39803603291511536,9.907805442810059,7.26318359375,1.861572265625,1.89208984375
3.0924999,0.3992331326007843,-0.5805938839912415,9.662399291992188,-9.246826171875,0.06103515625,0.732421875
3.0974999000000003,0.4381389021873474,-0.5638344883918762,9.699509620666504,-3.814697265625,-2.3193359375,-3.875732421875
3.1024999,0.4291606545448303,-0.38546648621559143,9.958083152770996,8.087158203125,1.15966796875,0.640869140625
3.1074999,0.42197805643081665,-0.47465047240257263,9.736021041870117,-8.7890625,0.42724609375,1.8310546875
3.1124999,0.4602852761745453,-0.5339069962501526,9.806650161743164,5.67626953125,-1.983642578125,-4.547119140625
3.1174999000000003,0.4034229815006256,-0.3824737071990967,9.895833969116211,0.18310546875,2.3193359375,4.21142578125
3.1224999,0.40880993008613586,-0.6200982332229614,9.651026725769043,-6.072998046875,-2.0751953125,-3.0517578125
3.1274999,0.42437225580215454,-0.4985924959182739,9.916184425354004,8.880615234375,0.3662109375,-0.396728515625
3.1324999,0.3555389642715454,-0.5327098965644836,9.739612579345703,-7.720947265625,1.0986328125,2.899169921875
3.1374999000000003,0.4082113802433014,-0.5907692909240723,9.724648475646973,3.204345703125,-2.593994140625,-5.035400390625
3.1424999000000002,0.3447650372982025,-0.3597288131713867,9.951498985290527,2.899169921875,2.01416015625,3.753662109375
3.1474999,0.33099839091300964,-0.5303156971931458,9.651625633239746,-7.50732421875,-1.5869140625,-1.77001953125
3.1524999,0.4734533727169037,-0.6087257862091064,9.741408348083496,-0.274658203125,-2.685546875,-4.69970703125
3.1574999000000004,0.4297592043876648,-0.3292027413845062,9.922170639038086,5.67626953125,1.89208984375,2.471923828125
3.1624999000000003,0.4572925269603729,-0.4836287498474121,9.6618013381958,-8.758544921875,-0.18310546875,0.396728515625
3.1674999,0.5183446407318115,-0.47405192255973816,9.77253246307373,7.476806640625,-1.28173828125,-3.692626953125
3.1724999,0.45190557837486267,-0.375291109085083,9.846753120422363,-2.25830078125,2.62451171875,4.33349609375
3.1774999000000004,0.4878185987472534,-0.5728127360343933,9.670180320739746,-3.72314453125,-2.105712890625,-3.631591796875
3.1824999000000003,0.4644751250743866,-0.41718965768814087,9.929951667785645,8.087158203125,1.220703125,0.457763671875
3.1874999,0.3926490843296051,-0.4345476031303406,9.738415718078613,-8.30078125,0.946044921875,2.288818359375
3.1924999,0.42018240690231323,-0.5021837949752808,9.73542308807373,4.241943359375,-2.044677734375,-4.730224609375
3.1974999000000004,0.3603273630142212,-0.32441434264183044,9.8970308303833,1.983642578125,2.50244140625,3.90625
3.2024999000000003,0.3974374830722809,-0.34416648745536804,9.8970308303833,6.103515625,1.40380859375,2.3193359375
3.2074999,0.4129997789859772,-0.5135562419891357,9.657012939453125,-8.60595703125,-0.30517578125,0.457763671875
3.2124999,0.4129997789859772,-0.5135562419891357,9.657012939453125,-8.60595703125,-0.30517578125,0.457763671875
3.2174999,0.4513070285320282,-0.48243165016174316,9.757569313049316,6.591796875,-1.556396484375,-3.692626953125
3.2224999000000003,0.3866635859012604,-0.36152446269989014,9.873687744140625,-1.190185546875,2.105712890625,4.547119140625
3.2274999,0.2944868206977844,-1.3317747116088867,8.920196533203125,-5.55419921875,-2.288818359375,-2.197265625
3.2324999,-0.2717418968677521,-2.2894554138183594,8.335412979125977,50.59814453125,2.838134765625,15.350341796875
3.2374999,-0.8463503122329712,-3.648164749145508,6.7714009284973145,67.2607421875,-17.730712890625,68.84765625
3.2424999000000003,-1.338358759880066,-3.315370798110962,5.37558126449585,146.240234375,-1.89208984375,59.08203125
3.2474999,-1.6735470294952393,-3.550601005554199,4.518456935882568,-1.220703125,-21.728515625,121.9482421875
3.2524999,-0.2454056739807129,0.02753331884741783,4.7135844230651855,229.98046875,-55.938720703125,99.945068359375
3.2574999,0.33518823981285095,0.9786299467086792,5.055356979370117,220.367431640625,-66.925048828125,47.454833984375
3.2624999000000003,1.0001777410507202,3.3937809467315674,5.832873821258545,171.783447265625,-104.278564453125,35.186767578125
3.2674999000000002,0.8140285611152649,3.931279182434082,5.807136058807373,168.182373046875,-143.73779296875,-23.37646484375
3.2724999,0.9169792532920837,5.762245178222656,5.863399982452393,168.792724609375,-159.11865234375,-26.580810546875
3.2774999,0.9475052952766418,5.611410140991211,5.600037574768066,120.758056640625,-163.055419921875,-44.219970703125
3.2824999000000004,3.2375593185424805,6.062717437744141,6.2398881912231445,42.694091796875,-75.50048828125,-35.858154296875
3.2874999000000003,3.933074951171875,6.062717437744141,6.4080810546875,55.5419921875,-52.276611328125,-25.87890625
3.2924999,4.13059663772583,5.8442463874816895,6.142324447631836,23.49853515625,-29.84619140625,-4.150390625
3.2974999,3.959411144256592,5.349245071411133,5.935824394226074,-23.25439453125,14.068603515625,23.590087890625
3.3024999000000004,3.6337995529174805,5.2899885177612305,5.902305603027344,-15.56396484375,30.181884765625,6.072998046875
3.3074999000000003,2.9712042808532715,4.207211017608643,6.10940408706665,-49.957275390625,28.74755859375,19.561767578125
3.3124999,1.9620482921600342,4.359242916107178,6.5265936851501465,-19.439697265625,38.39111328125,-3.692626953125
3.3174999,1.875258445739746,3.022679567337036,7.046135425567627,-87.127685546875,37.384033203125,22.979736328125
3.3224999000000004,0.7260416746139526,3.6176388263702393,6.874950408935547,-32.073974609375,35.430908203125,-15.472412109375
3.3274999000000003,1.4431051015853882,3.1040825843811035,6.327276706695557,-103.668212890625,37.933349609375,23.13232421875
3.3324999,0.5099649429321289,3.734954595565796,5.1816511154174805,-58.837890625,30.57861328125,-24.658203125
3.3374999,1.5095441341400146,3.998316764831543,4.923676013946533,-104.248046875,28.80859375,-14.739990234375
3.3424999,1.0462661981582642,4.156333923339844,4.793191909790039,-107.147216796875,19.53125,-30.57861328125
3.3474999000000003,1.5185223817825317,4.618414878845215,5.585672378540039,-167.388916015625,25.57373046875,-1.40380859375
3.3524999,1.3563152551651,4.5639472007751465,5.813720226287842,-179.412841796875,18.096923828125,-24.261474609375
3.3574999,0.9738415479660034,4.459799289703369,6.035183906555176,-237.85400390625,26.641845703125,-9.674072265625
3.3624999,1.0169371366500854,4.168903827667236,6.703764915466309,-245.269775390625,38.909912109375,5.523681640625
3.3674999000000003,1.37906014919281,3.448847532272339,7.473500728607178,-273.956298828125,54.8095703125,10.345458984375
3.3724999,2.7060465812683105,1.8405425548553467,9.64564037322998,-170.745849609375,151.55029296875,29.266357421875
3.3774999,3.9923312664031982,-0.7344213724136353,12.000935554504395,-1.46484375,238.83056640625,19.1650390625
3.3824999,4.930259704589844,-3.666719913482666,14.074315071105957,25.7568359375,142.822265625,15.411376953125
3.3874999000000003,4.642356872558594,-6.233304023742676,14.193426132202148,-59.6923828125,87.34130859375,22.216796875
3.3924999000000002,3.0107085704803467,-7.597400665283203,12.83351993560791,-42.877197265625,100.677490234375,6.9580078125
3.3974999,0.6757634282112122,-7.693168640136719,9.9586820602417,-45.83740234375,108.82568359375,-19.287109375
3.4024999,-1.3670891523361206,-7.146093368530273,7.71471643447876,-16.78466796875,92.1630859375,-35.400390625
3.4074999000000004,-2.8161797523498535,-6.3733649253845215,6.293159008026123,-14.0380859375,77.1484375,-27.52685546875
3.4124999000000003,-3.338714361190796,-5.669469833374023,6.50025749206543,36.43798828125,70.80078125,-23.49853515625
3.4174999,-2.958634853363037,-3.822343111038208,9.116521835327148,46.295166015625,8.36181640625,-7.843017578125
3.4224999,-2.958634853363037,-3.822343111038208,9.116521835327148,46.295166015625,8.36181640625,-7.843017578125
3.4274999000000004,-2.76350736618042,-2.363675594329834,10.384251594543457,26.4892578125,-13.00048828125,7.781982421875
3.4324999000000003,-2.521692991256714,-1.006163239479065,11.085752487182617,32.04345703125,-34.3017578125,-7.14111328125
3.4374999,-2.582146644592285,0.5482721924781799,11.391013145446777,19.439697265625,-47.760009765625,1.312255859375
3.4424999,-2.273893117904663,1.4359225034713745,11.066598892211914,12.420654296875,-54.6875,-8.148193359375
3.4474999000000004,-1.8417396545410156,2.1487960815429688,10.934917449951172,11.04736328125,-50.750732421875,9.1552734375
3.4524999000000003,-1.0887632369995117,1.988384485244751,10.401609420776367,-4.82177734375,-57.403564453125,2.44140625
3.4574999,-0.26994624733924866,1.8136078119277954,10.457274436950684,5.767822265625,-54.656982421875,9.82666015625
3.4624999,0.517746090888977,0.8864531517028809,9.976638793945312,-16.998291015625,-55.7861328125,1.46484375
3.4674999,1.0073603391647339,0.3387795388698578,10.126276016235352,8.087158203125,-52.154541015625,1.922607421875
3.4724999000000003,1.3341689109802246,-0.5817909836769104,9.640851974487305,-13.00048828125,-48.76708984375,-2.9296875
3.4774999,1.482010841369629,-1.1174936294555664,9.742006301879883,13.580322265625,-42.083740234375,-6.988525390625
3.4824999,1.7525556087493896,-1.3221979141235352,9.291297912597656,-3.631591796875,-9.8876953125,-2.25830078125
3.4874999,1.9129672050476074,-1.0582371950149536,9.287707328796387,10.040283203125,-4.730224609375,-10.040283203125
3.4924999000000003,1.7974469661712646,-0.4776432514190674,9.412205696105957,0.152587890625,-4.241943359375,3.692626953125
3.4974999,1.8291701078414917,-0.2555810213088989,9.284713745117188,-0.18310546875,1.46484375,-5.615234375
3.5024999,1.6376339197158813,0.15023615956306458,9.716269493103027,3.96728515625,16.265869140625,6.805419921875
3.5074999,1.5646108388900757,0.12270283699035645,9.589376449584961,-8.819580078125,15.869140625,-3.0517578125
3.5124999000000003,1.4329297542572021,0.15741875767707825,9.955689430236816,4.94384765625,22.3388671875,3.692626953125
3.5174999000000002,1.2814964056015015,-0.13108254969120026,9.663596153259277,-15.13671875,21.05712890625,-1.15966796875
3.5224999,1.0642226934432983,-0.2825157940387726,9.855133056640625,10.19287109375,25.299072265625,0.18310546875
3.5274999,0.8050503134727478,-0.5524620413780212,9.61451530456543,-13.519287109375,25.81787109375,1.739501953125
3.5324999000000004,0.31184476613998413,-0.641047477722168,9.753378868103027,-9.124755859375,23.345947265625,2.74658203125
3.5374999000000003,0.19632454216480255,-0.7595604658126831,9.799467086791992,4.94384765625,16.754150390625,-8.30078125
3.5424999,-0.06464344263076782,-0.5404910445213318,9.948506355285645,-3.662109375,17.578125,4.241943359375
3.5474999,-0.1149216815829277,-0.5919663906097412,9.818621635437012,-1.15966796875,9.246826171875,-5.55419921875
3.5524999000000004,-0.22505496442317963,-0.37888240814208984,10.084976196289062,4.547119140625,9.8876953125,5.828857421875
3.5574999000000003,-0.20231004059314728,-0.5410895943641663,9.830592155456543,-10.162353515625,0.732421875,-1.8310546875
3.5624999,-0.16220717132091522,-0.3627215623855591,10.090961456298828,9.857177734375,0.030517578125,2.74658203125
3.5674999,-0.10833762586116791,-0.5291185975074768,9.825803756713867,-11.41357421875,-5.79833984375,0
3.5724999000000004,0.016759412363171577,-0.5811924338340759,10.025120735168457,11.41357421875,-7.50732421875,-2.044677734375
3.5774999000000003,0.07422025501728058,-0.585382342338562,9.875483512878418,-9.521484375,-7.965087890625,4.39453125
3.5824999,0.2693476974964142,-0.7015010714530945,9.865307807922363,9.82666015625,-12.237548828125,-5.31005859375
3.5874999,0.30047231912612915,-0.5518634915351868,9.884461402893066,-1.556396484375,-8.97216796875,4.08935546875
3.5924999,0.5207388401031494,-0.39863458275794983,9.825204849243164,5.79833984375,-6.927490234375,3.662109375
3.5974999000000003,0.657806932926178,-0.4770447015762329,9.525331497192383,-6.34765625,-9.429931640625,-4.058837890625
3.6024999,0.8026561141014099,-0.40462008118629456,9.765948295593262,11.505126953125,-4.45556640625,-3.41796875
3.6074999,0.7194576263427734,-0.31543606519699097,9.712677955627441,-7.720947265625,-1.495361328125,3.509521484375
3.6124999,0.7757213711738586,-0.4902127981185913,9.683348655700684,3.875732421875,-2.960205078125,-5.584716796875
3.6174999000000003,0.6631938815116882,-0.39803603291511536,9.862914085388184,-0.54931640625,2.38037109375,5.43212890625
3.6224999,0.6823474764823914,-0.5710170865058899,9.640253067016602,-3.0517578125,-1.3427734375,-5.06591796875
3.6274999,0.6380547285079956,-0.47405192255973816,9.929951667785645,7.4462890625,4.119873046875,2.86865234375
3.6324999,0.6123170852661133,-0.5997475385665894,9.604938507080078,-11.90185546875,3.0517578125,-0.48828125
3.6374999000000003,0.6835445761680603,-0.5057750940322876,9.855731010437012,11.260986328125,4.5166015625,-0.732421875
3.6424999000000002,0.5859808921813965,-0.547075092792511,9.630077362060547,-1.28173828125,3.509521484375,-5.218505859375
3.6474999,0.4537012279033661,-0.4034229815006256,9.895236015319824,5.584716796875,6.9580078125,3.2958984375
3.6524999,0.3884592354297638,-0.5506663918495178,9.62947940826416,-10.8642578125,3.60107421875,-1.983642578125
3.6574999000000004,0.3944447338581085,-0.43754035234451294,9.941324234008789,11.322021484375,3.387451171875,-1.0986328125
3.6624999000000003,0.3298012912273407,-0.424970805644989,9.801861763000488,-9.27734375,2.01416015625,1.708984375
3.6674999,0.37828385829925537,-0.524330198764801,9.874884605407715,6.8359375,-1.312255859375,-5.035400390625
3.6724999,0.24420857429504395,-0.39145198464393616,9.919178009033203,-3.41796875,0.67138671875,5.218505859375
3.6774999000000004,0.26815059781074524,-0.5404910445213318,9.715670585632324,-0.3662109375,-5.157470703125,-5.55419921875
3.6824999000000003,0.20530278980731964,-0.41120412945747375,9.932345390319824,6.53076171875,-2.50244140625,2.655029296875
3.6874999,0.23403321206569672,-0.52552729845047,9.640851974487305,-10.498046875,-5.4931640625,-1.28173828125
3.6924999,0.4129997789859772,-0.40940847992897034,9.764751434326172,-8.209228515625,-4.119873046875,2.9296875
3.6974999000000004,0.5841852426528931,-0.5410895943641663,9.774328231811523,4.94384765625,-5.767822265625,-4.852294921875
3.7024999000000003,0.5871779918670654,-0.42018240690231323,9.913790702819824,-1.312255859375,-1.46484375,5.37109375
3.7074999,0.67815762758255,-0.595557689666748,9.66419506072998,-2.838134765625,-4.5166015625,-4.852294921875
3.7124999,0.6745663285255432,-0.48722004890441895,9.913191795349121,7.6904296875,-0.18310546875,1.77001953125
3.7174999,0.6937199234962463,-0.5668272376060486,9.654019355773926,-11.138916015625,-0.396728515625,0.213623046875
3.7224999000000003,0.7433996200561523,-0.5410895943641663,9.780912399291992,10.43701171875,0.091552734375,-2.685546875
3.7274999,0.6643909811973572,-0.4315548539161682,9.738415718078613,-6.34765625,3.143310546875,3.509521484375
3.7324999,0.7080851793289185,-0.5656301379203796,9.618106842041016,1.220703125,0.91552734375,-5.2490234375
3.7374999,0.6099228858947754,-0.37409400939941406,9.849146842956543,2.532958984375,5.06591796875,4.69970703125
3.7424999000000003,0.6111199855804443,-0.4991910457611084,9.570821762084961,-6.378173828125,1.5869140625,-3.448486328125
3.7474999,0.585382342338562,-0.4315548539161682,9.877877235412598,9.1552734375,3.936767578125,-0.18310546875
3.7524999,0.5219359993934631,-0.5416881442070007,9.82640266418457,7.9345703125,1.0986328125,-4.425048828125
3.7574999,0.3776853084564209,-0.4531026780605316,9.928754806518555,-2.288818359375,3.84521484375,4.425048828125
3.7624999000000003,0.3190273642539978,-0.4345476031303406,9.99339771270752,7.26318359375,2.410888671875,2.899169921875
3.7674999000000002,0.3447650372982025,-0.4812345504760742,9.741408348083496,-8.85009765625,-0.48828125,-0.396728515625
3.7724999,0.41539400815963745,-0.5165489912033081,9.8784761428833,8.4228515625,-1.3427734375,-2.99072265625
3.7774999,0.35434186458587646,-0.4159925580024719,9.8599214553833,-6.591796875,0.946044921875,4.638671875
3.7824999000000004,0.4357447028160095,-0.5632359385490417,9.721057891845703,2.197265625,-3.7841796875,-5.37109375
3.7874999000000003,0.38905778527259827,-0.42616790533065796,9.946112632751465,4.57763671875,0.335693359375,3.11279296875
3.7924999,0.40701428055763245,-0.5500678420066833,9.61451530456543,-9.429931640625,-2.410888671875,-1.77001953125
3.7974999,0.5081692934036255,-0.4710591733455658,9.873088836669922,10.406494140625,-1.800537109375,-1.007080078125
3.8024999000000004,0.48482584953308105,-0.43514615297317505,9.690531730651855,-7.14111328125,-0.67138671875,2.410888671875
3.8074999000000003,0.5578489899635315,-0.35254621505737305,9.838972091674805,2.25830078125,0.9765625,4.0283203125
3.8124999,0.6051344871520996,-0.48602294921875,9.587580680847168,-5.55419921875,-3.0517578125,-2.349853515625
3.8174999,0.6278793811798096,-0.41539400815963745,9.907206535339355,9.002685546875,-0.274658203125,-0.244140625
3.8224999000000004,0.5997475385665894,-0.4507084786891937,9.732429504394531,-10.8642578125,0.274658203125,2.50244140625
3.8274999000000003,0.6320692300796509,-0.5063736438751221,9.806650161743164,6.7138671875,-2.166748046875,-5.0048828125
3.8324999,0.545877993106842,-0.414795458316803,9.943717956542969,-0.3662109375,2.105712890625,4.21142578125
3.8374999,0.568622887134552,-0.5859808921813965,9.65222454071045,-5.889892578125,-0.79345703125,-3.326416015625
3.8424999,0.585382342338562,-0.5710170865058899,9.744999885559082,5.859375,0.18310546875,-4.69970703125
3.8474999000000003,0.49799394607543945,-0.3932476341724396,9.855731010437012,-2.777099609375,4.058837890625,4.913330078125
3.8524999,0.535702645778656,-0.5746083855628967,9.672574996948242,-3.0517578125,-0.396728515625,-3.936767578125
3.8574999,0.4902127981185913,-0.5111620426177979,9.791088104248047,8.148193359375,-0.732421875,-3.936767578125
3.8624999,0.4034229815006256,-0.42018240690231323,9.84256362915039,-1.953125,2.227783203125,3.7841796875
3.8674999000000003,0.46567222476005554,-0.5871779918670654,9.68813705444336,-4.45556640625,-1.739501953125,-4.0283203125
3.8724999,0.4010287821292877,-0.4471171796321869,9.958083152770996,8.026123046875,0.762939453125,2.105712890625
3.8774999,0.4010287821292877,-0.4471171796321869,9.958083152770996,8.026123046875,0.762939453125,2.105712890625
3.8824999,0.4279635548591614,-0.46806642413139343,9.727043151855469,-7.843017578125,-0.9765625,0.640869140625
3.8874999000000003,0.47225627303123474,-0.5374982953071594,9.839570045471191,6.256103515625,-2.685546875,-4.058837890625
3.8924999000000002,0.4165911078453064,-0.383670836687088,9.907206535339355,-2.74658203125,1.007080078125,4.7607421875
3.8974999,0.5099649429321289,-0.5722141861915588,9.710882186889648,-2.197265625,-3.662109375,-4.08935546875
3.9024999,0.48243165016174316,-0.4273650050163269,9.944316864013672,7.904052734375,-0.030517578125,0.9765625
3.9074999000000004,0.5273229479789734,-0.5093663930892944,9.691728591918945,-10.406494140625,-0.42724609375,1.556396484375
3.9124999000000003,0.5764040350914001,-0.5428852438926697,9.650428771972656,-5.767822265625,-1.495361328125,-3.692626953125
3.9174999,0.5632359385490417,-0.4279635548591614,9.949105262756348,8.7890625,1.0986328125,0.9765625
3.9224999,0.5770025849342346,-0.5249287486076355,9.765350341796875,4.7607421875,-0.79345703125,-4.302978515625
3.9274999000000004,0.5093663930892944,-0.3884592354297638,9.86889934539795,-0.396728515625,3.23486328125,4.364013671875
3.9324999000000003,0.5237316489219666,-0.5333084464073181,9.634865760803223,-4.608154296875,-1.220703125,-3.143310546875
3.9374999,0.5363011956214905,-0.4985924959182739,9.896432876586914,8.453369140625,1.0986328125,-0.518798828125
3.9424999,0.4950011968612671,-0.4537012279033661,9.706093788146973,-9.09423828125,1.861572265625,2.62451171875
3.9474999000000004,0.5321113467216492,-0.5219359993934631,9.729436874389648,4.82177734375,-1.800537109375,-4.364013671875
3.9524999000000003,0.4770447015762329,-0.38307225704193115,9.88625717163086,2.105712890625,2.288818359375,3.387451171875
3.9574999,0.436343252658844,-0.5602431893348694,9.619303703308105,-8.36181640625,-0.8544921875,-1.953125
3.9624999,0.42377370595932007,-0.4734533727169037,9.77133560180664,-5.767822265625,1.129150390625,2.8076171875
3.9674999000000004,0.5009866952896118,-0.6087257862091064,9.727641105651855,0.335693359375,-1.953125,-4.638671875
3.9724999000000003,0.4704606235027313,-0.3902548849582672,9.922768592834473,4.45556640625,1.89208984375,3.326416015625
3.9774999,0.48243165016174316,-0.5135562419891357,9.68274974822998,-7.476806640625,-1.15966796875,-1.0986328125
3.9824999,0.5476736426353455,-0.4836287498474121,9.854534149169922,8.23974609375,-0.67138671875,-2.50244140625
3.9874999,0.46627077460289,-0.4339490532875061,9.816226959228516,-5.096435546875,1.617431640625,3.875732421875
3.9924999000000003,0.5764040350914001,-0.5979518890380859,9.702502250671387,-0.518798828125,-2.777099609375,-4.425048828125
3.9974999,0.5015852451324463,-0.44173020124435425,9.87967300415039,6.34765625,0.91552734375,1.739501953125
4.0024999,0.5506663918495178,-0.5422866940498352,9.751583099365234,7.781982421875,-1.708984375,-3.631591796875
4.0074999,0.5506663918495178,-0.5422866940498352,9.751583099365234,7.781982421875,-1.708984375,-3.631591796875
4.0124999,0.4908113479614258,-0.4315548539161682,9.858723640441895,-0.885009765625,1.46484375,3.41796875
4.0174999,0.5333084464073181,-0.5632359385490417,9.642647743225098,-5.828857421875,-1.983642578125,-3.11279296875
4.022499900000001,0.50876784324646,-0.3627215623855591,9.716269493103027,-7.232666015625,0.640869140625,2.0751953125
4.0274999000000005,0.5518634915351868,-0.4692635238170624,9.736021041870117,2.62451171875,-1.953125,-4.302978515625
4.0324999,0.48961424827575684,-0.29628247022628784,9.897629737854004,2.288818359375,1.953125,3.7841796875
4.0374999,0.4644751250743866,-0.47465047240257263,9.668983459472656,-6.622314453125,-1.129150390625,-1.5869140625
4.0424999,0.5428852438926697,-0.4991910457611084,9.906607627868652,8.11767578125,0,-2.044677734375
4.0474999,0.4387374520301819,-0.4920084476470947,9.865906715393066,-6.256103515625,2.01416015625,3.84521484375
4.0524999,0.5746083855628967,-0.6314706802368164,9.767744064331055,0.701904296875,-1.739501953125,-4.486083984375
4.0574999,0.5111620426177979,-0.45489832758903503,9.971850395202637,6.134033203125,1.678466796875,1.617431640625
4.062499900000001,0.5183446407318115,-0.5183446407318115,9.713874816894531,-9.70458984375,0.762939453125,0.885009765625
4.0674999000000005,0.5386953949928284,-0.47465047240257263,9.793481826782227,7.568359375,-1.0986328125,-3.265380859375
4.0724999,0.45489832758903503,-0.3705027103424072,9.865307807922363,-0.54931640625,1.983642578125,3.570556640625
4.0774999,0.4776432514190674,-0.5273229479789734,9.649829864501953,-5.9814453125,-1.15966796875,-3.021240234375
4.0824999,0.48722004890441895,-0.4878185987472534,9.719860076904297,1.3427734375,-1.89208984375,-4.2724609375
4.0874999,0.48722004890441895,-0.4878185987472534,9.719860076904297,1.3427734375,-1.89208984375,-4.2724609375
4.0924999,0.4489128291606903,-0.3423708379268646,9.880870819091797,3.5400390625,1.5869140625,3.082275390625
4.0974999,0.4752490520477295,-0.4513070285320282,9.676166534423828,-6.40869140625,-1.251220703125,-1.190185546875
4.1024999,0.5428852438926697,-0.536899745464325,9.838373184204102,7.232666015625,-0.946044921875,-2.86865234375
4.1074999000000005,0.49380409717559814,-0.4429273009300232,9.821614265441895,-4.150390625,1.922607421875,4.119873046875
4.1124999,0.5943605899810791,-0.6111199855804443,9.677961349487305,-2.13623046875,-2.288818359375,-3.387451171875
4.1174999,0.5578489899635315,-0.5021837949752808,9.87967300415039,7.32421875,0.54931640625,0.48828125
4.1224999,0.5476736426353455,-0.5147533416748047,9.711481094360352,-9.124755859375,0.732421875,1.800537109375
4.1274999,0.5536591410636902,-0.5279214978218079,9.75637149810791,5.37109375,-1.77001953125,-4.364013671875
4.1324999,0.48303020000457764,-0.3800795078277588,9.91738224029541,2.471923828125,1.556396484375,2.899169921875
4.1374999,0.44532153010368347,-0.5213374495506287,9.676166534423828,-8.23974609375,-0.823974609375,-1.312255859375
4.1424999,0.547075092792511,-0.6368576288223267,9.724050521850586,-2.8076171875,-1.708984375,-3.60107421875
4.147499900000001,0.48961424827575684,-0.4279635548591614,9.906009674072266,6.591796875,1.3427734375,1.800537109375
4.1524999000000005,0.5321113467216492,-0.4578910768032074,9.734824180603027,-6.988525390625,0.244140625,0.823974609375
4.1574999,0.5279214978218079,-0.5159504413604736,9.744999885559082,3.96728515625,-1.495361328125,-4.0283203125
4.1624999,0.44352585077285767,-0.5051765441894531,9.633070945739746,-5.828857421875,-1.190185546875,-1.983642578125
4.1674999,0.5129576921463013,-0.5249287486076355,9.829395294189453,7.476806640625,-0.091552734375,-1.89208984375
4.1724999,0.4058171808719635,-0.4967968463897705,9.755773544311523,-5.523681640625,2.01416015625,3.7841796875
4.1774999,0.5494692921638489,-0.6332663297653198,9.708487510681152,-0.091552734375,-2.3193359375,-4.2724609375
4.1824999,0.4908113479614258,-0.47644615173339844,9.88506031036377,6.16455078125,1.129150390625,1.251220703125
4.187499900000001,0.5327098965644836,-0.4842272996902466,9.742605209350586,-8.97216796875,0.30517578125,1.556396484375
4.1924999000000005,0.5297171473503113,-0.4836287498474121,9.77672290802002,5.18798828125,-1.89208984375,-4.0283203125
4.1974999,0.4985924959182739,-0.3477577865123749,9.906607627868652,1.800537109375,1.953125,3.11279296875
4.2024999,0.4626794755458832,-0.4920084476470947,9.675567626953125,-7.415771484375,-1.312255859375,-1.40380859375
4.2074999,0.5213374495506287,-0.49559974670410156,9.879075050354004,8.056640625,-0.396728515625,-1.739501953125
4.2124999,0.4321534037590027,-0.4279635548591614,9.79527759552002,-3.814697265625,1.40380859375,3.41796875
4.2174999,0.5530605912208557,-0.6440402865409851,9.690531730651855,-2.960205078125,-1.922607421875,-3.72314453125
4.2224999,0.5105634927749634,-0.4644751250743866,9.865307807922363,7.38525390625,0.79345703125,0.732421875
4.2274999,0.5147533416748047,-0.4513070285320282,9.70310115814209,-6.65283203125,0.1220703125,1.220703125
4.2324999000000005,0.5452794432640076,-0.5171475410461426,9.738415718078613,3.0517578125,-1.64794921875,-4.058837890625
4.2374999,0.48602294921875,-0.3082534670829773,9.706692695617676,2.25830078125,1.129150390625,3.570556640625
4.2424999,0.5716156363487244,-0.49559974670410156,9.375694274902344,-9.58251953125,-5.706787109375,-2.349853515625
4.2474999,0.7733271718025208,-0.5297171473503113,9.31045150756836,6.011962890625,7.232666015625,-3.997802734375
4.2524999,0.9367313981056213,-0.5919663906097412,9.409811019897461,-0.54931640625,16.845703125,5.279541015625
4.2574999,1.7411831617355347,-1.2713210582733154,9.012971878051758,9.429931640625,21.270751953125,2.62451171875
4.2624999,2.2373814582824707,-2.449866771697998,8.36953067779541,5.37109375,32.196044921875,21.1181640625
4.2674999,3.2172086238861084,-4.308365821838379,7.839813232421875,49.560546875,61.126708984375,21.3623046875
4.272499900000001,3.8768110275268555,-5.767632007598877,8.343194007873535,43.243408203125,88.68408203125,15.0146484375
4.2774999000000005,3.980360269546509,-6.682217121124268,9.266159057617188,1.46484375,80.810546875,0.274658203125
4.2824999,3.271078109741211,-6.285976409912109,10.74218463897705,6.04248046875,53.5888671875,-12.298583984375
4.2874999,1.5861586332321167,-4.885368347167969,11.550227165222168,3.082275390625,30.670166015625,-18.646240234375
4.2924999,-0.5045779943466187,-3.509899616241455,11.292252540588379,-2.166748046875,6.40869140625,-34.48486328125
4.2974999,-2.5462334156036377,-1.7154455184936523,10.854113578796387,4.913330078125,-18.12744140625,-30.1513671875
4.3024999,-4.025850296020508,-0.3214215636253357,9.943717956542969,-6.04248046875,-26.42822265625,-18.646240234375
4.3074999,-4.487332344055176,0.6428431272506714,9.208698272705078,6.16455078125,-25.115966796875,-13.275146484375
4.312499900000001,-4.24970817565918,1.6310498714447021,9.102156639099121,16.11328125,-18.49365234375,4.913330078125
4.3174999000000005,-2.3062148094177246,2.1320366859436035,9.49121379852295,10.43701171875,-12.20703125,22.39990234375
4.3224999,-0.3932476341724396,1.7507599592208862,10.252570152282715,11.474609375,-27.374267578125,24.261474609375
4.3274999,-0.21368250250816345,1.5376760959625244,10.213066101074219,2.62451171875,-36.1328125,22.0947265625
4.3324999,-0.055665191262960434,1.183334231376648,10.051457405090332,4.302978515625,-41.412353515625,7.99560546875
4.3374999,0.0999579206109047,1.259350061416626,10.244789123535156,18.585205078125,-44.158935546875,4.39453125
4.3424999,0.272938996553421,1.1312602758407593,10.242993354797363,6.8359375,-46.875,-2.655029296875
4.3474999,0.4991910457611084,1.1767501831054688,10.285490036010742,14.22119140625,-53.131103515625,-15.44189453125
4.352499900000001,0.6901286244392395,1.4293384552001953,10.375871658325195,21.148681640625,-57.2509765625,-18.707275390625
4.3574999000000005,0.7775170207023621,1.2701239585876465,9.67077922821045,11.383056640625,-65.948486328125,-27.679443359375
4.3624999,0.8678981065750122,1.7405846118927002,8.631096839904785,0.030517578125,-61.767578125,-34.85107421875
4.3674999,0.9463081955909729,2.2152352333068848,8.094796180725098,-28.01513671875,-53.619384765625,-40.34423828125
4.3724999,1.171961784362793,3.1525650024414062,8.121131896972656,-39.154052734375,-48.828125,-36.773681640625
4.3774999,1.489791989326477,3.8534677028656006,8.328230857849121,-61.859130859375,-28.594970703125,-22.857666015625
4.3824999,2.0458452701568604,3.6379895210266113,8.610746383666992,-51.7578125,5.096435546875,-8.514404296875
4.3874999,2.5061306953430176,2.607285737991333,9.535507202148438,-20.965576171875,23.956298828125,18.829345703125
4.3924999,2.756923198699951,1.0785878896713257,10.15141487121582,-13.427734375,28.411865234375,31.73828125
4.397499900000001,2.764105796813965,-1.0259153842926025,10.723628997802734,-3.2958984375,25.909423828125,22.491455078125
4.4024999000000005,2.364274263381958,-1.7884687185287476,11.01512336730957,1.373291015625,21.91162109375,9.918212890625
4.4074999,1.8177976608276367,-2.5510218143463135,10.573392868041992,-17.425537109375,20.08056640625,-7.843017578125
4.4124999,1.2856862545013428,-2.3259668350219727,10.118494987487793,-6.04248046875,24.96337890625,-17.730712890625
4.4174999,0.8655039072036743,-1.8806453943252563,9.707290649414062,-8.758544921875,28.717041015625,-9.765625
4.4224999,0.4471171796321869,-0.9457096457481384,9.558850288391113,-4.913330078125,29.754638671875,3.0517578125
4.4274999,0.45908817648887634,-0.9199720025062561,9.685144424438477,-1.495361328125,23.651123046875,-6.744384765625
4.4324999,0.29568392038345337,-0.5452794432640076,10.004171371459961,4.82177734375,22.430419921875,-4.21142578125
4.437499900000001,0.10354922711849213,-0.4644751250743866,9.935338973999023,-8.514404296875,16.937255859375,-2.8076171875
4.4424999000000005,-0.0065840547904372215,-0.456095427274704,10.003573417663574,2.62451171875,12.51220703125,-5.767822265625
4.4474999,-0.13826514780521393,-0.20769700407981873,10.119691848754883,2.471923828125,10.92529296875,3.2958984375
4.4524999,-0.1801636815071106,-0.40282443165779114,9.925163269042969,-8.11767578125,3.143310546875,0.823974609375
4.4574999,-0.14425064623355865,-0.406415730714798,9.985616683959961,5.584716796875,0.457763671875,-1.800537109375
4.4624999,-0.10654197633266449,-0.34835633635520935,9.985616683959961,-2.655029296875,-1.220703125,3.90625
4.4674999,-0.03531447425484657,-0.6189011335372925,9.73542308807373,-5.126953125,-6.40869140625,-2.13623046875
4.4724999,0.12449848651885986,-0.5494692921638489,9.905410766601562,7.87353515625,-5.92041015625,-0.335693359375
4.477499900000001,0.4273650050163269,-0.5494692921638489,9.888651847839355,7.6904296875,-8.6669921875,0.030517578125
4.4824999000000005,0.524330198764801,-0.5889736413955688,9.711481094360352,-6.16455078125,-10.955810546875,-0.54931640625
4.4874999,0.6009446382522583,-0.5913678407669067,9.778518676757812,5.035400390625,-10.92529296875,-5.31005859375
4.4924999,0.641047477722168,-0.31783026456832886,9.886856079101562,2.838134765625,-7.720947265625,1.77001953125
4.4974999,0.6703764796257019,-0.4471171796321869,9.679757118225098,-6.77490234375,-10.406494140625,-1.556396484375
4.5024999,0.7266402244567871,-0.41120412945747375,9.825204849243164,7.171630859375,-8.11767578125,-2.655029296875
4.5074999,0.7230489253997803,-0.30945056676864624,9.806650161743164,-2.01416015625,-5.645751953125,3.173828125
4.5124999,0.7398083209991455,-0.5518634915351868,9.59715747833252,-4.0283203125,-7.843017578125,-2.716064453125
4.5174999,0.7769184708595276,-0.43275195360183716,9.814431190490723,7.9345703125,-3.35693359375,-0.457763671875
4.522499900000001,0.74040687084198,-0.4531026780605316,9.690531730651855,-5.950927734375,-2.5634765625,2.777099609375
4.5274999000000005,0.849941611289978,-0.6254851818084717,9.664793968200684,0.3662109375,-2.777099609375,-3.509521484375
4.5324999,0.8990227580070496,-0.4668693244457245,9.672574996948242,-8.026123046875,2.532958984375,1.3427734375
4.5374999,0.912190854549408,-0.4878185987472534,9.745597839355469,4.119873046875,4.33349609375,-3.41796875
4.5424999,0.8744821548461914,-0.27234044671058655,9.84376049041748,1.007080078125,8.60595703125,3.11279296875
4.5474999,0.7954735159873962,-0.4489128291606903,9.624092102050781,-7.87353515625,6.103515625,-1.007080078125
4.5524999,0.7589619159698486,-0.4315548539161682,9.806051254272461,6.53076171875,8.514404296875,-2.471923828125
4.5574999,0.639850378036499,-0.3381809890270233,9.784503936767578,-3.387451171875,9.552001953125,3.47900390625
4.562499900000001,0.34356793761253357,-0.45908817648887634,9.755773544311523,-6.500244140625,4.119873046875,2.0751953125
4.5674999000000005,0.365115761756897,-0.6422445774078369,9.77013874053955,-0.06103515625,0,-4.364013671875
4.5724999,0.3010708689689636,-0.43335050344467163,9.972448348999023,5.584716796875,1.89208984375,0.9765625
4.5774999,0.3214215636253357,-0.5704185366630554,9.845556259155273,4.364013671875,-4.39453125,-3.875732421875
4.5824999,0.3363853394985199,-0.3800795078277588,9.910798072814941,2.62451171875,-2.471923828125,2.777099609375
4.5874999,0.3711012601852417,-0.5201402902603149,9.711481094360352,-6.561279296875,-6.591796875,-0.732421875
4.5924999,0.4704606235027313,-0.5093663930892944,9.858723640441895,7.415771484375,-5.096435546875,-2.471923828125
4.5974999,0.5183446407318115,-0.3770867586135864,9.853935241699219,-1.15966796875,-3.021240234375,3.60107421875
4.602499900000001,0.568622887134552,-0.5907692909240723,9.64923095703125,-4.302978515625,-6.103515625,-2.3193359375
4.6074999000000005,0.6661866307258606,-0.4602852761745453,9.850942611694336,7.87353515625,-2.8076171875,-0.946044921875
4.6124999,0.6242880821228027,-0.4129997789859772,9.75278091430664,-5.096435546875,-2.044677734375,2.99072265625
4.6174999,0.7463923692703247,-0.5973533391952515,9.68155288696289,-0.762939453125,-3.509521484375,-3.875732421875
4.6224999,0.7368155717849731,-0.37469255924224854,9.888052940368652,6.072998046875,0.8544921875,0.823974609375
4.6274999,0.7356184720993042,-0.4537012279033661,9.704896926879883,-7.659912109375,-0.18310546875,1.5869140625
4.6324999,0.7613561153411865,-0.5237316489219666,9.739612579345703,3.021240234375,-0.42724609375,-4.08935546875
4.6374999,0.6506243348121643,-0.40282443165779114,9.79647445678711,-0.732421875,4.2724609375,3.23486328125
4.6424999,0.6141127347946167,-0.4926069974899292,9.86889934539795,7.537841796875,2.50244140625,-1.5869140625
4.647499900000001,0.5249287486076355,-0.42676645517349243,9.781511306762695,-4.08935546875,2.86865234375,3.41796875
4.6524999000000005,0.5722141861915588,-0.5841852426528931,9.696516990661621,-2.86865234375,-0.732421875,-3.23486328125
4.6574999,0.5883750915527344,-0.3998316824436188,9.87967300415039,7.049560546875,2.44140625,0.091552734375
4.6624999,0.5500678420066833,-0.40940847992897034,9.747992515563965,-6.500244140625,1.03759765625,2.166748046875
4.6674999,0.5883750915527344,-0.578798234462738,9.77253246307373,0.8544921875,-1.190185546875,-3.875732421875
4.6724999,0.5554547905921936,-0.3603273630142212,9.928155899047852,5.2490234375,2.13623046875,1.617431640625
4.6774999,0.5345055460929871,-0.4926069974899292,9.742605209350586,-7.415771484375,-0.91552734375,0.762939453125
4.6824999,0.47225627303123474,-0.48482584953308105,9.697713851928711,-7.14111328125,-2.74658203125,-0.823974609375
4.687499900000001,0.47225627303123474,-0.48482584953308105,9.697713851928711,-7.14111328125,-2.74658203125,-0.823974609375
4.6924999000000005,0.5045779943466187,-0.4776432514190674,9.812037467956543,6.8359375,-1.678466796875,-2.655029296875
4.6974999,0.5063736438751221,-0.3585317134857178,9.832387924194336,-1.373291015625,-0.3662109375,3.41796875
4.7024999,0.5015852451324463,-0.6021417379379272,9.635464668273926,-5.035400390625,-3.814697265625,-2.3193359375
4.7074999,0.5895721912384033,-0.4878185987472534,9.855731010437012,7.476806640625,-0.762939453125,-1.312255859375
4.7124999,0.524330198764801,-0.4465186297893524,9.73781681060791,-4.33349609375,-0.762939453125,2.86865234375
4.7174999,0.6392518281936646,-0.6027402877807617,9.68813705444336,-1.861572265625,-3.2958984375,-3.41796875
4.7224999,0.6607996821403503,-0.42197805643081665,9.718064308166504,-6.683349609375,-0.640869140625,2.38037109375
4.727499900000001,0.7122750282287598,-0.5752069354057312,9.749189376831055,1.46484375,-1.434326171875,-3.570556640625
4.7324999000000005,0.6889315247535706,-0.36750996112823486,9.879075050354004,4.669189453125,2.5634765625,1.861572265625
4.7374999,0.5081692934036255,-0.5871779918670654,9.636661529541016,-5.2490234375,-0.701904296875,-2.349853515625
4.7424999,0.5662286877632141,-0.46507367491722107,9.847949981689453,7.293701171875,1.617431640625,-1.28173828125
4.7474999,0.46986207365989685,-0.41120412945747375,9.738415718078613,-4.33349609375,1.3427734375,3.204345703125
4.7524999,0.5416881442070007,-0.5674257874488831,9.678560256958008,-2.105712890625,-2.25830078125,-3.173828125
4.7574999,0.5380968451499939,-0.38726213574409485,9.864709854125977,6.927490234375,1.007080078125,0.18310546875
4.7624999,0.5099649429321289,-0.3908534348011017,9.731831550598145,-6.9580078125,-0.79345703125,2.197265625
4.7674999,0.5770025849342346,-0.5811924338340759,9.777320861816406,0.91552734375,-2.685546875,-3.72314453125
4.772499900000001,0.5668272376060486,-0.5225345492362976,9.73781681060791,-7.4462890625,-2.105712890625,0.885009765625
4.7774999000000005,0.586579442024231,-0.5614402890205383,9.801262855529785,4.058837890625,-2.197265625,-3.7841796875
4.7824999,0.5883750915527344,-0.3932476341724396,9.872490882873535,2.899169921875,1.129150390625,2.5634765625
4.7874999,0.5823895931243896,-0.5416881442070007,9.676166534423828,-7.171630859375,-2.25830078125,-0.518798828125
4.7924999,0.6212953329086304,-0.5410895943641663,9.804854393005371,5.79833984375,-0.732421875,-2.99072265625
4.7974999,0.6302735805511475,-0.4082113802433014,9.801262855529785,-0.18310546875,1.617431640625,3.11279296875
4.8024999,0.5488707423210144,-0.34177228808403015,9.70549488067627,-5.523681640625,1.220703125,2.593994140625
4.8074999,0.585382342338562,-0.3405751883983612,9.868300437927246,5.9814453125,2.3193359375,1.312255859375
4.812499900000001,0.5740098357200623,-0.43275195360183716,9.728838920593262,-7.049560546875,0,1.708984375
4.8174999000000005,0.608127236366272,-0.579995334148407,9.78869342803955,1.983642578125,-1.190185546875,-3.936767578125
4.8224999,0.5829881429672241,-0.3818751573562622,9.88625717163086,4.08935546875,2.410888671875,2.105712890625
4.8274999,0.5704185366630554,-0.5536591410636902,9.6989107131958,-7.62939453125,-1.03759765625,0.579833984375
4.8324999,0.586579442024231,-0.5500678420066833,9.802460670471191,4.852294921875,-0.732421875,-3.631591796875
4.8374999,0.5770025849342346,-0.3944447338581085,9.871294021606445,1.861572265625,1.77001953125,2.62451171875
4.8424999,0.5548562407493591,-0.5446808934211731,9.73661994934082,-6.683349609375,-1.861572265625,-0.885009765625
4.8474999,0.5847837924957275,-0.48482584953308105,9.846753120422363,6.65283203125,-0.518798828125,-2.777099609375
4.852499900000001,0.578798234462738,-0.38905778527259827,9.867103576660156,-0.762939453125,0.885009765625,3.173828125
4.8574999000000005,0.5446808934211731,-0.558447539806366,9.645041465759277,-5.0048828125,-2.62451171875,-2.197265625
4.8624999,0.6141127347946167,-0.4572925269603729,9.843161582946777,7.049560546875,0,-1.556396484375
4.8674999,0.6165069341659546,-0.33758243918418884,9.906607627868652,6.134033203125,1.861572265625,1.007080078125
4.8724999,0.6159083843231201,-0.4291606545448303,9.739612579345703,-6.927490234375,-0.213623046875,1.8310546875
4.8774999,0.6506243348121643,-0.5602431893348694,9.795876502990723,1.861572265625,-1.190185546875,-3.7841796875
4.8824999,0.6129156351089478,-0.3728969097137451,9.874286651611328,4.180908203125,2.227783203125,2.13623046875
4.8874999,0.6039373874664307,-0.5249287486076355,9.729436874389648,-7.415771484375,-0.518798828125,0.579833984375
4.8924999,0.606930136680603,-0.5560533404350281,9.818621635437012,4.33349609375,-0.335693359375,-3.692626953125
4.897499900000001,0.5949591398239136,-0.4106055796146393,9.899425506591797,1.861572265625,2.685546875,2.838134765625
4.9024999000000005,0.5614402890205383,-0.5716156363487244,9.725247383117676,-6.805419921875,-1.15966796875,-0.732421875
4.9074999,0.5398924946784973,-0.5668272376060486,9.671378135681152,-3.814697265625,-2.3193359375,-2.74658203125
4.9124999,0.5776011347770691,-0.4405331015586853,9.847949981689453,7.293701171875,0.8544921875,-0.823974609375
4.9174999,0.5147533416748047,-0.38726213574409485,9.729436874389648,-4.913330078125,0.3662109375,3.0517578125
4.9224999,0.6015431880950928,-0.5536591410636902,9.689932823181152,-1.40380859375,-2.349853515625,-3.2958984375
4.9274999,0.5985504388809204,-0.37229835987091064,9.889848709106445,6.561279296875,1.068115234375,0.30517578125
4.9324999,0.5817909836769104,-0.39624038338661194,9.742605209350586,-6.7138671875,-0.1220703125,1.953125
4.937499900000001,0.657806932926178,-0.5895721912384033,9.782708168029785,0.762939453125,-1.8310546875,-3.692626953125
4.9424999000000005,0.6147112846374512,-0.4040215313434601,9.899425506591797,5.279541015625,1.89208984375,1.5869140625
4.9474999,0.6087257862091064,-0.5847837924957275,9.816825866699219,3.2958984375,-1.434326171875,-3.875732421875
4.9524999,0.5943605899810791,-0.36990416049957275,9.891045570373535,3.326416015625,1.861572265625,2.44140625
4.9574999,0.586579442024231,-0.5536591410636902,9.692327499389648,-7.2021484375,-1.28173828125,0.30517578125
4.9624999,0.5518634915351868,-0.5758054852485657,9.700108528137207,-6.7138671875,-1.739501953125,-0.885009765625
4.9674999,0.5937620401382446,-0.5195417404174805,9.832387924194336,6.40869140625,0.244140625,-2.532958984375
4.9724999,0.5901707410812378,-0.4100070297718048,9.838373184204102,-1.251220703125,1.89208984375,3.265380859375
4.977499900000001,0.5566518902778625,-0.6051344871520996,9.654019355773926,-5.340576171875,-1.678466796875,-2.01416015625
4.9824999000000005,0.6189011335372925,-0.46986207365989685,9.855731010437012,7.01904296875,1.220703125,-1.52587890625
4.9874999,0.8313865661621094,-0.38726213574409485,9.365518569946289,-2.685546875,2.655029296875,3.35693359375
4.9924999,1.5107412338256836,-0.7499836683273315,9.287707328796387,0.457763671875,21.8505859375,-5.615234375
4.9974999,2.735974073410034,-0.6931213736534119,9.47146224975586,12.87841796875,52.42919921875,-4.058837890625
5.0024999,4.159327030181885,-0.9774328470230103,9.977835655212402,9.368896484375,87.921142578125,0.48828125
5.0074999,5.826289653778076,-1.4832079410552979,11.119271278381348,30.487060546875,130.615234375,-13.702392578125
5.0124999,7.168240070343018,-1.5466543436050415,12.549208641052246,47.2412109375,171.0205078125,-20.1416015625
5.0174999,7.635707855224609,-1.801636815071106,14.0048828125,48.03466796875,211.944580078125,-29.327392578125
5.022499900000001,7.330447196960449,-1.911171555519104,15.465944290161133,72.08251953125,286.9873046875,-47.42431640625
5.0274999000000005,5.612607479095459,-1.246780514717102,16.652870178222656,89.202880859375,347.71728515625,-52.67333984375
5.0324999,3.2130186557769775,-0.7338228225708008,16.583438873291016,90.27099609375,358.45947265625,-62.01171875
5.0374999,0.5105634927749634,0.10953472554683685,15.55393123626709,103.69873046875,317.68798828125,-80.078125
5.0424999,-1.9823989868164062,1.128267526626587,13.28183364868164,97.930908203125,240.142822265625,-96.038818359375
5.0474999,-3.779247283935547,1.5622166395187378,10.376470565795898,85.99853515625,160.125732421875,-118.133544921875
5.0524999,-5.152322292327881,1.912368655204773,7.820659637451172,83.251953125,83.465576171875,-132.568359375
5.0574999,-5.795763969421387,1.6765397787094116,6.038176536560059,53.5888671875,33.02001953125,-118.10302734375
5.062499900000001,-6.029797077178955,0.6823474764823914,4.982932090759277,27.008056640625,-1.52587890625,-101.318359375
5.0674999000000005,-5.764639377593994,-0.5494692921638489,4.814141273498535,20.93505859375,-21.148681640625,-72.784423828125
5.0724999,-5.1349639892578125,-1.8177976608276367,4.865017890930176,6.34765625,-26.763916015625,-35.919189453125
5.0774999,-4.371213912963867,-3.1525650024414062,4.666299343109131,8.7890625,-23.98681640625,-6.439208984375
5.0824999,-3.6756980419158936,-3.648763418197632,4.487931251525879,32.65380859375,-19.22607421875,23.13232421875
5.0874999,-3.1681272983551025,-3.601477861404419,3.8355112075805664,46.173095703125,-23.895263671875,43.8232421875
5.0924999,-2.9508535861968994,-3.3279404640197754,3.153762102127075,72.08251953125,-41.778564453125,47.7294921875
5.0974999,-2.9532477855682373,-2.1751322746276855,2.6809072494506836,100.40283203125,-66.162109375,53.955078125
5.102499900000001,-3.0609867572784424,-1.0648212432861328,2.299032211303711,109.31396484375,-93.26171875,53.8330078125
5.1074999000000005,-2.9712042808532715,0.09277531504631042,2.341529369354248,127.44140625,-120.361328125,42.022705078125
5.1124999,-2.7114334106445312,1.4000093936920166,2.847304344177246,133.697509765625,-150.482177734375,36.895751953125
5.1174999,-2.140416383743286,2.3271639347076416,3.5057098865509033,118.316650390625,-177.947998046875,30.2734375
5.1224999,-0.49320554733276367,3.4326868057250977,5.722740650177002,85.479736328125,-205.62744140625,23.162841796875
5.1274999,0.21787235140800476,3.6385879516601562,6.474519729614258,50.140380859375,-212.982177734375,22.88818359375
5.1324999,0.6931213736534119,3.5260605812072754,6.7277069091796875,25.115966796875,-221.61865234375,20.99609375
5.1374999,0.5195417404174805,3.6278140544891357,6.254253387451172,-8.544921875,-259.27734375,23.681640625
5.1424999,-0.1322796493768692,3.5230677127838135,5.360617637634277,-53.741455078125,-304.38232421875,19.744873046875
5.147499900000001,-1.2563573122024536,3.778050184249878,5.694010257720947,-90.4541015625,-298.309326171875,12.237548828125
5.1524999000000005,-1.2563573122024536,3.778050184249878,5.694010257720947,-90.4541015625,-298.309326171875,12.237548828125
5.1574999,-2.2361843585968018,5.302558422088623,7.427412033081055,-194.39697265625,-199.981689453125,2.410888671875
5.1624999,-2.337938070297241,6.422446250915527,9.461286544799805,-391.265869140625,-56.793212890625,5.7373046875
5.1674999,-1.8052281141281128,7.926603317260742,11.30182933807373,-451.690673828125,-46.112060546875,43.304443359375
5.1724999,-0.5117605924606323,8.272565841674805,11.394604682922363,-416.56494140625,-32.16552734375,67.657470703125
5.1774999,1.843535304069519,6.66904878616333,11.363479614257812,-344.66552734375,52.18505859375,74.89013671875
5.1824999,6.272210121154785,-7.2113356590271,13.171700477600098,-66.558837890625,15.350341796875,35.247802734375
5.187499900000001,3.9833531379699707,-8.199542045593262,10.626065254211426,-51.910400390625,35.491943359375,33.447265625
5.1924999000000005,1.623268723487854,-8.298901557922363,7.636306285858154,-25.848388671875,36.0107421875,19.22607421875
5.1974999,-0.26396074891090393,-7.616554260253906,5.344456672668457,0.9765625,19.71435546875,12.115478515625
5.2024999,-1.3742717504501343,-6.843226909637451,4.528632640838623,14.068603515625,15.289306640625,5.401611328125
5.2074999,-1.580173134803772,-6.279991149902344,5.324704647064209,37.322998046875,26.67236328125,-9.1552734375
5.2124999,-1.268328309059143,-5.401917457580566,7.329249858856201,50.811767578125,27.496337890625,-16.448974609375
5.2174999,-0.8074445128440857,-4.259883403778076,9.191340446472168,32.135009765625,15.2587890625,-21.05712890625
5.2224999,-0.30226796865463257,-2.9969420433044434,10.544662475585938,35.369873046875,6.072998046875,-28.594970703125
5.227499900000001,-0.2082955539226532,-1.1192892789840698,11.310807228088379,36.163330078125,-8.4228515625,-23.590087890625
5.2324999000000005,-0.6967126727104187,3.021482467651367,10.843937873840332,-9.735107421875,-30.609130859375,5.401611328125
5.2374999,-0.6967126727104187,3.021482467651367,10.843937873840332,-9.735107421875,-30.609130859375,5.401611328125
5.2424999,-0.5422866940498352,2.6605565547943115,10.474034309387207,-5.4931640625,-34.66796875,3.96728515625
