# Time (seconds),Accel_X,Accel_Y,Accel_Z,Gyro_X,Gyro_Y,Gyro_Z
0.0024999,0.5770025849342346,-0.5901707410812378,9.525331497192383,-2.105712890625,1.708984375,-3.143310546875
0.0074999,0.5770025849342346,-0.5901707410812378,9.525331497192383,-2.105712890625,1.708984375,-3.143310546875
0.012499900000000001,0.6476315855979919,-0.5141547918319702,9.75637149810791,7.049560546875,-1.15966796875,1.89208984375
0.0174999,0.595557689666748,-0.5680243372917175,9.825204849243164,-7.049560546875,-0.030517578125,0.030517578125
0.0224999,0.5752069354057312,-0.6051344871520996,9.532513618469238,2.471923828125,1.03759765625,-2.99072265625
0.0274999,0.6637924313545227,-0.5279214978218079,9.909002304077148,4.638671875,-1.64794921875,2.44140625
0.0324999,0.5919663906097412,-0.6087257862091064,9.77672290802002,-8.026123046875,0.79345703125,-1.03759765625
0.0374999,0.6302735805511475,-0.5548562407493591,9.59835433959961,5.126953125,0.42724609375,-1.739501953125
0.0424999,0.6236895322799683,-0.5620388388633728,9.707290649414062,-7.110595703125,1.373291015625,-2.197265625
0.0474999,0.6853402256965637,-0.49619829654693604,9.680954933166504,7.99560546875,-0.48828125,-0.518798828125
0.0524999,0.6799532771110535,-0.49380409717559814,9.977835655212402,-2.227783203125,-1.15966796875,1.89208984375
0.0574999,0.608127236366272,-0.5638344883918762,9.622296333312988,-4.058837890625,1.373291015625,-2.899169921875
0.0624999,0.656609833240509,-0.5135562419891357,9.759963035583496,7.354736328125,-0.762939453125,0.9765625
0.0674999,0.6422445774078369,-0.5141547918319702,9.900622367858887,-5.889892578125,-0.30517578125,0.946044921875
0.0724999,0.578798234462738,-0.5746083855628967,9.55585765838623,-0.152587890625,1.15966796875,-3.0517578125
0.0774999,0.6548141837120056,-0.48303020000457764,9.806650161743164,6.378173828125,-1.15966796875,2.01416015625
0.0824999,0.579995334148407,-0.5913678407669067,9.552865028381348,2.899169921875,1.15966796875,-2.44140625
0.0874999,0.6835445761680603,-0.5261258482933044,9.961674690246582,3.814697265625,-1.495361328125,2.593994140625
0.0924999,0.5776011347770691,-0.6254851818084717,9.778518676757812,-7.537841796875,0.640869140625,-1.556396484375
0.0974999,0.6763619780540466,-0.5440823435783386,9.964667320251465,0.79345703125,-1.52587890625,2.716064453125
0.1024999,0.619499683380127,-0.6021417379379272,9.73661994934082,-6.04248046875,1.068115234375,-2.3193359375
0.1074999,0.6703764796257019,-0.535702645778656,9.700108528137207,7.75146484375,-0.42724609375,-0.579833984375
0.1124999,0.6787561774253845,-0.5147533416748047,10.001777648925781,-2.655029296875,-0.946044921875,2.166748046875
0.1174999,0.6177040338516235,-0.5997475385665894,9.655815124511719,-3.84521484375,1.3427734375,-2.86865234375
0.1224999,0.6685808300971985,-0.5219359993934631,9.765350341796875,7.293701171875,-0.54931640625,0.67138671875
0.1274999,0.6584054827690125,-0.5416881442070007,9.945513725280762,-5.340576171875,-0.42724609375,1.190185546875
0.1324999,0.5901707410812378,-0.5710170865058899,9.582193374633789,-1.190185546875,1.190185546875,-3.082275390625
0.1374999,0.656609833240509,-0.5321113467216492,9.845556259155273,6.8359375,-1.220703125,1.64794921875
0.1424999,0.6147112846374512,-0.5596446394920349,9.898228645324707,-7.2021484375,0.457763671875,0.274658203125
0.1474999,0.5770025849342346,-0.6278793811798096,9.61331844329834,1.678466796875,0.885009765625,-2.50244140625
0.1524999,0.67815762758255,-0.517746090888977,9.95090103149414,4.669189453125,-1.46484375,2.3193359375
0.1574999,0.6302735805511475,-0.5680243372917175,9.62828254699707,4.45556640625,0.457763671875,-2.01416015625
0.1624999,0.7236474752426147,-0.5297171473503113,9.97603988647461,-0.640869140625,-1.03759765625,2.38037109375
0.1674999,0.618302583694458,-0.606930136680603,9.674370765686035,-5.767822265625,1.556396484375,-2.50244140625
0.1724999,0.6572083830833435,-0.5237316489219666,9.697115898132324,7.598876953125,-0.640869140625,-0.030517578125
0.17749990000000002,0.641047477722168,-0.5488707423210144,9.94970417022705,-3.23486328125,-0.8544921875,1.953125
0.1824999,0.5883750915527344,-0.6171054840087891,9.575011253356934,-3.41796875,1.434326171875,-2.838134765625
0.1874999,0.639850378036499,-0.5452794432640076,9.716269493103027,7.2021484375,-0.79345703125,0.885009765625
0.1924999,0.629675030708313,-0.5578489899635315,9.848548889160156,-5.37109375,-0.18310546875,1.03759765625
0.1974999,0.5638344883918762,-0.5728127360343933,9.518747329711914,-0.823974609375,1.373291015625,-2.960205078125
0.2024999,0.6147112846374512,-0.5410895943641663,9.824606895446777,-6.8359375,-0.152587890625,0.244140625
0.20749990000000001,0.585382342338562,-0.6051344871520996,9.549273490905762,1.678466796875,0.946044921875,-2.716064453125
0.2124999,0.6799532771110535,-0.5021837949752808,9.860519409179688,4.852294921875,-1.495361328125,2.197265625
0.2174999,0.6111199855804443,-0.5482721924781799,9.75936508178711,-7.232666015625,0.518798828125,-0.946044921875
0.2224999,0.6189011335372925,-0.5638344883918762,9.548674583435059,4.180908203125,0.8544921875,-2.0751953125
0.2274999,0.7194576263427734,-0.4950011968612671,9.894038200378418,2.593994140625,-1.190185546875,2.50244140625
0.2324999,0.6368576288223267,-0.6027402877807617,9.768941879272461,-6.53076171875,0.67138671875,-1.8310546875
0.2374999,0.6721721291542053,-0.5985504388809204,9.65222454071045,5.126953125,0.396728515625,-1.3427734375
0.2424999,0.6404489278793335,-0.5434837937355042,9.721057891845703,7.38525390625,-0.67138671875,-0.518798828125
0.2474999,0.6536170840263367,-0.5440823435783386,9.988609313964844,-2.105712890625,-1.28173828125,2.044677734375
0.2524999,0.6536170840263367,-0.5710170865058899,9.715670585632324,7.354736328125,-0.732421875,0.274658203125
0.2574999,0.6368576288223267,-0.5536591410636902,9.899425506591797,-4.39453125,-0.640869140625,1.678466796875
0.2624999,0.5770025849342346,-0.6165069341659546,9.539097785949707,-2.25830078125,1.40380859375,-2.86865234375
0.2674999,0.6362590789794922,-0.524330198764801,9.732429504394531,7.14111328125,-0.9765625,1.0986328125
0.2724999,0.6374561786651611,-0.5422866940498352,9.839570045471191,-5.92041015625,-0.42724609375,0.823974609375
0.2774999,0.6021417379379272,-0.5752069354057312,9.563638687133789,-0.18310546875,1.0986328125,-2.8076171875
0.2824999,0.7068880796432495,-0.5129576921463013,9.831191062927246,6.04248046875,-1.190185546875,1.678466796875
0.28749990000000003,0.6482301354408264,-0.5482721924781799,9.8599214553833,-6.927490234375,0.152587890625,0.030517578125
0.2924999,0.6117185354232788,-0.5895721912384033,9.601346969604492,2.74658203125,0.6103515625,-2.5634765625
0.2974999,0.6799532771110535,-0.5153518915176392,9.914389610290527,4.913330078125,-1.373291015625,2.25830078125
0.3024999,0.6051344871520996,-0.5722141861915588,9.797073364257812,-7.354736328125,0.67138671875,-0.67138671875
0.3074999,0.6087257862091064,-0.5943605899810791,9.59715747833252,3.35693359375,0.762939453125,-2.0751953125
0.3124999,0.6841431260108948,-0.5219359993934631,9.895236015319824,2.655029296875,-1.28173828125,2.349853515625
0.3174999,0.5937620401382446,-0.6224924325942993,9.774328231811523,-6.89697265625,0.946044921875,-1.5869140625
0.3224999,0.6727706789970398,-0.5524620413780212,9.961075782775879,0.701904296875,-1.46484375,2.471923828125
0.3274999,0.618302583694458,-0.595557689666748,9.728240013122559,-6.134033203125,1.03759765625,-2.227783203125
0.3324999,0.6530185341835022,-0.5614402890205383,9.64683723449707,6.16455078125,0.06103515625,-0.9765625
0.3374999,0.67815762758255,-0.5147533416748047,9.967061996459961,-1.434326171875,-1.03759765625,2.227783203125
0.3424999,0.586579442024231,-0.5991489887237549,9.700706481933594,-4.791259765625,1.40380859375,-2.532958984375
0.34749990000000003,0.639850378036499,-0.5452794432640076,9.729436874389648,7.293701171875,-0.640869140625,-0.1220703125
0.35249990000000003,0.6434416770935059,-0.5752069354057312,9.985017776489258,-3.387451171875,-0.732421875,2.105712890625
0.3574999,0.6093243360519409,-0.6320692300796509,9.651026725769043,-3.662109375,1.40380859375,-2.86865234375
0.3624999,0.6643909811973572,-0.5752069354057312,9.73781681060791,7.537841796875,-0.732421875,0.48828125
0.3674999,0.6619967818260193,-0.4854243993759155,9.762357711791992,7.01904296875,-1.220703125,1.15966796875
0.3724999,0.6619967818260193,-0.4854243993759155,9.762357711791992,7.01904296875,-1.220703125,1.15966796875
0.3774999,0.6422445774078369,-0.4944026470184326,9.824007987976074,-6.134033203125,-0.1220703125,0.701904296875
0.3824999,0.5793967843055725,-0.5554547905921936,9.552865028381348,0.213623046875,1.03759765625,-2.899169921875
0.3874999,0.6661866307258606,-0.517746090888977,9.787496566772461,6.439208984375,-1.3427734375,1.495361328125
0.3924999,0.6009446382522583,-0.5464765429496765,9.838373184204102,-6.256103515625,-0.091552734375,0
0.3974999,0.5668272376060486,-0.6009446382522583,9.5809965133667,2.5634765625,0.732421875,-2.8076171875
0.4024999,0.6602011322975159,-0.5117605924606323,9.883264541625977,4.791259765625,-1.3427734375,1.983642578125
0.4074999,0.5937620401382446,-0.5518634915351868,9.771934509277344,-7.171630859375,0.518798828125,-0.42724609375
0.41249990000000003,0.6063315868377686,-0.6051344871520996,9.561842918395996,3.204345703125,0.579833984375,-2.166748046875
0.41749990000000003,0.6931213736534119,-0.5273229479789734,9.874286651611328,3.448486328125,-1.40380859375,2.38037109375
0.4224999,0.6003460884094238,-0.6266822814941406,9.767744064331055,-7.293701171875,0.946044921875,-1.251220703125
0.4274999,0.6889315247535706,-0.5380968451499939,9.980828285217285,1.89208984375,-1.251220703125,2.62451171875
0.4324999,0.646434485912323,-0.5877765417098999,9.830592155456543,-6.927490234375,1.129150390625,-1.678466796875
0.4374999,0.6697779297828674,-0.5811924338340759,9.66419506072998,5.828857421875,0,-1.495361328125
0.4424999,0.7224503755569458,-0.5321113467216492,9.97065258026123,0.274658203125,-1.03759765625,2.410888671875
0.4474999,0.6212953329086304,-0.5770025849342346,9.694721221923828,-6.195068359375,1.190185546875,-2.105712890625
0.4524999,0.6380547285079956,-0.5500678420066833,9.651026725769043,6.500244140625,-0.213623046875,-0.8544921875
0.4574999,0.6625953316688538,-0.507570743560791,9.971251487731934,-1.373291015625,-0.701904296875,1.983642578125
0.4624999,0.5752069354057312,-0.586579442024231,9.706692695617676,-3.936767578125,1.15966796875,-2.50244140625
0.4674999,0.639850378036499,-0.558447539806366,9.748590469360352,7.32421875,-0.732421875,-0.213623046875
0.47249990000000003,0.6542156338691711,-0.5674257874488831,10.005369186401367,-3.631591796875,-0.457763671875,1.800537109375
0.47749990000000003,0.6177040338516235,-0.6272808313369751,9.684545516967773,-4.150390625,1.251220703125,-2.532958984375
0.4824999,0.6745663285255432,-0.5901707410812378,9.77672290802002,7.598876953125,-0.9765625,0.42724609375
0.4874999,0.6374561786651611,-0.4985924959182739,9.777320861816406,6.9580078125,-1.190185546875,0.67138671875
0.4924999,0.6374561786651611,-0.4985924959182739,9.777320861816406,6.9580078125,-1.190185546875,0.67138671875
0.4974999,0.6159083843231201,-0.47884035110473633,9.889249801635742,-5.615234375,-0.3662109375,1.03759765625
0.5024999,0.5596446394920349,-0.5548562407493591,9.611522674560547,-1.5869140625,1.46484375,-2.5634765625
0.5074999,0.641047477722168,-0.5183446407318115,9.829395294189453,5.767822265625,-0.823974609375,1.373291015625
0.5124999,0.6159083843231201,-0.5710170865058899,9.883264541625977,-6.77490234375,0.06103515625,0.579833984375
0.5174999,0.5847837924957275,-0.6236895322799683,9.64564037322998,0.885009765625,0.79345703125,-2.777099609375
0.5224999,0.6697779297828674,-0.5416881442070007,9.86770248413086,5.706787109375,-1.3427734375,1.617431640625
0.5274999,0.6189011335372925,-0.5482721924781799,9.883264541625977,-6.988525390625,0.335693359375,-0.1220703125
0.5324999,0.5931634902954102,-0.5722141861915588,9.596558570861816,1.678466796875,1.15966796875,-2.410888671875
0.5374999,0.67815762758255,-0.49140989780426025,9.872490882873535,4.2724609375,-1.129150390625,2.3193359375
0.5424999,0.6111199855804443,-0.5410895943641663,9.782109260559082,-7.50732421875,0.42724609375,-0.335693359375
0.5474999,0.6775590777397156,-0.5476736426353455,9.909601211547852,2.227783203125,-1.617431640625,2.25830078125
0.5524999,0.5985504388809204,-0.6027402877807617,9.782708168029785,-6.744384765625,0.762939453125,-1.556396484375
0.5574999,0.6368576288223267,-0.5823895931243896,9.642647743225098,5.43212890625,-0.06103515625,-1.678466796875
0.5624999,0.7110779285430908,-0.5183446407318115,9.955689430236816,-0.244140625,-1.312255859375,2.13623046875
0.5674999000000001,0.6212953329086304,-0.578798234462738,9.721057891845703,-5.18798828125,0.946044921875,-2.25830078125
0.5724999000000001,0.645237386226654,-0.5476736426353455,9.730634689331055,7.110595703125,-0.579833984375,-0.6103515625
0.5774999000000001,0.6326677799224854,-0.5464765429496765,9.724648475646973,7.32421875,-0.518798828125,-0.030517578125
0.5824999,0.6422445774078369,-0.547075092792511,9.932944297790527,-2.960205078125,-0.396728515625,1.953125
0.5874999,0.6039373874664307,-0.6290764808654785,9.616311073303223,-3.84521484375,1.434326171875,-2.838134765625
0.5924999,0.6584054827690125,-0.586579442024231,9.68694019317627,6.500244140625,-0.274658203125,0.30517578125
0.5974999,0.6572083830833435,-0.5596446394920349,9.865906715393066,-4.7607421875,-0.1220703125,1.64794921875
0.6024999,0.6027402877807617,-0.5925649404525757,9.603142738342285,-1.800537109375,1.007080078125,-3.021240234375
0.6074999,0.639850378036499,-0.4950011968612671,9.742605209350586,7.080078125,-1.190185546875,0.579833984375
0.6124999,0.6242880821228027,-0.4734533727169037,9.923966407775879,-4.852294921875,-0.396728515625,1.251220703125
0.6174999,0.5746083855628967,-0.535702645778656,9.636661529541016,-1.15966796875,1.3427734375,-2.9296875
0.6224999,0.6326677799224854,-0.4842272996902466,9.847949981689453,6.591796875,-0.67138671875,1.3427734375
0.6274999,0.6260837316513062,-0.5333084464073181,9.910798072814941,-5.859375,-0.030517578125,0.79345703125
0.6324999,0.5937620401382446,-0.6039373874664307,9.637859344482422,0.1220703125,0.91552734375,-2.960205078125
0.6374999,0.6721721291542053,-0.5662286877632141,9.852140426635742,6.256103515625,-1.220703125,1.434326171875
0.6424999,0.6548141837120056,-0.5895721912384033,9.899425506591797,-6.53076171875,0.67138671875,0.579833984375
0.6474999,0.608127236366272,-0.6075286865234375,9.63187313079834,0.335693359375,1.3427734375,-2.50244140625
0.6524999,0.6883329749107361,-0.5201402902603149,9.861717224121094,5.37109375,-1.495361328125,1.8310546875
0.6574999,0.6392518281936646,-0.5003881454467773,9.86889934539795,-6.34765625,-0.091552734375,-0.06103515625
0.6624999,0.596754789352417,-0.5363011956214905,9.589376449584961,2.044677734375,1.03759765625,-2.44140625
0.6674999,0.6829460263252258,-0.4465186297893524,9.881468772888184,4.364013671875,-0.9765625,2.13623046875
0.6724999,0.5991489887237549,-0.5195417404174805,9.785101890563965,-6.65283203125,0.152587890625,-0.3662109375
0.6774999,0.5961562395095825,-0.579995334148407,9.59835433959961,3.021240234375,0.67138671875,-2.288818359375
0.6824999,0.6799532771110535,-0.5213374495506287,9.852738380432129,3.509521484375,-1.007080078125,2.38037109375
0.6874999,0.6153098344802856,-0.6177040338516235,9.769539833068848,-6.591796875,0.274658203125,-0.946044921875
0.6924999000000001,0.6344634294509888,-0.5692214369773865,9.77253246307373,-7.049560546875,0.67138671875,-1.190185546875
0.6974999000000001,0.6554127335548401,-0.545877993106842,9.654618263244629,4.730224609375,0.457763671875,-1.708984375
0.7024999000000001,0.7056909799575806,-0.4902127981185913,9.923367500305176,1.15966796875,-0.8544921875,2.38037109375
0.7074999,0.6254851818084717,-0.5506663918495178,9.787496566772461,-5.67626953125,0.732421875,-1.89208984375
0.7124999,0.6386532783508301,-0.5596446394920349,9.657012939453125,5.92041015625,0.152587890625,-1.434326171875
0.7174999,0.6937199234962463,-0.5291185975074768,9.95090103149414,0.396728515625,-1.220703125,2.471923828125
0.7224999,0.6404489278793335,-0.6021417379379272,9.604340553283691,5.9814453125,0.1220703125,-1.068115234375
0.7274999,0.6871358752250671,-0.5428852438926697,9.911994934082031,-0.1220703125,-1.190185546875,2.288818359375
0.7324999,0.6045359373092651,-0.5919663906097412,9.692327499389648,-5.889892578125,1.3427734375,-2.13623046875
0.7374999,0.6386532783508301,-0.5482721924781799,9.715071678161621,6.439208984375,-0.335693359375,-0.732421875
0.7424999,0.5979518890380859,-0.5398924946784973,9.758167266845703,-5.126953125,1.15966796875,-2.50244140625
0.7474999,0.6380547285079956,-0.5147533416748047,9.742605209350586,6.89697265625,-0.67138671875,-0.244140625
0.7524999,0.6607996821403503,-0.5015852451324463,9.97065258026123,-2.532958984375,-0.48828125,2.0751953125
0.7574999,0.5991489887237549,-0.596754789352417,9.673771858215332,-4.2724609375,1.129150390625,-2.655029296875
0.7624999,0.6661866307258606,-0.5811924338340759,9.718663215637207,7.2021484375,-0.3662109375,0.091552734375
0.7674999,0.6685808300971985,-0.5979518890380859,9.942521095275879,-3.082275390625,-0.701904296875,1.77001953125
0.7724999,0.628477931022644,-0.6643909811973572,9.656414031982422,-3.021240234375,1.129150390625,-2.685546875
0.7774999,0.6721721291542053,-0.5973533391952515,9.734824180603027,7.2021484375,-1.068115234375,0.30517578125
0.7824999,0.6637924313545227,-0.5488707423210144,9.895236015319824,-4.45556640625,-0.18310546875,1.556396484375
0.7874999,0.6093243360519409,-0.5668272376060486,9.5809965133667,-2.410888671875,1.129150390625,-2.777099609375
0.7924999,0.6607996821403503,-0.4704606235027313,9.737217903137207,6.988525390625,-0.732421875,0.732421875
0.7974999,0.6482301354408264,-0.46806642413139343,9.889249801635742,-4.82177734375,-0.3662109375,1.129150390625
0.8024999,0.6542156338691711,-0.5135562419891357,9.831789016723633,6.77490234375,-1.28173828125,1.03759765625
0.8074999,0.6344634294509888,-0.5494692921638489,9.886856079101562,-5.79833984375,0.1220703125,0.91552734375
0.8124999,0.5829881429672241,-0.6476315855979919,9.609726905822754,-0.396728515625,1.03759765625,-2.8076171875
0.8174999000000001,0.6494272351264954,-0.608127236366272,9.797672271728516,6.072998046875,-1.03759765625,1.40380859375
0.8224999000000001,0.6320692300796509,-0.6530185341835022,9.876680374145508,-6.256103515625,0,0.42724609375
0.8274999000000001,0.6039373874664307,-0.679354727268219,9.627683639526367,0.579833984375,0.762939453125,-2.62451171875
0.8324999000000001,0.6847416758537292,-0.5776011347770691,9.861717224121094,5.859375,-1.251220703125,1.617431640625
0.8374999,0.6590040326118469,-0.5327098965644836,9.88386344909668,-6.500244140625,0.213623046875,0.1220703125
0.8424999,0.6200982332229614,-0.5195417404174805,9.602544784545898,1.495361328125,0.9765625,-2.62451171875
0.8474999,0.6835445761680603,-0.41718965768814087,9.834781646728516,5.06591796875,-1.373291015625,1.922607421875
0.8524999,0.6212953329086304,-0.4818331003189087,9.841964721679688,-7.01904296875,0.48828125,-0.091552734375
0.8574999,0.5871779918670654,-0.5297171473503113,9.586981773376465,1.89208984375,0.946044921875,-2.349853515625
0.8624999,0.5847837924957275,-0.6422445774078369,9.59057331085205,2.9296875,0.79345703125,-2.105712890625
0.8674999,0.6829460263252258,-0.5925649404525757,9.884461402893066,3.326416015625,-1.0986328125,2.227783203125
0.8724999,0.6206967830657959,-0.6482301354408264,9.761159896850586,-6.591796875,0.640869140625,-0.762939453125
0.8774999,0.6224924325942993,-0.629675030708313,9.618705749511719,4.150390625,0.213623046875,-2.0751953125
0.8824999,0.7164648771286011,-0.5345055460929871,9.9185791015625,3.021240234375,-1.617431640625,2.166748046875
0.8874999,0.6218938827514648,-0.5704185366630554,9.814431190490723,-6.65283203125,0.732421875,-1.007080078125
0.8924999,0.6344634294509888,-0.5374982953071594,9.684545516967773,4.364013671875,0.274658203125,-1.64794921875
0.8974999,0.7003039717674255,-0.4818331003189087,9.960477828979492,1.983642578125,-1.3427734375,2.13623046875
0.9024999,0.6003460884094238,-0.52552729845047,9.801262855529785,-6.866455078125,1.007080078125,-1.373291015625
0.9074999,0.6200982332229614,-0.5446808934211731,9.640851974487305,5.340576171875,0.152587890625,-1.678466796875
0.9124999,0.6697779297828674,-0.5183446407318115,9.923367500305176,1.068115234375,-1.3427734375,2.25830078125
0.9174999,0.6093243360519409,-0.6338648796081543,9.605537414550781,5.645751953125,0,-1.28173828125
0.9224999,0.6661866307258606,-0.5937620401382446,9.895236015319824,0,-1.220703125,2.105712890625
0.9274999,0.5961562395095825,-0.6404489278793335,9.685144424438477,-5.67626953125,0.9765625,-2.105712890625
0.9324999,0.628477931022644,-0.6123170852661133,9.630077362060547,6.53076171875,-0.457763671875,-1.007080078125
0.9374999,0.6763619780540466,-0.5249287486076355,9.949105262756348,-0.640869140625,-1.28173828125,2.13623046875
0.9424999000000001,0.6003460884094238,-0.5476736426353455,9.73542308807373,-6.134033203125,1.28173828125,-2.13623046875
0.9474999000000001,0.6338648796081543,-0.4950011968612671,9.733028411865234,6.927490234375,-0.396728515625,-0.579833984375
0.9524999000000001,0.6697779297828674,-0.4465186297893524,10.031704902648926,-1.190185546875,-0.9765625,2.0751953125
0.9574999000000001,0.585382342338562,-0.5081692934036255,9.762357711791992,-4.364013671875,1.251220703125,-2.410888671875
0.9624999,0.641047477722168,-0.5003881454467773,9.77013874053955,6.805419921875,-0.54931640625,-0.244140625
0.9674999,0.641047477722168,-0.5003881454467773,9.77013874053955,6.805419921875,-0.54931640625,-0.244140625
0.9724999,0.6530185341835022,-0.5135562419891357,9.98681354522705,-2.532958984375,-0.67138671875,1.800537109375
0.9774999,0.6727706789970398,-0.5644330382347107,9.88745403289795,-3.60107421875,-0.79345703125,1.5869140625
0.9824999,0.619499683380127,-0.5817909836769104,9.59057331085205,-2.899169921875,1.068115234375,-2.8076171875
0.9874999,0.6512228846549988,-0.4920084476470947,9.706093788146973,6.8359375,-0.6103515625,0.54931640625
0.9924999,0.641047477722168,-0.45429977774620056,9.88506031036377,-4.547119140625,-0.213623046875,1.3427734375
0.9974999,0.5895721912384033,-0.5063736438751221,9.644442558288574,-2.38037109375,1.28173828125,-2.838134765625
1.0024999,0.6326677799224854,-0.45429977774620056,9.831789016723633,6.317138671875,-0.9765625,1.03759765625
1.0074999000000002,0.6123170852661133,-0.49320554733276367,9.932345390319824,-5.4931640625,0,1.15966796875
1.0124999000000001,0.5716156363487244,-0.5793967843055725,9.66299819946289,-1.953125,1.373291015625,-2.685546875
1.0174999000000002,0.6302735805511475,-0.5919663906097412,9.883264541625977,-5.767822265625,0.1220703125,0.946044921875
1.0224999000000001,0.6063315868377686,-0.657806932926178,9.628880500793457,-0.79345703125,1.251220703125,-2.62451171875
1.0274999,0.6835445761680603,-0.5985504388809204,9.813234329223633,5.889892578125,-1.0986328125,1.46484375
1.0324999000000001,0.6727706789970398,-0.6141127347946167,9.891644477844238,-5.859375,-0.06103515625,0.457763671875
1.0374999,0.641047477722168,-0.6332663297653198,9.610325813293457,0.732421875,0.9765625,-2.899169921875
1.0424999000000001,0.6248866319656372,-0.518943190574646,9.602544784545898,1.0986328125,1.007080078125,-2.593994140625
1.0474999,0.679354727268219,-0.42197805643081665,9.84615421295166,5.218505859375,-1.373291015625,1.8310546875
1.0524999000000002,0.6314706802368164,-0.4339490532875061,9.864709854125977,-6.561279296875,0.3662109375,-0.30517578125
1.0574999,0.5740098357200623,-0.4800374507904053,9.595361709594727,1.739501953125,0.42724609375,-2.716064453125
1.0624999000000002,0.6590040326118469,-0.43275195360183716,9.890447616577148,4.69970703125,-1.220703125,1.89208984375
1.0674999,0.6673837304115295,-0.5416881442070007,9.88386344909668,4.364013671875,-1.46484375,2.197265625
1.0724999000000002,0.6673837304115295,-0.5416881442070007,9.88386344909668,4.364013671875,-1.46484375,2.197265625
1.0774999,0.6153098344802856,-0.6218938827514648,9.776124000549316,-7.049560546875,0.762939453125,-0.54931640625
1.0824999000000002,0.6248866319656372,-0.6643909811973572,9.59835433959961,4.08935546875,0.42724609375,-2.25830078125
1.0874999,0.7170634269714355,-0.5979518890380859,9.874884605407715,3.41796875,-1.251220703125,2.288818359375
1.0924999000000002,0.6524199843406677,-0.679354727268219,9.7791166305542,-7.171630859375,0.8544921875,-0.91552734375
1.0974999,0.6625953316688538,-0.6518214344978333,9.655217170715332,3.509521484375,0.579833984375,-1.983642578125
1.1024999000000002,0.7332242727279663,-0.5560533404350281,9.928754806518555,2.50244140625,-1.46484375,2.38037109375
1.1074999,0.6356605291366577,-0.5608417391777039,9.7791166305542,-6.683349609375,0.732421875,-1.3427734375
1.1124999000000002,0.6416460275650024,-0.49799394607543945,9.662399291992188,4.5166015625,0.30517578125,-1.922607421875
1.1174999,0.6877344250679016,-0.4387374520301819,9.923966407775879,1.8310546875,-1.220703125,2.471923828125
1.1224999000000002,0.5919663906097412,-0.48722004890441895,9.780912399291992,-6.53076171875,0.8544921875,-1.28173828125
1.1274999,0.6625953316688538,-0.4967968463897705,9.917980194091797,1.434326171875,-1.28173828125,2.25830078125
1.1324999000000002,0.5829881429672241,-0.5841852426528931,9.748590469360352,-7.110595703125,0.885009765625,-1.3427734375
1.1374999000000001,0.6123170852661133,-0.606930136680603,9.636661529541016,5.706787109375,0.274658203125,-1.373291015625
1.1424999000000002,0.6883329749107361,-0.5770025849342346,9.938331604003906,0.518798828125,-1.068115234375,2.13623046875
1.1474999000000001,0.619499683380127,-0.6500257849693298,9.73661994934082,-6.8359375,1.0986328125,-1.739501953125
1.1524999000000002,0.6572083830833435,-0.6470330357551575,9.658209800720215,6.16455078125,-0.091552734375,-1.15966796875
1.1574999000000001,0.7140706777572632,-0.5895721912384033,9.934141159057617,-0.42724609375,-0.732421875,2.197265625
1.1624999,0.6362590789794922,-0.6314706802368164,9.713275909423828,-6.317138671875,1.28173828125,-1.922607421875
1.1674999000000001,0.6530185341835022,-0.5823895931243896,9.662399291992188,6.40869140625,-0.1220703125,-0.8544921875
1.1724999,0.6877344250679016,-0.5021837949752808,9.954492568969727,-0.67138671875,-1.15966796875,2.13623046875
1.1774999000000002,0.5925649404525757,-0.5165489912033081,9.733028411865234,-5.4931640625,1.312255859375,-1.8310546875
1.1824999,0.6260837316513062,-0.4884171485900879,9.715071678161621,6.591796875,-0.213623046875,-0.67138671875
1.1874999000000002,0.6260837316513062,-0.6135141849517822,9.683947563171387,7.049560546875,-0.3662109375,0
1.1924999,0.6446388363838196,-0.6105214357376099,9.906607627868652,-2.685546875,-0.946044921875,1.617431640625
1.1974999000000002,0.6003460884094238,-0.6673837304115295,9.626486778259277,-3.204345703125,1.28173828125,-2.74658203125
1.2024999,0.6685808300971985,-0.629675030708313,9.701904296875,7.110595703125,-0.54931640625,0.335693359375
1.2074999000000002,0.6865373253822327,-0.6051344871520996,9.922170639038086,-3.47900390625,-0.30517578125,1.861572265625
1.2124999,0.6488286852836609,-0.6386532783508301,9.646238327026367,-3.35693359375,1.40380859375,-2.716064453125
1.2174999000000002,0.702099621295929,-0.5500678420066833,9.753378868103027,6.9580078125,-1.007080078125,0.579833984375
1.2224999,0.6841431260108948,-0.4950011968612671,9.907206535339355,-4.57763671875,-0.457763671875,1.5869140625
1.2274999000000002,0.6613982319831848,-0.44771572947502136,9.756970405578613,6.591796875,-1.0986328125,0.48828125
1.2324999,0.6428431272506714,-0.4405331015586853,9.908403396606445,-5.035400390625,-0.42724609375,1.64794921875
1.2374999000000002,0.5937620401382446,-0.5081692934036255,9.65222454071045,-1.5869140625,1.129150390625,-2.960205078125
1.2424999,0.6362590789794922,-0.46148237586021423,9.818022727966309,6.378173828125,-0.67138671875,0.885009765625
1.2474999000000002,0.6218938827514648,-0.5009866952896118,9.931747436523438,-5.55419921875,-0.1220703125,1.28173828125
1.2524999,0.5913678407669067,-0.5680243372917175,9.655815124511719,-0.732421875,0.823974609375,-2.777099609375
1.2574999000000002,0.6500257849693298,-0.5542576909065247,9.85034465789795,6.65283203125,-1.129150390625,1.0986328125
1.2624999000000001,0.6607996821403503,-0.5734112858772278,9.880870819091797,-5.4931640625,-0.18310546875,0.885009765625
1.2674999000000002,0.6189011335372925,-0.6524199843406677,9.616311073303223,-0.640869140625,1.03759765625,-2.777099609375
1.2724999000000001,0.6859387755393982,-0.6099228858947754,9.780912399291992,6.072998046875,-1.007080078125,1.3427734375
1.2774999000000002,0.6631938815116882,-0.6332663297653198,9.856928825378418,-6.317138671875,0.335693359375,0.732421875
1.2824999000000001,0.6159083843231201,-0.6631938815116882,9.59835433959961,0.91552734375,1.007080078125,-2.74658203125
1.2874999,0.6500257849693298,-0.5392939448356628,9.873088836669922,-6.805419921875,0.335693359375,0.396728515625
1.2924999000000001,0.6165069341659546,-0.5512649416923523,9.616909980773926,1.190185546875,1.068115234375,-2.593994140625
1.2974999,0.67815762758255,-0.44532153010368347,9.849745750427246,5.615234375,-1.312255859375,1.495361328125
1.3024999000000002,0.6254851818084717,-0.4638765752315521,9.869498252868652,-6.317138671875,0.091552734375,0.030517578125
1.3074999,0.5889736413955688,-0.4985924959182739,9.613917350769043,1.556396484375,0.8544921875,-2.50244140625
1.3124999000000002,0.6332663297653198,-0.43754035234451294,9.852140426635742,5.06591796875,-1.434326171875,1.678466796875
1.3174999,0.5913678407669067,-0.5105634927749634,9.86889934539795,-6.439208984375,0.457763671875,-0.213623046875
1.3224999000000002,0.5656301379203796,-0.5518634915351868,9.621099472045898,2.349853515625,0.885009765625,-2.288818359375
1.3274999,0.6494272351264954,-0.5141547918319702,9.894038200378418,4.150390625,-1.312255859375,1.89208984375
1.3324999000000002,0.6051344871520996,-0.5889736413955688,9.822212219238281,-7.354736328125,1.007080078125,-0.48828125
1.3374999,0.5913678407669067,-0.6230909824371338,9.591172218322754,3.082275390625,0.6103515625,-2.410888671875
1.3424999000000002,0.6775590777397156,-0.5835866928100586,9.862914085388184,3.84521484375,-1.312255859375,2.25830078125
1.3474999,0.6236895322799683,-0.6619967818260193,9.591172218322754,3.631591796875,0.3662109375,-2.197265625
1.3524999000000002,0.7164648771286011,-0.5841852426528931,9.870096206665039,3.021240234375,-1.251220703125,2.349853515625
1.3574999,0.6434416770935059,-0.6302735805511475,9.755773544311523,-6.9580078125,0.8544921875,-0.79345703125
1.3624999000000002,0.6171054840087891,-0.5153518915176392,9.683947563171387,4.730224609375,0.30517578125,-1.64794921875
1.3674999,0.6769605278968811,-0.49559974670410156,9.93354320526123,1.373291015625,-1.190185546875,2.13623046875
1.3724999000000002,0.5937620401382446,-0.5859808921813965,9.791088104248047,-5.828857421875,0.762939453125,-1.556396484375
1.3774999,0.6967126727104187,-0.5817909836769104,9.942521095275879,0.91552734375,-1.3427734375,2.0751953125
1.3824999000000002,0.6230909824371338,-0.6470330357551575,9.750985145568848,-6.195068359375,0.946044921875,-1.77001953125
1.3874999000000001,0.6494272351264954,-0.6386532783508301,9.621698379516602,5.767822265625,0.152587890625,-0.9765625
1.3924999000000002,0.7086837291717529,-0.5740098357200623,9.904213905334473,0.42724609375,-1.129150390625,2.288818359375
1.3974999000000001,0.6278793811798096,-0.6230909824371338,9.679757118225098,-6.28662109375,1.3427734375,-2.01416015625
1.4024999000000002,0.6536170840263367,-0.5895721912384033,9.604340553283691,6.317138671875,0.06103515625,-0.79345703125
1.4074999000000001,0.70090252161026,-0.5231330990791321,9.921571731567383,-0.091552734375,-1.03759765625,2.197265625
1.4124999,0.6248866319656372,-0.5674257874488831,9.70429801940918,-5.79833984375,1.03759765625,-2.197265625
1.4174999000000001,0.6416460275650024,-0.52552729845047,9.694122314453125,6.28662109375,-0.244140625,-0.732421875
1.4224999,0.6763619780540466,-0.4686649739742279,9.986215591430664,-0.8544921875,-1.0986328125,2.105712890625
1.4274999000000002,0.5961562395095825,-0.50876784324646,9.757569313049316,-4.852294921875,0.885009765625,-2.3193359375
1.4324999,0.6200982332229614,-0.4866214990615845,9.733627319335938,6.4697265625,-0.396728515625,-0.579833984375
1.4374999000000002,0.578798234462738,-0.5273229479789734,9.731232643127441,-5.462646484375,1.220703125,-2.38037109375
1.4424999,0.6230909824371338,-0.5847837924957275,9.70549488067627,6.77490234375,-0.518798828125,-0.1220703125
1.4474999000000002,0.646434485912323,-0.586579442024231,9.939528465270996,-3.23486328125,-0.640869140625,2.01416015625
1.4524999,0.5949591398239136,-0.6524199843406677,9.657012939453125,-3.570556640625,0.9765625,-2.74658203125
1.4574999000000002,0.656609833240509,-0.6230909824371338,9.715071678161621,6.40869140625,-0.213623046875,0.030517578125
1.4624999,0.6649895310401917,-0.6153098344802856,9.912593841552734,-3.11279296875,-0.640869140625,1.861572265625
1.4674999000000002,0.6165069341659546,-0.667982280254364,9.628880500793457,-3.7841796875,1.068115234375,-2.593994140625
1.4724999,0.669179379940033,-0.6099228858947754,9.709685325622559,6.8359375,-0.732421875,0.30517578125
1.4774999000000002,0.6685808300971985,-0.5602431893348694,9.877279281616211,-3.570556640625,-0.54931640625,1.617431640625
1.4824999,0.6254851818084717,-0.5740098357200623,9.621698379516602,-3.082275390625,1.251220703125,-2.593994140625
1.4874999000000002,0.669179379940033,-0.4794389009475708,9.720458984375,7.415771484375,-1.03759765625,0.518798828125
1.4924999,0.6536170840263367,-0.42856210470199585,9.895236015319824,-4.08935546875,-0.335693359375,1.556396484375
1.4974999000000002,0.6009446382522583,-0.4704606235027313,9.633070945739746,-2.166748046875,1.0986328125,-2.685546875
1.5024999,0.6392518281936646,-0.41778820753097534,9.768941879272461,6.805419921875,-0.9765625,0.518798828125
1.5074999000000002,0.6356605291366577,-0.42856210470199585,9.926959037780762,-4.730224609375,-0.335693359375,1.3427734375
1.5124999000000001,0.5991489887237549,-0.517746090888977,9.667187690734863,-2.01416015625,0.885009765625,-2.62451171875
1.5174999000000002,0.6488286852836609,-0.48482584953308105,9.844358444213867,6.2255859375,-0.762939453125,0.8544921875
1.5224999000000001,0.6542156338691711,-0.6177040338516235,9.882067680358887,-6.195068359375,0.152587890625,0.9765625
1.5274999000000002,0.6320692300796509,-0.6625953316688538,9.61451530456543,-0.335693359375,1.068115234375,-2.655029296875
1.5324999000000001,0.6889315247535706,-0.5793967843055725,9.817423820495605,5.401611328125,-1.220703125,1.3427734375
1.5374999000000003,0.6667851805686951,-0.5770025849342346,9.885659217834473,-6.805419921875,0.3662109375,0.6103515625
1.5424999000000001,0.6308721303939819,-0.5835866928100586,9.613917350769043,0.274658203125,1.28173828125,-2.50244140625
1.5474999,0.6308721303939819,-0.5835866928100586,9.613917350769043,0.274658203125,1.28173828125,-2.50244140625
1.5524999000000002,0.6811503767967224,-0.4991910457611084,9.82999324798584,5.401611328125,-1.46484375,1.556396484375
1.5574999,0.656609833240509,-0.49140989780426025,9.851541519165039,-6.8359375,0.30517578125,0.3662109375
1.5624999000000002,0.6206967830657959,-0.5045779943466187,9.575610160827637,0.8544921875,0.885009765625,-2.50244140625
1.5674999,0.6769605278968811,-0.41958385705947876,9.807847023010254,4.638671875,-1.007080078125,1.556396484375
1.5724999000000002,0.629675030708313,-0.4495113790035248,9.829395294189453,-7.26318359375,0.640869140625,0.18310546875
1.5774999,0.5949591398239136,-0.48901569843292236,9.601945877075195,2.01416015625,0.67138671875,-2.50244140625
1.5824999000000002,0.6087257862091064,-0.50876784324646,9.871294021606445,-6.683349609375,0.244140625,-0.030517578125
1.5874999,0.6087257862091064,-0.50876784324646,9.871294021606445,-6.683349609375,0.244140625,-0.030517578125
1.5924999000000002,0.5764040350914001,-0.5638344883918762,9.636063575744629,1.77001953125,0.9765625,-2.349853515625
1.5974999,0.656609833240509,-0.518943190574646,9.88506031036377,3.96728515625,-0.946044921875,2.105712890625
1.6024999000000002,0.6308721303939819,-0.6470330357551575,9.79288387298584,-7.843017578125,0.79345703125,-0.48828125
1.6074999,0.6308721303939819,-0.6470330357551575,9.79288387298584,-7.843017578125,0.79345703125,-0.48828125
1.6124999000000002,0.6147112846374512,-0.6619967818260193,9.589376449584961,3.47900390625,0.732421875,-2.166748046875
1.6174999,0.71766197681427,-0.5973533391952515,9.872490882873535,3.692626953125,-0.91552734375,2.166748046875
1.6224999000000002,0.6314706802368164,-0.6548141837120056,9.762955665588379,-6.866455078125,0.9765625,-0.823974609375
1.6274999,0.6278793811798096,-0.6392518281936646,9.604938507080078,3.96728515625,0.244140625,-2.13623046875
1.6324999000000002,0.70090252161026,-0.5566518902778625,9.890447616577148,2.9296875,-1.52587890625,2.227783203125
1.6374999000000001,0.6135141849517822,-0.5123591423034668,9.838373184204102,-6.988525390625,1.007080078125,-1.190185546875
1.6424999000000002,0.6374561786651611,-0.5225345492362976,9.731831550598145,4.82177734375,0.48828125,-1.678466796875
1.6474999000000001,0.6991068720817566,-0.48303020000457764,9.9772367477417,1.5869140625,-1.0986328125,2.3193359375
1.6524999000000002,0.5925649404525757,-0.5542576909065247,9.785700798034668,-5.79833984375,0.732421875,-1.434326171875
1.6574999000000001,0.6200982332229614,-0.5734112858772278,9.668983459472656,5.4931640625,-0.1220703125,-1.556396484375
1.6624999000000003,0.6799532771110535,-0.5380968451499939,9.920374870300293,1.0986328125,-1.28173828125,2.227783203125
1.6674999000000001,0.6177040338516235,-0.6320692300796509,9.740211486816406,-6.011962890625,1.373291015625,-1.861572265625
1.6724999,0.6177040338516235,-0.6320692300796509,9.740211486816406,-6.011962890625,1.373291015625,-1.861572265625
1.6774999000000002,0.6440402865409851,-0.6428431272506714,9.635464668273926,5.828857421875,-0.030517578125,-1.0986328125
1.6824999,0.6392518281936646,-0.6123170852661133,9.651625633239746,6.103515625,-0.3662109375,-0.9765625
1.6874999000000002,0.6392518281936646,-0.6123170852661133,9.651625633239746,6.103515625,-0.3662109375,-0.9765625
1.6924999,0.6877344250679016,-0.52552729845047,9.943120002746582,-0.732421875,-0.9765625,2.166748046875
1.6974999000000002,0.6033388376235962,-0.5614402890205383,9.728838920593262,-6.378173828125,1.434326171875,-2.01416015625
1.7024999,0.6254851818084717,-0.5171475410461426,9.684545516967773,6.195068359375,0.091552734375,-0.885009765625
1.7074999000000002,0.6709750294685364,-0.4537012279033661,9.995193481445312,-0.9765625,-0.8544921875,2.3193359375
1.7124999,0.5919663906097412,-0.5033808946609497,9.75278091430664,-5.18798828125,1.220703125,-2.13623046875
1.7174999000000002,0.579995334148407,-0.52552729845047,9.72285270690918,-4.486083984375,0.9765625,-2.25830078125
1.7224999,0.6111199855804443,-0.5153518915176392,9.704896926879883,6.7138671875,-0.640869140625,-0.3662109375
1.7274999000000002,0.6344634294509888,-0.5213374495506287,9.954492568969727,-2.288818359375,-0.701904296875,1.89208984375
1.7324999,0.5614402890205383,-0.5859808921813965,9.682151794433594,-5.096435546875,1.3427734375,-2.410888671875
1.7374999000000002,0.6099228858947754,-0.5847837924957275,9.689932823181152,6.7138671875,-0.30517578125,-0.091552734375
1.7424999,0.6302735805511475,-0.5907692909240723,9.929352760314941,-2.50244140625,-0.3662109375,2.044677734375
1.7474999000000002,0.5752069354057312,-0.6524199843406677,9.659406661987305,-3.692626953125,1.220703125,-2.471923828125
1.7524999,0.6368576288223267,-0.639850378036499,9.700706481933594,6.8359375,-0.885009765625,0
1.7574999000000002,0.6572083830833435,-0.6260837316513062,9.935338973999023,-3.326416015625,-0.946044921875,1.708984375
1.7624999000000001,0.6745663285255432,-0.5482721924781799,9.82999324798584,-3.662109375,-0.396728515625,1.495361328125
1.7674999000000002,0.6248866319656372,-0.568622887134552,9.57979965209961,-2.838134765625,1.312255859375,-2.655029296875
1.7724999000000001,0.6619967818260193,-0.49978959560394287,9.696516990661621,6.744384765625,-0.946044921875,0.518798828125
1.7774999000000002,0.6584054827690125,-0.4692635238170624,9.907206535339355,-4.150390625,-0.18310546875,1.373291015625
1.7824999000000001,0.6063315868377686,-0.5135562419891357,9.6618013381958,-2.685546875,1.373291015625,-2.716064453125
1.7874999000000003,0.6530185341835022,-0.4537012279033661,9.798869132995605,6.40869140625,-0.54931640625,0.732421875
1.7924999000000001,0.6374561786651611,-0.42856210470199585,9.954492568969727,-5.0048828125,0,1.40380859375
1.7974999,0.5997475385665894,-0.49380409717559814,9.677961349487305,-2.471923828125,1.52587890625,-2.74658203125
1.8024999000000002,0.6380547285079956,-0.43933600187301636,9.816825866699219,6.866455078125,-0.91552734375,0.701904296875
1.8074999,0.6272808313369751,-0.4668693244457245,9.941922187805176,-4.180908203125,-0.6103515625,1.129150390625
1.8124999000000002,0.6272808313369751,-0.5105634927749634,9.821614265441895,6.28662109375,-1.15966796875,1.15966796875
1.8174999,0.6171054840087891,-0.5327098965644836,9.90122127532959,-5.889892578125,-0.3662109375,1.52587890625
1.8224999000000002,0.5123591423034668,-0.669179379940033,9.61331844329834,-3.0517578125,0,-1.52587890625
1.8274999,0.5895721912384033,-0.6512228846549988,9.467870712280273,2.0751953125,-4.058837890625,6.65283203125
1.8324999000000002,0.40222588181495667,-0.2890998423099518,9.41400146484375,-6.103515625,-4.8828125,6.866455078125
1.8374999,0.5279214978218079,-0.7571662664413452,8.509591102600098,10.07080078125,-2.62451171875,6.34765625
1.8424999000000002,0.322618693113327,-0.6278793811798096,8.557475090026855,17.120361328125,-5.0048828125,30.76171875
1.8474999,0.5129576921463013,-1.279700756072998,8.220491409301758,-3.96728515625,-6.317138671875,35.919189453125
1.8524999000000002,0.2908954918384552,-1.766920804977417,8.24084186553955,29.693603515625,-5.401611328125,36.895751953125
1.8574999,0.35494041442871094,-1.2623428106307983,8.731653213500977,-0.8544921875,-14.373779296875,40.22216796875
1.8624999000000002,-0.14844051003456116,-1.9153614044189453,8.496423721313477,14.984130859375,-11.932373046875,38.726806640625
1.8674999,0.09696517139673233,-0.497395396232605,9.096769332885742,10.31494140625,-19.683837890625,53.16162109375
1.8724999000000002,0.1454477459192276,0.5380968451499939,9.187748908996582,19.378662109375,-21.6064453125,52.825927734375
1.8774999,-0.13527239859104156,0.4273650050163269,8.664017677307129,-5.37109375,-18.768310546875,48.187255859375
1.8824999000000002,0.5877765417098999,1.215057373046875,9.318831443786621,32.77587890625,-19.53125,55.60302734375
1.8874999000000001,0.4626794755458832,0.42018240690231323,8.944138526916504,-1.434326171875,-15.350341796875,52.79541015625
1.8924999000000002,1.05105459690094,0.9600749015808105,9.083003044128418,42.449951171875,-14.190673828125,55.572509765625
1.8974999000000001,0.9271546006202698,0.31543606519699097,8.9680814743042,8.23974609375,-12.237548828125,55.328369140625
1.9024999000000002,1.4449007511138916,0.6332663297653198,8.813055992126465,41.717529296875,-6.683349609375,52.79541015625
1.9074999000000001,1.3419500589370728,0.14784196019172668,8.904634475708008,7.354736328125,-8.11767578125,48.095703125
1.9124999000000003,1.9261353015899658,0.38965633511543274,8.70950698852539,32.012939453125,0.579833984375,40.191650390625
1.9174999000000001,1.7717092037200928,0.19572599232196808,8.612542152404785,-8.6669921875,-0.030517578125,31.463623046875
1.9224999,2.0871453285217285,0.395043283700943,8.216899871826172,-27.77099609375,7.659912109375,11.53564453125
1.9274999000000002,2.140416383743286,0.4124012291431427,8.413225173950195,-43.27392578125,9.918212890625,-12.26806640625
1.9324999,2.250549554824829,0.2825157940387726,9.064447402954102,-15.56396484375,14.892578125,-12.20703125
1.9374999000000002,1.7489643096923828,-0.1538274586200714,9.386467933654785,-35.94970703125,18.12744140625,-20.32470703125
1.9424999,1.556231141090393,-0.6344634294509888,10.331579208374023,-0.396728515625,14.495849609375,-10.19287109375
1.9474999000000002,0.8786720037460327,-1.1252747774124146,10.408193588256836,-12.02392578125,15.655517578125,-19.775390625
1.9524999,0.5099649429321289,-1.5041571855545044,10.918158531188965,6.988525390625,6.8359375,-6.89697265625
1.9574999000000002,0.010773907415568829,-1.655590534210205,10.362703323364258,-3.5400390625,8.30078125,-20.782470703125
1.9624999,-0.11133038252592087,-1.6172832250595093,10.451887130737305,7.476806640625,2.3193359375,-8.636474609375
1.9674999000000002,-0.21667525172233582,-1.390432596206665,9.619902610778809,-5.615234375,3.509521484375,-18.00537109375
1.9724999,-0.019153613597154617,-0.9894038438796997,10.011354446411133,2.471923828125,-3.997802734375,-4.150390625
1.9774999000000002,0.14245499670505524,-0.6506243348121643,9.367912292480469,-5.950927734375,4.547119140625,-13.36669921875
1.9824999,0.3357867896556854,-0.262763649225235,9.955689430236816,1.0986328125,-3.35693359375,2.99072265625
1.9874999000000002,0.5249287486076355,-0.13347674906253815,9.926360130310059,-1.64794921875,-5.767822265625,4.730224609375
1.9924999,0.608127236366272,-0.37409400939941406,9.353547096252441,-1.007080078125,1.77001953125,-6.988525390625
1.9974999000000002,0.5937620401382446,-0.37409400939941406,10.00716495513916,-2.197265625,-4.608154296875,3.7841796875
2.0024999,0.7529764175415039,-0.4578910768032074,10.087369918823242,-4.730224609375,-3.509521484375,3.021240234375
2.0074999,0.821809709072113,-0.5746083855628967,9.492411613464355,5.06591796875,5.06591796875,-5.18798828125
2.0124999000000003,0.7769184708595276,-0.40222588181495667,10.02811336517334,-5.37109375,-2.410888671875,2.44140625
2.0174999000000002,0.7966706156730652,-0.5482721924781799,9.445125579833984,5.401611328125,5.096435546875,-5.584716796875
2.0224999,0.6973112225532532,-0.43035775423049927,9.964667320251465,-5.9814453125,-2.13623046875,2.62451171875
2.0274999,0.6973112225532532,-0.595557689666748,9.402029991149902,5.889892578125,4.150390625,-5.340576171875
2.0324999000000004,0.6189011335372925,-0.6075286865234375,9.391854286193848,5.279541015625,3.021240234375,-5.31005859375
2.0374999000000003,0.5590460896492004,-0.45908817648887634,9.940725326538086,-5.828857421875,-3.448486328125,2.74658203125
2.0424999,0.6374561786651611,-0.5835866928100586,9.367912292480469,4.45556640625,3.11279296875,-4.8828125
2.0474999,0.6206967830657959,-0.42437225580215454,9.907206535339355,-4.974365234375,-3.90625,3.84521484375
2.0524999,0.6961141228675842,-0.5931634902954102,9.300874710083008,3.448486328125,3.387451171875,-5.43212890625
2.0574999000000003,0.6883329749107361,-0.43095630407333374,9.86351203918457,-3.753662109375,-3.326416015625,3.692626953125
2.0624999,0.7182605266571045,-0.6260837316513062,9.281721115112305,2.38037109375,3.84521484375,-5.615234375
2.0674999,0.7056909799575806,-0.4800374507904053,9.921571731567383,-1.64794921875,-3.41796875,4.302978515625
2.0724999,0.7056909799575806,-0.6344634294509888,9.364919662475586,1.129150390625,3.570556640625,-6.439208984375
2.0774999000000003,0.6829460263252258,-0.5051765441894531,10.005967140197754,0.213623046875,-3.41796875,4.180908203125
2.0824999,0.6697779297828674,-0.6153098344802856,9.40023422241211,-2.0751953125,3.387451171875,-6.7138671875
2.0874999,0.669179379940033,-0.4734533727169037,10.011953353881836,1.983642578125,-3.5400390625,4.852294921875
2.0924999,0.6212953329086304,-0.6224924325942993,9.428964614868164,-6.8359375,2.86865234375,-6.53076171875
2.0974999000000003,0.7320271730422974,-0.4920084476470947,10.017339706420898,7.659912109375,-2.593994140625,5.340576171875
2.1024999,0.6230909824371338,-0.6123170852661133,9.445724487304688,-8.941650390625,2.227783203125,-6.500244140625
2.1074999,0.7541735172271729,-0.4345476031303406,9.862914085388184,9.918212890625,-2.227783203125,5.18798828125
2.1124999,0.5602431893348694,-0.5620388388633728,9.41639518737793,-11.444091796875,1.64794921875,-5.615234375
2.1174999000000003,0.7308300733566284,-0.3866635859012604,9.709685325622559,11.749267578125,-1.77001953125,3.997802734375
2.1224999,0.5093663930892944,-0.5596446394920349,9.481039047241211,-13.00048828125,0.457763671875,-5.157470703125
2.1274999,0.7487865686416626,-0.38307225704193115,9.671976089477539,12.847900390625,-0.701904296875,2.655029296875
2.1324999,0.6009446382522583,-0.6177040338516235,9.717466354370117,-13.7939453125,-0.152587890625,-3.265380859375
2.1374999000000003,0.8080430626869202,-0.45669397711753845,9.63067626953125,12.542724609375,0.30517578125,1.40380859375
2.1424999000000002,0.6967126727104187,-0.6350619792938232,9.820416450500488,-12.359619140625,-0.8544921875,-1.617431640625
2.1474999,0.7128735780715942,-0.5758054852485657,9.3643217086792,8.11767578125,2.62451171875,-2.960205078125
2.1524999,0.7128735780715942,-0.5758054852485657,9.3643217086792,8.11767578125,2.62451171875,-2.960205078125
2.1574999000000004,0.6015431880950928,-0.4866214990615845,9.831789016723633,-6.103515625,-2.410888671875,2.166748046875
2.1624999000000003,0.6129156351089478,-0.4297592043876648,9.91738224029541,-0.885009765625,-2.960205078125,4.302978515625
2.1674999,0.6129156351089478,-0.4297592043876648,9.91738224029541,-0.885009765625,-2.960205078125,4.302978515625
2.1724999,0.6206967830657959,-0.557250440120697,9.315838813781738,-1.89208984375,3.0517578125,-6.2255859375
2.1774999000000004,0.6859387755393982,-0.47225627303123474,9.956287384033203,4.33349609375,-2.74658203125,4.7607421875
2.1824999000000003,0.6248866319656372,-0.6218938827514648,9.391854286193848,-7.171630859375,2.288818359375,-5.615234375
2.1874999,0.7511807680130005,-0.47165772318840027,9.810839653015137,9.09423828125,-1.922607421875,4.8828125
2.1924999,0.5608417391777039,-0.6218938827514648,9.394847869873047,-11.138916015625,1.617431640625,-5.340576171875
2.1974999,0.739209771156311,-0.4578910768032074,9.59476375579834,11.932373046875,-0.946044921875,3.11279296875
2.2024999000000003,0.7380126714706421,-0.5207388401031494,9.468469619750977,12.14599609375,0.54931640625,0.823974609375
2.2074999,0.6590040326118469,-0.6272808313369751,9.816226959228516,-11.077880859375,-0.8544921875,-0.701904296875
2.2124999,0.7637503147125244,-0.5668272376060486,9.4822359085083,9.246826171875,1.800537109375,-2.0751953125
2.2174999,0.6775590777397156,-0.4794389009475708,9.9401273727417,-6.53076171875,-2.197265625,2.0751953125
2.2224999000000003,0.7068880796432495,-0.5249287486076355,9.440936088562012,3.2958984375,2.410888671875,-4.302978515625
2.2274999,0.6787561774253845,-0.406415730714798,9.986215591430664,0.030517578125,-2.349853515625,4.08935546875
2.2324999,0.6320692300796509,-0.547075092792511,9.4014310836792,-3.753662109375,2.3193359375,-5.55419921875
2.2374999,0.718859076499939,-0.4345476031303406,9.948506355285645,6.7138671875,-2.227783203125,4.608154296875
2.2424999000000003,0.5620388388633728,-0.5871779918670654,9.456498146057129,-9.521484375,1.739501953125,-5.2490234375
2.2474999,0.7362170219421387,-0.4423287510871887,9.725247383117676,10.894775390625,-1.251220703125,3.509521484375
2.2524999,0.5811924338340759,-0.6350619792938232,9.633070945739746,-12.054443359375,0.152587890625,-3.23486328125
2.2574999,0.7445967197418213,-0.5303156971931458,9.552865028381348,11.5966796875,0.06103515625,1.007080078125
2.2624999000000003,0.7410054206848145,-0.39564183354377747,9.981427192687988,3.662109375,-2.50244140625,4.21142578125
2.2674999000000002,0.7410054206848145,-0.39564183354377747,9.981427192687988,3.662109375,-2.50244140625,4.21142578125
2.2724999,0.6625953316688538,-0.545877993106842,9.440936088562012,-7.049560546875,1.89208984375,-5.126953125
2.2774999,0.7727286219596863,-0.40701428055763245,9.795876502990723,9.82666015625,-1.495361328125,3.96728515625
2.2824999000000004,0.628477931022644,-0.606930136680603,9.61212158203125,-11.444091796875,0.6103515625,-3.72314453125
2.2874999000000003,0.7368155717849731,-0.4752490520477295,9.543288230895996,11.3525390625,-0.1220703125,1.129150390625
2.2924999,0.6290764808654785,-0.6141127347946167,9.816825866699219,-10.589599609375,-0.701904296875,-0.30517578125
2.2974999,0.7050924301147461,-0.5428852438926697,9.398438453674316,7.171630859375,1.89208984375,-2.13623046875
2.3024999000000004,0.6607996821403503,-0.4836287498474121,9.971251487731934,-3.60107421875,-1.953125,2.716064453125
2.3074999000000003,0.6673837304115295,-0.5494692921638489,9.415796279907227,-0.67138671875,2.3193359375,-4.69970703125
2.3124999,0.5823895931243896,-0.5560533404350281,9.503783226013184,-8.331298828125,1.77001953125,-4.7607421875
2.3174999,0.74040687084198,-0.424970805644989,9.730634689331055,10.498046875,-0.79345703125,3.11279296875
2.3224999,0.6045359373092651,-0.6212953329086304,9.622296333312988,-11.505126953125,0.244140625,-2.532958984375
2.3274999000000003,0.7362170219421387,-0.5093663930892944,9.440936088562012,10.19287109375,0.91552734375,-0.091552734375
2.3324999,0.6787561774253845,-0.5638344883918762,9.810839653015137,-7.659912109375,-1.46484375,1.15966796875
2.3374999,0.7200561761856079,-0.5530605912208557,9.37748908996582,3.41796875,2.25830078125,-3.5400390625
2.3424999,0.727837324142456,-0.414795458316803,9.993996620178223,1.373291015625,-2.38037109375,3.936767578125
2.3474999000000003,0.6721721291542053,-0.5297171473503113,9.516951560974121,-5.37109375,2.01416015625,-4.852294921875
2.3524999,0.7661445140838623,-0.4010287821292877,9.943120002746582,8.6669921875,-1.40380859375,3.753662109375
2.3574999,0.656609833240509,-0.6045359373092651,9.783905029296875,-11.16943359375,0.54931640625,-3.173828125
2.3624999,0.727837324142456,-0.5111620426177979,9.68274974822998,10.80322265625,0.396728515625,0.762939453125
2.3674999000000003,0.6428431272506714,-0.6224924325942993,9.966463088989258,-8.85009765625,-1.0986328125,0.457763671875
2.3724999,0.6811503767967224,-0.5351040959358215,9.99220085144043,-0.18310546875,-2.3193359375,3.387451171875
2.3774999,0.6344634294509888,-0.6177040338516235,9.423578262329102,-4.5166015625,2.044677734375,-4.669189453125
2.3824999,0.7308300733566284,-0.4572925269603729,9.79527759552002,8.23974609375,-1.617431640625,3.72314453125
2.3874999000000003,0.6350619792938232,-0.6177040338516235,9.642647743225098,-10.80322265625,0.67138671875,-3.021240234375
2.3924999000000002,0.7146692276000977,-0.4967968463897705,9.567230224609375,10.406494140625,0.335693359375,0.79345703125
2.3974999,0.6314706802368164,-0.5662286877632141,9.922768592834473,-8.4228515625,-1.373291015625,0.54931640625
2.4024999,0.6619967818260193,-0.5668272376060486,9.480440139770508,4.119873046875,1.861572265625,-2.99072265625
2.4074999000000004,0.6865373253822327,-0.47465047240257263,10.05923843383789,1.007080078125,-2.0751953125,3.387451171875
2.4124999000000003,0.6087257862091064,-0.5524620413780212,9.529520988464355,-5.67626953125,2.227783203125,-4.45556640625
2.4174999,0.7499836683273315,-0.4159925580024719,9.896432876586914,9.002685546875,-0.885009765625,3.326416015625
2.4224999,0.6458359360694885,-0.5781996846199036,9.724050521850586,-10.7421875,0.30517578125,-2.44140625
2.4274999000000004,0.7571662664413452,-0.4884171485900879,9.561842918395996,9.765625,0.54931640625,-0.396728515625
2.4324999000000003,0.730231523513794,-0.444722980260849,9.84256362915039,3.90625,-2.13623046875,3.662109375
2.4374999,0.5937620401382446,-0.579995334148407,9.4636812210083,-8.30078125,1.678466796875,-4.150390625
2.4424999,0.7260416746139526,-0.4231751561164856,9.652822494506836,10.43701171875,-0.6103515625,1.922607421875
2.4474999,0.608127236366272,-0.5476736426353455,9.77133560180664,-9.918212890625,-0.579833984375,-0.8544921875
2.4524999000000003,0.6823474764823914,-0.5051765441894531,9.435548782348633,6.866455078125,1.64794921875,-1.739501953125
2.4574999,0.6955155730247498,-0.4710591733455658,9.965266227722168,-1.922607421875,-2.0751953125,2.777099609375
2.4624999,0.6512228846549988,-0.5674257874488831,9.445125579833984,-3.35693359375,2.0751953125,-4.2724609375
2.4674999,0.7410054206848145,-0.4189853072166443,9.840767860412598,7.781982421875,-1.678466796875,3.23486328125
2.4724999000000003,0.6512228846549988,-0.585382342338562,9.679757118225098,-10.101318359375,0.518798828125,-2.685546875
2.4774999,0.7254431247711182,-0.4770447015762329,9.581595420837402,9.521484375,0.54931640625,0.18310546875
2.4824999,0.6392518281936646,-0.5728127360343933,9.86351203918457,-9.002685546875,-0.823974609375,-0.030517578125
2.4874999,0.6619967818260193,-0.5560533404350281,9.421183586120605,4.82177734375,1.52587890625,-2.471923828125
2.4924999000000003,0.6979097723960876,-0.46746787428855896,9.948506355285645,0.579833984375,-1.983642578125,2.9296875
2.4974999,0.5913678407669067,-0.5608417391777039,9.44871711730957,-5.92041015625,1.556396484375,-4.08935546875
2.5024999,0.7218518257141113,-0.40940847992897034,9.719860076904297,9.490966796875,-1.03759765625,2.5634765625
2.5074999,0.6051344871520996,-0.557250440120697,9.724050521850586,-9.857177734375,0.030517578125,-1.0986328125
2.5124999000000003,0.6997054219245911,-0.5051765441894531,9.422380447387695,7.2021484375,1.0986328125,-1.5869140625
2.5174999000000002,0.7284358739852905,-0.5141547918319702,9.946112632751465,-2.01416015625,-2.166748046875,2.62451171875
2.5224999,0.6667851805686951,-0.5758054852485657,9.462483406066895,-3.7841796875,1.953125,-3.90625
2.5274999,0.71766197681427,-0.5033808946609497,9.534309387207031,8.392333984375,0.79345703125,-0.823974609375
2.5324999000000004,0.6973112225532532,-0.5363011956214905,9.990405082702637,-3.570556640625,-1.617431640625,2.166748046875
2.5374999000000003,0.6440402865409851,-0.608127236366272,9.452308654785156,-2.105712890625,2.13623046875,-3.875732421875
2.5424999,0.7260416746139526,-0.46627077460289,9.888651847839355,7.26318359375,-1.46484375,2.838134765625
2.5474999,0.6458359360694885,-0.6123170852661133,9.676764488220215,-9.979248046875,0.823974609375,-2.13623046875
2.5524999000000004,0.7182605266571045,-0.5129576921463013,9.512762069702148,8.758544921875,0.701904296875,-0.579833984375
2.5574999000000003,0.702099621295929,-0.5446808934211731,9.899425506591797,-4.7607421875,-1.46484375,1.800537109375
2.5624999,0.6416460275650024,-0.595557689666748,9.373299598693848,-1.495361328125,1.983642578125,-3.47900390625
2.5674999,0.718859076499939,-0.4620809257030487,9.798270225524902,6.927490234375,-1.800537109375,2.8076171875
2.5724999,0.6374561786651611,-0.5979518890380859,9.607333183288574,-9.33837890625,0.67138671875,-2.288818359375
2.5774999000000003,0.7266402244567871,-0.4776432514190674,9.479841232299805,8.9111328125,0.335693359375,-0.335693359375
2.5824999,0.7230489253997803,-0.4465186297893524,9.8784761428833,6.40869140625,-1.46484375,2.62451171875
2.5874999,0.6326677799224854,-0.5871779918670654,9.670180320739746,-9.58251953125,0.579833984375,-2.0751953125
2.5924999,0.7056909799575806,-0.49619829654693604,9.50617790222168,8.544921875,0.579833984375,-0.518798828125
2.5974999000000003,0.7003039717674255,-0.5207388401031494,9.908403396606445,-4.364013671875,-1.617431640625,1.953125
2.6024999,0.6422445774078369,-0.5446808934211731,9.406219482421875,-1.800537109375,1.953125,-3.570556640625
2.6074999,0.7146692276000977,-0.4387374520301819,9.839570045471191,6.988525390625,-1.40380859375,2.685546875
2.6124999,0.6242880821228027,-0.536899745464325,9.68694019317627,-9.521484375,0.518798828125,-1.5869140625
2.6174999000000003,0.6823474764823914,-0.497395396232605,9.494805335998535,8.11767578125,0.3662109375,-0.946044921875
2.6224999,0.6967126727104187,-0.5033808946609497,9.890447616577148,-3.265380859375,-1.556396484375,2.105712890625
2.6274999,0.6189011335372925,-0.5662286877632141,9.390059471130371,-3.326416015625,1.8310546875,-3.631591796875
2.6324999,0.7140706777572632,-0.4387374520301819,9.762955665588379,8.270263671875,-1.617431640625,2.166748046875
2.6374999000000003,0.7182605266571045,-0.49320554733276367,10.011354446411133,-1.5869140625,-1.64794921875,2.38037109375
2.6424999000000002,0.751779317855835,-0.5003881454467773,9.809642791748047,8.7890625,-0.9765625,1.8310546875
2.6474999,0.6554127335548401,-0.5692214369773865,9.793481826782227,-9.033203125,-0.152587890625,-0.518798828125
2.6524999,0.689530074596405,-0.5452794432640076,9.418190956115723,5.096435546875,1.129150390625,-2.288818359375
2.6574999000000004,0.7481880187988281,-0.44771572947502136,9.864709854125977,0.9765625,-1.678466796875,2.8076171875
2.6624999000000003,0.6769605278968811,-0.586579442024231,9.519346237182617,-6.591796875,1.52587890625,-3.23486328125
2.6674999,0.7493851184844971,-0.4620809257030487,9.667786598205566,9.246826171875,-0.67138671875,0.885009765625
2.6724999,0.6925228238105774,-0.5309142470359802,9.865906715393066,-7.537841796875,-0.762939453125,0.640869140625
2.6774999000000004,0.6338648796081543,-0.569819986820221,9.457097053527832,2.105712890625,1.617431640625,-2.86865234375
2.6824999000000003,0.7212532758712769,-0.48722004890441895,9.682151794433594,8.9111328125,-0.030517578125,-0.18310546875
2.6874999,0.6973112225532532,-0.5345055460929871,10.06582260131836,-5.126953125,-1.190185546875,1.708984375
2.6924999,0.639850378036499,-0.5961562395095825,9.589376449584961,-0.91552734375,1.8310546875,-3.326416015625
2.6974999,0.7003039717674255,-0.5033808946609497,9.932345390319824,7.110595703125,-1.46484375,2.44140625
2.7024999000000003,0.6159083843231201,-0.5781996846199036,9.790489196777344,-8.85009765625,0.244140625,-1.40380859375
2.7074999,0.657806932926178,-0.5398924946784973,9.527725219726562,7.171630859375,0.54931640625,-1.434326171875
2.7124999,0.7038952708244324,-0.5153518915176392,9.989806175231934,-1.434326171875,-1.5869140625,2.471923828125
2.7174999,0.6254851818084717,-0.6129156351089478,9.530119895935059,-4.730224609375,1.800537109375,-3.23486328125
2.7224999000000003,0.7230489253997803,-0.536899745464325,9.801861763000488,8.60595703125,-1.03759765625,1.46484375
2.7274999,0.6542156338691711,-0.5560533404350281,9.903017044067383,-8.1787109375,-0.42724609375,0.030517578125
2.7324999,0.6440402865409851,-0.5859808921813965,9.5408935546875,3.60107421875,1.3427734375,-2.62451171875
2.7374999,0.656609833240509,-0.5746083855628967,9.728838920593262,-7.843017578125,1.190185546875,-2.50244140625
2.7424999000000003,0.7577648162841797,-0.4926069974899292,9.723451614379883,8.636474609375,0,-0.030517578125
2.7474999,0.7260416746139526,-0.5093663930892944,10.04188060760498,-5.18798828125,-0.762939453125,1.52587890625
2.7524999,0.6482301354408264,-0.5590460896492004,9.560047149658203,-1.3427734375,1.708984375,-3.23486328125
2.7574999,0.6919242739677429,-0.45848962664604187,9.87967300415039,6.89697265625,-1.556396484375,2.288818359375
2.7624999000000003,0.6009446382522583,-0.5410895943641663,9.780313491821289,-8.48388671875,0.3662109375,-1.007080078125
2.7674999000000002,0.6362590789794922,-0.5225345492362976,9.513958930969238,5.92041015625,0.8544921875,-1.77001953125
2.7724999,0.6991068720817566,-0.49978959560394287,10.003573417663574,-0.30517578125,-1.617431640625,2.62451171875
2.7774999,0.6542156338691711,-0.6117185354232788,9.64923095703125,-5.7373046875,1.495361328125,-3.082275390625
2.7824999000000004,0.6542156338691711,-0.6117185354232788,9.64923095703125,-5.7373046875,1.495361328125,-3.082275390625
2.7874999000000003,0.7296329736709595,-0.5380968451499939,9.833584785461426,8.575439453125,-0.579833984375,0.79345703125
2.7924999,0.7050924301147461,-0.5488707423210144,9.99100399017334,-7.049560546875,-0.457763671875,0.885009765625
2.7974999,0.6817489266395569,-0.4854243993759155,9.469067573547363,7.354736328125,0.701904296875,-1.03759765625
2.8024999000000004,0.6326677799224854,-0.5656301379203796,9.493608474731445,-4.33349609375,1.5869140625,-2.99072265625
2.8074999000000003,0.6326677799224854,-0.5656301379203796,9.493608474731445,-4.33349609375,1.5869140625,-2.99072265625
2.8124999,0.7104793787002563,-0.5267243981361389,9.784503936767578,8.514404296875,-0.946044921875,1.129150390625
2.8174999,0.6512228846549988,-0.5488707423210144,9.91977596282959,-7.38525390625,-0.335693359375,0.3662109375
2.8224999,0.606930136680603,-0.6021417379379272,9.560646057128906,2.62451171875,1.373291015625,-2.5634765625
2.8274999000000003,0.7056909799575806,-0.4836287498474121,9.989806175231934,3.631591796875,-1.52587890625,2.655029296875
2.8324999,0.6332663297653198,-0.5680243372917175,9.728240013122559,-8.148193359375,0.8544921875,-1.983642578125
2.8374999,0.7056909799575806,-0.497395396232605,9.637260437011719,7.87353515625,0.42724609375,-0.823974609375
2.8424999,0.7469909191131592,-0.4878185987472534,9.982624053955078,-2.899169921875,-1.251220703125,2.288818359375
2.8474999000000003,0.6075286865234375,-0.5740098357200623,9.522936820983887,2.716064453125,1.312255859375,-2.44140625
2.8524999,0.7104793787002563,-0.47225627303123474,9.952696800231934,4.0283203125,-1.495361328125,2.410888671875
2.8574999,0.6446388363838196,-0.5536591410636902,9.700108528137207,-7.87353515625,0.885009765625,-1.89208984375
2.8624999,0.7158663272857666,-0.4950011968612671,9.607333183288574,7.598876953125,0.335693359375,-1.03759765625
2.8674999000000003,0.7571662664413452,-0.48243165016174316,9.955090522766113,-2.471923828125,-1.220703125,2.288818359375
2.8724999,0.6673837304115295,-0.5524620413780212,9.565434455871582,-4.39453125,1.46484375,-3.021240234375
2.8774999,0.7284358739852905,-0.5147533416748047,9.797073364257812,7.9345703125,-0.579833984375,1.03759765625
2.8824999,0.6817489266395569,-0.5321113467216492,9.917980194091797,-7.26318359375,-0.18310546875,0.640869140625
2.8874999000000003,0.619499683380127,-0.579995334148407,9.549872398376465,1.739501953125,1.251220703125,-2.86865234375
2.8924999000000002,0.7152677774429321,-0.46806642413139343,9.897629737854004,4.7607421875,-1.52587890625,2.227783203125
2.8974999,0.71766197681427,-0.5249287486076355,9.789292335510254,8.148193359375,-0.885009765625,0.42724609375
2.9024999,0.6991068720817566,-0.5279214978218079,9.973047256469727,-6.011962890625,-0.823974609375,1.28173828125
2.9074999000000004,0.641047477722168,-0.5590460896492004,9.5809965133667,-0.1220703125,1.3427734375,-2.777099609375
2.9124999000000003,0.7158663272857666,-0.424970805644989,9.838373184204102,6.072998046875,-1.678466796875,1.89208984375
2.9174999,0.6392518281936646,-0.4836287498474121,9.736021041870117,-8.30078125,0.640869140625,-0.701904296875
2.9224999,0.6560112833976746,-0.48901569843292236,9.529520988464355,5.126953125,1.251220703125,-1.922607421875
2.9274999000000004,0.739209771156311,-0.45489832758903503,9.943120002746582,1.03759765625,-1.0986328125,2.532958984375
2.9324999000000003,0.6847416758537292,-0.5626373887062073,9.73661994934082,-6.927490234375,1.64794921875,-2.13623046875
2.9374999,0.7529764175415039,-0.5398924946784973,9.750985145568848,7.781982421875,0.091552734375,-0.274658203125
2.9424999,0.6458359360694885,-0.5931634902954102,9.595361709594727,-2.593994140625,1.3427734375,-2.899169921875
2.9474999,0.7044938206672668,-0.5315127968788147,9.800664901733398,7.598876953125,-1.40380859375,1.220703125
2.9524999000000003,0.6266822814941406,-0.5380968451499939,9.838373184204102,-7.293701171875,-0.244140625,0.3662109375
2.9574999,0.5877765417098999,-0.5823895931243896,9.479243278503418,2.410888671875,1.40380859375,-2.593994140625
2.9624999,0.6967126727104187,-0.47824180126190186,9.883264541625977,4.150390625,-1.8310546875,2.3193359375
2.9674999,0.6218938827514648,-0.5548562407493591,9.701305389404297,-7.6904296875,0.640869140625,-1.40380859375
2.9724999000000003,0.6949170231819153,-0.5321113467216492,9.588179588317871,6.195068359375,0.42724609375,-1.40380859375
2.9774999,0.7463923692703247,-0.47405192255973816,10.00716495513916,-0.9765625,-1.28173828125,2.38037109375
2.9824999,0.6751648783683777,-0.5811924338340759,9.712079048156738,-5.706787109375,1.46484375,-2.655029296875
2.9874999,0.74040687084198,-0.5015852451324463,9.819219589233398,8.1787109375,-0.42724609375,0.213623046875
2.9924999000000003,0.718859076499939,-0.5159504413604736,10.046669006347656,-5.126953125,-0.518798828125,1.52587890625
2.9974999,0.6494272351264954,-0.5602431893348694,9.604340553283691,-1.15966796875,1.495361328125,-3.021240234375
3.0024999,0.6332663297653198,-0.5009866952896118,9.809642791748047,-7.965087890625,0.1220703125,-0.18310546875
3.0074999,0.6027402877807617,-0.5333084464073181,9.50857162475586,3.570556640625,0.885009765625,-2.38037109375
3.0124999000000003,0.7015010714530945,-0.47225627303123474,9.90241813659668,3.47900390625,-1.46484375,2.593994140625
3.0174999000000002,0.6236895322799683,-0.5793967843055725,9.724050521850586,-7.8125,1.15966796875,-1.52587890625
3.0224999,0.6937199234962463,-0.545877993106842,9.61212158203125,6.805419921875,0.091552734375,-1.15966796875
3.0274999,0.7416039705276489,-0.5147533416748047,10.012551307678223,-1.007080078125,-1.312255859375,2.227783203125
3.0324999000000004,0.656609833240509,-0.5919663906097412,9.682151794433594,-5.126953125,1.617431640625,-2.593994140625
3.0374999000000003,0.718859076499939,-0.5237316489219666,9.792284965515137,8.056640625,-0.54931640625,0.18310546875
3.0424999,0.70090252161026,-0.5165489912033081,10.025120735168457,-5.096435546875,-0.732421875,1.220703125
3.0474999,0.6302735805511475,-0.5608417391777039,9.591172218322754,-1.190185546875,1.495361328125,-2.960205078125
3.0524999000000004,0.7146692276000977,-0.43933600187301636,9.824606895446777,6.561279296875,-1.0986328125,1.495361328125
3.0574999000000003,0.6524199843406677,-0.48722004890441895,9.835380554199219,-7.537841796875,0.06103515625,-0.244140625
3.0624999,0.7463923692703247,-0.4423287510871887,9.909601211547852,3.448486328125,-1.251220703125,2.3193359375
3.0674999,0.6392518281936646,-0.557250440120697,9.682151794433594,-7.965087890625,1.251220703125,-1.708984375
3.0724999000000004,0.7080851793289185,-0.535702645778656,9.581595420837402,6.77490234375,0.54931640625,-1.495361328125
3.0774999000000003,0.7272387742996216,-0.4944026470184326,9.962871551513672,-0.732421875,-0.885009765625,2.25830078125
3.0824999,0.656609833240509,-0.5949591398239136,9.688735961914062,-5.279541015625,1.64794921875,-2.777099609375
3.0874999,0.7140706777572632,-0.518943190574646,9.774927139282227,8.087158203125,-0.18310546875,-0.152587890625
3.0924999,0.7116764783859253,-0.5183446407318115,10.023923873901367,-5.035400390625,-0.518798828125,1.129150390625
3.0974999000000003,0.6380547285079956,-0.5823895931243896,9.566033363342285,-2.044677734375,2.227783203125,-3.35693359375
3.1024999,0.7703344225883484,-0.4770447015762329,9.79527759552002,7.080078125,-0.18310546875,0.9765625
3.1074999,0.6847416758537292,-0.557250440120697,9.79647445678711,-8.1787109375,1.678466796875,-1.28173828125
3.1124999,0.7679402232170105,-0.6045359373092651,9.481637001037598,3.2958984375,3.692626953125,-4.302978515625
3.1174999000000003,0.8092401623725891,-0.6117185354232788,9.880870819091797,2.716064453125,1.5869140625,0.701904296875
3.1224999,1.083974838256836,-0.40043023228645325,9.644442558288574,6.34765625,3.2958984375,-5.43212890625
3.1274999,0.8649053573608398,-0.23044191300868988,9.642048835754395,-11.322021484375,6.4697265625,-12.054443359375
3.1324999,1.2647370100021362,-0.48722004890441895,9.318831443786621,2.777099609375,10.345458984375,-17.669677734375
3.1374999000000003,1.5568296909332275,-0.24361002445220947,9.565434455871582,-4.39453125,9.94873046875,-19.10400390625
3.1424999000000002,1.4856021404266357,-0.6919242739677429,9.05367374420166,-12.542724609375,18.6767578125,-34.3017578125
3.1474999,1.710058569908142,-1.1300631761550903,9.041702270507812,4.2724609375,19.195556640625,-35.491943359375
3.1524999,1.40180504322052,-1.0426748991012573,8.68017864227295,-17.608642578125,29.60205078125,-49.407958984375
3.1574999000000004,1.3772644996643066,-1.259350061416626,8.142081260681152,20.660400390625,30.94482421875,-39.73388671875
3.1624999000000003,0.9582792520523071,-1.1085153818130493,8.17021369934082,-14.678955078125,41.9921875,-47.607421875
3.1674999,0.5446808934211731,0.060453593730926514,7.548917770385742,-6.134033203125,41.93115234375,-45.257568359375
3.1724999,0.18495208024978638,0.585382342338562,7.30650520324707,29.571533203125,27.64892578125,-32.379150390625
3.1774999000000004,-0.45429977774620056,1.3096283674240112,6.669647216796875,-5.31005859375,26.641845703125,-48.9501953125
3.1824999000000003,-0.9373299479484558,2.5031378269195557,5.837063789367676,-7.50732421875,8.9111328125,-27.740478515625
3.1874999,-1.213860273361206,1.7118542194366455,5.458779811859131,38.2080078125,5.706787109375,-18.06640625
3.1924999,-1.698686122894287,1.7896658182144165,4.4304704666137695,-42.449951171875,9.82666015625,-16.204833984375
3.1974999000000004,-2.0254945755004883,1.191115379333496,4.287416458129883,-46.234130859375,-29.815673828125,20.8740234375
3.2024999000000003,-2.648585557937622,1.4077905416488647,5.204395771026611,47.30224609375,6.439208984375,3.753662109375
3.2074999,-2.32297420501709,2.8455088138580322,5.371391296386719,-52.398681640625,1.556396484375,7.99560546875
3.2124999,-1.8034324645996094,2.4827871322631836,5.7993550300598145,-83.343505859375,-47.088623046875,16.6015625
3.2174999,-1.1348515748977661,2.958036184310913,6.6391215324401855,27.740478515625,-65.948486328125,34.423828125
3.2224999000000003,-0.6189011335372925,1.148618221282959,8.090605735778809,-101.1962890625,-30.94482421875,0.244140625
3.2274999,-0.19153612852096558,1.3239935636520386,9.313444137573242,-22.4609375,-51.26953125,32.1044921875
3.2324999,-0.0293289702385664,0.9870096445083618,9.682151794433594,107.23876953125,-21.392822265625,30.21240234375
3.2374999,1.003769040107727,0.702099621295929,9.44871711730957,-15.594482421875,5.79833984375,3.692626953125
3.2424999000000003,1.3503297567367554,0.011372458189725876,9.316437721252441,-178.1005859375,-4.913330078125,-30.792236328125
3.2474999,2.1284453868865967,-0.7535749673843384,8.51916790008545,15.7470703125,-22.491455078125,5.523681640625
3.2524999,1.7848774194717407,-1.2671312093734741,8.8070707321167,159.5458984375,2.38037109375,48.7060546875
3.2574999,0.5746083855628967,-0.3884592354297638,9.682151794433594,31.005859375,21.026611328125,32.470703125
3.2624999000000003,-0.6871358752250671,0.9678560495376587,10.655394554138184,-24.688720703125,-31.158447265625,-0.030517578125
3.2674999000000002,-1.2090718746185303,2.3133974075317383,10.344148635864258,-12.786865234375,-45.196533203125,-14.404296875
3.2724999,-1.0211269855499268,3.025672435760498,9.257779121398926,-31.25,-26.79443359375,-6.77490234375
3.2774999,2.1356279850006104,-1.6400281190872192,10.211270332336426,-4.852294921875,-4.669189453125,4.852294921875
3.2824999000000004,1.9087773561477661,-3.273472309112549,9.975440979003906,9.246826171875,3.448486328125,-1.251220703125
3.2874999000000003,1.5909470319747925,-3.0555999279022217,9.490615844726562,8.7890625,6.195068359375,-3.692626953125
3.2924999,1.2982559204101562,-2.382829189300537,9.292495727539062,10.31494140625,7.354736328125,-1.77001953125
3.2974999,1.0408791303634644,-1.4634557962417603,9.423578262329102,8.026123046875,6.378173828125,0.579833984375
3.3024999000000004,0.7655459642410278,-0.5847837924957275,9.677363395690918,1.556396484375,3.11279296875,-0.244140625
3.3074999000000003,0.5099649429321289,0.04249707981944084,9.891045570373535,-2.288818359375,0,-1.129150390625
3.3124999,0.33698388934135437,0.28969839215278625,9.965864181518555,-4.57763671875,-3.11279296875,0
3.3174999,0.3058592677116394,0.16819266974925995,9.95209789276123,-3.47900390625,-4.302978515625,0.67138671875
3.3224999000000004,0.8583213090896606,-0.8457517623901367,9.731232643127441,2.0751953125,0.457763671875,-0.396728515625
3.3274999000000003,0.9900023937225342,-0.983418345451355,9.70310115814209,2.410888671875,1.556396484375,0.335693359375
3.3324999,1.027711033821106,-0.9361328482627869,9.68694019317627,1.922607421875,1.77001953125,-0.030517578125
3.3374999,0.9493009448051453,-0.7751228213310242,9.748590469360352,0.152587890625,0.885009765625,-0.732421875
3.3424999,0.8517372608184814,-0.6230909824371338,9.789292335510254,-0.18310546875,-0.152587890625,-0.42724609375
3.3474999000000003,0.750582218170166,-0.5440823435783386,9.797672271728516,-1.190185546875,-1.129150390625,0.274658203125
3.3524999,0.7003039717674255,-0.5363011956214905,9.802460670471191,-0.885009765625,-1.220703125,-0.54931640625
3.3574999,0.7032967209815979,-0.5829881429672241,9.802460670471191,-0.274658203125,-0.946044921875,-0.91552734375
3.3624999,0.7631517648696899,-0.667982280254364,9.769539833068848,1.03759765625,0.518798828125,-0.152587890625
3.3674999000000003,0.8056488633155823,-0.6823474764823914,9.761159896850586,-0.823974609375,0.18310546875,-0.18310546875
3.3724999,0.8373720645904541,-0.7003039717674255,9.770736694335938,0.885009765625,0.762939453125,-0.54931640625
3.3774999,0.8044517636299133,-0.6458359360694885,9.7605619430542,0.18310546875,-0.885009765625,0.091552734375
3.3824999,0.7894880175590515,-0.657806932926178,9.77133560180664,-0.244140625,0.06103515625,-0.42724609375
3.3874999000000003,0.7793126702308655,-0.646434485912323,9.767146110534668,-0.213623046875,-0.6103515625,-0.274658203125
3.3924999000000002,0.7882909178733826,-0.6973112225532532,9.75278091430664,0.762939453125,0.42724609375,0.457763671875
3.3974999,0.790086567401886,-0.6721721291542053,9.759963035583496,0.762939453125,-0.18310546875,-0.244140625
3.4024999,0.790086567401886,-0.6721721291542053,9.759963035583496,0.762939453125,-0.18310546875,-0.244140625
3.4074999000000004,0.7978677153587341,-0.6721721291542053,9.739612579345703,0.457763671875,0.640869140625,-0.885009765625
3.4124999000000003,0.7990648150444031,-0.6476315855979919,9.731232643127441,-0.30517578125,-0.18310546875,-1.129150390625
3.4174999,0.7906851172447205,-0.5919663906097412,9.77133560180664,0.152587890625,0.396728515625,-0.1220703125
3.4224999,0.7906851172447205,-0.6117185354232788,9.737217903137207,0.244140625,-0.030517578125,-0.946044921875
3.4274999000000004,0.7793126702308655,-0.5931634902954102,9.774328231811523,-1.373291015625,0.48828125,-0.91552734375
3.4324999000000003,0.7894880175590515,-0.5758054852485657,9.778518676757812,0,0.244140625,0.91552734375
3.4374999,0.7864952683448792,-0.7362170219421387,9.731232643127441,1.3427734375,0.091552734375,-0.30517578125
3.4424999,0.8445546627044678,-0.6847416758537292,9.782109260559082,0.54931640625,1.373291015625,-1.190185546875
3.4474999000000004,0.8445546627044678,-0.6847416758537292,9.782109260559082,0.54931640625,1.373291015625,-1.190185546875
3.4524999000000003,0.7936778664588928,-0.606930136680603,9.731831550598145,-0.91552734375,1.129150390625,-0.396728515625
3.4574999,0.801459014415741,-0.5662286877632141,9.820416450500488,-1.251220703125,0.152587890625,0.885009765625
3.4624999,0.7206547260284424,-0.5668272376060486,9.794678688049316,-1.312255859375,-1.251220703125,1.5869140625
3.4674999,0.7044938206672668,-0.6404489278793335,9.80904483795166,-0.18310546875,-2.166748046875,0.3662109375
3.4724999000000003,0.707486629486084,-0.7487865686416626,9.767744064331055,1.3427734375,-0.9765625,-0.274658203125
3.4774999,0.7541735172271729,-0.8122329115867615,9.739013671875,1.556396484375,-0.335693359375,-1.5869140625
3.4824999,0.8595184087753296,-0.7781155705451965,9.730035781860352,1.190185546875,1.922607421875,-2.8076171875
3.4874999,0.7852981686592102,-0.47644615173339844,9.797672271728516,-1.983642578125,-0.9765625,2.899169921875
3.4924999000000003,0.6943184733390808,-0.5380968451499939,9.875483512878418,-0.79345703125,-2.838134765625,0.18310546875
3.4974999,0.6422445774078369,-0.6512228846549988,9.81263542175293,1.495361328125,-2.38037109375,-1.220703125
3.5024999,0.7374141216278076,-0.761954665184021,9.77672290802002,1.251220703125,-0.67138671875,-3.60107421875
3.5074999,0.8391677141189575,-0.7841010689735413,9.703699111938477,1.52587890625,3.082275390625,-3.35693359375
3.5124999000000003,0.9355342984199524,-0.6745663285255432,9.736021041870117,-1.28173828125,2.99072265625,1.190185546875
3.5174999000000002,0.8756792545318604,-0.578798234462738,9.730035781860352,-0.8544921875,0.946044921875,5.523681640625
3.5224999,0.6602011322975159,-0.7266402244567871,9.75517463684082,0.732421875,-0.8544921875,-6.072998046875
3.5274999,0.788889467716217,-0.7954735159873962,9.710882186889648,0.823974609375,2.8076171875,-3.47900390625
3.5324999000000004,0.9074024558067322,-0.6476315855979919,9.804854393005371,-0.79345703125,-0.42724609375,6.988525390625
3.5374999000000003,0.9074024558067322,-0.6476315855979919,9.804854393005371,-0.79345703125,-0.42724609375,6.988525390625
3.5424999,0.7852981686592102,-0.5704185366630554,9.837176322937012,0.640869140625,-2.25830078125,-0.091552734375
3.5474999,0.7320271730422974,-0.6009446382522583,9.79408073425293,-0.3662109375,-1.64794921875,-7.659912109375
3.5524999000000004,0.7344213724136353,-0.6332663297653198,9.700108528137207,0.152587890625,1.64794921875,-6.561279296875
3.5574999000000003,0.8224082589149475,-0.6290764808654785,9.692327499389648,-0.54931640625,2.50244140625,3.265380859375
3.5624999,0.851138710975647,-0.641047477722168,9.744400978088379,0.48828125,-0.3662109375,9.58251953125
3.5674999,0.7757213711738586,-0.6260837316513062,9.81263542175293,1.77001953125,-1.800537109375,1.983642578125
3.5724999000000004,0.7350199222564697,-0.6769605278968811,9.81143856048584,-0.579833984375,-1.129150390625,-9.613037109375
3.5774999000000003,0.7140706777572632,-0.6889315247535706,9.68933391571045,-1.77001953125,1.77001953125,-8.85009765625
3.5824999,0.7823054194450378,-0.6733692288398743,9.704896926879883,-0.701904296875,1.77001953125,5.4931640625
3.5874999,0.7864952683448792,-0.6811503767967224,9.77253246307373,2.227783203125,-1.373291015625,12.481689453125
3.5924999,0.7398083209991455,-0.669179379940033,9.832387924194336,2.38037109375,-1.922607421875,0.335693359375
3.5974999000000003,0.7649474143981934,-0.5746083855628967,9.758766174316406,-5.126953125,1.52587890625,-17.15087890625
3.6024999,0.7876923680305481,-0.5901707410812378,9.697713851928711,-2.62451171875,1.922607421875,2.38037109375
3.6074999,0.8212111592292786,-0.5776011347770691,9.747393608093262,6.28662109375,-1.3427734375,18.341064453125
3.6124999,0.8134300112724304,-0.6147112846374512,9.781511306762695,3.0517578125,-1.800537109375,1.708984375
3.6174999000000003,0.790086567401886,-0.6248866319656372,9.782708168029785,-5.18798828125,1.0986328125,-19.53125
3.6224999,0.7954735159873962,-0.6488286852836609,9.711481094360352,-5.31005859375,2.86865234375,-5.4931640625
3.6274999,0.7924807667732239,-0.6613982319831848,9.732429504394531,7.14111328125,-0.823974609375,18.646240234375
3.6324999,0.7817068696022034,-0.6721721291542053,9.740211486816406,4.669189453125,-2.50244140625,7.232666015625
3.6374999000000003,0.788889467716217,-0.6458359360694885,9.747393608093262,4.241943359375,-2.62451171875,7.293701171875
3.6424999000000002,0.8038532137870789,-0.6434416770935059,9.778518676757812,-8.056640625,1.007080078125,-19.83642578125
3.6474999,0.8080430626869202,-0.6919242739677429,9.816226959228516,-3.84521484375,2.62451171875,-4.791259765625
3.6524999,0.7709329724311829,-0.7092822790145874,9.81024169921875,10.31494140625,-1.495361328125,19.439697265625
3.6574999000000004,0.811634361743927,-0.6584054827690125,9.742605209350586,1.129150390625,-2.197265625,0.518798828125
3.6624999000000003,0.8056488633155823,-0.6721721291542053,9.72285270690918,-10.284423828125,2.13623046875,-20.08056640625
3.6674999,0.800261914730072,-0.6236895322799683,9.79408073425293,1.922607421875,1.89208984375,4.425048828125
3.6724999,0.8056488633155823,-0.6422445774078369,9.762955665588379,9.857177734375,-2.62451171875,18.00537109375
3.6774999000000004,0.8176198601722717,-0.5877765417098999,9.714473724365234,-5.096435546875,-0.8544921875,-10.6201171875
3.6824999000000003,0.7745242714881897,-0.6099228858947754,9.717466354370117,-11.444091796875,1.556396484375,-19.04296875
3.6874999,0.7870938181877136,-0.6476315855979919,9.855731010437012,1.739501953125,2.166748046875,1.52587890625
3.6924999,0.8038532137870789,-0.6602011322975159,9.818621635437012,11.077880859375,-2.655029296875,16.9677734375
3.6974999000000004,0.8289923667907715,-0.6224924325942993,9.710283279418945,-7.4462890625,-0.8544921875,-11.23046875
3.7024999000000003,0.8481459617614746,-0.7416039705276489,9.804854393005371,-7.080078125,3.021240234375,-10.894775390625
3.7074999,0.7858967185020447,-0.71766197681427,9.850942611694336,13.00048828125,-1.15966796875,16.632080078125
3.7124999,0.8068459630012512,-0.6404489278793335,9.6803560256958,-1.0986328125,-2.471923828125,0.091552734375
3.7174999,0.7996633648872375,-0.6883329749107361,9.730634689331055,-12.6953125,2.5634765625,-16.815185546875
3.7224999000000003,0.7499836683273315,-0.6619967818260193,9.875483512878418,10.31494140625,0.732421875,10.55908203125
3.7274999,0.7475894689559937,-0.5758054852485657,9.724648475646973,5.767822265625,-2.960205078125,8.575439453125
3.7324999,0.7739257216453552,-0.669179379940033,9.869498252868652,5.523681640625,2.01416015625,3.631591796875
3.7374999,0.8032546639442444,-0.5961562395095825,9.713874816894531,10.955810546875,-2.5634765625,13.397216796875
3.7424999000000003,0.8236053586006165,-0.5776011347770691,9.622296333312988,-14.5263671875,0.213623046875,-14.5263671875
3.7474999,0.8170213103294373,-0.7015010714530945,9.818022727966309,0.823974609375,2.716064453125,-1.922607421875
3.7524999,0.7864952683448792,-0.6266822814941406,9.771934509277344,14.801025390625,-2.01416015625,14.7705078125
3.7574999,0.8188169598579407,-0.6003460884094238,9.633668899536133,-13.458251953125,-0.701904296875,-11.53564453125
3.7624999000000003,0.801459014415741,-0.7266402244567871,9.858723640441895,-4.45556640625,2.0751953125,-5.401611328125
3.7674999000000002,0.7811083197593689,-0.6500257849693298,9.833584785461426,18.280029296875,-0.3662109375,13.519287109375
3.7724999,0.7781155705451965,-0.5608417391777039,9.61212158203125,-14.16015625,-1.068115234375,-9.033203125
3.7774999,0.7667431235313416,-0.7003039717674255,9.821614265441895,-1.617431640625,0.885009765625,-0.9765625
3.7824999000000004,0.801459014415741,-0.645237386226654,9.806650161743164,19.287109375,0.79345703125,10.040283203125
3.7874999000000003,0.7745242714881897,-0.5841852426528931,9.600749015808105,-20.233154296875,-1.220703125,-10.772705078125
3.7924999,0.790086567401886,-0.7751228213310242,9.96945571899414,3.84521484375,0.48828125,2.74658203125
3.7974999,0.8188169598579407,-0.6643909811973572,9.77791976928711,16.90673828125,1.40380859375,6.317138671875
3.8024999000000004,0.8146271109580994,-0.6500257849693298,9.684545516967773,-23.895263671875,-1.52587890625,-10.80322265625
3.8074999000000003,0.8044517636299133,-0.7811083197593689,9.999382972717285,11.749267578125,-0.06103515625,6.9580078125
3.8124999,0.8206126093864441,-0.6117185354232788,9.703699111938477,10.345458984375,1.617431640625,1.312255859375
3.8174999,0.7535749673843384,-0.6518214344978333,9.687539100646973,-24.23095703125,-1.800537109375,-8.7890625
3.8224999000000004,0.7894880175590515,-0.7080851793289185,9.948506355285645,20.56884765625,0.3662109375,9.521484375
3.8274999000000003,0.7308300733566284,-0.6913257241249084,9.927556991577148,-4.08935546875,-2.62451171875,3.41796875
3.8324999,0.8074445128440857,-0.5907692909240723,9.745597839355469,21.42333984375,2.197265625,3.41796875
3.8374999,0.7942764163017273,-0.5315127968788147,9.622895240783691,-25.787353515625,0.152587890625,-9.1552734375
3.8424999,0.8445546627044678,-0.702099621295929,10.003573417663574,14.984130859375,-2.105712890625,8.819580078125
3.8474999000000003,0.8637082576751709,-0.5596446394920349,9.609726905822754,4.730224609375,3.143310546875,-4.608154296875
3.8524999,0.7906851172447205,-0.6590040326118469,9.78989028930664,-20.965576171875,-1.52587890625,-2.777099609375
3.8574999,0.8421604633331299,-0.7248445749282837,9.909002304077148,25.81787109375,-0.518798828125,7.476806640625
3.8624999,0.7876923680305481,-0.5859808921813965,9.541492462158203,-17.120361328125,2.50244140625,-9.521484375
3.8674999000000003,0.7805097699165344,-0.7338228225708008,9.965864181518555,0.335693359375,-3.11279296875,6.011962890625
3.8724999,0.7601590156555176,-0.6260837316513062,9.675567626953125,-25.08544921875,0.518798828125,-5.67626953125
3.8774999,0.778714120388031,-0.7272387742996216,9.929352760314941,22.39990234375,-2.50244140625,8.514404296875
3.8824999,0.7835025191307068,-0.5752069354057312,9.496002197265625,-9.33837890625,3.204345703125,-8.72802734375
3.8874999000000003,0.7416039705276489,-0.679354727268219,9.929951667785645,-6.927490234375,-2.532958984375,4.241943359375
3.8924999000000002,0.8307880163192749,-0.6057330369949341,9.707290649414062,20.08056640625,0.3662109375,0.54931640625
3.8974999,0.7727286219596863,-0.5656301379203796,9.649829864501953,-25.054931640625,1.5869140625,-5.9814453125
3.9024999,0.8032546639442444,-0.7068880796432495,9.972448348999023,20.08056640625,-3.387451171875,8.392333984375
3.9074999000000004,0.8074445128440857,-0.5793967843055725,9.527127265930176,-7.8125,3.173828125,-8.48388671875
3.9124999000000003,0.7571662664413452,-0.6757634282112122,9.9772367477417,-6.866455078125,-2.0751953125,4.69970703125
3.9174999,0.8248024582862854,-0.6380547285079956,9.734225273132324,18.951416015625,-0.335693359375,-0.48828125
3.9224999,0.7966706156730652,-0.7026981711387634,9.975440979003906,21.42333984375,-3.35693359375,7.293701171875
3.9274999000000004,0.7422025203704834,-0.6117185354232788,9.765948295593262,-21.209716796875,1.556396484375,-1.068115234375
3.9324999000000003,0.8265981078147888,-0.6943184733390808,9.880870819091797,23.651123046875,-3.387451171875,4.608154296875
3.9374999,0.7445967197418213,-0.6135141849517822,9.529520988464355,-20.01953125,3.662109375,-7.8125
3.9424999,0.7823054194450378,-0.74040687084198,10.01075553894043,11.077880859375,-3.23486328125,8.026123046875
3.9474999000000004,0.7870938181877136,-0.645237386226654,9.536704063415527,-0.274658203125,1.77001953125,-7.4462890625
3.9524999000000003,0.7625532150268555,-0.6721721291542053,9.963470458984375,-10.498046875,0,4.150390625
3.9574999,0.8319851160049438,-0.7038952708244324,9.75637149810791,18.5546875,-1.953125,-1.03759765625
3.9624999,0.7308300733566284,-0.6063315868377686,9.714473724365234,-22.4609375,3.021240234375,-3.021240234375
3.9674999000000004,0.8259995579719543,-0.7182605266571045,9.945513725280762,21.514892578125,-3.997802734375,5.584716796875
3.9724999000000003,0.7374141216278076,-0.5776011347770691,9.479243278503418,-16.754150390625,3.753662109375,-7.87353515625
3.9774999,0.8050503134727478,-0.6200982332229614,9.534908294677734,0.732421875,0.79345703125,-7.476806640625
3.9824999,0.7613561153411865,-0.6380547285079956,9.941324234008789,-9.552001953125,0.701904296875,4.669189453125
3.9874999,0.8242039084434509,-0.6739677786827087,9.730035781860352,16.6015625,-2.44140625,-2.50244140625
3.9924999000000003,0.7463923692703247,-0.6200982332229614,9.786299705505371,-20.660400390625,3.47900390625,-1.129150390625
3.9974999,0.7463923692703247,-0.6200982332229614,9.786299705505371,-20.660400390625,3.47900390625,-1.129150390625
4.0024999,0.7870938181877136,-0.5973533391952515,9.472060203552246,-8.23974609375,1.983642578125,-8.270263671875
4.0074999,0.7846996188163757,-0.6739677786827087,10.050858497619629,1.0986328125,-0.274658203125,7.32421875
4.0124999,0.8158242106437683,-0.6326677799224854,9.568427085876465,6.256103515625,-0.8544921875,-6.4697265625
4.0174999,0.7793126702308655,-0.6105214357376099,9.921571731567383,-12.5732421875,2.38037109375,4.180908203125
4.022499900000001,0.8224082589149475,-0.702099621295929,9.85034465789795,21.1181640625,-3.997802734375,2.777099609375
4.0274999000000005,0.8224082589149475,-0.702099621295929,9.85034465789795,21.1181640625,-3.997802734375,2.777099609375
4.0324999,0.7410054206848145,-0.628477931022644,9.600150108337402,-19.8974609375,3.662109375,-5.18798828125
4.0374999,0.8170213103294373,-0.6841431260108948,9.955689430236816,16.998291015625,-3.082275390625,5.9814453125
4.0424999,0.7631517648696899,-0.5841852426528931,9.465476036071777,-13.24462890625,2.3193359375,-7.6904296875
4.0474999,0.8044517636299133,-0.6590040326118469,10.069414138793945,8.148193359375,-0.885009765625,7.537841796875
4.0524999,0.8188169598579407,-0.618302583694458,9.511565208435059,-3.082275390625,0.579833984375,-8.087158203125
4.0574999,0.7942764163017273,-0.6631938815116882,10.0580415725708,-2.3193359375,1.15966796875,6.7138671875
4.062499900000001,0.8361749649047852,-0.6979097723960876,9.603142738342285,7.354736328125,-1.007080078125,-6.500244140625
4.0674999000000005,0.7864952683448792,-0.595557689666748,9.910199165344238,-12.054443359375,3.47900390625,3.692626953125
4.0724999,0.8942343592643738,-0.6362590789794922,9.670180320739746,15.625,-1.434326171875,-4.08935546875
4.0774999,0.8056488633155823,-0.6147112846374512,9.72285270690918,-21.54541015625,6.34765625,-0.946044921875
4.0824999,0.9911994934082031,-0.8750807046890259,9.265560150146484,-8.453369140625,11.65771484375,-8.270263671875
4.0874999,1.2737152576446533,-0.7870938181877136,9.780912399291992,13.36669921875,6.4697265625,2.166748046875
4.0924999,1.0259153842926025,-0.4920084476470947,9.167996406555176,0.457763671875,15.045166015625,-14.34326171875
4.0974999,1.235408067703247,0.0071826050989329815,9.378686904907227,-22.39990234375,13.763427734375,-3.72314453125
4.1024999,1.5909470319747925,-0.5345055460929871,8.844779968261719,38.87939453125,18.73779296875,-22.857666015625
4.1074999000000005,1.3736732006072998,-0.4908113479614258,8.200140953063965,-36.712646484375,29.296875,-11.444091796875
4.1124999,1.4856021404266357,-1.1180921792984009,8.462904930114746,52.6123046875,15.9912109375,-1.52587890625
4.1174999,1.5352818965911865,-1.4460978507995605,7.841010570526123,1.678466796875,35.797119140625,-14.892578125
4.1224999,0.8595184087753296,-1.1103110313415527,8.340201377868652,-53.40576171875,12.969970703125,-4.69970703125
4.1274999,0.35434186458587646,-0.4752490520477295,8.54909610748291,73.638916015625,-5.31005859375,7.87353515625
4.1324999,-0.1215057373046875,0.48722004890441895,8.595782279968262,-76.385498046875,7.232666015625,-6.866455078125
4.1374999,-0.47884035110473633,0.5674257874488831,9.00399398803711,-3.753662109375,-42.144775390625,20.050048828125
4.1424999,-0.6338648796081543,1.338358759880066,9.32541561126709,72.57080078125,-11.90185546875,16.937255859375
4.147499900000001,-1.2629413604736328,2.027888774871826,9.831789016723633,19.378662109375,8.30078125,-3.936767578125
4.1524999000000005,-1.095347285270691,2.0715830326080322,9.895833969116211,-32.89794921875,-18.157958984375,-9.063720703125
4.1574999,-0.04728548228740692,0.9588778018951416,9.389460563659668,-83.0078125,-23.529052734375,2.3193359375
4.1624999,0.7571662664413452,-0.3818751573562622,9.116521835327148,-59.4482421875,-25.0244140625,23.86474609375
4.1674999,1.8285715579986572,-1.7974469661712646,9.211092948913574,82.09228515625,-27.252197265625,58.16650390625
4.1724999,1.7082629203796387,-1.8064252138137817,9.694122314453125,18.61572265625,11.04736328125,17.364501953125
4.1774999,1.138442873954773,-0.8301894664764404,10.588356971740723,7.965087890625,14.6484375,-11.932373046875
4.1824999,0.2974795699119568,0.7565677165985107,10.740388870239258,27.557373046875,0.79345703125,2.86865234375
4.187499900000001,-0.6200982332229614,2.189497470855713,10.632051467895508,-9.6435546875,-15.07568359375,9.857177734375
4.1924999000000005,1.7286136150360107,-2.756923198699951,9.50857162475586,43.51806640625,1.8310546875,27.587890625
4.1974999,1.5610195398330688,-2.7012581825256348,9.924564361572266,6.53076171875,-1.3427734375,3.2958984375
4.2024999,1.2306196689605713,-1.7986440658569336,10.09814453125,-3.23486328125,-10.589599609375,-14.22119140625
4.2074999,1.0749965906143188,-0.7852981686592102,9.975440979003906,-2.960205078125,-5.401611328125,-10.8642578125
4.2124999,1.1103110313415527,-0.2041056901216507,9.786299705505371,1.495361328125,4.974365234375,-2.838134765625
4.2174999,1.215057373046875,0.010773907415568829,9.709086418151855,6.439208984375,9.765625,3.204345703125
4.2224999,1.2180501222610474,-0.05746084079146385,9.686341285705566,4.45556640625,9.09423828125,1.77001953125
4.2274999,1.0845733880996704,-0.2190694510936737,9.739612579345703,2.105712890625,6.927490234375,-3.0517578125
4.2324999000000005,0.9235633015632629,-0.4405331015586853,9.807847023010254,4.974365234375,7.01904296875,-4.119873046875
4.2374999,0.751779317855835,-0.8152256608009338,9.874286651611328,6.53076171875,5.43212890625,-7.293701171875
4.2424999,0.7344213724136353,-0.8421604633331299,9.857526779174805,5.06591796875,3.326416015625,-10.6201171875
4.2474999,0.7326257228851318,-0.7727286219596863,9.834781646728516,4.39453125,2.777099609375,-12.847900390625
4.2524999,0.7553706169128418,-0.6560112833976746,9.797073364257812,4.638671875,3.143310546875,-13.36669921875
4.2574999,0.7823054194450378,-0.5273229479789734,9.762357711791992,4.547119140625,4.7607421875,-13.580322265625
4.2624999,0.7966706156730652,-0.3968389332294464,9.716867446899414,3.936767578125,5.462646484375,-12.786865234375
4.2674999,0.7547720670700073,-0.27413609623908997,9.674370765686035,2.13623046875,4.547119140625,-11.5966796875
4.272499900000001,0.6518214344978333,-0.16759411990642548,9.656414031982422,-0.213623046875,3.448486328125,-10.55908203125
4.2774999000000005,0.5051765441894531,-0.1041477769613266,9.671976089477539,-1.708984375,2.38037109375,-8.148193359375
4.2824999,0.34835633635520935,-0.0999579206109047,9.701305389404297,-2.777099609375,0.701904296875,-5.06591796875
4.2874999,0.20769700407981873,-0.1538274586200714,9.743802070617676,-3.41796875,-1.46484375,-1.8310546875
4.2924999,0.1107318252325058,-0.243011474609375,9.770736694335938,-3.936767578125,-4.69970703125,0.42724609375
4.2974999,0.14484919607639313,-0.38127660751342773,9.774927139282227,-7.2021484375,-11.53564453125,-1.953125
4.3024999,0.3064578175544739,-0.40222588181495667,9.766547203063965,-7.87353515625,-10.92529296875,-2.197265625
4.3074999,0.5285200476646423,-0.39803603291511536,9.762955665588379,-8.1787109375,-9.552001953125,-0.6103515625
4.312499900000001,0.7463923692703247,-0.3908534348011017,9.77253246307373,-8.6669921875,-8.056640625,0.762939453125
4.3174999000000005,0.9038111567497253,-0.3866635859012604,9.785700798034668,-8.4228515625,-6.2255859375,1.46484375
4.3224999,0.8906430602073669,-0.48602294921875,9.78869342803955,-9.09423828125,-6.439208984375,0.885009765625
4.3274999,0.821809709072113,-0.5710170865058899,9.786897659301758,-9.552001953125,-6.40869140625,-0.213623046875
4.3324999,0.7739257216453552,-0.6889315247535706,9.779715538024902,-8.6669921875,-6.591796875,0.3662109375
4.3374999,0.7631517648696899,-0.8547300100326538,9.784503936767578,-7.50732421875,-6.988525390625,1.40380859375
4.3424999,0.788889467716217,-1.0313023328781128,9.774927139282227,-5.0048828125,-6.53076171875,2.166748046875
4.3474999,0.9283517003059387,-1.280897855758667,9.743204116821289,-0.8544921875,-4.57763671875,1.495361328125
4.352499900000001,0.9989806413650513,-1.2767080068588257,9.733028411865234,1.03759765625,-3.2958984375,1.251220703125
4.3574999000000005,1.0432734489440918,-1.1803414821624756,9.730035781860352,2.410888671875,-1.8310546875,1.40380859375
4.3624999,1.0450690984725952,-0.9900023937225342,9.743802070617676,2.25830078125,-0.8544921875,0.8544921875
4.3674999,1.0205284357070923,-0.7643488645553589,9.767146110534668,0.335693359375,-0.67138671875,0.18310546875
4.3724999,0.973242998123169,-0.5644330382347107,9.783905029296875,-1.129150390625,-0.1220703125,0.213623046875
4.3774999,0.9151836037635803,-0.4602852761745453,9.789292335510254,-1.40380859375,0.335693359375,0.579833984375
4.3824999,0.8708908557891846,-0.38307225704193115,9.80904483795166,-0.54931640625,0.42724609375,0.54931640625
4.3874999,0.8152256608009338,-0.5135562419891357,9.788095474243164,-1.03759765625,-0.42724609375,0.244140625
4.3924999,0.7709329724311829,-0.5740098357200623,9.782708168029785,-1.28173828125,-1.007080078125,0.335693359375
4.397499900000001,0.7643488645553589,-0.7338228225708008,9.778518676757812,0.701904296875,-1.251220703125,0.396728515625
4.4024999000000005,0.7745242714881897,-0.8176198601722717,9.718064308166504,1.220703125,0.091552734375,-0.701904296875
4.4074999,0.8457517623901367,-0.778714120388031,9.724648475646973,0.732421875,-0.091552734375,-0.152587890625
4.4124999,0.8541314601898193,-0.7116764783859253,9.75278091430664,-0.640869140625,0.091552734375,-0.1220703125
4.4174999,0.8451532125473022,-0.6661866307258606,9.767146110534668,-0.67138671875,-0.030517578125,0.152587890625
4.4224999,0.8146271109580994,-0.6422445774078369,9.787496566772461,-0.3662109375,-0.701904296875,-0.1220703125
4.4274999,0.8182184100151062,-0.667982280254364,9.762955665588379,-0.152587890625,-0.30517578125,0.091552734375
4.4324999,0.8020575642585754,-0.6763619780540466,9.751583099365234,-0.091552734375,-0.091552734375,0
4.437499900000001,0.8092401623725891,-0.6865373253822327,9.763554573059082,0.274658203125,-0.6103515625,-0.091552734375
4.4424999000000005,0.8200140595436096,-0.702099621295929,9.753378868103027,0.1220703125,0.274658203125,0.30517578125
4.4474999,0.8164227604866028,-0.6673837304115295,9.773131370544434,0.244140625,-0.274658203125,-0.18310546875
4.4524999,0.8259995579719543,-0.7038952708244324,9.769539833068848,0.9765625,0.18310546875,0.06103515625
4.4574999,0.811634361743927,-0.657806932926178,9.770736694335938,-0.213623046875,-0.06103515625,-0.274658203125
4.4624999,0.8092401623725891,-0.6733692288398743,9.75936508178711,-0.06103515625,-0.30517578125,-0.823974609375
4.4674999,0.8224082589149475,-0.6751648783683777,9.761758804321289,0.6103515625,-0.152587890625,-0.54931640625
4.4724999,0.8313865661621094,-0.6200982332229614,9.762955665588379,-1.0986328125,0.579833984375,-0.67138671875
4.477499900000001,0.8523358106613159,-0.6727706789970398,9.782708168029785,-0.06103515625,-0.3662109375,0.18310546875
4.4824999000000005,0.838569164276123,-0.628477931022644,9.761758804321289,-0.885009765625,-0.1220703125,0.946044921875
4.4874999,0.8301894664764404,-0.6506243348121643,9.762357711791992,-0.396728515625,-0.762939453125,0.335693359375
4.4924999,0.8277952671051025,-0.6823474764823914,9.7605619430542,-0.244140625,-0.732421875,0.152587890625
4.4974999,0.8182184100151062,-0.679354727268219,9.761159896850586,0.823974609375,-0.3662109375,0.396728515625
4.5024999,0.823006808757782,-0.7314286231994629,9.738415718078613,1.312255859375,0.091552734375,-0.06103515625
4.5074999,0.8307880163192749,-0.6949170231819153,9.739612579345703,0.30517578125,-0.030517578125,-1.52587890625
4.5124999,0.8475474119186401,-0.6721721291542053,9.777320861816406,0.274658203125,0.823974609375,-1.312255859375
4.5174999,0.8403648138046265,-0.6272808313369751,9.728838920593262,-0.30517578125,0.885009765625,-0.79345703125
4.522499900000001,0.8517372608184814,-0.619499683380127,9.77791976928711,-1.495361328125,0.244140625,0.030517578125
4.5274999000000005,0.7829039692878723,-0.6189011335372925,9.779715538024902,-1.190185546875,-1.617431640625,1.068115234375
4.5324999,0.7637503147125244,-0.6769605278968811,9.810839653015137,0.396728515625,-0.946044921875,0.030517578125
4.5374999,0.7823054194450378,-0.7086837291717529,9.7791166305542,1.678466796875,-0.54931640625,0.396728515625
4.5424999,0.8242039084434509,-0.7799112200737,9.75278091430664,1.068115234375,-0.213623046875,-1.708984375
4.5474999,0.8954314589500427,-0.7679402232170105,9.746794700622559,0.79345703125,1.434326171875,-2.655029296875
4.5524999,0.9026140570640564,-0.689530074596405,9.715071678161621,-0.79345703125,1.678466796875,-1.251220703125
4.5574999,0.8990227580070496,-0.5949591398239136,9.801861763000488,-1.28173828125,0.67138671875,2.25830078125
4.562499900000001,0.8074445128440857,-0.5273229479789734,9.770736694335938,-1.8310546875,-1.40380859375,2.9296875
4.5674999000000005,0.7625532150268555,-0.5620388388633728,9.864110946655273,-0.213623046875,-2.197265625,0.640869140625
4.5724999,0.707486629486084,-0.6476315855979919,9.777320861816406,1.89208984375,-1.220703125,-0.274658203125
4.5774999,0.8056488633155823,-0.751779317855835,9.80904483795166,1.007080078125,-0.579833984375,-2.532958984375
4.5824999,0.862511157989502,-0.7811083197593689,9.718064308166504,0.91552734375,1.861572265625,-3.7841796875
4.5874999,0.9068039059638977,-0.6404489278793335,9.758167266845703,-0.885009765625,0.67138671875,5.126953125
4.5924999,0.823006808757782,-0.6105214357376099,9.808445930480957,-0.91552734375,-2.0751953125,4.0283203125
4.5974999,0.707486629486084,-0.6476315855979919,9.806650161743164,1.77001953125,-1.556396484375,-0.3662109375
4.602499900000001,0.7170634269714355,-0.7140706777572632,9.77791976928711,0.823974609375,-1.0986328125,-4.425048828125
4.6074999000000005,0.7625532150268555,-0.7416039705276489,9.709685325622559,-0.06103515625,1.312255859375,-5.096435546875
4.6124999,0.889445960521698,-0.706289529800415,9.727641105651855,-1.556396484375,2.44140625,0.274658203125
4.6174999,0.900818407535553,-0.6530185341835022,9.747992515563965,-0.335693359375,0.1220703125,7.354736328125
4.6224999,0.8433575630187988,-0.6236895322799683,9.838373184204102,0.762939453125,-1.617431640625,5.0048828125
4.6274999,0.7499836683273315,-0.6637924313545227,9.792284965515137,2.13623046875,-1.068115234375,-2.685546875
4.6324999,0.7439981698989868,-0.6883329749107361,9.761159896850586,-0.42724609375,0.1220703125,-7.75146484375
4.6374999,0.7924807667732239,-0.6943184733390808,9.685144424438477,-2.655029296875,2.197265625,-4.486083984375
4.6424999,0.8954314589500427,-0.6751648783683777,9.79288387298584,3.631591796875,-2.410888671875,12.664794921875
4.647499900000001,0.8277952671051025,-0.7170634269714355,9.86231517791748,3.387451171875,-1.40380859375,-0.274658203125
4.6524999000000005,0.7936778664588928,-0.6637924313545227,9.807847023010254,-2.62451171875,0.518798828125,-13.397216796875
4.6574999,0.8026561141014099,-0.6787561774253845,9.724648475646973,-6.195068359375,2.5634765625,-6.8359375
4.6624999,0.8690952062606812,-0.6631938815116882,9.729436874389648,1.89208984375,0.335693359375,12.237548828125
4.6674999,0.8451532125473022,-0.657806932926178,9.767146110534668,6.317138671875,-2.532958984375,13.275146484375
4.6724999,0.7948749661445618,-0.6919242739677429,9.716269493103027,-3.0517578125,2.227783203125,1.983642578125
4.6774999,0.7948749661445618,-0.6919242739677429,9.716269493103027,-3.0517578125,2.227783203125,1.983642578125
4.6824999,0.8134300112724304,-0.6859387755393982,9.749788284301758,7.75146484375,-1.89208984375,18.341064453125
4.687499900000001,0.8008604645729065,-0.6973112225532532,9.768342971801758,4.2724609375,-1.861572265625,3.875732421875
4.6924999000000005,0.7948749661445618,-0.657806932926178,9.794678688049316,-6.40869140625,0.79345703125,-17.791748046875
4.6974999,0.7990648150444031,-0.6434416770935059,9.72285270690918,-6.988525390625,2.3193359375,-6.9580078125
4.7024999,0.8182184100151062,-0.6476315855979919,9.731232643127441,7.62939453125,-1.556396484375,17.08984375
4.7074999,0.8349778652191162,-0.6721721291542053,9.750386238098145,6.2255859375,-2.593994140625,10.101318359375
4.7124999,0.8248024582862854,-0.6685808300971985,9.776124000549316,-6.28662109375,0.8544921875,-16.05224609375
4.7174999,0.8236053586006165,-0.679354727268219,9.746794700622559,-8.11767578125,2.899169921875,-10.101318359375
4.7224999,0.823006808757782,-0.679354727268219,9.761758804321289,6.744384765625,-2.99072265625,10.6201171875
4.727499900000001,0.823006808757782,-0.679354727268219,9.761758804321289,6.744384765625,-2.99072265625,10.6201171875
4.7324999000000005,0.7775170207023621,-0.7110779285430908,9.797672271728516,10.6201171875,-1.5869140625,17.730712890625
4.7374999,0.8152256608009338,-0.7056909799575806,9.777320861816406,4.547119140625,-2.8076171875,6.683349609375
4.7424999,0.8032546639442444,-0.6763619780540466,9.719860076904297,-11.29150390625,2.105712890625,-18.5546875
4.7474999,0.8206126093864441,-0.667982280254364,9.771934509277344,-2.13623046875,2.166748046875,-2.13623046875
4.7524999,0.8026561141014099,-0.6673837304115295,9.766547203063965,12.359619140625,-2.74658203125,18.73779296875
4.7574999,0.8134300112724304,-0.629675030708313,9.707889556884766,-1.617431640625,-1.434326171875,-2.8076171875
4.7624999,0.8325836658477783,-0.6799532771110535,9.740211486816406,-12.420654296875,3.11279296875,-17.181396484375
4.7674999,0.8242039084434509,-0.6775590777397156,9.82640266418457,6.89697265625,0.54931640625,8.758544921875
4.772499900000001,0.8242039084434509,-0.6422445774078369,9.748590469360352,9.21630859375,-3.35693359375,13.763427734375
4.7774999000000005,0.8535329103469849,-0.6446388363838196,9.718663215637207,-10.345458984375,0.91552734375,-14.068603515625
4.7824999,0.8307880163192749,-0.7128735780715942,9.77791976928711,-5.37109375,3.082275390625,-7.171630859375
4.7874999,0.8140285611152649,-0.6434416770935059,9.703699111938477,-1.434326171875,-1.708984375,-1.068115234375
4.7924999,0.821809709072113,-0.7128735780715942,9.724648475646973,-13.5498046875,3.143310546875,-15.93017578125
4.7974999,0.7936778664588928,-0.6877344250679016,9.847352027893066,9.979248046875,0.3662109375,9.613037109375
4.8024999,0.7954735159873962,-0.6111199855804443,9.700108528137207,7.6904296875,-3.173828125,10.07080078125
4.8074999,0.8152256608009338,-0.608127236366272,9.658209800720215,-15.167236328125,1.434326171875,-15.5029296875
4.812499900000001,0.8074445128440857,-0.6739677786827087,9.821614265441895,1.678466796875,2.105712890625,-0.244140625
4.8174999000000005,0.8271966576576233,-0.6224924325942993,9.794678688049316,14.556884765625,-2.838134765625,14.923095703125
4.8224999,0.8565256595611572,-0.6165069341659546,9.712677955627441,-11.5966796875,-0.030517578125,-9.918212890625
4.8274999,0.8541314601898193,-0.7463923692703247,9.862914085388184,-6.8359375,2.777099609375,-7.32421875
4.8324999,0.861314058303833,-0.7481880187988281,9.926360130310059,17.425537109375,-1.861572265625,14.6484375
4.8374999,0.8379706144332886,-0.6440402865409851,9.725846290588379,-6.2255859375,-1.068115234375,-4.058837890625
4.8424999,0.8415619134902954,-0.7715315222740173,9.801861763000488,-13.0615234375,2.3193359375,-10.894775390625
4.8474999,0.7990648150444031,-0.5871779918670654,9.653421401977539,-1.190185546875,-1.28173828125,0
4.852499900000001,0.8224082589149475,-0.6853402256965637,9.684545516967773,-17.4560546875,1.861572265625,-11.749267578125
4.8574999000000005,0.7966706156730652,-0.6829460263252258,9.870695114135742,17.08984375,-0.18310546875,10.223388671875
4.8624999,0.821809709072113,-0.5554547905921936,9.651625633239746,2.9296875,-1.251220703125,1.77001953125
4.8674999,0.8176198601722717,-0.657806932926178,9.68574333190918,-20.3857421875,1.15966796875,-11.322021484375
4.8724999,0.7954735159873962,-0.7050924301147461,9.917980194091797,16.693115234375,-0.1220703125,9.09423828125
4.8774999,0.8086416125297546,-0.586579442024231,9.678560256958008,5.401611328125,-0.732421875,1.77001953125
4.8824999,0.8026561141014099,-0.6901286244392395,9.677363395690918,-22.27783203125,0.67138671875,-10.223388671875
4.8874999,0.7966706156730652,-0.7344213724136353,9.923966407775879,17.2119140625,-0.244140625,8.97216796875
4.8924999,0.8349778652191162,-0.6051344871520996,9.637859344482422,5.523681640625,0.06103515625,0.1220703125
4.897499900000001,0.8068459630012512,-0.6817489266395569,9.690531730651855,-23.468017578125,0.518798828125,-8.636474609375
4.9024999000000005,0.8433575630187988,-0.7416039705276489,9.925163269042969,19.683837890625,-0.762939453125,9.674072265625
4.9074999,0.8068459630012512,-0.729034423828125,9.803058624267578,-19.59228515625,-0.396728515625,-2.838134765625
4.9124999,0.8325836658477783,-0.7116764783859253,9.923966407775879,26.55029296875,-1.373291015625,9.124755859375
4.9174999,0.8164227604866028,-0.557250440120697,9.579200744628906,-12.14599609375,2.0751953125,-8.60595703125
4.9224999,0.7751228213310242,-0.645237386226654,9.830592155456543,-11.474609375,-1.03759765625,2.044677734375
4.9274999,0.849941611289978,-0.6266822814941406,9.831789016723633,26.885986328125,-1.220703125,5.859375
4.9324999,0.8098387122154236,-0.5524620413780212,9.61571216583252,-21.91162109375,2.197265625,-9.796142578125
4.937499900000001,0.8313865661621094,-0.7428010702133179,9.952696800231934,1.5869140625,-1.8310546875,6.77490234375
4.9424999000000005,0.8702923059463501,-0.6751648783683777,9.758167266845703,19.500732421875,0.274658203125,0.1220703125
4.9474999,0.8170213103294373,-0.6637924313545227,9.634865760803223,-27.435302734375,1.861572265625,-7.171630859375
4.9524999,0.8271966576576233,-0.6248866319656372,9.568427085876465,3.692626953125,1.8310546875,-6.34765625
4.9574999,0.7643488645553589,-0.6667851805686951,9.718064308166504,-21.820068359375,0.457763671875,-0.823974609375
4.9624999,0.8427590131759644,-0.6637924313545227,9.785101890563965,20.6298828125,-1.068115234375,-0.701904296875
4.9674999,0.8152256608009338,-0.6200982332229614,9.686341285705566,-26.85546875,2.86865234375,-5.92041015625
4.9724999,0.8337807655334473,-0.718859076499939,9.948506355285645,18.829345703125,-3.72314453125,8.880615234375
4.977499900000001,0.8289923667907715,-0.6015431880950928,9.560047149658203,-1.922607421875,1.922607421875,-8.11767578125
4.9824999000000005,0.7936778664588928,-0.6685808300971985,9.84376049041748,-15.56396484375,0.48828125,2.99072265625
4.9874999,0.8259995579719543,-0.6925228238105774,9.839570045471191,25.543212890625,-3.082275390625,2.532958984375
4.9924999,0.8038532137870789,-0.6075286865234375,9.59835433959961,-23.5595703125,3.60107421875,-7.781982421875
4.9974999,0.8457517623901367,-0.6344634294509888,9.586383819580078,5.157470703125,0.640869140625,-6.866455078125
5.0024999,0.8194155097007751,-0.6685808300971985,9.801861763000488,-19.195556640625,1.708984375,1.617431640625
5.0074999,0.8619126081466675,-0.6937199234962463,9.852738380432129,25.299072265625,-3.875732421875,3.387451171875
5.0124999,0.8158242106437683,-0.5907692909240723,9.543886184692383,-21.697998046875,3.72314453125,-7.75146484375
5.0174999,0.8403648138046265,-0.7080851793289185,9.978434562683105,9.82666015625,-2.716064453125,8.60595703125
5.022499900000001,0.8367735147476196,-0.6129156351089478,9.570222854614258,4.852294921875,0.274658203125,-7.110595703125
5.0274999000000005,0.8224082589149475,-0.6404489278793335,9.837775230407715,-17.852783203125,1.922607421875,2.74658203125
5.0324999,0.8463503122329712,-0.7032967209815979,9.808445930480957,24.139404296875,-3.997802734375,1.922607421875
5.0374999,0.8140285611152649,-0.6075286865234375,9.595361709594727,-22.796630859375,3.875732421875,-6.439208984375
5.0424999,0.8942343592643738,-0.6607996821403503,9.95329475402832,2.50244140625,-0.823974609375,7.904052734375
5.0474999,0.882861852645874,-0.6350619792938232,9.593565940856934,8.60595703125,-1.46484375,-6.591796875
5.0524999,0.8643068075180054,-0.6440402865409851,9.844358444213867,-17.059326171875,2.838134765625,2.86865234375
5.0574999,0.8643068075180054,-0.7398083209991455,9.82879638671875,22.27783203125,-4.21142578125,0.457763671875
5.062499900000001,0.8098387122154236,-0.6512228846549988,9.657012939453125,-22.369384765625,4.21142578125,-4.2724609375
5.0674999000000005,0.8529343605041504,-0.7487865686416626,9.977835655212402,18.06640625,-3.60107421875,6.53076171875
5.0724999,0.8062474131584167,-0.6344634294509888,9.530119895935059,-10.55908203125,1.861572265625,-8.453369140625
5.0774999,0.8403648138046265,-0.6685808300971985,9.96945571899414,1.64794921875,-0.274658203125,7.720947265625
5.0824999,0.8122329115867615,-0.6458359360694885,9.566631317138672,7.50732421875,-1.678466796875,-6.988525390625
5.0874999,0.8379706144332886,-0.7362170219421387,9.77672290802002,19.8974609375,-4.486083984375,-1.220703125
5.0924999,0.7930793166160583,-0.6560112833976746,9.668983459472656,-21.78955078125,4.150390625,-2.044677734375
5.0974999,0.8798691034317017,-0.7445967197418213,9.932345390319824,20.477294921875,-4.08935546875,4.57763671875
5.102499900000001,0.8032546639442444,-0.6506243348121643,9.498994827270508,-16.204833984375,2.716064453125,-6.8359375
5.1074999000000005,0.8661024570465088,-0.7015010714530945,10.02571964263916,10.223388671875,-1.52587890625,7.843017578125
5.1124999,0.8409633636474609,-0.6362590789794922,9.510367393493652,-3.082275390625,-0.396728515625,-8.331298828125
5.1174999,0.8493430614471436,-0.6554127335548401,10.002376556396484,-3.936767578125,1.708984375,7.232666015625
5.1224999,0.8517372608184814,-0.6613982319831848,9.610325813293457,10.589599609375,-3.0517578125,-6.195068359375
5.1274999,0.8403648138046265,-0.6033388376235962,9.825803756713867,-15.869140625,3.72314453125,3.41796875
5.1324999,0.8523358106613159,-0.7038952708244324,9.752182006835938,19.195556640625,-4.180908203125,-1.46484375
5.1374999,0.800261914730072,-0.6440402865409851,9.723451614379883,-20.538330078125,3.72314453125,-1.251220703125
5.1424999,0.8475474119186401,-0.7320271730422974,9.891045570373535,20.172119140625,-3.814697265625,3.173828125
5.147499900000001,0.8445546627044678,-0.6973112225532532,9.961674690246582,14.312744140625,-1.800537109375,6.53076171875
5.1524999000000005,0.7984662652015686,-0.6206967830657959,9.497200012207031,-10.162353515625,0.457763671875,-7.9345703125
5.1574999,0.8307880163192749,-0.6805518269538879,10.02811336517334,5.035400390625,0.457763671875,7.781982421875
5.1624999,0.8254010081291199,-0.6542156338691711,9.547477722167969,0,-1.52587890625,-8.23974609375
5.1674999,0.8265981078147888,-0.657806932926178,9.985616683959961,-4.852294921875,2.044677734375,7.01904296875
5.1724999,0.8373720645904541,-0.702099621295929,9.632472038269043,9.246826171875,-2.655029296875,-6.256103515625
5.1774999,0.8248024582862854,-0.6135141849517822,9.862914085388184,-12.87841796875,2.838134765625,4.82177734375
5.1824999,0.8391677141189575,-0.7218518257141113,9.727043151855469,15.93017578125,-3.35693359375,-3.509521484375
5.187499900000001,0.811634361743927,-0.6314706802368164,9.787496566772461,-17.852783203125,3.173828125,1.556396484375
5.1924999000000005,0.8421604633331299,-0.7613561153411865,9.82759952545166,19.012451171875,-3.0517578125,-0.335693359375
5.1974999,0.7996633648872375,-0.6931213736534119,9.759963035583496,-19.10400390625,2.655029296875,-1.739501953125
5.2024999,0.8672995567321777,-0.6093243360519409,9.920374870300293,12.75634765625,-0.1220703125,4.913330078125
5.2074999,0.7894880175590515,-0.6931213736534119,9.439140319824219,-10.223388671875,0.213623046875,-5.889892578125
5.2124999,0.8900445103645325,-0.6488286852836609,10.037690162658691,6.988525390625,-0.48828125,8.819580078125
5.2174999,0.8224082589149475,-0.7841010689735413,9.553462982177734,-4.730224609375,-0.244140625,-8.48388671875
5.2224999,0.8619126081466675,-0.6769605278968811,10.087369918823242,2.9296875,0.701904296875,6.16455078125
5.227499900000001,0.8206126093864441,-0.767341673374176,9.566033363342285,-1.617431640625,-1.373291015625,-7.75146484375
5.2324999000000005,0.8409633636474609,-0.6386532783508301,9.992799758911133,0.091552734375,1.434326171875,7.62939453125
5.2374999,0.8236053586006165,-0.7212532758712769,9.524134635925293,2.593994140625,-1.52587890625,-6.866455078125
5.2424999,0.8236053586006165,-0.7212532758712769,9.524134635925293,2.593994140625,-1.52587890625,-6.866455078125
5.2474999,0.8361749649047852,-0.5829881429672241,9.911396026611328,-4.180908203125,1.556396484375,6.439208984375
5.2524999,0.8445546627044678,-0.6925228238105774,9.575610160827637,8.209228515625,-2.044677734375,-5.523681640625
5.2574999,0.8265981078147888,-0.5560533404350281,9.897629737854004,-9.1552734375,2.044677734375,5.126953125
5.2624999,0.8277952671051025,-0.729034423828125,9.680954933166504,10.040283203125,-2.105712890625,-5.279541015625
5.2674999,0.8098387122154236,-0.5841852426528931,9.913191795349121,-10.68115234375,1.983642578125,4.119873046875
5.272499900000001,0.8164227604866028,-0.7751228213310242,9.722254753112793,11.383056640625,-2.349853515625,-4.547119140625
5.2774999000000005,0.8200140595436096,-0.6021417379379272,9.881468772888184,-11.444091796875,1.861572265625,3.814697265625
5.2824999,0.8433575630187988,-0.5859808921813965,9.830592155456543,-11.962890625,2.166748046875,3.23486328125
