# Time (seconds),Accel_X,Accel_Y,Accel_Z,Gyro_X,Gyro_Y,Gyro_Z
0.0024999,0.9546879529953003,-0.4387374520301819,9.752182006835938,3.875732421875,0.091552734375,-1.312255859375
0.0074999,0.9367313981056213,-0.4189853072166443,9.91738224029541,0.885009765625,-0.42724609375,1.46484375
0.012499900000000001,0.9187749028205872,-0.4231751561164856,9.741408348083496,-4.39453125,-0.1220703125,-0.762939453125
0.0174999,0.9343371987342834,-0.46507367491722107,9.712079048156738,2.8076171875,0.06103515625,-1.40380859375
0.0224999,0.9127894043922424,-0.4321534037590027,9.858125686645508,1.739501953125,-0.152587890625,1.64794921875
0.0274999,0.9217676520347595,-0.47584760189056396,9.68155288696289,2.044677734375,0.30517578125,-1.708984375
0.0324999,0.9151836037635803,-0.4531026780605316,9.789292335510254,2.838134765625,-0.06103515625,1.3427734375
0.0374999,0.9169792532920837,-0.44771572947502136,9.704896926879883,-4.638671875,-0.1220703125,-0.1220703125
0.0424999,0.9283517003059387,-0.4471171796321869,9.694721221923828,1.5869140625,0.274658203125,-1.89208984375
0.0474999,0.9558850526809692,-0.43514615297317505,9.847949981689453,3.11279296875,-0.244140625,1.068115234375
0.0524999,0.9229647517204285,-0.4076128304004669,9.821614265441895,-4.425048828125,-0.3662109375,0.335693359375
0.0574999,0.9319429993629456,-0.43335050344467163,9.73542308807373,0.79345703125,0.1220703125,-1.861572265625
0.0624999,0.9510966539382935,-0.42018240690231323,9.895236015319824,3.72314453125,0,0.79345703125
0.0674999,0.9510966539382935,-0.42018240690231323,9.895236015319824,3.72314453125,0,0.79345703125
0.0724999,0.9044097065925598,-0.39803603291511536,9.812037467956543,-3.96728515625,-0.18310546875,0.54931640625
0.0774999,0.9552865028381348,-0.4405331015586853,9.684545516967773,-0.213623046875,0.457763671875,-1.922607421875
0.0824999,0.9540894031524658,-0.4231751561164856,9.808445930480957,4.119873046875,-0.274658203125,0.640869140625
0.0874999,0.9894038438796997,-0.4776432514190674,9.671976089477539,-0.91552734375,0.06103515625,-1.922607421875
0.0924999,0.9552865028381348,-0.4602852761745453,9.77013874053955,4.69970703125,-0.1220703125,0.213623046875
0.0974999,0.9409212470054626,-0.4405331015586853,9.835380554199219,-3.2958984375,-0.457763671875,0.91552734375
0.1024999,0.9906009435653687,-0.4638765752315521,9.707889556884766,-2.01416015625,0.457763671875,-2.01416015625
0.1074999,0.9421183466911316,-0.4279635548591614,9.817423820495605,4.5166015625,0.48828125,-0.091552734375
0.1124999,0.9241618514060974,-0.3932476341724396,9.856928825378418,-2.50244140625,-0.457763671875,1.251220703125
0.1174999,0.9493009448051453,-0.4082113802433014,9.688735961914062,-2.227783203125,0.030517578125,-1.8310546875
0.1224999,0.9235633015632629,-0.4124012291431427,9.786299705505371,4.638671875,0.18310546875,-0.3662109375
0.1274999,0.9139865040779114,-0.36810851097106934,9.837775230407715,-1.52587890625,-0.274658203125,1.495361328125
0.1324999,0.9229647517204285,-0.4058171808719635,9.66299819946289,-3.23486328125,0.06103515625,-1.617431640625
0.1374999,0.933738648891449,-0.42377370595932007,9.767146110534668,4.058837890625,0.396728515625,-0.579833984375
0.1424999,0.8834604024887085,-0.3645172119140625,9.800664901733398,-0.885009765625,-0.213623046875,1.312255859375
0.1474999,0.8912416100502014,-0.4357447028160095,9.818621635437012,-0.06103515625,-0.274658203125,1.312255859375
0.1524999,0.9331400990486145,-0.4596867263317108,9.739013671875,-4.302978515625,0.06103515625,-1.129150390625
0.1574999,0.9582792520523071,-0.45429977774620056,9.75278091430664,3.84521484375,0.3662109375,-1.007080078125
0.1624999,0.9421183466911316,-0.42437225580215454,9.9401273727417,0.762939453125,-0.152587890625,1.434326171875
0.1674999,0.9397241473197937,-0.4279635548591614,9.767146110534668,-4.5166015625,-0.030517578125,-0.823974609375
0.1724999,0.9421183466911316,-0.45669397711753845,9.758766174316406,3.448486328125,0.091552734375,-1.28173828125
0.17749990000000002,0.922366201877594,-0.42197805643081665,9.901819229125977,1.64794921875,-0.213623046875,1.3427734375
0.1824999,0.8816647529602051,-0.43933600187301636,9.693524360656738,-4.608154296875,-0.213623046875,-0.42724609375
0.1874999,0.9103952050209045,-0.47405192255973816,9.695320129394531,2.593994140625,0.48828125,-1.617431640625
0.1924999,0.8972271084785461,-0.4291606545448303,9.810839653015137,2.13623046875,-0.152587890625,1.220703125
0.1974999,0.900818407535553,-0.4471171796321869,9.700108528137207,-4.7607421875,-0.335693359375,-0.335693359375
0.2024999,0.9498994946479797,-0.44532153010368347,9.840168952941895,2.86865234375,-0.213623046875,1.15966796875
0.20749990000000001,0.9379284977912903,-0.4411316514015198,9.795876502990723,-4.486083984375,-0.274658203125,0
0.2124999,0.9373299479484558,-0.45010992884635925,9.731232643127441,0.91552734375,0.457763671875,-1.678466796875
0.2174999,0.9672574996948242,-0.42437225580215454,9.894038200378418,3.72314453125,-0.030517578125,0.946044921875
0.2224999,0.9241618514060974,-0.4040215313434601,9.836577415466309,-4.486083984375,-0.335693359375,0.244140625
0.2274999,0.9445125460624695,-0.4405331015586853,9.715071678161621,0.213623046875,0.152587890625,-1.983642578125
0.2324999,0.9594763517379761,-0.42616790533065796,9.852738380432129,3.96728515625,0,0.823974609375
0.2374999,0.9145850539207458,-0.40880993008613586,9.77672290802002,-3.875732421875,-0.030517578125,0.54931640625
0.2424999,0.9594763517379761,-0.4686649739742279,9.646238327026367,-0.640869140625,0.54931640625,-2.13623046875
0.2474999,0.9534908533096313,-0.4207809567451477,9.750386238098145,4.5166015625,-0.152587890625,0.48828125
0.2524999,0.9271546006202698,-0.41359832882881165,9.753378868103027,-3.35693359375,-0.335693359375,0.9765625
0.2574999,0.993593692779541,-0.46088382601737976,9.64683723449707,-1.495361328125,0.091552734375,-1.983642578125
0.2624999,0.9864110946655273,-0.4225766062736511,9.703699111938477,-1.983642578125,0.152587890625,-1.800537109375
0.2674999,0.9445125460624695,-0.395043283700943,9.820416450500488,4.486083984375,-0.152587890625,-0.213623046875
0.2724999,0.9235633015632629,-0.36810851097106934,9.844358444213867,-2.0751953125,-0.18310546875,1.434326171875
0.2774999,0.933738648891449,-0.3944447338581085,9.673771858215332,-2.899169921875,0.091552734375,-1.52587890625
0.2824999,0.922366201877594,-0.4159925580024719,9.756970405578613,4.425048828125,0.42724609375,-0.518798828125
0.28749990000000003,0.8978256583213806,-0.3728969097137451,9.792284965515137,-1.495361328125,-0.30517578125,1.190185546875
0.2924999,0.899621307849884,-0.4423287510871887,9.62828254699707,-3.387451171875,-0.030517578125,-1.5869140625
0.2974999,0.9295487999916077,-0.46507367491722107,9.723451614379883,4.08935546875,0.274658203125,-0.48828125
0.3024999,0.871489405632019,-0.4207809567451477,9.79288387298584,-0.640869140625,-0.274658203125,1.40380859375
0.3074999,0.9038111567497253,-0.4985924959182739,9.693524360656738,-4.0283203125,0.18310546875,-1.52587890625
0.3124999,0.9397241473197937,-0.46627077460289,9.751583099365234,4.364013671875,0,-1.007080078125
0.3174999,0.9457096457481384,-0.4471171796321869,9.762955665588379,-4.2724609375,0,-1.220703125
0.3224999,0.9648633003234863,-0.44352585077285767,9.756970405578613,3.5400390625,0.54931640625,-1.28173828125
0.3274999,0.9481038451194763,-0.4124012291431427,9.913790702819824,1.251220703125,-0.1220703125,1.556396484375
0.3324999,0.9307458996772766,-0.42437225580215454,9.718663215637207,-4.608154296875,-0.030517578125,-0.6103515625
0.3374999,0.9409212470054626,-0.456095427274704,9.696516990661621,3.23486328125,0.30517578125,-1.40380859375
0.3424999,0.9133879542350769,-0.4207809567451477,9.835380554199219,1.739501953125,-0.091552734375,1.28173828125
0.34749990000000003,0.8834604024887085,-0.43694180250167847,9.656414031982422,-4.669189453125,-0.152587890625,-0.30517578125
0.35249990000000003,0.9038111567497253,-0.4602852761745453,9.674968719482422,2.62451171875,0.457763671875,-1.434326171875
0.3574999,0.8960300087928772,-0.40880993008613586,9.79527759552002,2.5634765625,-0.396728515625,1.03759765625
0.3624999,0.9044097065925598,-0.4297592043876648,9.713275909423828,-4.547119140625,-0.152587890625,-0.274658203125
0.3674999,0.9181763529777527,-0.4297592043876648,9.707290649414062,1.495361328125,0.518798828125,-1.77001953125
0.3724999,0.9493009448051453,-0.4315548539161682,9.852140426635742,3.204345703125,-0.030517578125,1.190185546875
0.3774999,0.9307458996772766,-0.43754035234451294,9.716867446899414,0.885009765625,0.335693359375,-1.983642578125
0.3824999,0.9510966539382935,-0.4076128304004669,9.868300437927246,3.72314453125,0.18310546875,1.007080078125
0.3874999,0.8990227580070496,-0.3902548849582672,9.7791166305542,-4.45556640625,0,0.54931640625
0.3924999,0.9313444495201111,-0.4207809567451477,9.642647743225098,0.1220703125,0.48828125,-1.89208984375
0.3974999,0.9331400990486145,-0.40880993008613586,9.769539833068848,4.302978515625,-0.335693359375,0.6103515625
0.4024999,0.900818407535553,-0.4010287821292877,9.704896926879883,-3.72314453125,-0.518798828125,0.762939453125
0.4074999,0.9672574996948242,-0.45908817648887634,9.613917350769043,-0.762939453125,0.244140625,-2.0751953125
0.41249990000000003,0.9421183466911316,-0.424970805644989,9.719860076904297,4.45556640625,0.213623046875,0.335693359375
0.41749990000000003,0.9397241473197937,-0.4213795065879822,9.780912399291992,-3.2958984375,-0.18310546875,0.8544921875
0.4224999,0.993593692779541,-0.46327802538871765,9.674370765686035,-1.46484375,-0.091552734375,-1.922607421875
0.4274999,0.9457096457481384,-0.4291606545448303,9.79647445678711,4.69970703125,0.274658203125,0.30517578125
0.4324999,0.9253589510917664,-0.41718965768814087,9.85034465789795,-2.655029296875,-0.091552734375,1.007080078125
0.4374999,0.9127894043922424,-0.4213795065879822,9.797672271728516,4.852294921875,-0.1220703125,-0.030517578125
0.4424999,0.9038111567497253,-0.38127660751342773,9.820416450500488,-2.0751953125,-0.396728515625,1.220703125
0.4474999,0.921169102191925,-0.4124012291431427,9.64923095703125,-3.143310546875,-0.091552734375,-1.77001953125
0.4524999,0.9247604012489319,-0.4255693554878235,9.719860076904297,4.5166015625,0.1220703125,-0.457763671875
0.4574999,0.8960300087928772,-0.38307225704193115,9.761159896850586,-1.007080078125,-0.48828125,1.46484375
0.4624999,0.9044097065925598,-0.46627077460289,9.606135368347168,-3.509521484375,0,-1.5869140625
0.4674999,0.9391255974769592,-0.4686649739742279,9.706692695617676,4.241943359375,0.274658203125,-0.8544921875
0.47249990000000003,0.8846575021743774,-0.43993455171585083,9.798270225524902,-0.48828125,-0.18310546875,1.617431640625
0.47749990000000003,0.9127894043922424,-0.49559974670410156,9.710882186889648,-3.936767578125,0.213623046875,-1.15966796875
0.4824999,0.910993754863739,-0.4381389021873474,9.901819229125977,0.30517578125,-0.457763671875,1.495361328125
0.4874999,0.9534908533096313,-0.4225766062736511,9.766547203063965,3.570556640625,0.091552734375,-1.190185546875
0.4924999,0.9421183466911316,-0.4016273319721222,9.921571731567383,1.068115234375,-0.3662109375,1.3427734375
0.4974999,0.9187749028205872,-0.41539400815963745,9.738415718078613,-4.608154296875,-0.335693359375,-0.579833984375
0.5024999,0.9385270476341248,-0.46806642413139343,9.716867446899414,2.899169921875,0.579833984375,-1.495361328125
0.5074999,0.9229647517204285,-0.43514615297317505,9.8599214553833,2.01416015625,-0.244140625,1.312255859375
0.5124999,0.9145850539207458,-0.46327802538871765,9.687539100646973,-4.69970703125,0.091552734375,-0.42724609375
0.5174999,0.9481038451194763,-0.4836287498474121,9.70310115814209,2.25830078125,0.244140625,-1.708984375
0.5224999,0.9481038451194763,-0.4465186297893524,9.815030097961426,2.3193359375,0.18310546875,1.220703125
0.5274999,0.9397241473197937,-0.4423287510871887,9.729436874389648,-4.45556640625,-0.06103515625,-0.152587890625
0.5324999,0.9403226971626282,-0.4423287510871887,9.704896926879883,1.46484375,-0.152587890625,-1.861572265625
0.5374999,0.9534908533096313,-0.42377370595932007,9.8599214553833,2.99072265625,-0.3662109375,1.068115234375
0.5424999,0.9247604012489319,-0.40521863102912903,9.822212219238281,-4.425048828125,-0.42724609375,0.244140625
0.5474999,0.9522937536239624,-0.4207809567451477,9.88625717163086,3.72314453125,-0.244140625,0.885009765625
0.5524999,0.9133879542350769,-0.3908534348011017,9.806650161743164,-4.119873046875,-0.152587890625,0.3662109375
0.5574999,0.9528923034667969,-0.4411316514015198,9.667786598205566,-0.18310546875,0.54931640625,-1.953125
0.5624999,0.9510966539382935,-0.42676645517349243,9.800065994262695,4.425048828125,0.244140625,0.54931640625
0.5674999000000001,0.9265560507774353,-0.42377370595932007,9.73781681060791,-3.692626953125,-0.274658203125,0.701904296875
0.5724999000000001,0.9726444482803345,-0.4818331003189087,9.640253067016602,-0.732421875,0.18310546875,-2.01416015625
0.5774999000000001,0.9457096457481384,-0.45489832758903503,9.745597839355469,4.0283203125,0.244140625,0.457763671875
0.5824999,0.9295487999916077,-0.43933600187301636,9.785101890563965,-3.143310546875,-0.3662109375,0.91552734375
0.5874999,0.9858125448226929,-0.4812345504760742,9.68274974822998,-1.373291015625,0,-1.89208984375
0.5924999,0.9355342984199524,-0.43514615297317505,9.790489196777344,4.913330078125,-0.06103515625,0.152587890625
0.5974999,0.9157821536064148,-0.40880993008613586,9.824007987976074,-2.685546875,-0.457763671875,0.9765625
0.6024999,0.9552865028381348,-0.4255693554878235,9.683348655700684,-2.44140625,0.030517578125,-1.861572265625
0.6074999,0.9229647517204285,-0.42377370595932007,9.68155288696289,-2.899169921875,0.30517578125,-1.800537109375
0.6124999,0.9235633015632629,-0.4291606545448303,9.768342971801758,4.7607421875,0.030517578125,-0.518798828125
0.6174999,0.8936358094215393,-0.37469255924224854,9.806051254272461,-1.373291015625,-0.6103515625,1.3427734375
0.6224999,0.8966285586357117,-0.44831427931785583,9.648633003234863,-3.387451171875,-0.06103515625,-1.46484375
0.6274999,0.9295487999916077,-0.4537012279033661,9.733028411865234,4.5166015625,0.244140625,-0.762939453125
0.6324999,0.8732850551605225,-0.4339490532875061,9.802460670471191,-0.42724609375,-0.335693359375,1.40380859375
0.6374999,0.9050082564353943,-0.49320554733276367,9.684545516967773,-3.814697265625,-0.213623046875,-1.28173828125
0.6424999,0.943913996219635,-0.46148237586021423,9.736021041870117,3.90625,0.335693359375,-0.762939453125
0.6474999,0.9175778031349182,-0.43754035234451294,9.865906715393066,0.244140625,-0.274658203125,1.495361328125
0.6524999,0.950498104095459,-0.4405331015586853,9.77253246307373,-4.486083984375,-0.18310546875,-0.885009765625
0.6574999,0.970848798751831,-0.43694180250167847,9.790489196777344,3.5400390625,0.42724609375,-1.190185546875
0.6624999,0.9367313981056213,-0.424970805644989,9.766547203063965,-4.5166015625,-0.274658203125,-0.79345703125
0.6674999,0.9487023949623108,-0.4531026780605316,9.723451614379883,3.143310546875,0.396728515625,-1.190185546875
0.6724999,0.9217676520347595,-0.4129997789859772,9.847352027893066,1.739501953125,-0.457763671875,1.312255859375
0.6774999,0.8984242081642151,-0.44532153010368347,9.641449928283691,-4.791259765625,-0.152587890625,-0.579833984375
0.6824999,0.9894038438796997,-0.5069721937179565,9.576807022094727,1.861572265625,0.518798828125,0.946044921875
0.6874999,0.8481459617614746,-0.812831461429596,9.5408935546875,2.3193359375,0.67138671875,10.345458984375
0.6924999000000001,0.9151836037635803,-0.7655459642410278,9.154230117797852,0.640869140625,1.64794921875,8.85009765625
0.6974999000000001,0.5823895931243896,-1.6352397203445435,8.403648376464844,15.9912109375,2.685546875,15.533447265625
0.7024999000000001,0.3321954905986786,-1.5981296300888062,7.6315178871154785,7.4462890625,6.072998046875,52.30712890625
0.7074999,-0.545877993106842,-3.5942952632904053,5.745485305786133,-27.2216796875,5.37109375,106.048583984375
0.7124999,-1.4963760375976562,-4.4705729484558105,6.1985883712768555,39.306640625,7.232666015625,275.787353515625
0.7174999,-3.069366693496704,-5.227739334106445,4.859032154083252,190.765380859375,65.3076171875,269.622802734375
0.7224999,5.549160957336426,5.954379558563232,7.921814918518066,36.041259765625,-252.01416015625,-168.51806640625
0.7274999,5.549160957336426,5.954379558563232,7.921814918518066,36.041259765625,-252.01416015625,-168.51806640625
0.7324999,7.545925140380859,6.197989463806152,6.843226909637451,-6.7138671875,-234.55810546875,-180.511474609375
0.7374999,8.711901664733887,5.801749229431152,5.846640586853027,-6.378173828125,-174.37744140625,-173.980712890625
0.7424999,8.464699745178223,5.190030574798584,4.981136798858643,5.523681640625,-80.56640625,-151.3671875
0.7474999,7.65725564956665,4.387973308563232,4.393958568572998,8.697509765625,7.4462890625,-119.903564453125
0.7524999,4.058770656585693,3.2555158138275146,3.383605480194092,-49.74365234375,75.408935546875,-56.15234375
0.7574999,4.058770656585693,3.2555158138275146,3.383605480194092,-49.74365234375,75.408935546875,-56.15234375
0.7624999,3.202244758605957,3.5637693405151367,3.904344320297241,-92.193603515625,46.234130859375,-44.61669921875
0.7674999,2.7760767936706543,4.234145641326904,5.20978307723999,-162.53662109375,33.8134765625,-30.975341796875
0.7724999,2.6647465229034424,4.8937482833862305,6.49906063079834,-248.016357421875,45.8984375,-21.392822265625
0.7774999,2.671929121017456,5.43723201751709,7.62493371963501,-285.888671875,61.21826171875,-26.763916015625
0.7824999,2.609081268310547,5.656301498413086,8.094197273254395,-276.9775390625,90.75927734375,-45.2880859375
0.7874999,2.7982232570648193,5.218162536621094,9.230844497680664,-148.681640625,186.248779296875,-83.831787109375
0.7924999,2.8658595085144043,4.322731018066406,9.679757118225098,112.091064453125,285.888671875,-152.03857421875
0.7974999,3.117250680923462,2.672527551651001,11.085752487182617,76.690673828125,189.63623046875,-168.182373046875
0.8024999,1.9536685943603516,-0.7224503755569458,10.955268859863281,-0.396728515625,-28.38134765625,-79.376220703125
0.8074999,1.9536685943603516,-0.7224503755569458,10.955268859863281,-0.396728515625,-28.38134765625,-79.376220703125
0.8124999,-0.5422866940498352,-2.145204782485962,9.576807022094727,-9.27734375,-22.52197265625,-7.568359375
0.8174999000000001,-1.3293805122375488,-2.2158336639404297,9.266159057617188,-15.80810546875,-25.32958984375,19.256591796875
0.8224999000000001,-1.6077064275741577,-2.169146776199341,9.391854286193848,-6.40869140625,-27.52685546875,33.721923828125
0.8274999000000001,-1.346139907836914,-2.006939649581909,9.72285270690918,2.349853515625,-33.75244140625,28.25927734375
0.8324999000000001,-0.6949170231819153,-1.7369933128356934,10.04188060760498,1.983642578125,-36.712646484375,15.0146484375
0.8374999,0.05267243832349777,-1.3419500589370728,10.074202537536621,0.762939453125,-29.23583984375,-0.518798828125
0.8424999,0.7583633661270142,-0.9133879542350769,9.990405082702637,-1.03759765625,-21.484375,-10.92529296875
0.8474999,1.4203602075576782,-0.5273229479789734,9.777320861816406,-1.52587890625,-13.24462890625,-14.739990234375
0.8524999,1.8830395936965942,-0.21428105235099792,9.546280860900879,-0.579833984375,-1.64794921875,-13.36669921875
0.8574999,2.2242133617401123,0.030526071786880493,9.410409927368164,-1.64794921875,4.241943359375,-11.41357421875
0.8624999,2.388216257095337,0.22685061395168304,9.320627212524414,-1.15966796875,6.16455078125,-8.697509765625
0.8674999,2.3289597034454346,0.31364041566848755,9.376891136169434,-0.8544921875,6.561279296875,-3.662109375
0.8724999,0.7846996188163757,-0.3076549172401428,9.916184425354004,0.091552734375,0.91552734375,-0.701904296875
0.8774999,0.7044938206672668,-0.3926490843296051,9.874286651611328,0.42724609375,-0.396728515625,-0.518798828125
0.8824999,0.8409633636474609,-0.2950853705406189,9.802460670471191,0,-0.091552734375,0.091552734375
0.8874999,0.943913996219635,-0.19572599232196808,9.77013874053955,-0.762939453125,-0.091552734375,-0.54931640625
0.8924999,1.025316834449768,-0.19213469326496124,9.765350341796875,-0.18310546875,0.18310546875,-0.1220703125
0.8974999,1.072602391242981,-0.17896658182144165,9.768342971801758,0.42724609375,-0.54931640625,0.42724609375
0.9024999,1.106719732284546,-0.20290859043598175,9.75637149810791,0.396728515625,-0.79345703125,-0.30517578125
0.9074999,1.157596468925476,-0.20769700407981873,9.762357711791992,-0.06103515625,-0.213623046875,-0.48828125
0.9124999,1.1743559837341309,-0.16879121959209442,9.73661994934082,-0.152587890625,0.213623046875,-1.007080078125
0.9174999,1.1450269222259521,-0.152031809091568,9.72165584564209,-0.30517578125,0.3662109375,-1.15966796875
0.9224999,1.094150185585022,-0.12988543510437012,9.716867446899414,0.091552734375,0.79345703125,-0.518798828125
0.9274999,1.1085153818130493,-0.11671733111143112,9.723451614379883,-0.244140625,0.3662109375,0
0.9324999,1.0791864395141602,-0.13527239859104156,9.755773544311523,-0.48828125,0.6103515625,0.42724609375
0.9374999,1.0869675874710083,-0.13407529890537262,9.7791166305542,0.274658203125,0.06103515625,0.48828125
0.9424999000000001,1.103128433227539,-0.16579847037792206,9.806650161743164,0.18310546875,-0.457763671875,0.30517578125
0.9474999000000001,1.0881646871566772,-0.17058686912059784,9.773131370544434,0.18310546875,0.396728515625,-0.396728515625
0.9524999000000001,1.095347285270691,-0.17896658182144165,9.750386238098145,0.6103515625,0.3662109375,-1.0986328125
0.9574999000000001,1.0875661373138428,-0.1777694821357727,9.715670585632324,-0.457763671875,0.946044921875,-1.5869140625
0.9624999,1.0965443849563599,-0.1586158573627472,9.698312759399414,-0.18310546875,2.0751953125,-1.068115234375
0.9674999,1.0959458351135254,-0.15682020783424377,9.750985145568848,-0.6103515625,1.220703125,0.18310546875
0.9724999,1.0504560470581055,-0.16579847037792206,9.797073364257812,0.701904296875,-1.068115234375,1.495361328125
0.9774999,1.0031704902648926,-0.18076223134994507,9.743204116821289,0.67138671875,-0.762939453125,-0.274658203125
0.9824999,1.0432734489440918,-0.1975216418504715,9.746794700622559,0.79345703125,-0.42724609375,-1.708984375
0.9874999,1.0552444458007812,-0.14784196019172668,9.697713851928711,-0.6103515625,1.007080078125,-2.197265625
0.9924999,1.1025298833847046,-0.13826514780521393,9.707889556884766,-1.007080078125,1.953125,-1.03759765625
0.9974999,1.091755986213684,-0.1041477769613266,9.721057891845703,-0.732421875,0.946044921875,1.556396484375
1.0024999,1.0869675874710083,-0.14664486050605774,9.756970405578613,0.67138671875,-0.54931640625,2.5634765625
1.0074999000000002,1.0462661981582642,-0.17836803197860718,9.767146110534668,0.91552734375,-1.8310546875,0.54931640625
1.0124999000000001,1.0857704877853394,-0.2388216257095337,9.767146110534668,1.251220703125,-0.823974609375,-2.0751953125
1.0174999000000002,1.0672154426574707,-0.2041056901216507,9.745597839355469,-0.579833984375,1.28173828125,-3.753662109375
1.0224999000000001,1.14742112159729,-0.19692309200763702,9.719860076904297,-1.28173828125,2.99072265625,-2.01416015625
1.0274999,1.0899603366851807,-0.11971008777618408,9.717466354370117,-1.007080078125,1.8310546875,2.01416015625
1.0324999000000001,1.0229226350784302,-0.292691171169281,9.816825866699219,0.67138671875,-1.983642578125,-2.99072265625
1.0374999,1.0516531467437744,-0.25438392162323,9.78989028930664,-0.823974609375,2.9296875,-4.69970703125
1.0424999000000001,1.0642226934432983,-0.18614917993545532,9.742605209350586,-1.556396484375,3.753662109375,-1.708984375
1.0474999,1.1037269830703735,-0.08379705995321274,9.733028411865234,0.54931640625,0.3662109375,4.5166015625
1.0524999000000002,1.0809820890426636,-0.053270988166332245,9.7791166305542,1.03759765625,-3.11279296875,3.90625
1.0574999,1.0743980407714844,-0.13048399984836578,9.743204116821289,0.579833984375,-3.41796875,-1.64794921875
1.0624999000000002,1.0869675874710083,-0.17298106849193573,9.763554573059082,-0.8544921875,1.89208984375,-5.645751953125
1.0674999,1.1097124814987183,-0.16101007163524628,9.702502250671387,-1.5869140625,5.18798828125,-2.86865234375
1.0724999000000002,1.1222820281982422,-0.13407529890537262,9.733627319335938,0.732421875,1.007080078125,4.119873046875
1.0774999,1.104325532913208,-0.11192893236875534,9.765948295593262,1.40380859375,-3.326416015625,3.90625
1.0824999000000002,1.081580638885498,-0.15801730751991272,9.784503936767578,-0.213623046875,-3.143310546875,-2.197265625
1.0874999,1.1013327836990356,-0.1951274424791336,9.726444244384766,1.52587890625,-0.885009765625,5.157470703125
1.0924999000000002,1.1079168319702148,-0.20350714027881622,9.781511306762695,1.77001953125,-3.997802734375,2.3193359375
1.0974999,1.0851719379425049,-0.17477671802043915,9.803657531738281,-0.9765625,-0.457763671875,-4.94384765625
1.1024999000000002,1.095347285270691,-0.166995570063591,9.75397777557373,-2.105712890625,6.2255859375,-4.2724609375
1.1074999,1.0965443849563599,-0.16759411990642548,9.78869342803955,0.762939453125,1.953125,4.058837890625
1.1124999000000002,1.071405291557312,-0.14844051003456116,9.761758804321289,2.74658203125,-3.875732421875,5.126953125
1.1174999,1.0492589473724365,-0.17238251864910126,9.77013874053955,-0.091552734375,-3.662109375,-2.960205078125
1.1224999000000002,1.081580638885498,-0.12689268589019775,9.75397777557373,-0.54931640625,4.5166015625,1.739501953125
1.1274999,1.1097124814987183,-0.1412578970193863,9.776124000549316,2.899169921875,-3.84521484375,5.55419921875
1.1324999000000002,1.1001356840133667,-0.12449848651885986,9.761758804321289,0.79345703125,-4.82177734375,-1.556396484375
1.1374999000000001,1.0749965906143188,-0.15143325924873352,9.752182006835938,-1.220703125,5.859375,1.434326171875
1.1424999000000002,1.0462661981582642,-0.20051439106464386,9.749189376831055,3.23486328125,-3.570556640625,5.37109375
1.1474999000000001,1.039083480834961,-0.1711854189634323,9.73542308807373,1.0986328125,-5.7373046875,-2.01416015625
1.1524999000000002,1.0247182846069336,-0.18974047899246216,9.717466354370117,-3.509521484375,4.08935546875,-6.591796875
1.1574999000000001,1.0342950820922852,-0.21128830313682556,9.803657531738281,-0.9765625,5.55419921875,2.74658203125
1.1624999,1.0426748991012573,-0.1975216418504715,9.746196746826172,3.875732421875,-4.791259765625,5.126953125
1.1674999000000001,1.0480618476867676,-0.18734627962112427,9.792284965515137,0.335693359375,-5.67626953125,-4.0283203125
1.1724999,1.0809820890426636,-0.1735796183347702,9.788095474243164,-3.936767578125,5.950927734375,-5.4931640625
1.1774999000000002,1.0546458959579468,-0.14664486050605774,9.781511306762695,-0.030517578125,4.21142578125,4.791259765625
1.1824999,1.1013327836990356,-0.18315643072128296,9.798869132995605,4.21142578125,-6.744384765625,3.173828125
1.1874999000000002,1.0845733880996704,-0.16220717132091522,9.783905029296875,-1.251220703125,-3.0517578125,-6.591796875
1.1924999,1.1204863786697388,-0.1693897694349289,9.770736694335938,-3.692626953125,8.72802734375,-1.739501953125
1.1974999000000002,1.062427043914795,-0.15143325924873352,9.640253067016602,2.838134765625,-8.331298828125,-1.220703125
1.2024999,1.0199298858642578,-0.17836803197860718,9.739612579345703,2.74658203125,1.983642578125,7.965087890625
1.2074999000000002,1.016338586807251,-0.14844051003456116,9.642647743225098,2.471923828125,-9.21630859375,-2.960205078125
1.2124999,1.0630255937576294,-0.14065934717655182,9.765948295593262,-4.119873046875,3.41796875,-6.805419921875
1.2174999000000002,1.0157400369644165,-0.16998831927776337,9.783905029296875,-0.06103515625,7.8125,7.080078125
1.2224999,1.0199298858642578,-0.17717093229293823,9.743204116821289,4.119873046875,-7.75146484375,2.01416015625
1.2274999000000002,1.0438719987869263,-0.2041056901216507,9.804255485534668,-2.74658203125,-2.960205078125,-9.185791015625
1.2324999,1.081580638885498,-0.1759738177061081,9.82879638671875,-2.044677734375,10.07080078125,3.5400390625
1.2374999000000002,1.0684125423431396,-0.20290859043598175,9.764153480529785,4.21142578125,-3.7841796875,5.92041015625
1.2424999,1.0893617868423462,-0.1628057211637497,9.758167266845703,-1.28173828125,-7.14111328125,-8.85009765625
1.2474999000000002,1.1605892181396484,-0.1825578808784485,9.867103576660156,-2.99072265625,9.3994140625,0.1220703125
1.2524999,1.095347285270691,-0.1646013706922531,9.756970405578613,3.60107421875,0.42724609375,8.148193359375
1.2574999000000002,1.070208191871643,-0.18614917993545532,9.724648475646973,-0.335693359375,-9.1552734375,-7.4462890625
1.2624999000000001,1.1468225717544556,-0.16639702022075653,9.831191062927246,-3.2958984375,7.50732421875,-2.716064453125
1.2674999000000002,1.0157400369644165,-0.1867477297782898,9.718064308166504,3.11279296875,3.173828125,8.9111328125
1.2724999000000001,1.016338586807251,-0.1759738177061081,9.699509620666504,0.274658203125,-9.735107421875,-6.16455078125
1.2774999000000002,1.0791864395141602,-0.19393034279346466,9.786299705505371,-3.23486328125,5.523681640625,-4.21142578125
1.2824999000000001,0.993593692779541,-0.19273324310779572,9.709685325622559,3.23486328125,4.45556640625,9.1552734375
1.2874999,1.0115501880645752,-0.18794482946395874,9.690531730651855,0.274658203125,-9.94873046875,-5.43212890625
1.2924999000000001,1.0396820306777954,-0.19033902883529663,9.740809440612793,-0.091552734375,-9.94873046875,-5.523681640625
1.2974999,1.1288660764694214,-0.1693897694349289,9.841365814208984,-3.448486328125,5.035400390625,-3.753662109375
1.3024999000000002,1.0492589473724365,-0.17178396880626678,9.770736694335938,4.119873046875,4.8828125,9.124755859375
1.3074999,1.070208191871643,-0.13527239859104156,9.75637149810791,-1.129150390625,-9.6435546875,-6.77490234375
1.3124999000000002,1.127070426940918,-0.14365209639072418,9.850942611694336,-3.11279296875,6.378173828125,-2.01416015625
1.3174999,1.0396820306777954,-0.12689268589019775,9.752182006835938,4.791259765625,3.509521484375,8.514404296875
1.3224999000000002,1.049857497215271,-0.1364694982767105,9.724648475646973,-2.532958984375,-9.46044921875,-8.270263671875
1.3274999,1.0893617868423462,-0.1496376097202301,9.855731010437012,-1.8310546875,7.8125,1.03759765625
1.3324999000000002,1.0127472877502441,-0.12629413604736328,9.64683723449707,4.82177734375,0.885009765625,6.8359375
1.3374999,1.0564415454864502,-0.15322890877723694,9.747992515563965,-4.08935546875,-8.209228515625,-9.552001953125
1.3424999000000002,1.0480618476867676,-0.16160862147808075,9.789292335510254,0.335693359375,9.3994140625,4.425048828125
1.3474999,1.0546458959579468,-0.1999158412218094,9.818022727966309,-5.18798828125,-5.279541015625,-9.033203125
1.3524999000000002,1.0301052331924438,-0.13287819921970367,9.700108528137207,2.86865234375,9.70458984375,7.9345703125
1.3574999,1.0199298858642578,-0.15442600846290588,9.637859344482422,1.495361328125,-7.110595703125,-1.861572265625
1.3624999000000002,1.0199298858642578,-0.15442600846290588,9.637859344482422,1.495361328125,-7.110595703125,-1.861572265625
1.3674999,1.1330559253692627,-0.15442600846290588,9.775525093078613,-4.82177734375,-0.244140625,-5.767822265625
1.3724999000000002,1.0576386451721191,-0.16340427100658417,9.68274974822998,5.096435546875,6.9580078125,8.85009765625
1.3774999,1.1013327836990356,-0.20051439106464386,9.768342971801758,-2.13623046875,-9.33837890625,-6.927490234375
1.3824999000000002,1.1324573755264282,-0.2064998894929886,9.906607627868652,-2.01416015625,5.706787109375,0.274658203125
1.3874999000000001,1.0319008827209473,-0.15741875767707825,9.701904296875,5.18798828125,1.312255859375,5.859375
1.3924999000000002,1.0767922401428223,-0.1472434103488922,9.82759952545166,-5.126953125,-7.26318359375,-8.9111328125
1.3974999000000001,1.035492181777954,-0.10594342648983002,9.687539100646973,2.25830078125,9.307861328125,6.256103515625
1.4024999000000002,0.9894038438796997,-0.10474632680416107,9.575011253356934,1.64794921875,-5.645751953125,-1.190185546875
1.4074999000000001,1.105522632598877,-0.20051439106464386,9.913790702819824,-5.462646484375,-4.33349609375,-6.591796875
1.4124999,1.0528502464294434,-0.18614917993545532,9.72165584564209,4.547119140625,7.965087890625,7.415771484375
1.4174999000000001,1.0857704877853394,-0.19632454216480255,9.794678688049316,-2.166748046875,-8.056640625,-5.645751953125
1.4224999,1.0989385843276978,-0.1951274424791336,9.838373184204102,-1.3427734375,5.18798828125,1.190185546875
1.4274999000000002,1.035492181777954,-0.13826514780521393,9.655217170715332,4.302978515625,0.091552734375,3.11279296875
1.4324999,1.092953085899353,-0.17058686912059784,9.852140426635742,-5.4931640625,-5.096435546875,-6.622314453125
1.4374999000000002,1.0336965322494507,-0.12389993667602539,9.67077922821045,4.486083984375,8.026123046875,6.805419921875
1.4424999,1.0582371950149536,-0.12330138683319092,9.753378868103027,-2.197265625,-7.8125,-5.645751953125
1.4474999000000002,1.0576386451721191,-0.21128830313682556,9.822811126708984,-3.84521484375,-7.87353515625,-6.439208984375
1.4524999,1.0743980407714844,-0.21128830313682556,9.824606895446777,1.0986328125,6.4697265625,3.936767578125
1.4574999000000002,1.0330979824066162,-0.21847090125083923,9.652822494506836,2.410888671875,-2.685546875,-1.03759765625
1.4624999,1.116895079612732,-0.26336219906806946,9.9185791015625,-4.547119140625,-1.40380859375,-2.716064453125
1.4674999000000002,1.0708067417144775,-0.17298106849193573,9.600749015808105,5.950927734375,5.31005859375,5.218505859375
1.4724999,1.1252747774124146,-0.19393034279346466,9.872490882873535,-5.4931640625,-7.720947265625,-6.77490234375
1.4774999000000002,1.0995371341705322,-0.14664486050605774,9.770736694335938,3.692626953125,8.026123046875,6.2255859375
1.4824999,1.0761936902999878,-0.11192893236875534,9.783307075500488,-1.251220703125,-6.34765625,-4.913330078125
1.4874999000000002,1.0905588865280151,-0.17836803197860718,9.852738380432129,-1.251220703125,3.5400390625,1.800537109375
1.4924999,1.0899603366851807,-0.23582886159420013,9.9000244140625,-5.126953125,-3.326416015625,-3.72314453125
1.4974999000000002,1.0384849309921265,-0.17836803197860718,9.607931137084961,5.615234375,6.134033203125,5.43212890625
1.5024999,1.0690110921859741,-0.2148796021938324,9.857526779174805,-5.126953125,-7.75146484375,-6.53076171875
1.5074999000000002,1.0450690984725952,-0.1604115068912506,9.70310115814209,3.509521484375,7.843017578125,5.950927734375
1.5124999000000001,1.0540473461151123,-0.17178396880626678,9.732429504394531,-1.64794921875,-6.439208984375,-5.2490234375
1.5174999000000002,1.0606313943862915,-0.18076223134994507,9.790489196777344,-0.579833984375,4.119873046875,2.777099609375
1.5224999000000001,1.0492589473724365,-0.16340427100658417,9.553462982177734,2.62451171875,-1.190185546875,-1.007080078125
1.5274999000000002,1.0959458351135254,-0.19931729137897491,9.88386344909668,-4.486083984375,-1.617431640625,-1.678466796875
1.5324999000000001,1.0330979824066162,-0.13826514780521393,9.553462982177734,5.462646484375,4.302978515625,3.631591796875
1.5374999000000003,1.070208191871643,-0.20051439106464386,9.932345390319824,-5.4931640625,-6.317138671875,-5.43212890625
1.5424999000000001,1.0205284357070923,-0.11552023142576218,9.706093788146973,4.82177734375,7.537841796875,5.889892578125
1.5474999,1.0360907316207886,-0.14006079733371735,9.888651847839355,-3.90625,-7.598876953125,-6.16455078125
1.5524999000000002,1.0504560470581055,-0.10833762586116791,9.765350341796875,-0.885009765625,-5.18798828125,-4.547119140625
1.5574999,1.0654197931289673,-0.1430535465478897,9.825803756713867,-0.8544921875,3.448486328125,2.8076171875
1.5624999000000002,1.0660183429718018,-0.1149216815829277,9.583391189575195,2.5634765625,-0.67138671875,-1.434326171875
1.5674999,1.1109095811843872,-0.1843535304069519,9.861717224121094,-3.7841796875,-1.373291015625,-0.579833984375
1.5724999000000002,1.0516531467437744,-0.1454477459192276,9.521739959716797,4.8828125,3.692626953125,1.89208984375
1.5774999,1.0965443849563599,-0.22266076505184174,9.95748519897461,-5.401611328125,-5.18798828125,-3.692626953125
1.5824999000000002,1.0295066833496094,-0.1885433793067932,9.639056205749512,5.55419921875,6.591796875,4.425048828125
1.5874999,1.0444705486297607,-0.243011474609375,9.971850395202637,-5.218505859375,-7.232666015625,-5.43212890625
1.5924999000000002,1.0301052331924438,-0.1604115068912506,9.70310115814209,4.57763671875,7.476806640625,5.4931640625
1.5974999,1.0438719987869263,-0.1843535304069519,9.858125686645508,-3.570556640625,-7.049560546875,-5.950927734375
1.6024999000000002,1.115697979927063,-0.17298106849193573,9.799467086791992,-2.044677734375,0.823974609375,2.105712890625
1.6074999,1.0965443849563599,-0.08978256583213806,9.546878814697266,2.899169921875,0.701904296875,-1.64794921875
1.6124999000000002,1.0845733880996704,-0.18136078119277954,9.824606895446777,-3.570556640625,-2.105712890625,0.18310546875
1.6174999,1.0372878313064575,-0.14365209639072418,9.475651741027832,4.2724609375,3.173828125,0.3662109375
1.6224999000000002,1.0749965906143188,-0.2214636504650116,9.962871551513672,-4.791259765625,-4.241943359375,-1.64794921875
1.6274999,1.0079588890075684,-0.20231004059314728,9.604938507080078,5.2490234375,4.8828125,1.861572265625
1.6324999000000002,1.0905588865280151,-0.25737667083740234,10.136451721191406,-5.31005859375,-5.615234375,-2.899169921875
1.6374999000000001,1.0007762908935547,-0.20290859043598175,9.700108528137207,5.340576171875,6.256103515625,2.9296875
1.6424999000000002,1.061229944229126,-0.2454056739807129,10.101137161254883,-5.279541015625,-6.744384765625,-4.0283203125
1.6474999000000001,1.0145429372787476,-0.1538274586200714,9.64923095703125,5.18798828125,6.7138671875,3.84521484375
1.6524999000000002,1.0247182846069336,-0.20530278980731964,9.952696800231934,-4.94384765625,-6.8359375,-4.547119140625
1.6574999000000001,1.0408791303634644,-0.1735796183347702,9.838373184204102,-4.2724609375,-6.561279296875,-4.913330078125
1.6624999000000003,1.1061211824417114,-0.09457096457481384,9.57441234588623,4.0283203125,6.439208984375,4.486083984375
1.6674999000000001,1.0755951404571533,-0.1496376097202301,9.815628051757812,-3.60107421875,-5.79833984375,-5.218505859375
1.6724999,1.116895079612732,-0.10295066982507706,9.631275177001953,3.143310546875,5.706787109375,4.608154296875
1.6774999000000002,1.083974838256836,-0.18076223134994507,9.84495735168457,-2.899169921875,-5.401611328125,-5.06591796875
1.6824999,1.0899603366851807,-0.15143325924873352,9.673771858215332,2.655029296875,5.126953125,4.730224609375
1.6874999000000002,1.0923545360565186,-0.22505496442317963,9.819818496704102,-2.288818359375,-4.8828125,-5.126953125
1.6924999,1.0408791303634644,-0.18136078119277954,9.667187690734863,1.983642578125,4.547119140625,4.486083984375
1.6974999000000002,1.0767922401428223,-0.22206220030784607,9.786897659301758,-1.861572265625,-4.2724609375,-4.852294921875
1.7024999,0.9852139949798584,-0.19273324310779572,9.68274974822998,1.77001953125,4.058837890625,4.425048828125
1.7074999000000002,1.039083480834961,-0.21428105235099792,9.797672271728516,-1.708984375,-3.7841796875,-4.82177734375
1.7124999,0.9600749015808105,-0.1999158412218094,9.709685325622559,1.373291015625,3.90625,4.33349609375
1.7174999000000002,0.9265560507774353,-0.23104046285152435,9.736021041870117,0.335693359375,2.5634765625,7.8125
1.7224999,0.9068039059638977,-0.29807811975479126,9.797672271728516,-2.960205078125,-9.857177734375,5.7373046875
1.7274999000000002,0.689530074596405,-0.23702596127986908,9.61331844329834,1.15966796875,-9.185791015625,22.03369140625
1.7324999,0.3728969097137451,-0.7056909799575806,9.582792282104492,2.777099609375,-18.24951171875,16.90673828125
1.7374999000000002,-0.1472434103488922,-0.6799532771110535,9.336189270019531,6.65283203125,-22.39990234375,39.48974609375
1.7424999,-0.6775590777397156,-1.653794765472412,8.832808494567871,21.209716796875,-22.979736328125,52.337646484375
1.7474999000000002,-1.2850877046585083,-2.033275842666626,9.118915557861328,13.5498046875,-45.2880859375,93.353271484375
1.7524999,-1.821987509727478,-2.8143839836120605,8.813055992126465,46.9970703125,-32.77587890625,123.779296875
1.7574999000000002,-2.717418909072876,-3.5709519386291504,9.024943351745605,56.182861328125,-37.90283203125,129.2724609375
1.7624999000000001,-3.003525972366333,-3.9258923530578613,10.068815231323242,58.89892578125,-33.111572265625,168.914794921875
1.7674999000000002,-3.450044631958008,-4.21080207824707,9.970054626464844,101.348876953125,-27.099609375,162.445068359375
1.7724999000000001,-3.1232361793518066,-3.7493197917938232,10.745776176452637,102.9052734375,-40.374755859375,146.1181640625
1.7774999000000002,-1.9458874464035034,-2.5713725090026855,10.211869239807129,95.855712890625,-24.71923828125,140.380859375
1.7824999000000001,-1.1785458326339722,-1.7190368175506592,9.056666374206543,107.0556640625,-22.003173828125,94.8486328125
1.7874999000000003,-0.14784196019172668,-0.3489548861980438,7.6566572189331055,47.821044921875,-44.677734375,43.39599609375
1.7924999000000001,0.9941922426223755,1.137245774269104,6.111199855804443,-6.439208984375,-49.4384765625,-0.396728515625
1.7974999,2.053626537322998,2.5929205417633057,4.969764232635498,-39.093017578125,-21.54541015625,-32.16552734375
1.8024999000000002,3.1028854846954346,3.663128614425659,4.520252704620361,-64.788818359375,18.4326171875,-60.6689453125
1.8074999,3.7475242614746094,4.336497783660889,3.9234981536865234,-108.21533203125,47.2412109375,-88.19580078125
1.8124999000000002,4.379593372344971,4.8033671379089355,4.2293572425842285,-149.59716796875,61.370849609375,-107.2998046875
1.8174999,4.948814868927002,5.236119270324707,4.637568473815918,-175.750732421875,80.01708984375,-114.105224609375
1.8224999000000002,5.901108741760254,5.716156482696533,6.801927089691162,-151.79443359375,120.7275390625,-130.18798828125
1.8274999,6.95814847946167,5.690418720245361,9.46487808227539,-27.4658203125,160.736083984375,-174.560546875
1.8324999000000002,7.522581577301025,5.467159748077393,11.766304016113281,49.468994140625,99.151611328125,-198.91357421875
1.8374999,5.980117321014404,2.7922377586364746,12.358869552612305,6.8359375,12.481689453125,-106.93359375
1.8424999000000002,4.069544315338135,1.1976994276046753,10.881647109985352,-7.598876953125,17.547607421875,-65.85693359375
1.8474999,2.1565771102905273,-0.07541735470294952,9.437344551086426,-24.139404296875,7.6904296875,-39.12353515625
1.8524999000000002,0.7457938194274902,-1.184531331062317,8.880094528198242,-31.097412109375,-9.33837890625,-9.82666015625
1.8574999,-0.08379705995321274,-1.9943699836730957,9.007585525512695,-10.55908203125,-16.11328125,20.660400390625
1.8624999000000002,-0.2998737692832947,-2.6342203617095947,9.585186958312988,11.962890625,-23.25439453125,32.28759765625
1.8674999,-0.20470423996448517,-2.9095535278320312,10.111311912536621,8.392333984375,-37.017822265625,24.932861328125
1.8724999000000002,0.10654197633266449,-2.783858060836792,10.244789123535156,-4.150390625,-34.698486328125,14.862060546875
1.8774999,0.48303020000457764,-2.182314872741699,10.251971244812012,-0.213623046875,-15.716552734375,12.420654296875
1.8824999000000002,0.8164227604866028,-1.3389573097229004,10.005369186401367,5.279541015625,-12.054443359375,2.62451171875
1.8874999000000001,1.1408370733261108,-0.4950011968612671,9.845556259155273,1.922607421875,-13.916015625,-14.678955078125
1.8924999000000002,1.4293384552001953,0.1711854189634323,9.576208114624023,-5.645751953125,-0.701904296875,-21.05712890625
1.8974999000000001,1.8602946996688843,0.5877765417098999,9.339780807495117,1.495361328125,10.894775390625,0.1220703125
1.9024999000000002,1.9321208000183105,0.46986207365989685,9.425373077392578,1.15966796875,5.126953125,-5.18798828125
1.9074999000000001,1.7830817699432373,0.2406172752380371,9.540295600891113,-2.685546875,13.397216796875,-6.65283203125
1.9124999000000003,1.4484920501708984,0.05686229094862938,9.660603523254395,0.335693359375,15.19775390625,3.692626953125
1.9174999000000001,1.0767922401428223,-0.1604115068912506,9.774328231811523,3.7841796875,3.936767578125,2.899169921875
1.9224999,0.52552729845047,-0.21607670187950134,9.86650562286377,3.173828125,-10.223388671875,2.3193359375
1.9274999000000002,0.7116764783859253,-0.18734627962112427,9.838972091674805,-3.0517578125,-5.67626953125,-6.317138671875
1.9324999,0.9433154463768005,-0.1885433793067932,9.822212219238281,-2.74658203125,4.547119140625,2.288818359375
1.9374999000000002,1.0732009410858154,-0.16340427100658417,9.6989107131958,3.875732421875,-1.373291015625,7.781982421875
1.9424999,1.1438298225402832,-0.181959331035614,9.695918083190918,4.39453125,-3.936767578125,2.13623046875
1.9474999000000002,1.1007342338562012,-0.19213469326496124,9.743204116821289,-2.50244140625,-1.64794921875,-8.697509765625
1.9524999,1.105522632598877,-0.1711854189634323,9.832986831665039,-2.50244140625,9.979248046875,1.8310546875
1.9574999000000002,0.9977835416793823,-0.14484919607639313,9.77253246307373,4.21142578125,-0.518798828125,7.232666015625
1.9624999,0.9660604000091553,-0.1215057373046875,9.790489196777344,-0.030517578125,-8.941650390625,-6.89697265625
1.9674999000000002,1.0067617893218994,-0.10115502029657364,9.815030097961426,-4.39453125,5.06591796875,-4.2724609375
1.9724999,0.9397241473197937,-0.08619125932455063,9.710283279418945,2.38037109375,4.547119140625,8.6669921875
1.9774999000000002,0.9187749028205872,-0.0933738648891449,9.654019355773926,2.655029296875,-9.6435546875,-2.5634765625
1.9824999,1.006163239479065,-0.12330138683319092,9.739612579345703,-4.425048828125,0.3662109375,-8.636474609375
1.9874999000000002,1.0223240852355957,-0.14365209639072418,9.798869132995605,0.518798828125,9.765625,7.080078125
1.9924999,0.9941922426223755,-0.15442600846290588,9.701305389404297,3.90625,-5.462646484375,1.800537109375
1.9974999000000002,1.0732009410858154,-0.19213469326496124,9.816825866699219,-3.631591796875,-3.448486328125,-10.284423828125
2.0024999,1.0857704877853394,-0.1825578808784485,9.825204849243164,-0.6103515625,10.711669921875,5.43212890625
2.0074999,0.9959878921508789,-0.18614917993545532,9.727043151855469,4.5166015625,-2.50244140625,6.2255859375
2.0124999000000003,1.006163239479065,-0.1975216418504715,9.800065994262695,-3.265380859375,-7.476806640625,-9.613037109375
2.0174999000000002,1.0342950820922852,-0.1825578808784485,9.862914085388184,-1.8310546875,8.819580078125,3.60107421875
2.0224999,0.9498994946479797,-0.15502455830574036,9.73542308807373,4.547119140625,-0.640869140625,7.75146484375
2.0274999,0.9858125448226929,-0.1586158573627472,9.759963035583496,-2.777099609375,-9.33837890625,-10.1318359375
2.0324999000000004,1.0720038414001465,-0.13766659796237946,9.841964721679688,-1.922607421875,8.148193359375,1.3427734375
2.0374999000000003,1.0097545385360718,-0.11312603205442429,9.700706481933594,4.730224609375,1.434326171875,8.087158203125
2.0424999,1.0564415454864502,-0.1256955862045288,9.725247383117676,-2.9296875,-9.429931640625,-9.979248046875
2.0474999,1.1330559253692627,-0.14065934717655182,9.855133056640625,-1.708984375,8.30078125,1.373291015625
2.0524999,1.0516531467437744,-0.15263035893440247,9.748590469360352,-3.7841796875,-8.941650390625,-10.19287109375
2.0574999000000003,1.0516531467437744,-0.15263035893440247,9.748590469360352,-3.7841796875,-8.941650390625,-10.19287109375
2.0624999,1.0785878896713257,-0.15741875767707825,9.84256362915039,-1.312255859375,8.85009765625,2.166748046875
2.0674999,0.9630676507949829,-0.11192893236875534,9.633070945739746,5.2490234375,1.312255859375,7.049560546875
2.0724999,0.9768342971801758,-0.1496376097202301,9.75637149810791,-4.45556640625,-8.7890625,-10.406494140625
2.0774999000000003,0.9780313968658447,-0.15981295704841614,9.783307075500488,-0.152587890625,8.880615234375,4.425048828125
2.0824999,0.8732850551605225,-0.12090718746185303,9.599552154541016,4.8828125,-1.40380859375,4.974365234375
2.0874999,0.9528923034667969,-0.19213469326496124,9.797672271728516,-5.462646484375,-7.9345703125,-10.19287109375
2.0924999,1.015141487121582,-0.12449848651885986,9.716867446899414,1.708984375,9.552001953125,7.01904296875
2.0974999000000003,0.9804255962371826,-0.11432313174009323,9.631275177001953,3.265380859375,-4.39453125,1.40380859375
2.1024999,1.137245774269104,-0.14604631066322327,9.825204849243164,-5.79833984375,-4.669189453125,-8.941650390625
2.1074999,1.1150994300842285,-0.13108254969120026,9.72165584564209,3.936767578125,9.70458984375,9.185791015625
2.1124999,1.0007762908935547,-0.14664486050605774,9.783307075500488,5.79833984375,7.171630859375,9.307861328125
2.1174999000000003,1.0007762908935547,-0.14664486050605774,9.783307075500488,5.79833984375,7.171630859375,9.307861328125
2.1224999,0.9983820915222168,-0.1538274586200714,9.769539833068848,-2.960205078125,-9.46044921875,-7.843017578125
2.1274999,1.016338586807251,-0.19632454216480255,9.877877235412598,-1.708984375,5.9814453125,0.579833984375
2.1324999,0.922366201877594,-0.10654197633266449,9.650428771972656,5.279541015625,1.617431640625,5.706787109375
2.1374999000000003,0.9900023937225342,-0.19033902883529663,9.840767860412598,-5.645751953125,-7.720947265625,-9.33837890625
2.1424999000000002,1.0133458375930786,-0.15263035893440247,9.714473724365234,2.50244140625,8.941650390625,6.34765625
2.1474999,0.9720458984375,-0.14425064623355865,9.676166534423828,1.708984375,-5.18798828125,-1.373291015625
2.1524999,1.105522632598877,-0.1951274424791336,9.803058624267578,-5.340576171875,-1.556396484375,-5.55419921875
2.1574999000000004,1.0235211849212646,-0.13946224749088287,9.674968719482422,5.828857421875,7.110595703125,8.72802734375
2.1624999000000003,1.0307037830352783,-0.13706804811954498,9.728240013122559,-3.2958984375,-9.429931640625,-7.26318359375
2.1674999,1.058835744857788,-0.1586158573627472,9.801861763000488,-0.946044921875,6.072998046875,2.410888671875
2.1724999,1.05105459690094,-0.16340427100658417,9.86351203918457,-6.28662109375,-6.103515625,-7.87353515625
2.1774999000000004,1.0241197347640991,-0.13347674906253815,9.72285270690918,4.69970703125,8.9111328125,7.659912109375
2.1824999000000003,1.0384849309921265,-0.14006079733371735,9.801861763000488,-1.129150390625,-7.659912109375,-5.340576171875
2.1874999,1.105522632598877,-0.19632454216480255,9.929951667785645,-2.899169921875,2.960205078125,-0.396728515625
2.1924999,0.9983820915222168,-0.14006079733371735,9.632472038269043,5.706787109375,3.082275390625,4.913330078125
2.1974999,1.071405291557312,-0.20769700407981873,9.891644477844238,-6.072998046875,-7.2021484375,-7.75146484375
2.2024999000000003,1.0241197347640991,-0.1538274586200714,9.639654159545898,4.058837890625,9.033203125,7.2021484375
2.2074999,1.0067617893218994,-0.15023615956306458,9.732429504394531,-0.518798828125,-6.65283203125,-4.425048828125
2.2124999,1.0558429956436157,-0.1843535304069519,9.833584785461426,-3.23486328125,2.13623046875,-0.274658203125
2.2174999,0.9493009448051453,-0.14065934717655182,9.618106842041016,5.767822265625,3.173828125,4.0283203125
2.2224999000000003,1.0301052331924438,-0.21308395266532898,9.892841339111328,-6.103515625,-7.26318359375,-7.01904296875
2.2274999,0.9594763517379761,-0.15442600846290588,9.683348655700684,4.669189453125,8.697509765625,6.89697265625
2.2324999,1.0055646896362305,-0.14006079733371735,9.808445930480957,-1.678466796875,3.814697265625,2.01416015625
2.2374999,0.9564836025238037,-0.10295066982507706,9.59715747833252,4.45556640625,0.946044921875,1.739501953125
2.2424999000000003,1.05105459690094,-0.1735796183347702,9.86111831665039,-5.7373046875,-4.913330078125,-4.8828125
2.2474999,1.0073603391647339,-0.12629413604736328,9.620500564575195,5.7373046875,7.87353515625,6.40869140625
2.2524999,1.0636241436004639,-0.18914192914962769,9.845556259155273,-4.058837890625,-7.99560546875,-7.01904296875
2.2574999,1.1073182821273804,-0.1646013706922531,9.847949981689453,1.52587890625,7.2021484375,5.157470703125
2.2624999000000003,1.0516531467437744,-0.1472434103488922,9.756970405578613,1.495361328125,-3.662109375,-2.5634765625
2.2674999000000002,1.1222820281982422,-0.19812019169330597,9.952696800231934,-3.631591796875,0.335693359375,-0.885009765625
2.2724999,1.0001777410507202,-0.13048399984836578,9.640253067016602,5.18798828125,3.84521484375,3.631591796875
2.2774999,1.0319008827209473,-0.20350714027881622,9.898228645324707,-5.7373046875,-6.439208984375,-5.767822265625
2.2824999000000004,0.9259575009346008,-0.12449848651885986,9.61571216583252,5.157470703125,8.23974609375,6.561279296875
2.2874999000000003,0.9630676507949829,-0.18375498056411743,9.794678688049316,-3.23486328125,-7.843017578125,-6.28662109375
2.2924999,0.9971849918365479,-0.1412578970193863,9.715071678161621,1.312255859375,-3.387451171875,-2.5634765625
2.2974999,1.0965443849563599,-0.17956513166427612,9.913790702819824,-3.2958984375,0.335693359375,0.030517578125
2.3024999000000004,1.0085574388504028,-0.1280897855758667,9.613917350769043,4.791259765625,3.082275390625,2.532958984375
2.3074999000000003,1.0462661981582642,-0.19393034279346466,9.925761222839355,-5.615234375,-5.79833984375,-4.638671875
2.3124999,0.9744400978088379,-0.12449848651885986,9.617507934570312,5.615234375,7.38525390625,5.889892578125
2.3174999,0.9923965930938721,-0.18555063009262085,9.889848709106445,-4.302978515625,-7.965087890625,-6.195068359375
2.3224999,0.9463081955909729,-0.12629413604736328,9.640851974487305,3.936767578125,7.049560546875,5.37109375
2.3274999000000003,0.9804255962371826,-0.13946224749088287,9.832387924194336,-2.655029296875,-6.53076171875,-5.615234375
2.3324999,0.9852139949798584,-0.0975637212395668,9.698312759399414,1.15966796875,5.0048828125,4.669189453125
2.3374999,0.9959878921508789,-0.10115502029657364,9.762955665588379,-0.091552734375,-3.875732421875,-4.364013671875
2.3424999,1.0684125423431396,-0.13407529890537262,9.82879638671875,-1.251220703125,2.166748046875,2.899169921875
2.3474999000000003,1.0247182846069336,-0.09636662155389786,9.714473724365234,2.227783203125,-0.54931640625,-2.25830078125
2.3524999,1.083974838256836,-0.18375498056411743,9.910798072814941,-3.265380859375,-1.03759765625,0.701904296875
2.3574999,1.0235211849212646,-0.12090718746185303,9.569025993347168,4.119873046875,2.899169921875,0.06103515625
2.3624999,1.0648212432861328,-0.21009120345115662,9.907206535339355,-4.69970703125,-3.936767578125,-1.40380859375
2.3674999000000003,0.9846154451370239,-0.16101007163524628,9.494805335998535,5.0048828125,5.096435546875,2.044677734375
2.3724999,1.0169371366500854,-0.22685061395168304,10.02571964263916,-4.8828125,-6.77490234375,-4.150390625
2.3774999,0.9870096445083618,-0.13826514780521393,9.61571216583252,4.5166015625,6.7138671875,4.180908203125
2.3824999,0.9894038438796997,-0.19812019169330597,9.926959037780762,-3.96728515625,-6.439208984375,-4.82177734375
2.3874999000000003,1.0217255353927612,-0.10474632680416107,9.621099472045898,3.662109375,6.072998046875,4.69970703125
2.3924999000000002,1.0097545385360718,-0.16220717132091522,9.849745750427246,-3.082275390625,-5.706787109375,-5.06591796875
2.3974999,1.0187327861785889,-0.09397241473197937,9.64803409576416,2.655029296875,5.2490234375,4.547119140625
2.4024999,1.0217255353927612,-0.15801730751991272,9.797672271728516,-0.79345703125,-3.326416015625,-4.486083984375
2.4074999000000004,1.0067617893218994,-0.17058686912059784,9.718663215637207,0.3662109375,2.777099609375,4.119873046875
2.4124999000000003,1.0384849309921265,-0.181959331035614,9.798270225524902,-0.091552734375,-2.105712890625,-4.302978515625
2.4174999,1.0109516382217407,-0.15083470940589905,9.744400978088379,0.91552734375,-0.8544921875,-3.84521484375
2.4224999,1.0522516965866089,-0.1604115068912506,9.791088104248047,-1.068115234375,0.579833984375,2.960205078125
2.4274999000000004,0.9888052940368652,-0.10175357013940811,9.740211486816406,1.251220703125,-0.1220703125,-3.326416015625
2.4324999000000003,1.0761936902999878,-0.15921440720558167,9.819219589233398,-1.64794921875,-0.18310546875,2.655029296875
2.4374999,1.0103530883789062,-0.076015904545784,9.725846290588379,1.708984375,0.3662109375,-3.204345703125
2.4424999,1.0863690376281738,-0.1538274586200714,9.845556259155273,-1.8310546875,-0.823974609375,2.50244140625
2.4474999,1.0073603391647339,-0.07781155407428741,9.700706481933594,1.77001953125,1.373291015625,-3.0517578125
2.4524999000000003,1.0456676483154297,-0.1801636815071106,9.841964721679688,-1.8310546875,-1.251220703125,2.410888671875
2.4574999,0.9660604000091553,-0.11671733111143112,9.678560256958008,2.0751953125,1.220703125,-2.838134765625
2.4624999,0.9965864419937134,-0.22744916379451752,9.82999324798584,-2.01416015625,-1.40380859375,2.349853515625
2.4674999,0.9403226971626282,-0.1430535465478897,9.65222454071045,1.739501953125,1.46484375,-2.960205078125
2.4724999000000003,0.9911994934082031,-0.24600422382354736,9.816825866699219,-1.8310546875,-1.28173828125,2.410888671875
2.4774999,0.9959878921508789,-0.23104046285152435,9.770736694335938,-1.617431640625,-1.007080078125,2.5634765625
2.4824999,0.9427168965339661,-0.10354922711849213,9.575011253356934,1.495361328125,1.312255859375,-3.2958984375
2.4874999,0.9858125448226929,-0.20111294090747833,9.67077922821045,-1.52587890625,-0.885009765625,2.9296875
2.4924999000000003,0.9570821523666382,-0.08619125932455063,9.515754699707031,0.946044921875,0.91552734375,-3.387451171875
2.4974999,0.9786299467086792,-0.17956513166427612,9.618705749511719,-0.732421875,-0.54931640625,3.082275390625
2.5024999,0.9894038438796997,-0.1280897855758667,9.578003883361816,0.48828125,0.30517578125,-3.72314453125
2.5074999,0.9852139949798584,-0.20350714027881622,9.671976089477539,-0.274658203125,0.091552734375,3.5400390625
2.5124999000000003,1.0055646896362305,-0.2041056901216507,9.725247383117676,0,-0.1220703125,-4.119873046875
2.5174999000000002,0.9588778018951416,-0.23104046285152435,9.733028411865234,0.6103515625,0.6103515625,3.814697265625
2.5224999,0.9690531492233276,-0.2298433631658554,9.779715538024902,-0.67138671875,-0.8544921875,-4.180908203125
2.5274999,0.9463081955909729,-0.21188685297966003,9.718663215637207,1.190185546875,1.3427734375,4.058837890625
2.5324999000000004,0.9684545993804932,-0.23822307586669922,9.790489196777344,-1.52587890625,-1.52587890625,-4.241943359375
2.5374999000000003,1.0091559886932373,-0.2148796021938324,9.791686058044434,-2.532958984375,-2.197265625,-4.33349609375
2.5424999,1.0648212432861328,-0.1322796493768692,9.57441234588623,2.716064453125,2.685546875,3.662109375
2.5474999,1.0199298858642578,-0.14006079733371735,9.749189376831055,-3.173828125,-2.960205078125,-4.058837890625
2.5524999000000004,1.0570400953292847,-0.07541735470294952,9.464279174804688,3.41796875,3.2958984375,3.173828125
2.5574999000000003,1.0127472877502441,-0.10714052617549896,9.7791166305542,-3.662109375,-3.2958984375,-3.2958984375
2.5624999,1.0217255353927612,-0.20889410376548767,9.166799545288086,3.2958984375,3.387451171875,-0.213623046875
2.5674999,1.0576386451721191,-0.16101007163524628,9.609128952026367,-2.838134765625,-3.23486328125,0.518798828125
2.5724999,1.0396820306777954,-0.13587094843387604,9.154829025268555,2.62451171875,2.8076171875,-1.64794921875
2.5774999000000003,1.070208191871643,0.05147533491253853,9.369708061218262,1.220703125,1.8310546875,-3.143310546875
2.5824999,1.0522516965866089,0.010773907415568829,9.769539833068848,-0.396728515625,-1.190185546875,3.143310546875
2.5874999,1.0606313943862915,0.09696517139673233,9.800664901733398,-0.42724609375,0.396728515625,-4.0283203125
2.5924999,1.0115501880645752,-0.07122749835252762,9.961674690246582,1.312255859375,0.518798828125,3.662109375
2.5974999000000003,0.9804255962371826,-0.13587094843387604,10.073603630065918,-1.8310546875,-0.8544921875,-4.302978515625
2.6024999,1.016338586807251,-0.21308395266532898,9.954492568969727,2.38037109375,1.46484375,3.47900390625
2.6074999,0.9738415479660034,-0.23762452602386475,10.063427925109863,-2.960205078125,-2.13623046875,-3.5400390625
2.6124999,1.026513934135437,-0.18794482946395874,9.618705749511719,3.448486328125,2.5634765625,2.532958984375
2.6174999000000003,1.0271124839782715,-0.1628057211637497,9.773730278015137,-3.60107421875,-2.8076171875,-2.166748046875
2.6224999,1.0438719987869263,-0.14006079733371735,9.160215377807617,3.448486328125,3.11279296875,0.732421875
2.6274999,1.0211269855499268,-0.16160862147808075,9.403825759887695,-3.021240234375,-2.593994140625,-0.42724609375
2.6324999,1.0211269855499268,-0.16160862147808075,9.403825759887695,-3.021240234375,-2.593994140625,-0.42724609375
2.6374999000000003,1.003769040107727,-0.14185644686222076,9.21947193145752,-1.556396484375,-1.922607421875,1.800537109375
2.6424999000000002,1.0055646896362305,-0.25977087020874023,9.459490776062012,2.960205078125,2.13623046875,2.716064453125
2.6474999,1.0055646896362305,-0.25977087020874023,9.459490776062012,2.960205078125,2.13623046875,2.716064453125
2.6524999,1.006163239479065,-0.23283611238002777,9.660603523254395,-3.204345703125,-2.197265625,-2.288818359375
2.6574999000000004,1.0342950820922852,-0.19393034279346466,9.170989990234375,2.899169921875,2.62451171875,0.48828125
2.6624999000000003,1.0313023328781128,-0.16101007163524628,9.416994094848633,-2.716064453125,-2.655029296875,0.152587890625
2.6674999,1.0097545385360718,-0.16998831927776337,8.89146614074707,1.556396484375,2.105712890625,-1.708984375
2.6724999,1.0019733905792236,-0.09217676520347595,9.23443603515625,-0.67138671875,-1.495361328125,2.288818359375
2.6774999000000004,1.0013748407363892,-0.24420857429504395,9.503185272216797,-3.23486328125,-2.0751953125,-2.532958984375
2.6824999000000003,1.0013748407363892,-0.24420857429504395,9.503185272216797,-3.23486328125,-2.0751953125,-2.532958984375
2.6874999,1.0223240852355957,-0.25079262256622314,9.154230117797852,2.8076171875,2.593994140625,0.885009765625
2.6924999,1.037886381149292,-0.1975216418504715,9.460687637329102,-2.3193359375,-2.105712890625,0.244140625
2.6974999,1.0013748407363892,-0.18076223134994507,8.96149730682373,1.434326171875,1.89208984375,-1.8310546875
2.7024999000000003,0.9588778018951416,-0.13527239859104156,9.18355941772461,-0.335693359375,-1.007080078125,2.5634765625
2.7074999,0.943913996219635,-0.12868833541870117,8.9866361618042,-0.762939453125,0.274658203125,-3.570556640625
2.7124999,0.9672574996948242,-0.13826514780521393,9.117718696594238,2.105712890625,0.54931640625,3.448486328125
2.7174999,0.9720458984375,-0.12090718746185303,9.37509536743164,-2.5634765625,-1.434326171875,-3.631591796875
2.7224999000000003,1.0348936319351196,-0.11372458189725876,9.627683639526367,-2.8076171875,-1.922607421875,-1.678466796875
2.7274999,1.0684125423431396,-0.14604631066322327,9.1662015914917,2.01416015625,2.25830078125,-0.457763671875
2.7324999,1.0743980407714844,-0.10115502029657364,9.413402557373047,-1.434326171875,-1.739501953125,1.434326171875
2.7374999,1.1162965297698975,-0.1364694982767105,9.059659004211426,0.152587890625,0.701904296875,-2.99072265625
2.7424999000000003,1.0324994325637817,-0.1412578970193863,9.106945037841797,1.15966796875,-0.06103515625,3.265380859375
2.7474999,1.0001777410507202,-0.19273324310779572,9.06983470916748,-2.288818359375,-0.732421875,-3.7841796875
2.7524999,0.9355342984199524,-0.25438392162323,8.939949035644531,2.716064453125,1.52587890625,2.8076171875
2.7574999,0.889445960521698,-0.29568392038345337,9.016563415527344,-2.86865234375,-1.800537109375,-2.13623046875
2.7624999000000003,0.9475052952766418,-0.3172317147254944,8.700529098510742,2.38037109375,2.044677734375,0.091552734375
2.7674999000000002,0.970848798751831,-0.2106897532939911,8.927978515625,-1.617431640625,-1.64794921875,1.007080078125
2.7724999,1.0797849893569946,-0.15143325924873352,8.723274230957031,0.213623046875,1.03759765625,-2.8076171875
2.7774999,1.026513934135437,-0.08379705995321274,8.903437614440918,0.54931640625,-0.213623046875,3.0517578125
2.7824999000000004,1.0372878313064575,-0.09816227108240128,8.965087890625,-2.13623046875,-0.67138671875,-3.72314453125
2.7874999000000003,0.9259575009346008,-0.2082955539226532,8.999205589294434,-2.716064453125,-1.8310546875,-1.922607421875
2.7924999,0.9534908533096313,-0.2861070930957794,8.636484146118164,2.349853515625,2.13623046875,0.152587890625
2.7974999,0.9720458984375,-0.2041056901216507,8.844181060791016,-1.03759765625,-1.46484375,1.40380859375
2.8024999000000004,0.9409212470054626,-0.1322796493768692,9.299078941345215,-0.091552734375,-1.068115234375,2.105712890625
2.8074999000000003,0.9666589498519897,-0.22445641458034515,9.044695854187012,-1.0986328125,0,-3.326416015625
2.8124999,1.0091559886932373,-0.13407529890537262,9.064447402954102,2.50244140625,0.823974609375,2.8076171875
2.8174999,1.071405291557312,-0.15562310814857483,8.833407402038574,2.532958984375,2.01416015625,0.885009765625
2.8224999,1.0708067417144775,-0.10055647045373917,9.078812599182129,-1.5869140625,-1.617431640625,0.3662109375
2.8274999000000003,1.106719732284546,-0.07900865375995636,8.819640159606934,0.396728515625,0.9765625,-2.44140625
2.8324999,1.027711033821106,-0.05386953800916672,8.950124740600586,1.0986328125,-0.213623046875,2.960205078125
2.8374999,1.0324994325637817,-0.0975637212395668,9.068038940429688,-2.13623046875,-1.190185546875,-3.47900390625
2.8424999,0.9702502489089966,-0.1322796493768692,8.850166320800781,2.5634765625,1.46484375,2.0751953125
2.8474999000000003,0.9235633015632629,-0.19153612852096558,9.191340446472168,-2.13623046875,-1.983642578125,-0.79345703125
2.8524999,0.9558850526809692,-0.18614917993545532,8.841787338256836,1.40380859375,1.434326171875,-1.220703125
2.8574999,0.933738648891449,-0.1538274586200714,9.07641887664795,0.030517578125,-0.396728515625,2.25830078125
2.8624999,0.9522937536239624,-0.18614917993545532,9.05247688293457,-1.28173828125,-0.06103515625,-3.692626953125
2.8674999000000003,1.004966139793396,-0.16998831927776337,9.011775016784668,2.5634765625,0.946044921875,2.5634765625
2.8724999,0.9750386476516724,-0.18794482946395874,9.185953140258789,-2.8076171875,-1.556396484375,-1.922607421875
2.8774999,1.003769040107727,-0.13706804811954498,8.89685344696045,2.197265625,1.46484375,0.48828125
2.8824999,1.0414776802062988,-0.09636662155389786,8.949525833129883,1.556396484375,0.274658203125,2.8076171875
2.8874999000000003,1.0534487962722778,-0.11791443079710007,9.053074836730957,-2.44140625,-0.9765625,-2.838134765625
2.8924999000000002,1.0217255353927612,-0.18614917993545532,8.754398345947266,2.3193359375,1.739501953125,0.946044921875
2.8974999,1.0348936319351196,-0.12689268589019775,8.9249849319458,-1.312255859375,-1.28173828125,0.335693359375
2.9024999,0.9989806413650513,-0.20769700407981873,8.699332237243652,2.44140625,1.3427734375,0.946044921875
2.9074999000000004,1.0097545385360718,-0.17896658182144165,8.980650901794434,-1.373291015625,-1.251220703125,0.152587890625
2.9124999000000003,0.9816226959228516,-0.19213469326496124,8.87171459197998,0.30517578125,0.79345703125,-2.38037109375
2.9174999,0.9816226959228516,-0.1472434103488922,9.059659004211426,1.373291015625,0.152587890625,2.777099609375
2.9224999,1.0271124839782715,-0.10354922711849213,9.197924613952637,-2.410888671875,-1.251220703125,-3.11279296875
2.9274999000000004,0.9959878921508789,-0.17058686912059784,8.878896713256836,2.227783203125,1.3427734375,0.946044921875
2.9324999000000003,1.0091559886932373,-0.12629413604736328,9.046490669250488,-1.373291015625,-1.312255859375,0.48828125
2.9374999,0.9720458984375,-0.17417816817760468,8.89026927947998,0.06103515625,0.732421875,-2.74658203125
2.9424999,0.9810241460800171,-0.1562216579914093,8.99621295928955,1.28173828125,0.06103515625,3.265380859375
2.9474999,0.970848798751831,-0.18914192914962769,8.967482566833496,-5.06591796875,-2.9296875,2.166748046875
2.9524999000000003,0.558447539806366,-0.24181437492370605,8.787917137145996,-3.60107421875,-14.46533203125,17.333984375
2.9574999,0.292691171169281,-0.4710591733455658,8.701725959777832,2.44140625,-18.98193359375,17.333984375
2.9624999,0.08619125932455063,-0.9151836037635803,9.00279712677002,4.5166015625,-27.862548828125,34.149169921875
2.9674999,-0.15263035893440247,-1.7076643705368042,9.116521835327148,10.833740234375,-37.139892578125,42.54150390625
2.9724999000000003,-0.2885012924671173,-1.7944542169570923,9.001001358032227,17.852783203125,-37.384033203125,76.416015625
2.9774999,-0.8643068075180054,-2.3092074394226074,8.544905662536621,26.2451171875,-40.374755859375,87.432861328125
2.9824999,-1.259350061416626,-2.0422539710998535,8.402450561523438,32.2265625,-39.093017578125,121.429443359375
2.9874999,-1.955464243888855,-2.079962730407715,7.994239330291748,63.812255859375,-32.989501953125,112.213134765625
2.9924999000000003,-2.1984755992889404,-1.9740192890167236,8.513781547546387,44.98291015625,-41.259765625,138.48876953125
2.9974999,-2.186504602432251,-1.9794062376022339,8.752004623413086,65.521240234375,-23.49853515625,126.40380859375
3.0024999,-1.8249802589416504,-1.4933832883834839,8.82083797454834,60.4248046875,-25.604248046875,97.564697265625
3.0074999,-0.9193734526634216,-1.2892776727676392,9.254786491394043,35.64453125,-7.6904296875,76.629638671875
3.0124999000000003,2.962226152420044,1.8620903491973877,5.957372188568115,-47.637939453125,48.15673828125,-66.7724609375
3.0174999000000002,3.949235677719116,2.757521867752075,5.550358295440674,-88.165283203125,56.427001953125,-95.916748046875
3.0224999,4.915894508361816,3.7900211811065674,5.644928932189941,-110.90087890625,48.004150390625,-97.0458984375
3.0274999,6.016628742218018,4.796782970428467,6.728305339813232,-77.08740234375,61.70654296875,-103.179931640625
3.0324999000000004,6.92343282699585,5.082291603088379,8.87291145324707,-2.777099609375,91.85791015625,-115.875244140625
3.0374999000000003,7.061099529266357,4.646546840667725,10.38604736328125,37.567138671875,71.35009765625,-89.29443359375
3.0424999,4.669890403747559,2.3068132400512695,10.843937873840332,3.082275390625,-2.13623046875,-33.935546875
3.0474999,2.693476915359497,1.0235211849212646,10.157401084899902,-24.688720703125,-7.4462890625,-12.908935546875
3.0524999000000004,0.8110358119010925,0.1933317929506302,9.607931137084961,-15.167236328125,13.97705078125,15.960693359375
3.0574999000000003,-1.5352818965911865,-2.2373814582824707,10.208277702331543,2.532958984375,-19.04296875,-2.62451171875
3.0624999,-0.9181763529777527,-2.078765630722046,10.178350448608398,-7.659912109375,-17.486572265625,-10.498046875
3.0674999,-0.08619125932455063,-1.5538369417190552,9.917980194091797,0.9765625,-4.730224609375,1.0986328125
3.0724999000000004,0.7559691667556763,-0.8684966564178467,9.725247383117676,3.2958984375,-10.528564453125,-7.99560546875
3.0774999000000003,1.5682021379470825,-0.24600422382354736,9.625887870788574,-4.638671875,-1.64794921875,-12.939453125
3.0824999,2.0183119773864746,0.20051439106464386,9.490615844726562,0.79345703125,11.749267578125,2.50244140625
3.0874999,2.1272482872009277,0.37888240814208984,9.458293914794922,1.556396484375,2.38037109375,-4.150390625
3.0924999,2.0697872638702393,0.31842881441116333,9.552865028381348,-4.39453125,8.209228515625,-6.65283203125
3.0974999000000003,1.6753426790237427,0.12749123573303223,9.67077922821045,3.997802734375,13.519287109375,8.331298828125
3.1024999,1.1671733856201172,-0.04728548228740692,9.77133560180664,3.11279296875,-2.13623046875,-3.936767578125
3.1074999,0.47884035110473633,-0.22505496442317963,9.971850395202637,3.204345703125,3.2958984375,7.232666015625
3.1124999,0.35254621505737305,-0.1999158412218094,9.914389610290527,0.42724609375,-11.71875,-5.37109375
3.1174999000000003,0.5297171473503113,-0.17238251864910126,9.982025146484375,-6.16455078125,-2.227783203125,-3.631591796875
3.1224999,0.6829460263252258,-0.12389993667602539,9.84256362915039,3.7841796875,2.899169921875,9.33837890625
3.1274999,0.9091981053352356,-0.12988543510437012,9.717466354370117,-0.701904296875,-8.60595703125,-6.53076171875
3.1324999,1.2042834758758545,-0.16220717132091522,9.86111831665039,-4.0283203125,5.43212890625,-1.220703125
3.1374999000000003,1.169567584991455,-0.16998831927776337,9.644442558288574,5.92041015625,6.34765625,7.38525390625
3.1424999000000002,1.1516109704971313,-0.19692309200763702,9.708487510681152,-2.197265625,-5.523681640625,-9.368896484375
3.1474999,1.037886381149292,-0.2232593148946762,9.841365814208984,-1.77001953125,8.331298828125,1.3427734375
3.1524999,0.7918822169303894,-0.13946224749088287,9.624691009521484,5.401611328125,-0.06103515625,3.570556640625
3.1574999000000004,0.7475894689559937,-0.13766659796237946,9.845556259155273,-5.096435546875,-6.89697265625,-9.796142578125
3.1624999000000003,0.7451952695846558,-0.04728548228740692,9.730634689331055,0.48828125,6.77490234375,6.317138671875
3.1674999,1.0678139925003052,-0.16879121959209442,9.784503936767578,-0.3662109375,-7.2021484375,-6.134033203125
3.1724999,1.1665748357772827,-0.1999158412218094,9.95748519897461,-3.814697265625,4.608154296875,-1.28173828125
3.1774999000000004,0.9894038438796997,-0.1496376097202301,9.707889556884766,6.011962890625,4.82177734375,6.134033203125
3.1824999000000003,0.9498994946479797,-0.14365209639072418,9.843161582946777,-4.486083984375,-7.01904296875,-9.3994140625
3.1874999,0.9002198576927185,-0.07661445438861847,9.749189376831055,0.396728515625,8.270263671875,4.669189453125
3.1924999,0.7451952695846558,-0.08439560979604721,9.615114212036133,3.47900390625,-3.814697265625,-0.396728515625
3.1974999000000004,0.8708908557891846,-0.10534487664699554,9.840168952941895,-5.859375,-3.326416015625,-5.37109375
3.2024999000000003,0.8289923667907715,-0.11791443079710007,9.700706481933594,5.035400390625,6.317138671875,8.60595703125
3.2074999,0.8738836050033569,-0.14844051003456116,9.807847023010254,-2.044677734375,-8.97216796875,-6.77490234375
3.2124999,0.9971849918365479,-0.12449848651885986,9.889249801635742,-3.23486328125,3.47900390625,0.396728515625
3.2174999,0.8876502513885498,-0.07960720360279083,9.653421401977539,5.67626953125,1.922607421875,3.509521484375
3.2224999000000003,0.9457096457481384,-0.09696517139673233,9.907206535339355,-6.103515625,-6.622314453125,-7.01904296875
3.2274999,0.899621307849884,-0.07422025501728058,9.6989107131958,3.7841796875,7.87353515625,7.14111328125
3.2324999,0.9097966551780701,-0.07182604819536209,9.782708168029785,-0.701904296875,-7.2021484375,-5.645751953125
3.2374999,0.9546879529953003,-0.10714052617549896,9.839570045471191,-2.899169921875,3.509521484375,1.251220703125
3.2424999000000003,0.8948329091072083,-0.10773907601833344,9.607333183288574,5.4931640625,1.617431640625,2.3193359375
3.2474999,0.9684545993804932,-0.15741875767707825,9.865906715393066,-6.04248046875,-5.0048828125,-5.7373046875
3.2524999,0.9181763529777527,-0.15562310814857483,9.823410034179688,-2.62451171875,-7.537841796875,-6.866455078125
3.2574999,0.9516952037811279,-0.166995570063591,9.870096206665039,-0.732421875,5.157470703125,3.5400390625
3.2624999000000003,0.849941611289978,-0.1562216579914093,9.622895240783691,3.204345703125,-1.983642578125,-1.190185546875
3.2674999000000002,0.9558850526809692,-0.1933317929506302,9.971850395202637,-5.462646484375,-3.021240234375,-2.74658203125
3.2724999,0.8954314589500427,-0.12449848651885986,9.585784912109375,6.103515625,5.4931640625,5.18798828125
3.2774999,0.9738415479660034,-0.11971008777618408,9.911994934082031,-5.79833984375,-8.026123046875,-6.805419921875
3.2824999000000004,0.9911994934082031,-0.12210428714752197,9.874286651611328,-2.5634765625,2.777099609375,2.13623046875
3.2874999000000003,0.9361328482627869,-0.13168109953403473,9.582792282104492,4.94384765625,1.373291015625,0.30517578125
3.2924999,0.9756371974945068,-0.17836803197860718,9.929352760314941,-5.767822265625,-4.364013671875,-3.60107421875
3.2974999,0.9020155072212219,-0.14365209639072418,9.583391189575195,5.92041015625,6.4697265625,4.82177734375
3.3024999000000004,0.8966285586357117,-0.10354922711849213,9.72165584564209,2.960205078125,6.683349609375,6.04248046875
3.3074999000000003,0.8571242094039917,-0.11372458189725876,9.813234329223633,-0.762939453125,-5.79833984375,-5.340576171875
3.3124999,0.9265560507774353,-0.13946224749088287,9.870096206665039,-1.434326171875,3.143310546875,3.2958984375
3.3174999,0.872686505317688,-0.1538274586200714,9.64683723449707,3.662109375,-0.244140625,-1.64794921875
3.3224999000000004,0.9852139949798584,-0.20111294090747833,9.932345390319824,-4.913330078125,-2.349853515625,-1.251220703125
3.3274999000000003,0.9277531504631042,-0.17836803197860718,9.531316757202148,5.79833984375,5.035400390625,2.655029296875
3.3324999,0.9588778018951416,-0.20350714027881622,9.906607627868652,-5.950927734375,-6.16455078125,-4.82177734375
3.3374999,0.9367313981056213,-0.15143325924873352,9.651026725769043,4.974365234375,7.110595703125,5.06591796875
3.3424999,0.9265560507774353,-0.14664486050605774,9.892841339111328,-3.814697265625,-7.14111328125,-6.28662109375
3.3474999000000003,0.9319429993629456,-0.12270283699035645,9.754576683044434,2.044677734375,6.16455078125,5.43212890625
3.3524999,0.8984242081642151,-0.1173158809542656,9.804854393005371,-0.48828125,-4.791259765625,-5.096435546875
3.3574999,0.9522937536239624,-0.14903905987739563,9.832387924194336,-1.46484375,2.9296875,3.5400390625
3.3624999,0.9277531504631042,-0.12449848651885986,9.521739959716797,5.035400390625,3.47900390625,0.67138671875
3.3674999000000003,0.9696516990661621,-0.1975216418504715,9.944316864013672,-5.55419921875,-4.730224609375,-2.50244140625
3.3724999,0.8810662031173706,-0.17238251864910126,9.52353572845459,5.645751953125,6.011962890625,3.143310546875
3.3774999,0.9103952050209045,-0.19572599232196808,10.002376556396484,-5.43212890625,-6.683349609375,-4.486083984375
3.3824999,0.882861852645874,-0.12389993667602539,9.667786598205566,4.486083984375,6.7138671875,4.82177734375
3.3874999000000003,0.8948329091072083,-0.12928688526153564,9.965266227722168,-3.936767578125,-6.7138671875,-5.523681640625
3.3924999000000002,0.8990227580070496,-0.09277531504631042,9.707889556884766,2.593994140625,5.889892578125,5.126953125
3.3974999,0.9385270476341248,-0.0867898091673851,9.850942611694336,-1.556396484375,-5.126953125,-5.615234375
3.4024999,0.9313444495201111,-0.11611878126859665,9.725846290588379,0.42724609375,4.0283203125,4.486083984375
3.4074999000000004,0.9475052952766418,-0.10474632680416107,9.733627319335938,0.640869140625,-2.99072265625,-4.425048828125
3.4124999000000003,1.0127472877502441,-0.16879121959209442,9.781511306762695,-1.678466796875,1.77001953125,3.41796875
3.4174999,0.9133879542350769,-0.09217676520347595,9.510367393493652,4.82177734375,3.84521484375,-0.18310546875
3.4224999,0.9247604012489319,-0.17836803197860718,9.956287384033203,-5.096435546875,-4.5166015625,-1.129150390625
3.4274999000000004,0.8655039072036743,-0.17058686912059784,9.536704063415527,5.340576171875,4.94384765625,1.28173828125
3.4324999000000003,0.9493009448051453,-0.20470423996448517,10.036493301391602,-5.31005859375,-5.18798828125,-2.0751953125
3.4374999,0.8708908557891846,-0.20350714027881622,9.604938507080078,5.218505859375,5.615234375,2.044677734375
3.4424999,0.9475052952766418,-0.19273324310779572,10.093356132507324,-5.157470703125,-5.645751953125,-3.2958984375
3.4474999000000004,0.8864531517028809,-0.17956513166427612,9.639654159545898,4.791259765625,5.828857421875,2.74658203125
3.4524999000000003,0.9157821536064148,-0.13706804811954498,10.036493301391602,-4.852294921875,-5.9814453125,-3.7841796875
3.4574999,0.9038111567497253,-0.11552023142576218,9.622895240783691,4.669189453125,5.9814453125,3.387451171875
3.4624999,0.93254154920578,-0.09397241473197937,9.625887870788574,4.0283203125,5.279541015625,3.72314453125
3.4674999,0.912190854549408,-0.10295066982507706,9.965864181518555,-3.90625,-5.79833984375,-4.638671875
3.4724999000000003,0.9684545993804932,-0.13826514780521393,9.619303703308105,3.631591796875,5.43212890625,4.058837890625
3.4774999,0.9361328482627869,-0.14245499670505524,9.909601211547852,-3.5400390625,-5.218505859375,-4.8828125
3.4824999,0.99479079246521,-0.14425064623355865,9.582193374633789,3.143310546875,5.157470703125,3.936767578125
3.4874999,0.9463081955909729,-0.11791443079710007,9.852140426635742,-3.41796875,-4.7607421875,-4.7607421875
3.4924999000000003,0.9894038438796997,-0.10055647045373917,9.57441234588623,2.99072265625,4.974365234375,4.08935546875
3.4974999,0.9181763529777527,-0.08140286058187485,9.849146842956543,-3.11279296875,-4.608154296875,-4.852294921875
3.5024999,0.9552865028381348,-0.08319851011037827,9.604938507080078,3.021240234375,4.425048828125,3.997802734375
3.5074999,0.8882488012313843,-0.08200141042470932,9.86889934539795,-2.838134765625,-4.547119140625,-4.852294921875
3.5124999000000003,0.9367313981056213,-0.10953472554683685,9.633070945739746,2.838134765625,4.241943359375,3.96728515625
3.5174999000000002,0.8792705535888672,-0.0999579206109047,9.874884605407715,-3.173828125,-4.39453125,-4.69970703125
3.5224999,0.9576807022094727,-0.15562310814857483,9.625288963317871,3.204345703125,4.425048828125,3.509521484375
3.5274999,0.8984242081642151,-0.11192893236875534,9.949105262756348,-3.2958984375,-4.180908203125,-4.425048828125
3.5324999000000004,0.9648633003234863,-0.13168109953403473,9.659406661987305,3.41796875,4.5166015625,3.35693359375
3.5374999000000003,0.8984242081642151,-0.1041477769613266,9.971251487731934,-3.753662109375,-4.638671875,-3.90625
3.5424999,0.950498104095459,-0.11013327538967133,9.595361709594727,3.692626953125,4.638671875,2.838134765625
3.5474999,0.9127894043922424,-0.13048399984836578,9.859322547912598,-3.875732421875,-4.57763671875,-3.570556640625
3.5524999000000004,0.9331400990486145,-0.1538274586200714,9.413402557373047,3.96728515625,4.638671875,2.532958984375
3.5574999000000003,0.9630676507949829,-0.1777694821357727,9.809642791748047,-4.2724609375,-4.5166015625,-2.8076171875
3.5624999,0.9391255974769592,-0.1843535304069519,9.366117477416992,4.241943359375,4.608154296875,1.64794921875
3.5674999,0.9594763517379761,-0.16400282084941864,9.889249801635742,-4.425048828125,-4.425048828125,-2.105712890625
3.5724999000000004,0.9217676520347595,-0.18974047899246216,9.397241592407227,4.241943359375,4.608154296875,1.007080078125
3.5774999000000003,0.9133879542350769,-0.2064998894929886,9.369708061218262,4.21142578125,4.0283203125,-0.18310546875
3.5824999,0.9163807034492493,-0.10235211998224258,9.797073364257812,-3.997802734375,-3.7841796875,-0.1220703125
3.5874999,0.9050082564353943,-0.1975216418504715,9.30925464630127,3.631591796875,3.47900390625,-1.40380859375
3.5924999,0.9271546006202698,-0.07960720360279083,9.734225273132324,-3.35693359375,-3.387451171875,1.007080078125
3.5974999000000003,0.9253589510917664,-0.1107318252325058,9.276932716369629,2.86865234375,2.74658203125,-2.532958984375
3.6024999,0.9977835416793823,0.0035913025494664907,9.411606788635254,1.708984375,1.77001953125,-3.692626953125
3.6074999,0.973242998123169,-0.04189852997660637,9.633668899536133,-1.03759765625,-1.3427734375,3.143310546875
3.6124999,0.9654618501663208,-0.01975216343998909,9.643844604492188,0.213623046875,0.67138671875,-4.241943359375
3.6174999000000003,0.8631097078323364,-0.1215057373046875,9.732429504394531,0.1220703125,0.335693359375,3.936767578125
3.6224999,0.8224082589149475,-0.20769700407981873,9.756970405578613,-1.068115234375,-1.0986328125,-4.669189453125
3.6274999,0.8224082589149475,-0.2232593148946762,9.675567626953125,1.922607421875,1.220703125,4.08935546875
3.6324999,0.8972271084785461,-0.2148796021938324,9.425373077392578,3.143310546875,2.3193359375,3.204345703125
3.6374999000000003,0.8804676532745361,-0.15562310814857483,9.416994094848633,-3.5400390625,-2.899169921875,-3.509521484375
3.6424999000000002,0.9367313981056213,-0.15322890877723694,9.084798812866211,3.662109375,3.265380859375,2.166748046875
3.6474999,0.9277531504631042,-0.13527239859104156,9.261370658874512,-4.08935546875,-3.23486328125,-1.77001953125
3.6524999,0.9397241473197937,-0.20530278980731964,8.843582153320312,3.875732421875,3.35693359375,0.1220703125
3.6574999000000004,0.9271546006202698,-0.15682020783424377,9.164405822753906,-3.570556640625,-3.387451171875,0.030517578125
3.6624999000000003,0.9349357485771179,-0.2932897210121155,8.738237380981445,2.655029296875,2.99072265625,-1.617431640625
3.6674999,0.9343371987342834,-0.11971008777618408,9.051279067993164,-2.0751953125,-2.532958984375,1.953125
3.6724999,0.9660604000091553,-0.13407529890537262,8.76457405090332,1.46484375,1.861572265625,-3.41796875
3.6774999000000004,0.922366201877594,-0.05446808785200119,9.120711326599121,-0.213623046875,-1.129150390625,3.47900390625
3.6824999000000003,0.9415197968482971,-0.031124621629714966,9.153631210327148,-0.823974609375,0.457763671875,-4.302978515625
3.6874999,0.9038111567497253,-0.07302315533161163,9.382277488708496,1.64794921875,0.579833984375,3.753662109375
3.6924999,0.8768763542175293,-0.166995570063591,9.475651741027832,-2.471923828125,-1.15966796875,-4.39453125
3.6974999000000004,0.9331400990486145,-0.1586158573627472,9.376891136169434,3.021240234375,1.861572265625,3.204345703125
3.7024999000000003,0.9074024558067322,-0.17836803197860718,9.446322441101074,-3.387451171875,-2.44140625,-2.9296875
3.7074999,0.9469067454338074,-0.1801636815071106,9.058462142944336,3.692626953125,2.685546875,1.434326171875
3.7124999,0.9014169573783875,-0.11432313174009323,9.428964614868164,-3.814697265625,-2.899169921875,-0.9765625
3.7174999,0.9367313981056213,-0.22206220030784607,8.986037254333496,3.11279296875,2.655029296875,-1.03759765625
3.7224999000000003,0.9163807034492493,-0.11252748221158981,9.405022621154785,-2.166748046875,-2.3193359375,1.5869140625
3.7274999,0.9959878921508789,-0.12330138683319092,9.124302864074707,1.129150390625,1.953125,-3.265380859375
3.7324999,0.9409212470054626,-0.07422025501728058,9.388861656188965,-0.1220703125,-0.9765625,3.47900390625
3.7374999,0.9379284977912903,-0.11252748221158981,9.276932716369629,-0.885009765625,0.213623046875,-4.39453125
3.7424999000000003,0.9091981053352356,-0.1454477459192276,9.375694274902344,2.13623046875,0.579833984375,3.570556640625
3.7474999,0.8493430614471436,-0.20709845423698425,9.516951560974121,-2.899169921875,-1.64794921875,-3.997802734375
3.7524999,0.9020155072212219,-0.16220717132091522,9.49121379852295,-3.5400390625,-2.349853515625,-1.739501953125
3.7574999,0.9552865028381348,-0.19871874153614044,9.011177062988281,3.0517578125,2.8076171875,-0.335693359375
3.7624999000000003,1.013944387435913,-0.1364694982767105,8.863334655761719,1.46484375,2.13623046875,-2.99072265625
3.7674999000000002,0.9510966539382935,-0.04728548228740692,9.207501411437988,-0.091552734375,-1.129150390625,3.265380859375
3.7724999,0.933738648891449,-0.11252748221158981,9.077615737915039,-1.251220703125,0.152587890625,-4.2724609375
3.7774999,0.8990227580070496,-0.13527239859104156,9.173982620239258,2.166748046875,0.91552734375,3.72314453125
3.7824999000000004,0.8523358106613159,-0.19812019169330597,9.301473617553711,-2.8076171875,-1.3427734375,-3.7841796875
3.7874999000000003,0.9115923047065735,-0.20051439106464386,9.096769332885742,3.5400390625,1.89208984375,2.044677734375
3.7924999,0.8888474106788635,-0.10654197633266449,9.505578994750977,-2.99072265625,-2.25830078125,-1.0986328125
3.7974999,0.9576807022094727,-0.1604115068912506,9.09257984161377,2.532958984375,2.685546875,-1.190185546875
3.8024999000000004,0.9475052952766418,-0.04010287672281265,9.46607494354248,-1.220703125,-1.861572265625,1.800537109375
3.8074999000000003,0.983418345451355,-0.053270988166332245,9.225458145141602,0.762939453125,-0.579833984375,3.662109375
3.8124999,0.9660604000091553,-0.11013327538967133,9.139266014099121,-2.410888671875,-0.6103515625,-3.997802734375
3.8174999,0.9145850539207458,-0.18794482946395874,8.93037223815918,2.838134765625,1.556396484375,2.74658203125
3.8224999000000004,0.849941611289978,-0.25917232036590576,9.011775016784668,-3.2958984375,-2.0751953125,-2.25830078125
3.8274999000000003,0.8966285586357117,-0.3058592677116394,8.646060943603516,2.716064453125,2.50244140625,-0.152587890625
3.8324999,0.8978256583213806,-0.18914192914962769,8.969278335571289,-1.861572265625,-1.922607421875,0.885009765625
3.8374999,1.0271124839782715,-0.13347674906253815,8.793902397155762,0.823974609375,1.64794921875,-3.173828125
3.8424999,0.9720458984375,-0.04728548228740692,9.102754592895508,0.457763671875,-0.732421875,3.265380859375
3.8474999000000003,1.0019733905792236,-0.05027823522686958,9.230246543884277,-1.922607421875,-0.396728515625,-4.058837890625
3.8524999,0.961870551109314,-0.0933738648891449,9.236231803894043,2.50244140625,1.007080078125,2.960205078125
3.8574999,0.889445960521698,-0.13287819921970367,9.452906608581543,-3.47900390625,-2.227783203125,-2.5634765625
3.8624999,1.0504560470581055,-0.0867898091673851,9.000402450561523,0.67138671875,1.495361328125,-3.2958984375
3.8674999000000003,1.0504560470581055,-0.0867898091673851,9.000402450561523,0.67138671875,1.495361328125,-3.2958984375
3.8724999,0.9786299467086792,-0.01735796220600605,9.069235801696777,0.579833984375,-0.42724609375,3.35693359375
3.8774999,0.9989806413650513,-0.07302315533161163,9.005789756774902,-1.708984375,-0.48828125,-3.84521484375
3.8824999,0.9289502501487732,-0.1173158809542656,8.834005355834961,2.899169921875,1.52587890625,2.655029296875
3.8874999000000003,0.8445546627044678,-0.1975216418504715,8.910619735717773,-2.838134765625,-2.25830078125,-1.953125
3.8924999000000002,0.8924387097358704,-0.2974795699119568,8.542511940002441,2.655029296875,2.0751953125,-0.457763671875
3.8974999,0.884058952331543,-0.19273324310779572,8.85435676574707,-1.678466796875,-1.708984375,1.861572265625
3.9024999,0.9391255974769592,-0.21308395266532898,8.852560997009277,-0.06103515625,0.8544921875,-3.814697265625
3.9074999000000004,0.9552865028381348,-0.14065934717655182,9.132083892822266,1.64794921875,0.152587890625,3.143310546875
3.9124999000000003,0.9415197968482971,-0.048482585698366165,9.430161476135254,-2.25830078125,-0.79345703125,-3.47900390625
3.9174999,0.9534908533096313,-0.12509703636169434,9.248801231384277,2.899169921875,1.800537109375,1.678466796875
3.9224999,0.9187749028205872,-0.11192893236875534,9.039308547973633,-0.3662109375,-1.068115234375,2.899169921875
3.9274999000000004,0.8984242081642151,-0.17298106849193573,8.999804496765137,-1.15966796875,0.030517578125,-3.90625
3.9324999000000003,0.9085995554924011,-0.17298106849193573,8.969278335571289,2.410888671875,1.220703125,2.8076171875
3.9374999,0.849941611289978,-0.18076223134994507,9.225458145141602,-2.899169921875,-1.556396484375,-2.227783203125
3.9424999,0.9397241473197937,-0.2561795711517334,8.876502990722656,2.3193359375,2.227783203125,-0.18310546875
3.9474999000000004,0.9367313981056213,-0.11791443079710007,9.059061050415039,-1.46484375,-1.708984375,1.40380859375
3.9524999000000003,0.9558850526809692,-0.16160862147808075,8.87829875946045,0.335693359375,0.946044921875,-3.387451171875
3.9574999,0.9582792520523071,-0.0867898091673851,8.987833023071289,1.678466796875,0.396728515625,3.082275390625
3.9624999,0.9277531504631042,-0.04967968538403511,9.078214645385742,-2.38037109375,-1.28173828125,-3.326416015625
3.9674999000000004,0.9457096457481384,-0.11552023142576218,8.87829875946045,2.655029296875,2.13623046875,1.251220703125
3.9724999000000003,0.9205705523490906,-0.05985504388809204,9.084798812866211,-2.655029296875,-1.89208984375,0.335693359375
3.9774999,0.9367313981056213,-0.053270988166332245,9.07103157043457,0.48828125,-0.579833984375,2.9296875
3.9824999,0.9564836025238037,-0.07422025501728058,9.162610054016113,-1.861572265625,-0.3662109375,-3.753662109375
3.9874999,0.9056068062782288,-0.1280897855758667,8.960299491882324,2.62451171875,1.983642578125,1.922607421875
3.9924999000000003,0.8367735147476196,-0.13706804811954498,9.188347816467285,-2.8076171875,-2.3193359375,-0.8544921875
3.9974999,0.9283517003059387,-0.18136078119277954,8.887276649475098,1.495361328125,1.89208984375,-1.678466796875
4.0024999,0.8565256595611572,-0.15143325924873352,9.124900817871094,-2.471923828125,-1.495361328125,-1.708984375
4.0074999,0.9199720025062561,-0.2017114907503128,8.778340339660645,1.52587890625,1.922607421875,-1.190185546875
4.0124999,0.899621307849884,-0.090979665517807,9.051877975463867,-0.8544921875,-1.617431640625,2.349853515625
4.0174999,0.9074024558067322,-0.17537526786327362,9.017162322998047,-0.79345703125,0.274658203125,-3.662109375
4.022499900000001,0.8786720037460327,-0.13946224749088287,9.179967880249023,-3.021240234375,-2.13623046875,-1.77001953125
4.0274999000000005,0.9624691009521484,-0.21847090125083923,8.78432559967041,2.105712890625,1.89208984375,-0.8544921875
4.0324999,0.921169102191925,-0.08499415963888168,8.919598579406738,-0.274658203125,-0.946044921875,2.166748046875
4.0374999,0.9091981053352356,-0.18375498056411743,8.812458038330078,-1.251220703125,0.091552734375,-3.631591796875
4.0424999,0.9481038451194763,-0.11432313174009323,8.836400032043457,2.105712890625,0.946044921875,2.50244140625
4.0474999,0.8655039072036743,-0.10115502029657364,9.1045503616333,-2.99072265625,-1.77001953125,-1.5869140625
4.0524999,0.9642647504806519,-0.19452889263629913,8.777143478393555,1.800537109375,1.983642578125,-0.946044921875
4.0574999,0.9253589510917664,-0.05985504388809204,8.954913139343262,-0.946044921875,-1.373291015625,1.953125
4.062499900000001,0.9127894043922424,-0.16998831927776337,8.866327285766602,-1.373291015625,-0.06103515625,-3.509521484375
4.0674999000000005,0.9319429993629456,-0.1041477769613266,8.863933563232422,2.197265625,0.732421875,2.655029296875
4.0724999,0.8457517623901367,-0.10893617570400238,9.16201114654541,-3.143310546875,-1.8310546875,-1.15966796875
4.0774999,0.9421183466911316,-0.17178396880626678,8.843582153320312,1.861572265625,1.739501953125,-1.15966796875
4.0824999,0.9911994934082031,-0.10714052617549896,9.121908187866211,-1.434326171875,-0.54931640625,-3.60107421875
4.0874999,0.9624691009521484,-0.1538274586200714,8.96269416809082,2.593994140625,1.434326171875,1.617431640625
4.0924999,0.9175778031349182,-0.12210428714752197,9.199121475219727,-1.739501953125,-2.105712890625,-0.396728515625
4.0974999,1.0013748407363892,-0.16101007163524628,8.877100944519043,0.640869140625,1.3427734375,-2.349853515625
4.1024999,0.9463081955909729,-0.11671733111143112,8.903437614440918,0.335693359375,-0.3662109375,2.5634765625
4.1074999000000005,0.9882067441940308,-0.09696517139673233,8.803479194641113,-2.410888671875,-0.8544921875,-2.9296875
4.1124999,0.9995791912078857,-0.15981295704841614,8.508394241333008,1.678466796875,2.25830078125,-0.06103515625
4.1174999,1.062427043914795,-0.314238965511322,8.61852741241455,-0.091552734375,14.46533203125,-7.659912109375
4.1224999,1.070208191871643,-0.25498247146606445,8.783727645874023,3.23486328125,11.993408203125,-0.54931640625
4.1274999,1.0324994325637817,-0.19153612852096558,9.114127159118652,-6.744384765625,0.48828125,-7.049560546875
4.1324999,1.0678139925003052,0.2663549482822418,9.068038940429688,-16.937255859375,13.671875,-7.2021484375
4.1374999,0.9816226959228516,0.5225345492362976,9.270947456359863,-29.937744140625,26.214599609375,-13.97705078125
4.1424999,0.8122329115867615,0.557250440120697,9.644442558288574,8.11767578125,8.819580078125,-8.48388671875
4.147499900000001,0.5303156971931458,0.6326677799224854,10.141838073730469,-6.89697265625,-6.683349609375,3.936767578125
4.1524999000000005,0.3100491166114807,0.5171475410461426,10.605714797973633,-34.698486328125,-15.7470703125,8.4228515625
4.1574999,0.11432313174009323,0.38307225704193115,10.802638053894043,-49.9267578125,-7.080078125,5.401611328125
4.1624999,0.2364274114370346,0.33937808871269226,10.596736907958984,-5.523681640625,-13.0615234375,-1.77001953125
4.1674999,0.5141547918319702,0.15562310814857483,10.24000072479248,-41.900634765625,-8.97216796875,12.908935546875
4.1724999,0.7864952683448792,-0.12689268589019775,10.095749855041504,-29.205322265625,-7.354736328125,-0.091552734375
4.1774999,1.3299790620803833,-0.641047477722168,9.499593734741211,-10.345458984375,1.434326171875,-1.922607421875
4.1824999,1.5203180313110352,-1.2054805755615234,8.97885513305664,-30.364990234375,9.033203125,0.946044921875
4.187499900000001,1.3162124156951904,-1.489791989326477,8.725069999694824,8.23974609375,0.42724609375,9.1552734375
4.1924999000000005,1.1605892181396484,-1.8399440050125122,8.387487411499023,3.387451171875,-4.364013671875,-0.42724609375
4.1974999,0.7811083197593689,-2.0817582607269287,8.185176849365234,16.9677734375,1.678466796875,5.859375
4.2024999,0.3705027103424072,-2.2589292526245117,8.161833763122559,43.3349609375,-18.798828125,-2.593994140625
4.2074999,0.23044191300868988,-2.4600422382354736,7.945756912231445,38.909912109375,-2.62451171875,-5.584716796875
4.2124999,0.05446808785200119,-2.387019157409668,8.010998725891113,78.704833984375,-15.31982421875,-4.180908203125
4.2174999,0.2783259451389313,-2.0488381385803223,8.076240539550781,75.592041015625,-15.625,-17.822265625
4.2224999,0.838569164276123,-1.0881646871566772,8.795100212097168,5.79833984375,25.787353515625,-2.716064453125
4.2274999,1.2336124181747437,0.25737667083740234,9.181763648986816,8.819580078125,0.762939453125,-8.270263671875
4.2324999000000005,1.6932991743087769,1.625662922859192,9.90241813659668,10.1318359375,-13.48876953125,-14.70947265625
4.2374999,1.0199298858642578,1.7184382677078247,9.515155792236328,0.244140625,-4.730224609375,4.82177734375
4.2424999,0.707486629486084,-0.35434186458587646,9.82640266418457,4.974365234375,2.0751953125,8.23974609375
4.2474999,0.6584054827690125,-1.2120646238327026,10.087968826293945,-6.134033203125,-6.103515625,-3.021240234375
4.2524999,0.7428010702133179,-1.5275006294250488,9.816226959228516,5.43212890625,2.960205078125,5.06591796875
4.2574999,0.8565256595611572,-1.4550760984420776,9.751583099365234,2.685546875,-3.204345703125,-8.97216796875
4.2624999,1.0295066833496094,-1.0085574388504028,9.713275909423828,-0.885009765625,5.31005859375,-2.197265625
4.2674999,1.0336965322494507,-0.38307225704193115,9.452308654785156,4.150390625,3.84521484375,-0.79345703125
4.272499900000001,1.1150994300842285,0.05267243832349777,9.75936508178711,-5.462646484375,-1.52587890625,-3.875732421875
4.2774999000000005,1.003769040107727,0.3298012912273407,9.603741645812988,3.814697265625,6.317138671875,6.317138671875
4.2824999,0.823006808757782,-0.2735375463962555,9.896432876586914,-1.5869140625,0.48828125,1.007080078125
4.2874999,0.8271966576576233,-0.2819172441959381,9.561842918395996,4.425048828125,0.518798828125,0.152587890625
4.2924999,0.9672574996948242,-0.3130418658256531,9.876082420349121,-5.126953125,-3.41796875,-3.387451171875
4.2974999,1.0055646896362305,-0.16639702022075653,9.513958930969238,5.035400390625,7.415771484375,4.547119140625
4.3024999,1.0384849309921265,-0.14903905987739563,9.843161582946777,-4.8828125,-5.67626953125,-6.16455078125
4.3074999,0.9995791912078857,-0.06883329898118973,9.690531730651855,3.387451171875,7.9345703125,5.859375
4.312499900000001,0.9127894043922424,-0.09696517139673233,9.804854393005371,-1.800537109375,-5.92041015625,-5.7373046875
4.3174999000000005,0.9080010056495667,-0.11552023142576218,9.86770248413086,0.091552734375,3.631591796875,3.7841796875
4.3224999,0.9397241473197937,-0.1322796493768692,9.946112632751465,-3.448486328125,-1.190185546875,0.244140625
4.3274999,0.9642647504806519,-0.14484919607639313,9.927556991577148,-5.157470703125,-4.82177734375,-3.173828125
4.3324999,0.9379284977912903,-0.11791443079710007,9.564237594604492,5.2490234375,6.9580078125,4.33349609375
4.3374999,0.9349357485771179,-0.1909375786781311,9.889848709106445,-4.669189453125,-6.591796875,-5.706787109375
4.3424999,0.9235633015632629,-0.15562310814857483,9.64923095703125,4.150390625,7.476806640625,5.31005859375
4.3474999,0.9151836037635803,-0.16879121959209442,9.822811126708984,-2.50244140625,-6.500244140625,-5.92041015625
4.352499900000001,0.9068039059638977,-0.1149216815829277,9.73781681060791,1.220703125,5.157470703125,4.94384765625
4.3574999000000005,0.8900445103645325,-0.11971008777618408,9.784503936767578,-0.1220703125,-4.241943359375,-4.241943359375
4.3624999,0.9648633003234863,-0.11312603205442429,9.8599214553833,-1.28173828125,1.8310546875,3.11279296875
4.3674999,0.9283517003059387,-0.11791443079710007,9.711481094360352,2.44140625,-0.42724609375,-2.197265625
4.3724999,1.004966139793396,-0.16759411990642548,9.908403396606445,-3.570556640625,-1.678466796875,0.3662109375
4.3774999,0.9684545993804932,-0.15263035893440247,9.512762069702148,4.39453125,3.631591796875,0.335693359375
4.3824999,1.015141487121582,-0.20111294090747833,9.924564361572266,-4.82177734375,-4.150390625,-2.0751953125
4.3874999,0.9295487999916077,-0.16998831927776337,9.478046417236328,5.157470703125,5.9814453125,2.288818359375
4.3924999,0.9493009448051453,-0.18974047899246216,10.007762908935547,-5.06591796875,-6.317138671875,-3.692626953125
4.397499900000001,0.8990227580070496,-0.1280897855758667,9.661202430725098,4.94384765625,6.8359375,4.0283203125
4.4024999000000005,0.8595184087753296,-0.11791443079710007,9.919178009033203,-3.387451171875,-6.4697265625,-5.31005859375
4.4074999,0.9014169573783875,-0.06224924325942993,9.707889556884766,2.62451171875,5.79833984375,4.7607421875
4.4124999,0.9205705523490906,-0.10175357013940811,9.807249069213867,-1.922607421875,-5.157470703125,-5.126953125
4.4174999,0.9313444495201111,-0.09696517139673233,9.683348655700684,1.129150390625,4.638671875,4.45556640625
4.4224999,0.9636662006378174,-0.16879121959209442,9.749788284301758,-0.518798828125,-3.11279296875,-4.7607421875
4.4274999,0.9810241460800171,-0.14844051003456116,9.728240013122559,-0.06103515625,2.838134765625,3.875732421875
4.4324999,0.9367313981056213,-0.19632454216480255,9.754576683044434,0.946044921875,-1.678466796875,-4.119873046875
4.437499900000001,1.0007762908935547,-0.15682020783424377,9.791686058044434,-1.190185546875,0.823974609375,3.143310546875
4.4424999000000005,0.9139865040779114,-0.17836803197860718,9.742605209350586,1.64794921875,-0.54931640625,-3.265380859375
4.4474999,1.01753568649292,-0.15083470940589905,9.853935241699219,-2.25830078125,-0.701904296875,2.44140625
4.4524999,0.9469067454338074,-0.16519992053508759,9.697713851928711,2.593994140625,1.220703125,-2.716064453125
4.4574999,1.0115501880645752,-0.1346738487482071,9.882665634155273,-2.960205078125,-1.708984375,1.708984375
4.4624999,0.950498104095459,-0.0867898091673851,9.627683639526367,3.2958984375,2.44140625,-2.105712890625
4.4674999,0.9636662006378174,-0.10953472554683685,9.864709854125977,-3.41796875,-2.5634765625,1.251220703125
4.4724999,0.9636662006378174,-0.10953472554683685,9.864709854125977,-3.41796875,-2.5634765625,1.251220703125
4.477499900000001,0.9379284977912903,-0.08559270948171616,9.558850288391113,3.72314453125,3.082275390625,-1.373291015625
4.4824999000000005,0.9367313981056213,-0.13706804811954498,9.520543098449707,3.72314453125,3.41796875,-1.28173828125
4.4874999,0.9367313981056213,-0.13706804811954498,9.520543098449707,3.72314453125,3.41796875,-1.28173828125
4.4924999,0.8936358094215393,-0.1801636815071106,9.9185791015625,-3.753662109375,-3.875732421875,0.274658203125
4.4974999,0.93254154920578,-0.15322890877723694,9.527127265930176,3.692626953125,3.936767578125,-0.79345703125
4.5024999,0.8900445103645325,-0.18794482946395874,9.981427192687988,-3.753662109375,-4.180908203125,0.335693359375
4.5074999,0.8960300087928772,-0.1933317929506302,10.025120735168457,-3.692626953125,-4.0283203125,0.3662109375
4.5124999,0.9319429993629456,-0.19812019169330597,9.530119895935059,3.60107421875,4.45556640625,-0.79345703125
4.5174999,0.9115923047065735,-0.17178396880626678,10.040084838867188,-3.60107421875,-4.058837890625,0.54931640625
4.522499900000001,0.9475052952766418,-0.1628057211637497,9.533112525939941,3.35693359375,4.241943359375,-0.9765625
4.5274999000000005,0.9277531504631042,-0.13527239859104156,10.031704902648926,-3.387451171875,-3.90625,0.701904296875
4.5324999,0.945111095905304,-0.13706804811954498,9.50617790222168,3.23486328125,3.753662109375,-1.373291015625
4.5374999,0.9510966539382935,-0.12270283699035645,9.990405082702637,-2.9296875,-3.692626953125,0.9765625
4.5424999,0.9457096457481384,-0.10594342648983002,9.446921348571777,2.86865234375,3.692626953125,-1.77001953125
4.5474999,0.9798270463943481,-0.1149216815829277,9.90361499786377,-2.62451171875,-3.326416015625,1.220703125
4.5524999,0.9672574996948242,-0.05267243832349777,9.374496459960938,2.25830078125,3.326416015625,-2.410888671875
4.5574999,0.9852139949798584,-0.1149216815829277,9.779715538024902,-2.166748046875,-2.99072265625,1.922607421875
4.562499900000001,0.9391255974769592,-0.15502455830574036,9.758766174316406,-0.732421875,-1.708984375,2.9296875
4.5674999000000005,0.9391255974769592,-0.15502455830574036,9.758766174316406,-0.732421875,-1.708984375,2.9296875
4.5724999,0.9259575009346008,-0.09038111567497253,9.571419715881348,0.030517578125,1.0986328125,-3.936767578125
4.5774999,0.8846575021743774,-0.19452889263629913,9.63187313079834,0.244140625,-0.91552734375,3.631591796875
4.5824999,0.9080010056495667,-0.1693897694349289,9.570821762084961,-1.03759765625,-0.06103515625,-4.33349609375
4.5874999,0.839766263961792,-0.23343466222286224,9.580398559570312,1.0986328125,0.244140625,3.96728515625
4.5924999,0.8379706144332886,-0.2621650993824005,9.573814392089844,-1.495361328125,-0.457763671875,-4.69970703125
4.5974999,0.8678981065750122,-0.25079262256622314,9.5624418258667,2.38037109375,1.312255859375,4.058837890625
4.602499900000001,0.8655039072036743,-0.29807811975479126,9.55705451965332,-2.655029296875,-1.678466796875,-4.5166015625
4.6074999000000005,0.9684545993804932,-0.2059013396501541,9.396642684936523,3.173828125,2.166748046875,3.875732421875
4.6124999,0.9307458996772766,-0.17058686912059784,9.592369079589844,-3.692626953125,-2.777099609375,-4.2724609375
4.6174999,0.9157821536064148,-0.047884032130241394,9.650428771972656,-3.662109375,-2.99072265625,-3.23486328125
4.6224999,0.9427168965339661,-0.01975216343998909,9.303269386291504,4.150390625,3.5400390625,2.227783203125
4.6274999,0.9085995554924011,-0.09696517139673233,9.542689323425293,-3.997802734375,-3.60107421875,-1.953125
4.6324999,0.9355342984199524,-0.14425064623355865,9.034520149230957,3.936767578125,3.875732421875,0.8544921875
4.6374999,0.900818407535553,-0.19931729137897491,9.311649322509766,-3.387451171875,-3.41796875,-0.274658203125
4.6424999,0.9582792520523071,-0.26156654953956604,8.813654899597168,3.021240234375,3.326416015625,-1.007080078125
4.647499900000001,0.9570821523666382,-0.1909375786781311,9.203909873962402,-2.105712890625,-3.204345703125,1.495361328125
4.6524999000000005,0.9738415479660034,-0.20051439106464386,8.760383605957031,1.373291015625,2.532958984375,-2.5634765625
4.6574999,1.0103530883789062,-0.10354922711849213,9.156025886535645,-0.79345703125,-2.105712890625,2.685546875
4.6624999,1.039083480834961,-0.055665191262960434,8.920795440673828,0.1220703125,1.617431640625,-3.814697265625
4.6674999,0.9690531492233276,-0.06165069341659546,9.14345645904541,1.312255859375,-0.274658203125,3.84521484375
4.6724999,0.960673451423645,-0.13108254969120026,9.066842079162598,-1.953125,0,-4.45556640625
4.6774999,0.839766263961792,-0.2621650993824005,9.028534889221191,-3.204345703125,-1.678466796875,-4.241943359375
4.6824999,0.9139865040779114,-0.19931729137897491,8.89146614074707,3.72314453125,2.0751953125,3.11279296875
4.687499900000001,0.8810662031173706,-0.19033902883529663,9.033921241760254,-4.058837890625,-2.62451171875,-2.685546875
4.6924999000000005,0.9409212470054626,-0.15562310814857483,8.739435195922852,3.814697265625,2.777099609375,1.312255859375
4.6974999,0.882861852645874,-0.12090718746185303,9.205705642700195,-3.35693359375,-2.8076171875,-0.762939453125
4.7024999,0.9546879529953003,-0.19931729137897491,8.832210540771484,2.99072265625,2.99072265625,-0.701904296875
4.7074999,0.933738648891449,-0.11552023142576218,9.3427734375,-1.28173828125,-2.349853515625,1.373291015625
4.7124999,0.973242998123169,-0.1646013706922531,8.918401718139648,0.579833984375,2.13623046875,-3.204345703125
4.7174999,0.9564836025238037,-0.09696517139673233,9.140463829040527,0.30517578125,-1.434326171875,3.143310546875
4.7224999,0.9044097065925598,-0.1646013706922531,9.288305282592773,-3.509521484375,-1.312255859375,-4.150390625
4.727499900000001,0.8834604024887085,-0.16998831927776337,9.105149269104004,-2.655029296875,-2.593994140625,0.091552734375
4.7324999000000005,0.9151836037635803,-0.24420857429504395,8.640673637390137,1.800537109375,2.5634765625,-1.77001953125
4.7374999,0.9241618514060974,-0.10295066982507706,8.980650901794434,-0.79345703125,-1.64794921875,2.197265625
4.7424999,0.9888052940368652,-0.11971008777618408,8.759785652160645,-0.885009765625,1.3427734375,-3.875732421875
4.7474999,0.970848798751831,-0.03711012750864029,9.05367374420166,2.13623046875,-0.18310546875,3.7841796875
4.7524999,0.9654618501663208,-0.08200141042470932,9.12968921661377,-3.0517578125,-0.579833984375,-4.241943359375
4.7574999,0.9516952037811279,-0.076015904545784,9.10993766784668,3.35693359375,1.251220703125,3.11279296875
4.7624999,0.8517372608184814,-0.1801636815071106,9.218873977661133,-3.326416015625,-2.25830078125,-2.838134765625
4.7674999,0.9026140570640564,-0.14903905987739563,8.903437614440918,3.509521484375,2.227783203125,0.946044921875
4.772499900000001,0.8702923059463501,-0.14365209639072418,9.036913871765137,-2.25830078125,-2.288818359375,0.152587890625
4.7774999000000005,0.8972271084785461,-0.12868833541870117,8.802881240844727,-0.335693359375,-1.52587890625,2.716064453125
4.7824999,0.922366201877594,-0.1711854189634323,8.75080680847168,-1.15966796875,0.518798828125,-3.96728515625
4.7874999,0.9415197968482971,-0.11432313174009323,9.017162322998047,2.685546875,0.06103515625,3.5400390625
4.7924999,0.9373299479484558,-0.09457096457481384,9.318233489990234,-3.265380859375,-0.91552734375,-3.814697265625
4.7974999,0.9534908533096313,-0.11851298063993454,9.190143585205078,3.41796875,1.617431640625,2.3193359375
4.8024999,0.8750807046890259,-0.1454477459192276,9.320028305053711,-3.41796875,-2.410888671875,-1.495361328125
4.8074999,0.9169792532920837,-0.19393034279346466,8.80048656463623,2.13623046875,2.13623046875,-0.67138671875
4.812499900000001,0.9002198576927185,-0.1628057211637497,8.913613319396973,-1.068115234375,-1.678466796875,1.8310546875
4.8174999000000005,1.0235211849212646,-0.14784196019172668,8.576628684997559,-0.518798828125,1.312255859375,-3.509521484375
4.8224999,1.0013748407363892,-0.12389993667602539,8.678980827331543,1.617431640625,-0.3662109375,3.47900390625
4.8274999,1.0133458375930786,-0.1256955862045288,8.677783966064453,-2.777099609375,-0.701904296875,-4.08935546875
4.8324999,0.9648633003234863,-0.1586158573627472,8.608352661132812,3.265380859375,1.220703125,2.74658203125
4.8374999,1.0145429372787476,-0.03651157766580582,8.612542152404785,2.0751953125,-0.30517578125,3.448486328125
4.8424999,1.0187327861785889,-0.060453593730926514,8.655038833618164,-2.8076171875,-1.068115234375,-3.875732421875
4.8474999,0.9487023949623108,-0.08858546614646912,8.588001251220703,3.143310546875,1.312255859375,2.532958984375
4.852499900000001,0.8415619134902954,-0.17657238245010376,8.67598819732666,-3.41796875,-1.953125,-1.617431640625
4.8574999000000005,0.8882488012313843,-0.24600422382354736,8.325836181640625,1.983642578125,1.739501953125,-0.640869140625
4.8624999,0.8924387097358704,-0.18495208024978638,8.528146743774414,-1.007080078125,-1.8310546875,1.861572265625
4.8674999,0.9702502489089966,-0.1909375786781311,8.447341918945312,-0.579833984375,0.823974609375,-3.326416015625
4.8724999,0.9953893423080444,-0.16220717132091522,8.632294654846191,2.44140625,0,3.204345703125
4.8774999,0.99479079246521,-0.10654197633266449,8.979453086853027,-2.86865234375,-0.946044921875,-3.47900390625
4.8824999,0.9091981053352356,-0.18914192914962769,8.775347709655762,1.46484375,1.739501953125,-1.922607421875
4.8874999,0.8678981065750122,-0.11252748221158981,8.96269416809082,0.67138671875,-0.946044921875,2.532958984375
4.8924999,0.8307880163192749,-0.23283611238002777,8.742427825927734,-1.77001953125,0.274658203125,-3.875732421875
4.897499900000001,0.9145850539207458,-0.15322890877723694,8.749011993408203,2.8076171875,0.91552734375,3.143310546875
4.9024999000000005,0.8529343605041504,-0.19273324310779572,8.956708908081055,-3.448486328125,-1.64794921875,-2.3193359375
4.9074999,0.9738415479660034,-0.18974047899246216,8.69753646850586,2.38037109375,1.861572265625,0.30517578125
4.9124999,0.9594763517379761,-0.0586579404771328,9.024344444274902,-1.0986328125,-1.434326171875,1.0986328125
4.9174999,1.028908133506775,-0.07541735470294952,8.806472778320312,-0.335693359375,0.762939453125,-3.082275390625
4.9224999,0.9959878921508789,-0.04668693244457245,8.872312545776367,1.678466796875,-0.152587890625,3.143310546875
4.9274999,0.9959878921508789,-0.05925649031996727,9.004592895507812,-2.38037109375,-1.129150390625,-3.173828125
4.9324999,0.9546879529953003,-0.16519992053508759,8.720879554748535,3.143310546875,1.617431640625,1.708984375
4.937499900000001,0.950498104095459,-0.14844051003456116,8.613739013671875,0.946044921875,1.678466796875,-2.166748046875
4.9424999000000005,0.8942343592643738,-0.1454477459192276,8.802881240844727,1.007080078125,-0.6103515625,2.74658203125
4.9474999,0.9133879542350769,-0.1173158809542656,8.734646797180176,-2.5634765625,-0.732421875,-3.570556640625
4.9524999,0.8924387097358704,-0.15682020783424377,8.711302757263184,3.0517578125,1.129150390625,2.532958984375
4.9574999,0.8164227604866028,-0.17477671802043915,8.80587387084961,-2.532958984375,-1.220703125,-1.617431640625
4.9624999,0.8661024570465088,-0.25079262256622314,8.438364028930664,1.5869140625,1.64794921875,-1.0986328125
4.9674999,0.8421604633331299,-0.13347674906253815,8.670601844787598,-0.152587890625,-1.190185546875,2.105712890625
4.9724999,0.8547300100326538,-0.2711433470249176,8.532336235046387,-1.3427734375,0.244140625,-3.448486328125
4.977499900000001,0.9516952037811279,-0.12868833541870117,8.689156532287598,2.8076171875,0.823974609375,2.685546875
4.9824999000000005,0.8924387097358704,-0.14784196019172668,8.874707221984863,-3.082275390625,-1.77001953125,-2.166748046875
4.9874999,1.0103530883789062,-0.1759738177061081,8.611345291137695,2.105712890625,1.800537109375,-0.18310546875
4.9924999,0.9714473485946655,-0.07122749835252762,8.82323169708252,-0.579833984375,-1.068115234375,1.52587890625
4.9974999,0.9642647504806519,-0.10055647045373917,8.740033149719238,2.349853515625,0.42724609375,2.899169921875
5.0024999,0.8918401598930359,-0.12689268589019775,8.918401718139648,-2.86865234375,-1.5869140625,-2.532958984375
5.0074999,0.9564836025238037,-0.14006079733371735,8.672396659851074,1.983642578125,1.89208984375,0.213623046875
5.0124999,0.9427168965339661,-0.07661445438861847,8.883087158203125,-1.190185546875,-1.220703125,1.15966796875
5.0174999,0.9355342984199524,-0.14006079733371735,8.711302757263184,-0.54931640625,0.6103515625,-3.143310546875
5.022499900000001,0.9487023949623108,-0.11013327538967133,8.79928970336914,2.38037109375,0.274658203125,2.655029296875
5.0274999000000005,0.900818407535553,-0.10714052617549896,8.936956405639648,-2.62451171875,-1.46484375,-2.716064453125
5.0324999,0.9397241473197937,-0.1759738177061081,8.706514358520508,2.197265625,1.617431640625,0.42724609375
5.0374999,0.9445125460624695,-0.1107318252325058,8.82083797454834,-0.79345703125,-1.129150390625,1.0986328125
5.0424999,0.8930372595787048,-0.13168109953403473,8.84058952331543,-2.410888671875,-1.068115234375,-2.532958984375
5.0474999,0.9373299479484558,-0.12689268589019775,8.793902397155762,-0.54931640625,-1.0986328125,1.190185546875
5.0524999,0.9319429993629456,-0.243011474609375,8.574234962463379,-0.54931640625,0.152587890625,-3.326416015625
5.0574999,0.9600749015808105,-0.1388636976480484,8.605359077453613,2.3193359375,0.42724609375,2.716064453125
5.062499900000001,0.8942343592643738,-0.15322890877723694,8.739435195922852,-2.593994140625,-1.28173828125,-2.197265625
5.0674999000000005,0.9385270476341248,-0.19213469326496124,8.522160530090332,1.861572265625,1.373291015625,-0.030517578125
5.0724999,0.8978256583213806,-0.0736217051744461,8.844779968261719,-0.152587890625,-1.15966796875,1.28173828125
5.0774999,0.8678981065750122,-0.23942017555236816,8.689156532287598,-1.220703125,0.18310546875,-3.326416015625
5.0824999,0.9445125460624695,-0.1256955862045288,8.78193187713623,2.410888671875,0.54931640625,2.50244140625
5.0874999,0.8535329103469849,-0.1735796183347702,8.813654899597168,-2.227783203125,-1.312255859375,-1.373291015625
5.0924999,0.9588778018951416,-0.21188685297966003,8.40185260772705,1.708984375,1.64794921875,-0.6103515625
5.0974999,0.9349357485771179,-0.08858546614646912,8.522759437561035,0.335693359375,-0.9765625,1.556396484375
5.102499900000001,0.922366201877594,-0.15921440720558167,8.427590370178223,-2.227783203125,-0.3662109375,-3.47900390625
5.1074999000000005,1.5556325912475586,2.0925323963165283,9.182960510253906,-35.21728515625,28.717041015625,-32.958984375
5.1124999,2.2409727573394775,4.835689067840576,10.47822380065918,-144.561767578125,75.408935546875,-78.43017578125
5.1174999,3.579331636428833,7.610568523406982,12.525266647338867,-171.2646484375,108.88671875,-167.999267578125
5.1224999,5.319317817687988,9.02254867553711,15.063119888305664,-198.028564453125,122.0703125,-241.973876953125
5.1274999,5.319317817687988,9.02254867553711,15.063119888305664,-198.028564453125,122.0703125,-241.973876953125
5.1324999,7.333439826965332,9.317035675048828,17.223886489868164,-220.76416015625,201.59912109375,-257.232666015625
5.1374999,9.026739120483398,7.630321025848389,17.5955867767334,-111.81640625,332.672119140625,-295.318603515625
5.1424999,9.50617790222168,5.655104637145996,16.00224494934082,-12.75634765625,342.46826171875,-390.289306640625
5.147499900000001,8.762179374694824,4.298789024353027,12.442068099975586,1.251220703125,274.444580078125,-410.125732421875
5.1524999000000005,6.715137004852295,3.074753522872925,7.908646583557129,16.510009765625,194.854736328125,-372.49755859375
5.1574999,4.171298027038574,2.10210919380188,3.4602200984954834,44.708251953125,123.47412109375,-331.939697265625
5.1624999,-1.0678139925003052,0.30047231912612915,-4.0084919929504395,126.251220703125,-80.291748046875,-239.44091796875
5.1674999,-1.5412673950195312,-0.012569558806717396,-4.208407878875732,151.611328125,-106.3232421875,-217.010498046875
5.1724999,-1.5532383918762207,-0.2082955539226532,-3.5924997329711914,174.285888671875,-121.826171875,-195.9228515625
5.1774999,-1.278503656387329,-0.3597288131713867,-2.4809916019439697,188.873291015625,-137.8173828125,-173.858642578125
5.1824999,-0.8792705535888672,-0.5889736413955688,-1.0115501880645752,186.34033203125,-161.163330078125,-149.017333984375
5.187499900000001,-0.31364041566848755,-1.193509578704834,2.0661959648132324,140.80810546875,-186.492919921875,-118.46923828125
5.1924999000000005,-0.21966800093650818,-2.2643163204193115,5.5329999923706055,-148.895263671875,-88.56201171875,-65.91796875
5.1974999,-1.2737152576446533,-4.1210198402404785,10.175955772399902,-496.15478515625,6.744384765625,-20.294189453125
5.2024999,-4.055777549743652,-8.98005199432373,15.721525192260742,-1.251220703125,-256.591796875,50.018310546875
5.2074999,-4.055777549743652,-8.98005199432373,15.721525192260742,-1.251220703125,-256.591796875,50.018310546875
5.2124999,-4.073734283447266,-10.497377395629883,14.732121467590332,-25.08544921875,-126.15966796875,60.516357421875
5.2174999,1.3287819623947144,-7.888894557952881,4.364629745483398,44.73876953125,50.537109375,77.301025390625
5.2224999,2.425924777984619,-6.795342922210693,4.419097900390625,-3.60107421875,46.69189453125,69.2138671875
5.227499900000001,2.65097975730896,-6.221333026885986,6.7935471534729,-25.787353515625,12.0849609375,43.914794921875
5.2324999000000005,2.1116859912872314,-5.776610374450684,9.672574996948242,9.490966796875,-4.94384765625,22.064208984375
5.2374999,1.1881226301193237,-5.075109004974365,11.748946189880371,28.86962890625,3.997802734375,18.707275390625
5.2424999,0.25917232036590576,-3.9414546489715576,12.040440559387207,27.374267578125,3.570556640625,17.2119140625
5.2474999,-0.3315969407558441,-2.363675594329834,10.959458351135254,28.045654296875,13.702392578125,12.969970703125
