# Time (seconds),Accel_X,Accel_Y,Accel_Z,Gyro_X,Gyro_Y,Gyro_Z
0.0024999,0.690727174282074,0.3274070918560028,8.641871452331543,-3.41796875,-1.953125,-0.518798828125
0.0074999,0.690727174282074,0.3274070918560028,8.641871452331543,-3.41796875,-1.953125,-0.518798828125
0.012499900000000001,0.669179379940033,0.2902969419956207,8.530540466308594,0.42724609375,-0.213623046875,-1.40380859375
0.0174999,0.8738836050033569,0.3902548849582672,8.756194114685059,3.23486328125,1.220703125,1.007080078125
0.0224999,0.8948329091072083,0.3734954595565796,8.706514358520508,-3.936767578125,0.6103515625,-0.244140625
0.0274999,0.8038532137870789,0.3298012912273407,8.6089506149292,-0.732421875,1.373291015625,-1.190185546875
0.0324999,0.9050082564353943,0.36990416049957275,8.781332969665527,4.2724609375,2.166748046875,0.579833984375
0.0374999,0.8158242106437683,0.19452889263629913,8.73105525970459,-5.31005859375,0.3662109375,-0.42724609375
0.0424999,0.6751648783683777,0.12090718746185303,8.767566680908203,3.84521484375,0,0.9765625
0.0474999,0.6602011322975159,0.2651578485965729,8.756194114685059,-2.716064453125,-2.5634765625,-0.030517578125
0.0524999,0.5554547905921936,0.2950853705406189,8.659229278564453,0.030517578125,-1.8310546875,-1.312255859375
0.0574999,0.7152677774429321,0.5003881454467773,8.629301071166992,3.60107421875,0.030517578125,0.823974609375
0.0624999,0.7960720658302307,0.568622887134552,8.619126319885254,-2.3193359375,-0.48828125,0.06103515625
0.0674999,0.7882909178733826,0.5009866952896118,8.453327178955078,-2.166748046875,0.732421875,-1.220703125
0.0724999,0.9103952050209045,0.48063600063323975,8.497620582580566,4.2724609375,2.197265625,0.396728515625
0.0774999,0.970848798751831,0.39564183354377747,8.544307708740234,-3.35693359375,1.8310546875,0.244140625
0.0824999,0.7846996188163757,0.1693897694349289,8.453926086425781,-2.166748046875,0.67138671875,-1.52587890625
0.0874999,0.7948749661445618,0.10354922711849213,8.593388557434082,5.218505859375,1.373291015625,0.030517578125
0.0924999,0.7314286231994629,0.08559270948171616,8.661623001098633,-2.74658203125,-1.190185546875,0.579833984375
0.0974999,0.5614402890205383,0.07062894850969315,8.740033149719238,-0.701904296875,-2.25830078125,-1.434326171875
0.1024999,0.657806932926178,0.2585737705230713,8.632892608642578,-2.50244140625,-1.007080078125,-1.251220703125
0.1074999,0.8355764150619507,0.3124433159828186,8.419210433959961,3.23486328125,1.3427734375,0.091552734375
0.1124999,0.9493009448051453,0.3292027413845062,8.704718589782715,-0.885009765625,1.373291015625,0.518798828125
0.1174999,0.8864531517028809,0.30226796865463257,8.53293514251709,-4.547119140625,1.28173828125,-0.9765625
0.1224999,0.9038111567497253,0.30885201692581177,8.50061321258545,4.82177734375,1.922607421875,-0.274658203125
0.1274999,0.8882488012313843,0.34416648745536804,8.634089469909668,-2.044677734375,1.373291015625,0.274658203125
0.1324999,0.6745663285255432,0.2232593148946762,8.583212852478027,-2.01416015625,-1.708984375,-1.434326171875
0.1374999,0.6703764796257019,0.21607670187950134,8.624512672424316,4.669189453125,-0.18310546875,-0.091552734375
0.1424999,0.6637924313545227,0.2041056901216507,8.58500862121582,-0.18310546875,-2.105712890625,0.762939453125
0.1474999,0.6230909824371338,0.12928688526153564,8.723274230957031,-2.5634765625,-2.3193359375,-1.312255859375
0.1524999,0.7200561761856079,0.18614917993545532,8.466495513916016,3.143310546875,-0.18310546875,-0.274658203125
0.1574999,0.8942343592643738,0.15981295704841614,8.79809284210205,0.396728515625,0.6103515625,0.9765625
0.1624999,0.8792705535888672,0.14365209639072418,8.818443298339844,-4.486083984375,0.396728515625,-1.3427734375
0.1674999,0.9187749028205872,0.22625206410884857,8.677783966064453,2.74658203125,1.89208984375,-0.579833984375
0.1724999,0.9421183466911316,0.292691171169281,8.729259490966797,0.9765625,2.50244140625,0.732421875
0.17749990000000002,0.8553285598754883,0.3842693865299225,8.537124633789062,-5.55419921875,0.48828125,-1.3427734375
0.1824999,0.6943184733390808,0.4159925580024719,8.346785545349121,4.7607421875,0.42724609375,-0.8544921875
0.1874999,0.7667431235313416,0.4531026780605316,8.427590370178223,0.640869140625,-0.213623046875,1.251220703125
0.1924999,0.6332663297653198,0.28311434388160706,8.614935874938965,-3.0517578125,-2.716064453125,-1.190185546875
0.1974999,0.5901707410812378,0.2561795711517334,8.483255386352539,3.021240234375,-1.251220703125,-0.701904296875
0.2024999,0.7595604658126831,0.17298106849193573,8.82442855834961,1.983642578125,-0.885009765625,1.007080078125
0.20749990000000001,0.8074445128440857,0.11971008777618408,8.91301441192627,-3.662109375,-0.946044921875,-0.9765625
0.2124999,0.768538773059845,0.18495208024978638,8.711901664733887,0.91552734375,1.3427734375,-0.701904296875
0.2174999,0.8236053586006165,0.27653029561042786,8.826224327087402,-5.523681640625,1.312255859375,-0.79345703125
0.2224999,0.7032967209815979,0.32620999217033386,8.625710487365723,2.13623046875,1.190185546875,-1.40380859375
0.2274999,0.7445967197418213,0.3705027103424072,8.722675323486328,2.44140625,1.434326171875,0.946044921875
0.2324999,0.6290764808654785,0.32381579279899597,8.620922088623047,-4.08935546875,-1.800537109375,-0.274658203125
0.2374999,0.5129576921463013,0.32620999217033386,8.503006935119629,2.62451171875,-1.5869140625,-1.190185546875
0.2424999,0.6476315855979919,0.3172317147254944,8.7298583984375,3.11279296875,-1.556396484375,1.15966796875
0.2474999,0.6823474764823914,0.36092591285705566,8.746617317199707,-3.143310546875,-2.197265625,-0.457763671875
0.2524999,0.6619967818260193,0.3076549172401428,8.611943244934082,0.335693359375,-0.701904296875,-1.15966796875
0.2574999,0.8744821548461914,0.4387374520301819,8.767566680908203,3.082275390625,1.220703125,1.0986328125
0.2624999,0.9038111567497253,0.43514615297317505,8.780136108398438,-3.90625,0.732421875,-0.3662109375
0.2674999,0.9038111567497253,0.43514615297317505,8.780136108398438,-3.90625,0.732421875,-0.3662109375
0.2724999,0.8038532137870789,0.36571431159973145,8.638877868652344,-0.946044921875,1.434326171875,-1.251220703125
0.2774999,0.6129156351089478,0.15741875767707825,8.670002937316895,1.708984375,-1.03759765625,-1.739501953125
0.2824999,0.6129156351089478,0.15741875767707825,8.670002937316895,1.708984375,-1.03759765625,-1.739501953125
0.28749990000000003,0.6344634294509888,0.13168109953403473,8.852560997009277,3.814697265625,0.1220703125,0.762939453125
0.2924999,0.6189011335372925,0.2687491476535797,8.806472778320312,-2.62451171875,-2.685546875,0.06103515625
0.2974999,0.5345055460929871,0.32441434264183044,8.777143478393555,-0.335693359375,-2.044677734375,-1.556396484375
0.3024999,0.6811503767967224,0.4902127981185913,8.665813446044922,3.814697265625,-0.42724609375,0.518798828125
0.3074999,0.7846996188163757,0.5871779918670654,8.69873332977295,-2.25830078125,-0.457763671875,0.335693359375
0.3124999,0.8074445128440857,0.5285200476646423,8.553884506225586,-2.532958984375,0.79345703125,-1.15966796875
0.3174999,0.9097966551780701,0.4620809257030487,8.584410667419434,4.058837890625,1.922607421875,0.335693359375
0.3224999,1.0073603391647339,0.4315548539161682,8.69214916229248,-3.2958984375,2.227783203125,0.3662109375
0.3274999,0.7852981686592102,0.13587094843387604,8.559270858764648,-2.288818359375,0.396728515625,-1.739501953125
0.3324999,0.7769184708595276,0.07182604819536209,8.67598819732666,5.401611328125,1.251220703125,0.030517578125
0.3374999,0.5416881442070007,0.060453593730926514,8.83939266204834,-0.91552734375,-2.5634765625,-1.5869140625
0.3424999,0.586579442024231,0.15502455830574036,8.76577091217041,4.33349609375,-1.373291015625,0.1220703125
0.34749990000000003,0.70090252161026,0.3256114423274994,8.770559310913086,-0.9765625,-1.5869140625,0.701904296875
0.35249990000000003,0.6476315855979919,0.24241292476654053,8.771158218383789,-2.8076171875,-1.190185546875,-1.52587890625
0.3574999,0.8289923667907715,0.28969839215278625,8.53532886505127,3.173828125,1.5869140625,0.06103515625
0.3624999,0.9373299479484558,0.2795230448246002,8.740033149719238,-0.823974609375,1.5869140625,0.579833984375
0.3674999,0.899621307849884,0.2795230448246002,8.540117263793945,-4.638671875,1.373291015625,-1.190185546875
0.3724999,0.8966285586357117,0.2861070930957794,8.458115577697754,4.913330078125,1.953125,-0.335693359375
0.3774999,0.8936358094215393,0.333991140127182,8.572439193725586,-1.77001953125,1.373291015625,0.518798828125
0.3824999,0.6865373253822327,0.2621650993824005,8.594585418701172,-2.197265625,-1.922607421875,-1.251220703125
0.3874999,0.6422445774078369,0.21308395266532898,8.616731643676758,4.39453125,-0.579833984375,-0.335693359375
0.3924999,0.6655880808830261,0.21368250250816345,8.676587104797363,0.3662109375,-2.0751953125,0.8544921875
0.3974999,0.6829460263252258,0.14484919607639313,8.379107475280762,3.021240234375,-0.3662109375,-0.244140625
0.4024999,0.8702923059463501,0.10594342648983002,8.589797019958496,0.67138671875,0.762939453125,1.007080078125
0.4074999,0.8744821548461914,0.12449848651885986,8.588001251220703,-4.638671875,0.701904296875,-1.0986328125
0.41249990000000003,0.9271546006202698,0.19871874153614044,8.480860710144043,2.532958984375,1.52587890625,-0.6103515625
0.41749990000000003,0.9804255962371826,0.2885012924671173,8.67479133605957,1.190185546875,2.74658203125,0.79345703125
0.4224999,0.9187749028205872,0.34356793761253357,8.578424453735352,-5.706787109375,0.30517578125,-1.312255859375
0.4274999,0.7308300733566284,0.4106055796146393,8.456320762634277,4.7607421875,0.030517578125,-0.8544921875
0.4324999,0.7942764163017273,0.40701428055763245,8.619126319885254,1.0986328125,-0.396728515625,1.220703125
0.4374999,0.6386532783508301,0.24420857429504395,8.720281600952148,-3.143310546875,-2.9296875,-1.03759765625
0.4424999,0.5452794432640076,0.21128830313682556,8.492233276367188,2.62451171875,-1.52587890625,-0.54931640625
0.4474999,0.729034423828125,0.16220717132091522,8.683769226074219,2.105712890625,-0.67138671875,1.03759765625
0.4524999,0.7805097699165344,0.18495208024978638,8.631096839904785,-3.7841796875,-1.03759765625,-0.79345703125
0.4574999,0.790086567401886,0.33279404044151306,8.741230010986328,2.9296875,1.708984375,0.885009765625
0.4624999,0.6715735793113708,0.27413609623908997,8.741828918457031,-3.631591796875,-2.166748046875,-0.18310546875
0.4674999,0.5482721924781799,0.21188685297966003,8.735843658447266,0.9765625,-1.251220703125,-1.3427734375
0.47249990000000003,0.706289529800415,0.3669114112854004,8.837596893310547,0.579833984375,0.18310546875,1.373291015625
0.47749990000000003,0.9151836037635803,0.3274070918560028,9.042900085449219,-7.415771484375,1.983642578125,2.227783203125
0.4824999,0.8990227580070496,0.4387374520301819,8.381501197814941,-8.636474609375,6.439208984375,-3.41796875
0.4874999,1.1803414821624756,0.6919242739677429,8.67598819732666,3.326416015625,1.77001953125,-6.805419921875
0.4924999,0.718859076499939,0.3196259140968323,8.472481727600098,-3.173828125,3.143310546875,5.157470703125
0.4974999,0.6859387755393982,0.7170634269714355,8.355764389038086,-12.39013671875,-10.406494140625,19.683837890625
0.5024999,-3.376422882080078,-1.9399019479751587,4.3406877517700195,17.303466796875,-64.697265625,104.736328125
0.5074999,-4.813542366027832,-3.4781765937805176,3.5398271083831787,52.459716796875,-71.197509765625,156.18896484375
0.5124999,-5.525218963623047,-3.864241600036621,2.141613483428955,114.166259765625,-87.982177734375,188.629150390625
0.5174999,-5.553949356079102,-4.69024133682251,2.3552958965301514,174.74365234375,-76.751708984375,183.2275390625
0.5224999,-4.2329487800598145,-4.04201078414917,3.450044631958008,171.661376953125,-78.06396484375,178.40576171875
0.5274999,-2.519298791885376,-3.2321722507476807,4.495113849639893,153.900146484375,-78.857421875,137.75634765625
0.5324999,-0.524330198764801,-1.9279309511184692,5.7556610107421875,139.5263671875,-77.63671875,91.766357421875
0.5374999,1.5616180896759033,-0.6063315868377686,6.385335922241211,132.049560546875,-66.497802734375,54.168701171875
0.5424999,3.530250310897827,0.2885012924671173,6.991667747497559,113.4033203125,-62.469482421875,35.552978515625
0.5474999,4.821323871612549,0.9493009448051453,6.711545944213867,81.146240234375,-56.396484375,25.93994140625
0.5524999,5.5545477867126465,1.8620903491973877,5.694010257720947,16.78466796875,-33.14208984375,39.337158203125
0.5574999,4.97934103012085,2.1811177730560303,4.945223808288574,-31.463623046875,-34.515380859375,36.92626953125
0.5624999,4.155137062072754,2.7940332889556885,4.530427932739258,-78.2470703125,-20.81298828125,26.824951171875
0.5674999000000001,3.264493942260742,3.072359323501587,4.182071685791016,-121.551513671875,6.561279296875,22.369384765625
0.5724999000000001,2.8227639198303223,3.1980550289154053,4.195838451385498,-164.276123046875,29.632568359375,33.233642578125
0.5774999000000001,2.5552117824554443,3.3710360527038574,4.1156325340271,-201.629638671875,42.144775390625,36.407470703125
0.5824999,2.476203203201294,3.359065055847168,4.126406669616699,-233.856201171875,75.531005859375,23.712158203125
0.5874999,3.316567897796631,4.464587688446045,5.067926406860352,-235.809326171875,114.68505859375,1.708984375
0.5924999,4.541202068328857,5.937620162963867,6.656479358673096,-110.16845703125,207.03125,-74.859619140625
0.5974999,5.966948986053467,6.839635848999023,8.434772491455078,71.258544921875,224.517822265625,-186.981201171875
0.6024999,7.017405033111572,7.426215171813965,9.749189376831055,61.09619140625,110.198974609375,-186.492919921875
0.6074999,6.706757545471191,6.411073684692383,9.930550575256348,-4.547119140625,35.2783203125,-126.953125
0.6124999,3.4147300720214844,3.0771477222442627,8.917203903198242,-15.838623046875,85.784912109375,-36.62109375
0.6174999,1.7178397178649902,1.7764976024627686,8.917203903198242,-1.861572265625,110.809326171875,-8.453369140625
0.6224999,0.6943184733390808,0.6404489278793335,9.402029991149902,-8.941650390625,74.70703125,11.810302734375
0.6274999,0.25977087020874023,-0.025737667456269264,10.047865867614746,-6.378173828125,50.537109375,27.862548828125
0.6324999,0.3010708689689636,-0.7350199222564697,10.561422348022461,-1.708984375,39.794921875,41.961669921875
0.6374999,0.3196259140968323,-1.0336965322494507,10.755950927734375,4.608154296875,22.94921875,54.99267578125
0.6424999,-0.13048399984836578,0.2124854028224945,9.782708168029785,-5.55419921875,-4.08935546875,5.31005859375
0.6474999,0.03711012750864029,-0.03292027488350868,9.66419506072998,-0.152587890625,2.13623046875,-3.814697265625
0.6524999,0.3926490843296051,-0.16998831927776337,9.680954933166504,0.3662109375,5.889892578125,-4.608154296875
0.6574999,0.5518634915351868,-0.19452889263629913,9.724648475646973,2.01416015625,3.173828125,-3.23486328125
0.6624999,0.7523778676986694,-0.030526071786880493,9.821614265441895,0.335693359375,2.349853515625,-2.105712890625
0.6674999,0.727837324142456,0.15322890877723694,9.730634689331055,1.983642578125,3.60107421875,-3.41796875
0.6724999,0.760757565498352,0.3770867586135864,9.834183692932129,-3.021240234375,4.33349609375,-3.021240234375
0.6774999,0.6332663297653198,0.43035775423049927,9.75278091430664,-0.213623046875,6.40869140625,-3.753662109375
0.6824999,0.6368576288223267,0.47165772318840027,9.778518676757812,0.030517578125,5.645751953125,1.28173828125
0.6874999,0.4429273009300232,0.33698388934135437,9.82759952545166,1.922607421875,-0.823974609375,2.838134765625
0.6924999000000001,0.2908954918384552,0.28371289372444153,9.79527759552002,0.030517578125,-1.190185546875,-2.99072265625
0.6974999000000001,0.38067805767059326,0.29568392038345337,9.793481826782227,-2.9296875,2.899169921875,-1.708984375
0.7024999000000001,0.3477577865123749,0.31783026456832886,9.854534149169922,0.1220703125,1.52587890625,-2.5634765625
0.7074999,0.48901569843292236,0.28371289372444153,9.88745403289795,1.46484375,-1.129150390625,3.84521484375
0.7124999,0.4495113790035248,0.29867666959762573,9.8970308303833,1.46484375,-7.080078125,2.227783203125
0.7174999,0.5716156363487244,0.22864626348018646,9.824007987976074,-0.701904296875,-3.265380859375,-0.67138671875
0.7224999,0.5674257874488831,0.2849099934101105,9.803657531738281,-0.885009765625,-1.373291015625,-3.631591796875
0.7274999,0.5231330990791321,0.25917232036590576,9.710882186889648,2.105712890625,0.823974609375,4.608154296875
0.7324999,0.6057330369949341,0.27054479718208313,9.997588157653809,0.518798828125,-2.410888671875,1.434326171875
0.7374999,0.47584760189056396,0.3106476664543152,9.758167266845703,0,-0.823974609375,-1.8310546875
0.7424999,0.5680243372917175,0.29867666959762573,9.879075050354004,-3.23486328125,3.60107421875,-3.936767578125
0.7474999,0.45669397711753845,0.34356793761253357,9.779715538024902,0.9765625,4.39453125,-1.556396484375
0.7524999,0.5285200476646423,0.32441434264183044,9.786299705505371,1.89208984375,-0.48828125,3.875732421875
0.7574999,0.4273650050163269,0.2495955228805542,9.819219589233398,1.800537109375,-6.04248046875,-0.823974609375
0.7624999,0.49799394607543945,0.2825157940387726,9.776124000549316,-2.25830078125,-0.48828125,-2.8076171875
0.7674999,0.45489832758903503,0.29388827085494995,9.801861763000488,-1.89208984375,3.173828125,-1.922607421875
0.7724999,0.507570743560791,0.304063618183136,9.778518676757812,1.52587890625,1.28173828125,4.974365234375
0.7774999,0.4908113479614258,0.30945056676864624,9.88506031036377,1.220703125,-5.096435546875,1.312255859375
0.7824999,0.517746090888977,0.22685061395168304,9.692925453186035,0.396728515625,4.638671875,0.457763671875
0.7874999,0.5566518902778625,0.24361002445220947,9.876680374145508,1.800537109375,-0.3662109375,1.8310546875
0.7924999,0.49559974670410156,0.2537853717803955,9.758766174316406,2.288818359375,-2.960205078125,-1.46484375
0.7974999,0.5566518902778625,0.26156654953956604,9.833584785461426,-2.86865234375,1.40380859375,-3.570556640625
0.8024999,0.4884171485900879,0.3495534360408783,9.801861763000488,-1.129150390625,3.875732421875,-1.007080078125
0.8074999,0.6105214357376099,0.375291109085083,9.77133560180664,2.349853515625,1.52587890625,5.0048828125
0.8124999,0.4884171485900879,0.37409400939941406,9.768342971801758,1.8310546875,-6.439208984375,0.42724609375
0.8174999000000001,0.5620388388633728,0.35075053572654724,9.718064308166504,-1.922607421875,-0.3662109375,-2.471923828125
0.8224999000000001,0.48722004890441895,0.29209262132644653,9.82879638671875,-3.021240234375,4.730224609375,-3.997802734375
0.8274999000000001,0.5195417404174805,0.23163901269435883,9.784503936767578,2.197265625,2.3193359375,5.035400390625
0.8324999000000001,0.5374982953071594,0.21368250250816345,9.996390342712402,1.983642578125,-5.79833984375,1.617431640625
0.8374999,0.569819986820221,0.2783259451389313,9.84615421295166,-4.08935546875,6.2255859375,-3.021240234375
0.8424999,0.4692635238170624,0.24181437492370605,9.655815124511719,1.983642578125,2.50244140625,3.082275390625
0.8474999,0.5746083855628967,0.38486793637275696,9.72285270690918,2.685546875,-2.8076171875,1.190185546875
0.8524999,0.4554968774318695,0.3315969407558441,9.741408348083496,0.06103515625,-2.655029296875,-4.241943359375
0.8574999,0.5333084464073181,0.3597288131713867,9.819818496704102,-3.84521484375,4.94384765625,0.579833984375
0.8624999,0.4189853072166443,0.32680854201316833,9.817423820495605,0.91552734375,2.3193359375,1.556396484375
0.8674999,0.507570743560791,0.2885012924671173,9.819818496704102,4.2724609375,-3.021240234375,0.152587890625
0.8724999,0.4213795065879822,0.272938996553421,9.909002304077148,-1.0986328125,-3.875732421875,-5.615234375
0.8774999,0.4213795065879822,0.272938996553421,9.909002304077148,-1.0986328125,-3.875732421875,-5.615234375
0.8824999,0.4794389009475708,0.3034650683403015,9.865906715393066,0.579833984375,-4.058837890625,-5.18798828125
0.8874999,0.5692214369773865,0.3100491166114807,9.807847023010254,-4.57763671875,4.730224609375,2.166748046875
0.8924999,0.49380409717559814,0.36571431159973145,9.877877235412598,0.30517578125,3.72314453125,2.960205078125
0.8974999,0.4728548228740692,0.3034650683403015,9.647436141967773,6.16455078125,-5.645751953125,-2.044677734375
0.9024999,0.4321534037590027,0.3513490855693817,9.746794700622559,-3.082275390625,-2.5634765625,-4.2724609375
0.9074999,0.42377370595932007,0.2645592987537384,9.768342971801758,-3.326416015625,6.561279296875,3.84521484375
0.9124999,0.5117605924606323,0.28730419278144836,9.715670585632324,-0.48828125,5.06591796875,5.584716796875
0.9174999,0.6123170852661133,0.25079262256622314,9.6989107131958,4.94384765625,-5.4931640625,-3.35693359375
0.9224999,0.5153518915176392,0.32202014327049255,9.815030097961426,-1.708984375,-3.143310546875,-6.500244140625
0.9274999,0.5327098965644836,0.30945056676864624,9.819818496704102,-3.35693359375,7.87353515625,6.89697265625
0.9324999,0.4728548228740692,0.228047713637352,9.90241813659668,3.72314453125,-0.30517578125,1.8310546875
0.9374999,0.48901569843292236,0.2555810213088989,9.680954933166504,2.960205078125,-4.730224609375,-7.354736328125
0.9424999000000001,0.49380409717559814,0.3130418658256531,9.958083152770996,-5.31005859375,3.47900390625,-0.640869140625
0.9474999000000001,0.5398924946784973,0.3585317134857178,9.706093788146973,1.190185546875,5.584716796875,8.23974609375
0.9524999000000001,0.5003881454467773,0.2717418968677521,9.707290649414062,4.791259765625,-6.927490234375,-6.561279296875
0.9574999000000001,0.5183446407318115,0.41120412945747375,9.55825138092041,-2.5634765625,-0.030517578125,-2.8076171875
0.9624999,0.4423287510871887,0.38307225704193115,9.807847023010254,-2.349853515625,-5.767822265625,-9.307861328125
0.9674999,0.45190557837486267,0.3357867896556854,9.807249069213867,-2.9296875,6.866455078125,7.476806640625
0.9724999,0.4967968463897705,0.1454477459192276,10.057442665100098,1.953125,0.42724609375,2.777099609375
0.9774999,0.4381389021873474,0.04010287672281265,9.64803409576416,2.349853515625,-6.53076171875,-10.345458984375
0.9824999,0.6039373874664307,0.2406172752380371,10.058639526367188,-5.035400390625,3.997802734375,1.556396484375
0.9874999,0.535702645778656,0.16160862147808075,9.741408348083496,3.23486328125,4.57763671875,10.345458984375
0.9924999,0.524330198764801,0.3315969407558441,9.745597839355469,1.007080078125,-7.720947265625,-8.544921875
0.9974999,0.4794389009475708,0.34596213698387146,9.830592155456543,-2.5634765625,3.5400390625,-4.547119140625
1.0024999,0.4944026470184326,0.3884592354297638,9.899425506591797,-0.030517578125,6.011962890625,9.94873046875
1.0074999000000002,0.4100070297718048,0.29867666959762573,9.6989107131958,4.241943359375,-9.765625,-5.06591796875
1.0124999000000001,0.5416881442070007,0.33997663855552673,9.93474006652832,-4.5166015625,-0.457763671875,-7.75146484375
1.0174999000000002,0.5333084464073181,0.31364041566848755,9.768342971801758,2.13623046875,-6.622314453125,0.335693359375
1.0224999000000001,0.4692635238170624,0.29568392038345337,9.848548889160156,-2.50244140625,-1.556396484375,-8.85009765625
1.0274999,0.5476736426353455,0.30526071786880493,9.955090522766113,-1.0986328125,9.246826171875,6.622314453125
1.0324999000000001,0.4620809257030487,0.27892449498176575,9.764751434326172,5.31005859375,-6.011962890625,0.579833984375
1.0374999,0.5566518902778625,0.26815059781074524,9.9401273727417,-4.08935546875,-3.021240234375,-5.279541015625
1.0424999000000001,0.47644615173339844,0.2621650993824005,9.901819229125977,-0.152587890625,7.01904296875,6.256103515625
1.0474999,0.5213374495506287,0.26994624733924866,9.729436874389648,3.60107421875,-4.302978515625,-1.190185546875
1.0524999000000002,0.42676645517349243,0.26575639843940735,9.767744064331055,-3.692626953125,-1.77001953125,-10.162353515625
1.0574999,0.5937620401382446,0.29628247022628784,9.712677955627441,0.152587890625,10.43701171875,8.575439453125
1.0624999000000002,0.43275195360183716,0.3010708689689636,9.621099472045898,4.058837890625,-7.01904296875,0
1.0674999,0.5805938839912415,0.32022446393966675,9.707290649414062,-3.509521484375,-1.708984375,-6.28662109375
1.0724999000000002,0.4644751250743866,0.30226796865463257,9.877279281616211,-0.30517578125,6.591796875,6.16455078125
1.0774999,0.46986207365989685,0.1951274424791336,9.713275909423828,4.852294921875,4.547119140625,7.965087890625
1.0824999000000002,0.4842272996902466,0.23104046285152435,9.686341285705566,-0.18310546875,-7.354736328125,-5.706787109375
1.0874999,0.47405192255973816,0.26815059781074524,9.739013671875,-2.62451171875,5.523681640625,-0.152587890625
1.0924999000000002,0.5297171473503113,0.32620999217033386,9.583989143371582,3.265380859375,0.54931640625,4.974365234375
1.0974999,0.4315548539161682,0.3387795388698578,9.68933391571045,-1.861572265625,-6.805419921875,-9.185791015625
1.1024999000000002,0.456095427274704,0.3058592677116394,9.716269493103027,4.638671875,-3.997802734375,2.5634765625
1.1074999,0.5626373887062073,0.2753331959247589,9.835380554199219,-2.899169921875,-2.13623046875,-5.55419921875
1.1124999000000002,0.4752490520477295,0.28550854325294495,9.8599214553833,0.152587890625,5.828857421875,5.035400390625
1.1174999,0.4405331015586853,0.26336219906806946,9.584588050842285,2.410888671875,-4.57763671875,-3.021240234375
1.1224999000000002,0.5183446407318115,0.30466216802597046,9.798270225524902,2.50244140625,-0.946044921875,2.288818359375
1.1274999,0.4471171796321869,0.32441434264183044,9.80904483795166,-1.8310546875,-2.227783203125,-7.99560546875
1.1324999000000002,0.5817909836769104,0.2902969419956207,9.930550575256348,-0.640869140625,7.537841796875,5.523681640625
1.1374999000000001,0.44173020124435425,0.3106476664543152,9.718663215637207,3.72314453125,-6.683349609375,-1.922607421875
1.1424999000000002,0.4950011968612671,0.32022446393966675,9.81143856048584,-1.007080078125,-5.218505859375,-6.103515625
1.1474999000000001,0.42676645517349243,0.27234044671058655,9.934141159057617,-1.861572265625,5.462646484375,1.007080078125
1.1524999000000002,0.47644615173339844,0.3477577865123749,9.601346969604492,3.326416015625,-1.800537109375,1.15966796875
1.1574999000000001,0.38067805767059326,0.32680854201316833,9.876082420349121,-3.90625,-2.410888671875,-6.988525390625
1.1624999,0.5590460896492004,0.284311443567276,9.609726905822754,2.38037109375,7.4462890625,8.1787109375
1.1674999000000001,0.3974374830722809,0.3196259140968323,9.733627319335938,0.885009765625,-8.209228515625,-4.638671875
1.1724999,0.545877993106842,0.2687491476535797,9.85034465789795,-2.5634765625,4.364013671875,2.50244140625
1.1774999000000002,0.4554968774318695,0.3124433159828186,9.809642791748047,2.685546875,-0.579833984375,2.3193359375
1.1824999,0.4866214990615845,0.3381809890270233,9.856329917907715,-1.739501953125,-1.190185546875,-6.195068359375
1.1874999000000002,0.6189011335372925,0.40462008118629456,9.925761222839355,0.091552734375,5.4931640625,5.55419921875
1.1924999,0.8846575021743774,0.6703764796257019,9.71926212310791,-5.584716796875,-2.899169921875,3.23486328125
1.1974999000000002,0.727837324142456,0.4100070297718048,9.68274974822998,1.708984375,10.284423828125,12.603759765625
1.2024999,0.21428105235099792,-0.29628247022628784,10.008959770202637,-0.640869140625,5.706787109375,2.44140625
1.2074999000000002,0.12210428714752197,-0.507570743560791,9.926360130310059,5.126953125,2.899169921875,0.701904296875
1.2124999,-0.07960720360279083,-0.3034650683403015,10.062231063842773,-2.288818359375,-1.861572265625,-8.941650390625
1.2174999000000002,0.07242459803819656,-0.009576806798577309,9.906009674072266,1.251220703125,6.16455078125,4.82177734375
1.2224999,-0.023942016065120697,0.27234044671058655,9.747393608093262,1.3427734375,-7.50732421875,-7.171630859375
1.2274999000000002,0.22924481332302094,0.5021837949752808,9.818022727966309,-3.814697265625,2.593994140625,2.01416015625
1.2324999,0.21607670187950134,0.5351040959358215,9.616909980773926,2.716064453125,-5.584716796875,-0.8544921875
1.2374999000000002,0.4531026780605316,0.3866635859012604,9.791686058044434,1.922607421875,-1.77001953125,2.62451171875
1.2424999,0.5297171473503113,0.3148375153541565,9.758167266845703,-0.48828125,-6.04248046875,-6.89697265625
1.2474999000000002,0.6512228846549988,0.29388827085494995,9.95090103149414,-1.15966796875,4.669189453125,2.655029296875
1.2524999,0.6356605291366577,0.26396074891090393,9.501988410949707,3.021240234375,-5.37109375,-3.96728515625
1.2574999000000002,0.7559691667556763,0.3381809890270233,9.943717956542969,-4.5166015625,1.739501953125,-1.861572265625
1.2624999000000001,0.6955155730247498,0.28311434388160706,9.469067573547363,5.218505859375,4.45556640625,5.279541015625
1.2674999000000002,0.6901286244392395,0.3256114423274994,9.88745403289795,-4.5166015625,-3.173828125,-6.28662109375
1.2724999000000001,0.6177040338516235,0.28072014451026917,9.729436874389648,3.387451171875,8.575439453125,5.828857421875
1.2774999000000002,0.5530605912208557,0.24420857429504395,9.8784761428833,-1.373291015625,-2.655029296875,-5.706787109375
1.2824999000000001,0.497395396232605,0.3190273642539978,9.853337287902832,-0.091552734375,4.547119140625,4.57763671875
1.2874999,0.4118026793003082,0.262763649225235,9.656414031982422,2.532958984375,-5.126953125,-2.99072265625
1.2924999000000001,0.5764040350914001,0.262763649225235,9.837775230407715,-3.7841796875,2.01416015625,1.434326171875
1.2974999,0.5033808946609497,0.2214636504650116,9.536704063415527,3.692626953125,-0.6103515625,0.823974609375
1.3024999000000002,0.5662286877632141,0.23104046285152435,9.85034465789795,-3.173828125,-0.335693359375,-3.5400390625
1.3074999,0.4985924959182739,0.2082955539226532,9.708487510681152,2.86865234375,3.35693359375,3.2958984375
1.3124999000000002,0.5267243981361389,0.22266076505184174,9.891045570373535,-2.13623046875,-1.46484375,-6.317138671875
1.3174999,0.47824180126190186,0.29867666959762573,9.923367500305176,1.495361328125,6.34765625,3.570556640625
1.3224999000000002,0.4812345504760742,0.23523031175136566,9.815628051757812,-0.396728515625,-3.509521484375,-5.4931640625
1.3274999,0.5171475410461426,0.3447650372982025,9.82759952545166,-3.570556640625,2.349853515625,0.18310546875
1.3324999000000002,0.4704606235027313,0.32381579279899597,9.444527626037598,4.0283203125,0.946044921875,3.173828125
1.3374999,0.5081692934036255,0.3579331636428833,9.768342971801758,-6.16455078125,-2.86865234375,-3.509521484375
1.3424999000000002,0.4878185987472534,0.345363587141037,9.351153373718262,7.781982421875,4.5166015625,5.4931640625
1.3474999,0.5554547905921936,0.3711012601852417,9.821015357971191,-7.415771484375,-4.608154296875,-4.669189453125
1.3524999000000002,0.7068880796432495,0.424970805644989,9.355941772460938,6.439208984375,4.638671875,7.38525390625
1.3574999,0.8972271084785461,0.5237316489219666,9.784503936767578,-1.5869140625,-9.490966796875,2.86865234375
1.3624999000000002,1.5520412921905518,1.2384008169174194,9.603142738342285,0.030517578125,7.171630859375,35.552978515625
1.3674999,1.4347254037857056,1.1366472244262695,9.662399291992188,1.434326171875,8.758544921875,29.205322265625
1.3724999000000002,1.0809820890426636,0.5943605899810791,9.686341285705566,7.049560546875,11.932373046875,23.468017578125
1.3774999,0.9427168965339661,0.3603273630142212,9.882665634155273,0.335693359375,10.498046875,23.590087890625
1.3824999000000002,0.6428431272506714,0.2717418968677521,9.692327499389648,4.82177734375,14.0380859375,22.94921875
1.3874999000000001,0.4800374507904053,0.31603461503982544,9.995792388916016,0.762939453125,4.08935546875,23.681640625
1.3924999000000002,0.2950853705406189,0.707486629486084,9.722254753112793,7.8125,2.655029296875,23.956298828125
1.3974999000000001,0.1562216579914093,0.9546879529953003,9.999981880187988,-1.739501953125,-9.3994140625,16.510009765625
1.4024999000000002,0.09516951441764832,1.4431051015853882,9.806051254272461,4.364013671875,-9.368896484375,19.53125
1.4074999000000001,0.09516951441764832,1.4431051015853882,9.806051254272461,4.364013671875,-9.368896484375,19.53125
1.4124999,-0.015562310814857483,1.4879963397979736,9.949105262756348,-2.5634765625,-19.95849609375,13.336181640625
1.4174999000000001,-0.03711012750864029,1.556231141090393,9.921571731567383,1.40380859375,-19.317626953125,19.500732421875
1.4224999,0.02693476900458336,1.1959037780761719,10.023324966430664,-7.6904296875,-15.7470703125,17.608642578125
1.4274999000000002,0.12509703636169434,1.0342950820922852,10.158597946166992,-4.302978515625,-9.27734375,28.1982421875
1.4324999,0.8493430614471436,0.8631097078323364,10.589553833007812,-36.346435546875,10.528564453125,15.19775390625
1.4374999000000002,0.9983820915222168,0.6931213736534119,10.484807968139648,-44.647216796875,19.195556640625,2.410888671875
1.4424999,1.0576386451721191,-0.1107318252325058,10.456077575683594,-68.17626953125,39.886474609375,16.6015625
1.4474999000000002,1.036689281463623,-0.6302735805511475,10.360309600830078,-66.46728515625,32.012939453125,15.869140625
1.4524999,0.9714473485946655,-0.8475474119186401,10.1382474899292,-68.206787109375,28.350830078125,32.53173828125
1.4574999000000002,0.6649895310401917,-1.1552022695541382,10.098742485046387,-64.39208984375,24.84130859375,36.2548828125
1.4624999,0.2777273952960968,-0.9056068062782288,10.528501510620117,-79.04052734375,20.32470703125,36.376953125
1.4674999000000002,-0.3381809890270233,-0.17956513166427612,11.204863548278809,-101.50146484375,7.568359375,26.397705078125
1.4724999,-0.871489405632019,3.6361937522888184,12.384607315063477,-183.441162109375,2.838134765625,22.15576171875
1.4774999000000002,-0.028131870552897453,3.4739866256713867,11.426926612854004,-229.6142578125,25.08544921875,22.15576171875
1.4824999,-0.10833762586116791,2.497750997543335,9.785101890563965,-206.268310546875,21.087646484375,39.886474609375
1.4874999000000002,-0.5285200476646423,-0.44412440061569214,8.06666374206543,-134.246826171875,-10.31494140625,65.49072265625
1.4924999,-2.146401882171631,-3.3925838470458984,6.506841659545898,-65.24658203125,-77.57568359375,101.25732421875
1.4974999000000002,-4.477755546569824,-6.424840450286865,5.602431774139404,-10.345458984375,-130.79833984375,138.824462890625
1.5024999,-6.095038890838623,-8.128314971923828,5.249287128448486,-5.706787109375,-170.684814453125,220.550537109375
1.5074999000000002,-5.884349346160889,-6.778583526611328,5.8029465675354,33.203125,-133.880615234375,289.276123046875
1.5124999000000001,-4.476558685302734,-5.13735818862915,6.8360443115234375,269.012451171875,-90.2099609375,219.024658203125
1.5174999000000002,-0.3016694188117981,-1.9446903467178345,7.600991725921631,350.76904296875,-79.498291015625,74.0966796875
1.5224999000000001,9.424176216125488,2.0434510707855225,10.462661743164062,177.91748046875,-130.401611328125,-118.46923828125
1.5274999000000002,7.402273178100586,2.873042106628418,9.923966407775879,166.412353515625,-93.93310546875,-92.4072265625
1.5324999000000001,5.472546577453613,3.5236663818359375,9.288305282592773,122.772216796875,-62.103271484375,-66.22314453125
1.5374999000000003,3.9665937423706055,4.136581897735596,8.349180221557617,90.301513671875,-28.411865234375,-43.39599609375
1.5424999000000001,3.1142578125,4.511873245239258,7.489661693572998,54.290771484375,9.33837890625,-23.8037109375
1.5474999,2.8197710514068604,4.617218017578125,6.716932773590088,13.671875,43.914794921875,-10.92529296875
1.5524999000000002,2.871845006942749,4.3173441886901855,6.003460884094238,-24.566650390625,69.976806640625,-3.90625
1.5574999,3.0352492332458496,3.66851544380188,5.37558126449585,-59.9365234375,89.41650390625,-2.593994140625
1.5624999000000002,3.139396905899048,2.7509377002716064,4.867412090301514,-92.987060546875,98.876953125,-9.33837890625
1.5674999,3.0986955165863037,1.734000563621521,4.5621514320373535,-122.6806640625,103.302001953125,-17.88330078125
1.5724999000000002,1.4299370050430298,-0.7050924301147461,4.451419353485107,-180.877685546875,107.421875,-27.52685546875
1.5774999,0.7960720658302307,-1.0546458959579468,4.660912036895752,-183.563232421875,98.32763671875,-21.514892578125
1.5824999000000002,0.19393034279346466,-1.2473790645599365,4.699219226837158,-182.525634765625,88.92822265625,-14.190673828125
1.5874999,-0.40462008118629456,-1.4036006927490234,4.7824177742004395,-181.243896484375,79.65087890625,-6.65283203125
1.5924999000000002,-0.7966706156730652,-1.3138182163238525,4.712387561798096,-178.52783203125,67.32177734375,0.274658203125
1.5974999,-1.1198878288269043,-1.1091139316558838,4.659116744995117,-170.654296875,55.17578125,1.922607421875
1.6024999000000002,-1.3419500589370728,-0.42437225580215454,4.475361347198486,-168.701171875,47.515869140625,0.885009765625
1.6074999,-1.2563573122024536,-0.14784196019172668,4.302978992462158,-171.630859375,48.004150390625,-2.227783203125
1.6124999000000002,-1.149815320968628,-0.06404489278793335,4.280832767486572,-180.755615234375,53.64990234375,-10.009765625
1.6174999,-0.9074024558067322,-0.3669114112854004,4.050989151000977,-204.1015625,70.80078125,-25.848388671875
1.6224999000000002,-0.8415619134902954,-0.7439981698989868,4.116231441497803,-220.703125,81.146240234375,-37.261962890625
1.6274999,-1.2186486721038818,-2.0195090770721436,5.409698963165283,-222.83935546875,98.236083984375,-41.534423828125
1.6324999000000002,-2.8377275466918945,-4.779425144195557,7.839813232421875,4.57763671875,74.21875,-42.66357421875
1.6374999000000001,-3.487753391265869,-7.685986042022705,10.279504776000977,363.70849609375,-8.36181640625,-13.580322265625
1.6424999000000002,-4.611232280731201,-10.011953353881836,11.696273803710938,276.153564453125,-42.1142578125,1.617431640625
1.6474999000000001,-4.060565948486328,-10.163386344909668,10.970232009887695,212.249755859375,-89.691162109375,4.791259765625
1.6524999000000002,-2.7694928646087646,-7.945756912231445,8.262989044189453,182.06787109375,-128.265380859375,-5.2490234375
1.6574999000000001,-1.5029600858688354,-4.644152641296387,5.733514308929443,166.351318359375,-129.791259765625,-9.27734375
1.6624999000000003,-0.4255693554878235,-1.8800468444824219,4.2275614738464355,112.457275390625,-94.268798828125,-0.79345703125
1.6674999000000001,0.13108254969120026,-0.29149407148361206,5.079298973083496,82.82470703125,-12.451171875,8.60595703125
1.6724999,0.19812019169330597,-3.6140475273132324,15.522807121276855,33.721923828125,15.594482421875,-7.476806640625
1.6774999000000002,-0.38546648621559143,-3.6828808784484863,14.948198318481445,40.863037109375,10.19287109375,-3.265380859375
1.6824999,-1.2000936269760132,-2.6809072494506836,12.738948822021484,46.234130859375,-7.293701171875,5.0048828125
1.6874999000000002,-1.6424223184585571,-1.3395558595657349,10.19032096862793,46.234130859375,-19.378662109375,5.157470703125
1.6924999,-1.8471266031265259,-0.17836803197860718,8.236652374267578,60.699462890625,-14.556884765625,5.584716796875
1.6974999000000002,-1.6980875730514526,0.5398924946784973,7.600991725921631,64.361572265625,-16.357421875,1.922607421875
1.7024999,-1.1665748357772827,0.5949591398239136,8.173206329345703,46.93603515625,-19.805908203125,-6.988525390625
1.7074999000000002,-0.497395396232605,0.3776853084564209,9.272144317626953,47.271728515625,-19.6533203125,-8.36181640625
1.7124999,0.16879121959209442,0.090979665517807,10.514735221862793,36.163330078125,-22.64404296875,-6.622314453125
1.7174999000000002,0.6536170840263367,-0.02753331884741783,11.167155265808105,27.313232421875,-20.69091796875,0.06103515625
1.7224999,0.8702923059463501,0.2819172441959381,11.08754825592041,16.143798828125,-20.294189453125,-0.335693359375
1.7274999000000002,0.8469488620758057,0.46507367491722107,10.711658477783203,14.801025390625,-17.63916015625,-0.274658203125
1.7324999,0.6991068720817566,0.5345055460929871,10.444106101989746,6.927490234375,-16.693115234375,-2.86865234375
1.7374999000000002,0.7757213711738586,0.406415730714798,10.323798179626465,5.4931640625,-13.48876953125,-1.46484375
1.7424999,0.6643909811973572,0.29628247022628784,10.174758911132812,1.28173828125,-13.73291015625,-1.983642578125
1.7474999000000002,0.7248445749282837,0.07481880486011505,10.122684478759766,-1.983642578125,-9.46044921875,-3.021240234375
1.7524999,0.6506243348121643,0.008379706181585789,10.089764595031738,-2.716064453125,-8.4228515625,-6.927490234375
1.7574999000000002,0.7481880187988281,-0.07182604819536209,10.016142845153809,-11.383056640625,-4.45556640625,-4.425048828125
1.7624999000000001,0.9253589510917664,-0.3196259140968323,9.867103576660156,-11.04736328125,2.838134765625,-5.67626953125
1.7674999000000002,0.9720458984375,-0.4818331003189087,9.66299819946289,-3.509521484375,3.2958984375,-0.640869140625
1.7724999000000001,1.0911574363708496,-0.7912836670875549,9.475651741027832,-6.28662109375,5.523681640625,0.213623046875
1.7774999000000002,0.4387374520301819,-0.6542156338691711,9.642647743225098,5.279541015625,13.3056640625,-2.471923828125
1.7824999000000001,0.28371289372444153,-0.36990416049957275,9.937732696533203,-1.0986328125,7.965087890625,0.946044921875
1.7874999000000003,0.11133038252592087,-0.181959331035614,10.00955867767334,2.288818359375,5.523681640625,-0.518798828125
1.7924999000000001,0.0586579404771328,-0.13407529890537262,10.19032096862793,-2.166748046875,0.732421875,1.03759765625
1.7974999,-0.07960720360279083,-0.1496376097202301,10.120290756225586,0.48828125,-2.716064453125,3.326416015625
1.8024999000000002,-0.023343466222286224,-0.3734954595565796,10.083779335021973,-1.953125,-4.0283203125,-2.25830078125
1.8074999,-0.04189852997660637,-0.5069721937179565,9.950302124023438,2.50244140625,-4.94384765625,-3.72314453125
1.8124999000000002,0.17896658182144165,-0.641047477722168,9.870695114135742,-2.86865234375,-5.035400390625,0.396728515625
1.8174999,0.26156654953956604,-0.6841431260108948,9.764153480529785,2.685546875,-5.096435546875,-4.150390625
1.8224999000000002,0.800261914730072,-0.5680243372917175,9.728240013122559,0.213623046875,-2.0751953125,1.434326171875
1.8274999,0.7326257228851318,-0.42197805643081665,9.6989107131958,2.349853515625,-1.28173828125,-1.861572265625
1.8324999000000002,0.7739257216453552,-0.4159925580024719,9.744999885559082,0.91552734375,0.3662109375,3.875732421875
1.8374999,0.5770025849342346,-0.37169981002807617,9.702502250671387,1.251220703125,0.030517578125,-0.213623046875
1.8424999000000002,0.6147112846374512,-0.4513070285320282,9.710283279418945,1.77001953125,3.41796875,-5.126953125
1.8474999,0.4866214990615845,-0.436343252658844,9.787496566772461,-0.42724609375,2.777099609375,-1.800537109375
1.8524999000000002,0.5117605924606323,-0.47584760189056396,9.773131370544434,0.732421875,3.7841796875,1.312255859375
1.8574999,0.5021837949752808,-0.4423287510871887,9.858125686645508,-1.0986328125,2.99072265625,-4.180908203125
1.8624999000000002,0.4429273009300232,-0.38307225704193115,9.787496566772461,0.67138671875,3.814697265625,1.40380859375
1.8674999,0.42676645517349243,-0.3621230125427246,9.871294021606445,-2.62451171875,0.274658203125,5.0048828125
1.8724999000000002,0.28550854325294495,-0.41359832882881165,9.786897659301758,2.25830078125,0.67138671875,-1.708984375
1.8774999,0.3555389642715454,-0.706289529800415,9.73781681060791,-0.42724609375,-0.54931640625,-2.5634765625
1.8824999000000002,0.2998737692832947,-0.6745663285255432,9.764153480529785,2.593994140625,0.335693359375,-7.6904296875
1.8874999000000001,0.4644751250743866,-0.6290764808654785,9.785700798034668,-0.762939453125,1.5869140625,1.28173828125
1.8924999000000002,0.383670836687088,-0.5207388401031494,9.884461402893066,0.91552734375,-2.25830078125,3.875732421875
1.8974999000000001,0.4686649739742279,-0.5015852451324463,9.88386344909668,1.77001953125,-1.64794921875,0.54931640625
1.9024999000000002,0.375291109085083,-0.4800374507904053,9.975440979003906,-0.946044921875,-1.495361328125,-0.48828125
1.9074999000000001,0.3519476354122162,-0.45010992884635925,9.874286651611328,2.838134765625,-1.28173828125,3.0517578125
1.9124999000000003,0.3824737071990967,-0.5165489912033081,9.849745750427246,-2.227783203125,-1.5869140625,-3.509521484375
1.9174999000000001,0.36152446269989014,-0.4854243993759155,9.767744064331055,1.617431640625,2.3193359375,-7.87353515625
1.9224999,0.5093663930892944,-0.45908817648887634,9.803657531738281,1.5869140625,0.42724609375,3.814697265625
1.9274999000000002,0.5165489912033081,-0.47824180126190186,9.856329917907715,0.640869140625,0.213623046875,-1.03759765625
1.9324999,0.5003881454467773,-0.5009866952896118,9.821015357971191,2.197265625,1.007080078125,1.861572265625
1.9374999000000002,0.3908534348011017,-0.518943190574646,9.86111831665039,-1.15966796875,-0.18310546875,-2.99072265625
1.9424999,0.37229835987091064,-0.5003881454467773,9.764751434326172,1.068115234375,3.0517578125,-7.080078125
1.9474999000000002,0.43275195360183716,-0.507570743560791,9.767744064331055,-2.349853515625,2.899169921875,-3.47900390625
1.9524999,0.39624038338661194,-0.4207809567451477,9.777320861816406,2.471923828125,0.335693359375,5.279541015625
1.9574999000000002,0.5213374495506287,-0.5081692934036255,9.77672290802002,0.274658203125,-3.173828125,6.53076171875
1.9624999,0.36332011222839355,-0.4626794755458832,9.790489196777344,1.922607421875,-2.105712890625,-1.434326171875
1.9674999000000002,0.424970805644989,-0.524330198764801,9.758766174316406,0.79345703125,0.48828125,-3.41796875
1.9724999,0.31783026456832886,-0.5339069962501526,9.758766174316406,-1.52587890625,0.6103515625,-4.150390625
1.9774999000000002,0.38905778527259827,-0.5213374495506287,9.733627319335938,0.762939453125,1.89208984375,-2.38037109375
1.9824999,0.4991910457611084,-0.5363011956214905,9.84495735168457,-2.3193359375,0.67138671875,-0.335693359375
1.9874999000000002,0.48063600063323975,-0.5506663918495178,9.789292335510254,-1.373291015625,2.960205078125,-7.75146484375
1.9924999,0.4141969084739685,-0.4728548228740692,9.767146110534668,-2.288818359375,3.662109375,-7.32421875
1.9974999000000002,0.4141969084739685,-0.4728548228740692,9.767146110534668,-2.288818359375,3.662109375,-7.32421875
2.0024999,0.4908113479614258,-0.4842272996902466,9.809642791748047,0.762939453125,-3.11279296875,7.8125
2.0074999,0.4908113479614258,-0.4842272996902466,9.809642791748047,0.762939453125,-3.11279296875,7.8125
2.0124999000000003,0.3705027103424072,-0.4770447015762329,9.801262855529785,3.60107421875,-2.838134765625,1.434326171875
2.0174999000000002,0.41718965768814087,-0.5297171473503113,9.753378868103027,-0.42724609375,1.03759765625,-5.31005859375
2.0224999,0.32620999217033386,-0.518943190574646,9.81024169921875,-1.77001953125,3.204345703125,-6.622314453125
2.0274999,0.43514615297317505,-0.5231330990791321,9.780313491821289,0.152587890625,2.62451171875,0.213623046875
2.0324999000000004,0.4734533727169037,-0.4794389009475708,9.898826599121094,-0.457763671875,-1.373291015625,3.662109375
2.0374999000000003,0.46507367491722107,-0.5464765429496765,9.88625717163086,-0.396728515625,-0.9765625,-0.823974609375
2.0424999,0.32381579279899597,-0.48901569843292236,9.73661994934082,-0.946044921875,1.617431640625,-4.913330078125
2.0474999,0.4836287498474121,-0.49559974670410156,9.709685325622559,-1.46484375,3.143310546875,-2.227783203125
2.0524999,0.4291606545448303,-0.42437225580215454,9.757569313049316,-0.244140625,0.3662109375,0.91552734375
2.0574999000000003,0.4920084476470947,-0.3794809579849243,9.70310115814209,3.631591796875,-1.251220703125,4.425048828125
2.0624999,0.4644751250743866,-0.45669397711753845,9.829395294189453,0.091552734375,-2.9296875,1.64794921875
2.0674999,0.3711012601852417,-0.44532153010368347,9.775525093078613,-0.274658203125,0.48828125,-4.33349609375
2.0724999,0.5039794445037842,-0.50876784324646,9.798270225524902,-2.99072265625,3.35693359375,-5.035400390625
2.0774999000000003,0.4495113790035248,-0.4602852761745453,9.8970308303833,0.244140625,1.3427734375,-0.701904296875
2.0824999,0.4884171485900879,-0.517746090888977,9.919178009033203,1.678466796875,-4.302978515625,3.509521484375
2.0874999,0.37888240814208984,-0.5003881454467773,9.791686058044434,-0.396728515625,0.701904296875,-3.90625
2.0924999,0.41718965768814087,-0.535702645778656,9.81024169921875,2.8076171875,-3.814697265625,2.777099609375
2.0974999000000003,0.3405751883983612,-0.5452794432640076,9.752182006835938,-1.495361328125,1.800537109375,-5.126953125
2.1024999,0.40701428055763245,-0.5183446407318115,9.788095474243164,-4.669189453125,4.57763671875,-6.8359375
2.1074999,0.3381809890270233,-0.456095427274704,9.782708168029785,2.166748046875,1.190185546875,1.739501953125
2.1124999,0.4944026470184326,-0.49799394607543945,9.788095474243164,2.9296875,-3.60107421875,6.9580078125
2.1174999000000003,0.4124012291431427,-0.5141547918319702,9.852738380432129,1.983642578125,-2.685546875,-1.007080078125
2.1224999,0.4231751561164856,-0.5249287486076355,9.740809440612793,-3.173828125,3.631591796875,-7.110595703125
2.1274999,0.45489832758903503,-0.5237316489219666,9.79408073425293,-2.838134765625,4.150390625,-3.72314453125
2.1324999,0.3758896589279175,-0.5051765441894531,9.782708168029785,4.608154296875,-1.8310546875,6.378173828125
2.1374999000000003,0.5051765441894531,-0.4866214990615845,9.835380554199219,2.044677734375,-3.96728515625,5.31005859375
2.1424999000000002,0.4165911078453064,-0.44412440061569214,9.827000617980957,-5.035400390625,5.523681640625,-6.866455078125
2.1474999,0.4165911078453064,-0.44412440061569214,9.827000617980957,-5.035400390625,5.523681640625,-6.866455078125
2.1524999,0.3627215623855591,-0.44831427931785583,9.825803756713867,0.54931640625,1.89208984375,0.06103515625
2.1574999000000004,0.33039984107017517,-0.46088382601737976,9.78989028930664,6.317138671875,-4.5166015625,7.8125
2.1624999000000003,0.4554968774318695,-0.4920084476470947,9.770736694335938,5.279541015625,-3.692626953125,2.38037109375
2.1674999,0.4926069974899292,-0.5410895943641663,9.770736694335938,-5.2490234375,1.312255859375,-6.103515625
2.1724999,0.41718965768814087,-0.4315548539161682,9.71926212310791,-1.64794921875,4.425048828125,-4.08935546875
2.1774999000000004,0.47405192255973816,-0.46327802538871765,9.731831550598145,4.5166015625,-1.40380859375,6.011962890625
2.1824999000000003,0.4920084476470947,-0.49380409717559814,9.77791976928711,4.364013671875,-4.150390625,4.08935546875
2.1874999,0.4124012291431427,-0.47465047240257263,9.786299705505371,-1.251220703125,-0.335693359375,-5.18798828125
2.1924999,0.43754035234451294,-0.43933600187301636,9.698312759399414,-5.615234375,4.94384765625,-2.86865234375
2.1974999,0.45429977774620056,-0.3932476341724396,9.712079048156738,3.448486328125,0.274658203125,3.204345703125
2.2024999000000003,0.3645172119140625,-0.37409400939941406,9.710283279418945,6.2255859375,-4.638671875,4.608154296875
2.2074999,0.444722980260849,-0.40282443165779114,9.750386238098145,-5.218505859375,0.518798828125,-4.425048828125
2.2124999,0.3878606855869293,-0.4429273009300232,9.831789016723633,-3.570556640625,3.84521484375,-5.92041015625
2.2174999,0.4704606235027313,-0.5057750940322876,9.820416450500488,4.7607421875,-0.48828125,5.889892578125
2.2224999000000003,0.436343252658844,-0.5398924946784973,9.88506031036377,2.8076171875,-5.55419921875,4.791259765625
2.2274999,0.4836287498474121,-0.5327098965644836,9.84615421295166,3.509521484375,-4.45556640625,3.173828125
2.2324999,0.3926490843296051,-0.4728548228740692,9.838972091674805,-6.317138671875,2.13623046875,-8.697509765625
2.2374999,0.4279635548591614,-0.45010992884635925,9.786897659301758,-2.13623046875,4.974365234375,-1.77001953125
2.2424999000000003,0.4207809567451477,-0.46088382601737976,9.785700798034668,6.011962890625,-3.23486328125,7.2021484375
2.2474999,0.38127660751342773,-0.39564183354377747,9.727641105651855,3.23486328125,-3.35693359375,-0.335693359375
2.2524999,0.4902127981185913,-0.4626794755458832,9.730634689331055,-9.46044921875,5.218505859375,-8.11767578125
2.2574999,0.40282443165779114,-0.44771572947502136,9.785101890563965,1.495361328125,2.227783203125,1.40380859375
2.2624999000000003,0.46806642413139343,-0.4878185987472534,9.757569313049316,8.9111328125,-5.43212890625,8.544921875
2.2674999000000002,0.4405331015586853,-0.45250412821769714,9.78869342803955,-3.753662109375,-1.678466796875,-5.401611328125
2.2724999,0.444722980260849,-0.4794389009475708,9.755773544311523,-6.317138671875,6.439208984375,-7.415771484375
2.2774999,0.37828385829925537,-0.48722004890441895,9.82640266418457,7.9345703125,-6.53076171875,5.340576171875
2.2824999000000004,0.45669397711753845,-0.5105634927749634,9.812037467956543,-8.97216796875,2.777099609375,-8.697509765625
2.2874999000000003,0.36571431159973145,-0.5476736426353455,9.859322547912598,-2.44140625,4.82177734375,-3.72314453125
2.2924999,0.4076128304004669,-0.5201402902603149,9.793481826782227,10.711669921875,-4.45556640625,10.711669921875
2.2974999,0.4231751561164856,-0.4920084476470947,9.822212219238281,-2.105712890625,-3.72314453125,-1.251220703125
2.3024999000000004,0.4058171808719635,-0.4704606235027313,9.786897659301758,-7.080078125,6.744384765625,-10.345458984375
2.3074999000000003,0.5009866952896118,-0.5009866952896118,9.82999324798584,3.60107421875,0.640869140625,4.69970703125
2.3124999,0.37409400939941406,-0.44412440061569214,9.800065994262695,8.209228515625,-6.927490234375,7.354736328125
2.3174999,0.5099649429321289,-0.47644615173339844,9.715670585632324,-8.697509765625,3.204345703125,-8.087158203125
2.3224999,0.43993455171585083,-0.47884035110473633,9.803657531738281,-3.35693359375,5.706787109375,-5.462646484375
2.3274999000000003,0.40282443165779114,-0.4381389021873474,9.75517463684082,11.383056640625,-4.82177734375,10.772705078125
2.3324999,0.4465186297893524,-0.4273650050163269,9.787496566772461,-3.72314453125,-3.0517578125,-0.885009765625
2.3374999,0.4752490520477295,-0.545877993106842,9.762357711791992,-9.674072265625,4.608154296875,-8.636474609375
2.3424999,0.36990416049957275,-0.5716156363487244,9.877877235412598,0.8544921875,3.082275390625,-2.227783203125
2.3474999000000003,0.35254621505737305,-0.5267243981361389,9.838373184204102,11.077880859375,-6.561279296875,9.246826171875
2.3524999,0.4339490532875061,-0.5315127968788147,9.835979461669922,-9.46044921875,0.6103515625,-4.82177734375
2.3574999,0.36332011222839355,-0.5237316489219666,9.819818496704102,-2.777099609375,5.67626953125,-6.591796875
2.3624999,0.4345476031303406,-0.5494692921638489,9.857526779174805,9.765625,-5.279541015625,8.48388671875
2.3674999000000003,0.3561375141143799,-0.44352585077285767,9.791686058044434,-2.838134765625,-2.74658203125,-1.5869140625
2.3724999,0.4537012279033661,-0.46567222476005554,9.748590469360352,-7.781982421875,7.32421875,-7.8125
2.3774999,0.42437225580215454,-0.47884035110473633,9.849745750427246,7.9345703125,-2.74658203125,5.279541015625
2.3824999,0.38067805767059326,-0.3770867586135864,9.721057891845703,4.119873046875,-4.2724609375,2.593994140625
2.3874999000000003,0.3064578175544739,-0.5656301379203796,9.77133560180664,10.55908203125,-1.007080078125,2.105712890625
2.3924999000000002,0.35075053572654724,-0.5644330382347107,9.73661994934082,7.415771484375,-7.62939453125,6.103515625
2.3974999,0.3124433159828186,-0.5961562395095825,9.765948295593262,-7.415771484375,2.166748046875,-9.735107421875
2.4024999,0.3387795388698578,-0.5518634915351868,9.726444244384766,8.697509765625,0.518798828125,-0.396728515625
2.4074999000000004,0.3363853394985199,-0.46148237586021423,9.816226959228516,9.521484375,-9.765625,5.584716796875
2.4124999000000003,0.35733461380004883,-0.383670836687088,9.749788284301758,-6.04248046875,0.8544921875,-7.26318359375
2.4174999,0.44532153010368347,-0.39145198464393616,9.892841339111328,0.91552734375,0.3662109375,-2.471923828125
2.4224999,0.37888240814208984,-0.29807811975479126,9.938331604003906,11.016845703125,-9.27734375,5.2490234375
2.4274999000000004,0.5710170865058899,-0.28371289372444153,9.835380554199219,-12.298583984375,0.8544921875,-3.875732421875
2.4324999000000003,0.52552729845047,-0.3663128614425659,9.916184425354004,-1.89208984375,2.62451171875,-2.44140625
2.4374999,0.5770025849342346,-0.3058592677116394,9.77013874053955,10.955810546875,-6.805419921875,7.2021484375
2.4424999,0.6021417379379272,-0.35733461380004883,9.82879638671875,-14.892578125,2.105712890625,-4.150390625
2.4474999,0.7769184708595276,0.13347674906253815,9.815030097961426,7.110595703125,-4.669189453125,5.157470703125
2.4524999000000003,1.2407950162887573,2.676717519760132,9.32302188873291,-3.631591796875,3.41796875,4.33349609375
2.4574999,1.4532804489135742,6.225522994995117,9.928754806518555,24.35302734375,14.068603515625,34.3017578125
2.4624999,1.6400281190872192,11.045649528503418,10.878055572509766,-0.091552734375,36.62109375,37.750244140625
2.4674999,1.6418237686157227,14.898518562316895,12.63539981842041,-108.856201171875,56.060791015625,9.857177734375
2.4724999000000003,1.315613865852356,15.55512809753418,15.184026718139648,-189.605712890625,44.5556640625,12.481689453125
2.4774999,1.1216834783554077,13.306374549865723,16.880918502807617,-234.4970703125,34.271240234375,16.448974609375
2.4824999,0.21128830313682556,-8.329427719116211,12.093710899353027,-237.884521484375,206.54296875,-201.690673828125
2.4874999,0.6673837304115295,-12.142792701721191,9.512762069702148,-216.400146484375,251.007080078125,-238.8916015625
2.4924999000000003,2.47560453414917,-8.285733222961426,1.73519766330719,-18.341064453125,202.1484375,-174.31640625
2.4974999,1.4389152526855469,-6.165069580078125,1.5963339805603027,34.0576171875,191.253662109375,-114.68505859375
2.5024999,0.23403321206569672,-4.884171485900879,1.6202759742736816,68.634033203125,164.031982421875,-80.9326171875
2.5074999,-1.2168530225753784,-4.3628339767456055,1.9446903467178345,81.6650390625,123.748779296875,-56.182861328125
2.5124999000000003,-2.610278367996216,-4.467580318450928,2.5342624187469482,118.95751953125,71.6552734375,-39.61181640625
2.5174999000000002,-3.9193081855773926,-5.024232387542725,3.4560301303863525,133.97216796875,32.012939453125,-48.9501953125
2.5224999,-4.930858612060547,-5.613205909729004,4.656123638153076,126.312255859375,1.28173828125,-34.149169921875
2.5274999,-5.556941986083984,-5.9286417961120605,5.782595634460449,133.85009765625,-35.70556640625,-25.360107421875
2.5324999000000004,-5.6455278396606445,-6.071695327758789,6.75883150100708,112.60986328125,-63.96484375,-20.477294921875
2.5374999000000003,-4.614823818206787,-5.145738124847412,7.142502307891846,120.91064453125,-124.8779296875,29.388427734375
2.5424999,-3.7235822677612305,-4.4041337966918945,6.64091682434082,112.48779296875,-154.449462890625,60.6689453125
2.5474999,-3.0154969692230225,-3.8744168281555176,6.391321659088135,131.317138671875,-190.12451171875,85.845947265625
2.5524999000000004,-2.3283610343933105,-3.380014181137085,5.950189590454102,124.847412109375,-216.094970703125,91.85791015625
2.5574999000000003,-1.8974047899246216,-3.0310592651367188,5.890334606170654,130.462646484375,-237.48779296875,113.1591796875
2.5624999,-1.1456254720687866,-1.9117701053619385,7.183802127838135,182.18994140625,-273.834228515625,106.964111328125
2.5674999,-0.7487865686416626,-1.2204443216323853,9.1632080078125,223.2666015625,-231.475830078125,65.5517578125
2.5724999,0.5674257874488831,0.4710591733455658,11.81179428100586,208.31298828125,-131.134033203125,39.48974609375
2.5774999000000003,2.146401882171631,2.412158250808716,14.61540412902832,52.642822265625,-49.591064453125,-0.79345703125
2.5824999,3.9905357360839844,4.013280391693115,15.470732688903809,-59.02099609375,-72.418212890625,-10.894775390625
2.5874999,4.438251495361328,4.578910827636719,8.374319076538086,-10.68115234375,-134.429931640625,39.61181640625
2.5924999,3.0208840370178223,3.8337154388427734,5.971737384796143,14.862060546875,-67.840576171875,25.69580078125
2.5974999000000003,3.0208840370178223,3.8337154388427734,5.971737384796143,14.862060546875,-67.840576171875,25.69580078125
2.6024999,2.3343467712402344,3.0657753944396973,4.9565958976745605,13.885498046875,-5.828857421875,12.359619140625
2.6074999,1.811812162399292,2.499546527862549,5.270236492156982,10.7421875,14.434814453125,18.4326171875
2.6124999,2.1152772903442383,1.9446903467178345,6.3051300048828125,-38.970947265625,20.751953125,20.721435546875
2.6174999000000003,2.8191723823547363,1.5939397811889648,8.067262649536133,-34.698486328125,30.609130859375,16.845703125
2.6224999,3.670311212539673,1.0797849893569946,9.5809965133667,-14.46533203125,54.3212890625,-2.227783203125
2.6274999,4.340089321136475,0.5345055460929871,10.699687004089355,-26.55029296875,76.446533203125,-1.434326171875
2.6324999,4.5394062995910645,-0.2944868206977844,11.207857131958008,-13.24462890625,84.28955078125,1.28173828125
2.6374999000000003,4.226364612579346,-1.0654197931289673,10.830171585083008,-26.2451171875,93.6279296875,-3.265380859375
2.6424999000000002,1.3060370683670044,-2.165555477142334,8.975263595581055,-3.0517578125,110.53466796875,5.31005859375
2.6474999,1.3060370683670044,-2.165555477142334,8.975263595581055,-3.0517578125,110.53466796875,5.31005859375
2.6524999,0.19692309200763702,-2.0871453285217285,9.184157371520996,21.331787109375,95.21484375,3.35693359375
2.6574999000000004,-1.0169371366500854,-1.923741102218628,9.71926212310791,10.162353515625,68.023681640625,-1.678466796875
2.6624999000000003,-2.053626537322998,-1.5711948871612549,10.603321075439453,29.693603515625,43.88427734375,1.3427734375
2.6674999,-3.0831332206726074,-1.2132617235183716,10.851120948791504,10.650634765625,24.96337890625,-11.627197265625
2.6724999,-3.5679590702056885,-0.5793967843055725,10.849923133850098,8.392333984375,7.080078125,-1.40380859375
2.6774999000000004,-3.7864298820495605,-0.07003039866685867,10.126276016235352,5.859375,-6.77490234375,-8.819580078125
2.6824999000000003,-3.4608185291290283,0.4471171796321869,9.551667213439941,-9.735107421875,-21.66748046875,0.946044921875
2.6874999,-2.8784289360046387,0.7140706777572632,9.21827507019043,5.340576171875,-31.494140625,-1.800537109375
2.6924999,-1.9943699836730957,0.606930136680603,9.396642684936523,-24.23095703125,-35.15625,-1.678466796875
2.6974999,0.669179379940033,-0.34177228808403015,10.398017883300781,0.335693359375,-35.552978515625,6.2255859375
2.7024999000000003,1.1085153818130493,-0.7547720670700073,10.117298126220703,-8.392333984375,-31.25,-1.861572265625
2.7074999,1.4634557962417603,-0.9953893423080444,9.955090522766113,-1.5869140625,-22.8271484375,6.16455078125
2.7124999,1.4245500564575195,-1.191115379333496,9.604938507080078,6.622314453125,-20.08056640625,-3.631591796875
2.7174999,1.5604209899902344,-1.2360066175460815,9.528923034667969,-5.462646484375,-9.063720703125,1.953125
2.7224999000000003,1.2336124181747437,-0.24001872539520264,9.637260437011719,-12.75634765625,13.12255859375,-3.173828125
2.7274999,1.0432734489440918,-0.018555063754320145,9.869498252868652,12.298583984375,16.357421875,2.105712890625
2.7324999,0.8762778043746948,-0.10773907601833344,9.774328231811523,-11.138916015625,18.646240234375,-4.150390625
2.7374999,-0.040701430290937424,-0.5662286877632141,9.799467086791992,3.47900390625,10.8642578125,-4.39453125
2.7424999000000003,-0.18136078119277954,-0.6129156351089478,9.856928825378418,-3.082275390625,8.97216796875,2.0751953125
2.7474999,-0.49320554733276367,-0.6649895310401917,9.762357711791992,8.7890625,0.091552734375,-2.899169921875
2.7524999,-0.4812345504760742,-0.6230909824371338,9.849745750427246,-7.904052734375,-1.220703125,0.152587890625
2.7574999,-0.6224924325942993,-0.5237316489219666,9.801262855529785,11.627197265625,-9.735107421875,-0.3662109375
2.7624999000000003,-0.37888240814208984,-0.42197805643081665,9.850942611694336,-13.24462890625,-7.9345703125,-0.762939453125
2.7674999000000002,-0.31364041566848755,-0.2711433470249176,9.90241813659668,12.054443359375,-13.824462890625,1.89208984375
2.7724999,0.013168109580874443,-0.2944868206977844,9.82759952545166,-14.892578125,-9.918212890625,-1.5869140625
2.7774999,0.2172738015651703,-0.24001872539520264,9.956886291503906,10.894775390625,-11.444091796875,2.99072265625
2.7824999000000004,0.48063600063323975,-0.41539400815963745,9.788095474243164,-13.427734375,-7.293701171875,-2.685546875
2.7874999000000003,0.8236053586006165,-0.6548141837120056,9.630077362060547,-5.767822265625,3.753662109375,-4.547119140625
2.7924999,0.7864952683448792,-0.5506663918495178,9.765948295593262,6.378173828125,8.270263671875,3.021240234375
2.7974999,0.6727706789970398,-0.5219359993934631,9.600150108337402,-2.899169921875,6.561279296875,-4.45556640625
2.8024999000000004,0.38127660751342773,-0.3884592354297638,9.666589736938477,-0.48828125,5.67626953125,-4.058837890625
2.8074999000000003,0.2902969419956207,-0.2944868206977844,9.833584785461426,0.42724609375,7.049560546875,3.23486328125
2.8124999,0.05925649031996727,-0.39205053448677063,9.81263542175293,1.220703125,1.495361328125,-3.570556640625
2.8174999,0.02454056777060032,-0.3447650372982025,9.950302124023438,-1.708984375,2.471923828125,2.838134765625
2.8224999,-0.1364694982767105,-0.4578910768032074,9.889249801635742,2.74658203125,-3.84521484375,-3.23486328125
2.8274999000000003,-0.053270988166332245,-0.41539400815963745,9.926959037780762,-3.692626953125,-1.3427734375,2.716064453125
2.8324999,0.09576806426048279,-0.43993455171585083,9.84615421295166,-5.18798828125,-2.44140625,2.197265625
2.8374999,0.09457096457481384,-0.5009866952896118,9.800065994262695,5.0048828125,-6.77490234375,-2.471923828125
2.8424999,0.365115761756897,-0.43335050344467163,9.786299705505371,-6.195068359375,-1.0986328125,2.166748046875
2.8474999000000003,0.35254621505737305,-0.49619829654693604,9.744999885559082,5.9814453125,-4.2724609375,-2.227783203125
2.8524999,0.5728127360343933,-0.4273650050163269,9.749189376831055,-6.34765625,1.373291015625,1.89208984375
2.8574999,0.4836287498474121,-0.4920084476470947,9.727641105651855,6.65283203125,-1.8310546875,-2.166748046875
2.8624999,0.6200982332229614,-0.4291606545448303,9.747992515563965,-6.28662109375,4.119873046875,1.739501953125
2.8674999000000003,0.4531026780605316,-0.48602294921875,9.744400978088379,7.049560546875,0.640869140625,-2.44140625
2.8724999,0.5339069962501526,-0.42676645517349243,9.779715538024902,-5.859375,5.035400390625,1.495361328125
2.8774999,0.3292027413845062,-0.4686649739742279,9.78989028930664,6.65283203125,0.823974609375,-2.471923828125
2.8824999,0.13048399984836578,-0.4429273009300232,9.848548889160156,5.096435546875,-1.8310546875,-2.593994140625
2.8874999000000003,0.22924481332302094,-0.46627077460289,9.836577415466309,-4.608154296875,1.15966796875,2.25830078125
2.8924999000000002,0.14425064623355865,-0.46806642413139343,9.814431190490723,3.936767578125,-3.082275390625,-2.899169921875
2.8974999,0.26396074891090393,-0.49320554733276367,9.81263542175293,-3.47900390625,0.1220703125,2.655029296875
2.9024999,0.20231004059314728,-0.4345476031303406,9.759963035583496,2.777099609375,-3.2958984375,-2.899169921875
2.9074999000000004,0.3082534670829773,-0.46806642413139343,9.768342971801758,-1.8310546875,-0.18310546875,2.8076171875
2.9124999000000003,0.25019407272338867,-0.39803603291511536,9.708487510681152,1.15966796875,-3.143310546875,-3.509521484375
2.9174999,0.31842881441116333,-0.4429273009300232,9.768941879272461,-0.06103515625,0.6103515625,2.838134765625
2.9224999,0.2861070930957794,-0.43933600187301636,9.712079048156738,-1.46484375,-1.739501953125,-3.387451171875
2.9274999000000004,0.3387795388698578,-0.43993455171585083,9.895236015319824,2.288818359375,1.40380859375,3.11279296875
2.9324999000000003,0.31783026456832886,-0.4985924959182739,9.786299705505371,-3.082275390625,-0.396728515625,-3.5400390625
2.9374999,0.3531447649002075,-0.41718965768814087,9.973047256469727,4.608154296875,2.105712890625,2.838134765625
2.9424999,0.2992752194404602,-0.3477577865123749,9.845556259155273,8.392333984375,0.91552734375,2.227783203125
2.9474999,0.31364041566848755,-0.5015852451324463,9.70429801940918,-8.758544921875,0.640869140625,-2.38037109375
2.9524999000000003,0.24899697303771973,-0.32620999217033386,9.81263542175293,9.3994140625,-0.48828125,1.617431640625
2.9574999,0.32441434264183044,-0.45190557837486267,9.745597839355469,-9.918212890625,-0.091552734375,-1.5869140625
2.9624999,0.19572599232196808,-0.33339259028434753,9.807847023010254,9.674072265625,-1.556396484375,0.54931640625
2.9674999,0.353743314743042,-0.48722004890441895,9.804255485534668,-9.765625,0.3662109375,-0.6103515625
2.9724999000000003,0.16759411990642548,-0.42437225580215454,9.833584785461426,9.09423828125,-2.227783203125,-0.579833984375
2.9774999,0.3387795388698578,-0.5841852426528931,9.820416450500488,-8.270263671875,0.48828125,0.518798828125
2.9824999,0.1759738177061081,-0.5213374495506287,9.846753120422363,7.171630859375,-1.617431640625,-1.5869140625
2.9874999,0.3429693877696991,-0.596754789352417,9.81143856048584,-5.4931640625,1.3427734375,1.678466796875
2.9924999000000003,0.28550854325294495,-0.3818751573562622,9.904213905334473,5.889892578125,1.0986328125,2.3193359375
2.9974999,0.2717418968677521,-0.518943190574646,9.770736694335938,-7.26318359375,0.06103515625,-2.38037109375
3.0024999,0.23523031175136566,-0.3585317134857178,9.855133056640625,8.4228515625,-0.244140625,1.495361328125
3.0074999,0.3315969407558441,-0.4991910457611084,9.77791976928711,-8.85009765625,-0.091552734375,-1.46484375
3.0124999000000003,0.21847090125083923,-0.3902548849582672,9.80904483795166,9.033203125,-1.312255859375,0.06103515625
3.0174999000000002,0.38127660751342773,-0.518943190574646,9.805453300476074,-8.453369140625,0.06103515625,0.091552734375
3.0224999,0.20889410376548767,-0.4507084786891937,9.832986831665039,7.171630859375,-1.373291015625,-1.3427734375
3.0274999,0.34356793761253357,-0.5213374495506287,9.806051254272461,-5.43212890625,0.823974609375,1.495361328125
3.0324999000000004,0.30526071786880493,-0.4692635238170624,9.840168952941895,-0.885009765625,1.28173828125,2.227783203125
3.0374999000000003,0.23942017555236816,-0.4626794755458832,9.742605209350586,-1.52587890625,-0.54931640625,-3.0517578125
3.0424999,0.28311434388160706,-0.38546648621559143,9.88745403289795,4.150390625,0.885009765625,2.3193359375
3.0474999,0.28790274262428284,-0.48243165016174316,9.765350341796875,-5.828857421875,0.091552734375,-2.410888671875
3.0524999000000004,0.284311443567276,-0.3196259140968323,9.859322547912598,7.781982421875,0.732421875,1.495361328125
3.0574999000000003,0.4100070297718048,-0.4668693244457245,9.798270225524902,-8.331298828125,0.946044921875,-1.190185546875
3.0624999,0.28131869435310364,-0.3794809579849243,9.82759952545166,8.36181640625,-0.274658203125,-0.06103515625
3.0674999,0.436343252658844,-0.5207388401031494,9.827000617980957,-7.38525390625,0.823974609375,0.3662109375
3.0724999000000004,0.25438392162323,-0.46507367491722107,9.841964721679688,5.92041015625,-1.007080078125,-1.8310546875
3.0774999000000003,0.3280056416988373,-0.5207388401031494,9.798869132995605,-3.509521484375,0.732421875,1.8310546875
3.0824999,0.2232593148946762,-0.46507367491722107,9.790489196777344,0.8544921875,-0.946044921875,-2.685546875
3.0874999,0.23762452602386475,-0.40940847992897034,9.831191062927246,1.64794921875,0.6103515625,2.5634765625
3.0924999,0.22385786473751068,-0.32381579279899597,9.868300437927246,6.744384765625,-0.274658203125,1.556396484375
3.0974999000000003,0.34835633635520935,-0.4836287498474121,9.797073364257812,-7.8125,-0.06103515625,-1.373291015625
3.1024999,0.25019407272338867,-0.37828385829925537,9.837176322937012,8.209228515625,-0.335693359375,0.18310546875
3.1074999,0.41718965768814087,-0.517746090888977,9.815030097961426,-7.2021484375,0.79345703125,0.396728515625
3.1124999,0.2717418968677521,-0.4704606235027313,9.821614265441895,5.401611328125,-0.518798828125,-1.77001953125
3.1174999000000003,0.33698388934135437,-0.5542576909065247,9.825803756713867,-2.899169921875,1.40380859375,2.044677734375
3.1224999,0.24001872539520264,-0.29628247022628784,9.820416450500488,7.476806640625,-0.06103515625,1.007080078125
3.1274999,0.37469255924224854,-0.44412440061569214,9.75397777557373,-7.476806640625,0.3662109375,-0.640869140625
3.1324999,0.2561795711517334,-0.39384618401527405,9.814431190490723,7.01904296875,-0.54931640625,-0.9765625
3.1374999000000003,0.40521863102912903,-0.5033808946609497,9.762955665588379,-4.913330078125,0.8544921875,1.373291015625
3.1424999000000002,0.25019407272338867,-0.49978959560394287,9.801861763000488,2.288818359375,-0.762939453125,-2.50244140625
3.1474999,0.28311434388160706,-0.4866214990615845,9.834781646728516,0.640869140625,0.732421875,2.166748046875
3.1524999,0.23942017555236816,-0.5201402902603149,9.762357711791992,-3.692626953125,-0.518798828125,-2.410888671875
3.1574999000000004,0.20470423996448517,-0.3728969097137451,9.853935241699219,6.317138671875,-0.152587890625,1.495361328125
3.1624999000000003,0.33339259028434753,-0.50876784324646,9.806650161743164,-7.232666015625,0,-0.9765625
3.1674999,0.2124854028224945,-0.3926490843296051,9.84256362915039,7.415771484375,-0.579833984375,-0.6103515625
3.1724999,0.3860650360584259,-0.47584760189056396,9.802460670471191,-5.43212890625,0.579833984375,1.007080078125
3.1774999000000004,0.23283611238002777,-0.4507084786891937,9.806051254272461,3.0517578125,-0.67138671875,-2.3193359375
3.1824999000000003,0.2998737692832947,-0.4620809257030487,9.832986831665039,0.18310546875,0.8544921875,2.01416015625
3.1874999,0.25977087020874023,-0.4734533727169037,9.773131370544434,-3.387451171875,-0.18310546875,-2.38037109375
3.1924999,0.2388216257095337,-0.3531447649002075,9.849745750427246,6.072998046875,0.18310546875,1.312255859375
3.1974999000000004,0.22744916379451752,-0.3728969097137451,9.852738380432129,6.65283203125,-0.213623046875,-0.946044921875
3.2024999000000003,0.3728969097137451,-0.4812345504760742,9.785101890563965,-4.791259765625,1.129150390625,1.0986328125
3.2074999,0.23403321206569672,-0.4878185987472534,9.813234329223633,2.288818359375,-0.396728515625,-2.227783203125
3.2124999,0.27473464608192444,-0.4920084476470947,9.82640266418457,1.251220703125,0.885009765625,2.166748046875
3.2174999,0.26096799969673157,-0.5099649429321289,9.768342971801758,-4.425048828125,-0.42724609375,-2.044677734375
3.2224999000000003,0.2364274114370346,-0.37469255924224854,9.812037467956543,6.134033203125,-0.18310546875,0.885009765625
3.2274999,0.2364274114370346,-0.37469255924224854,9.812037467956543,6.134033203125,-0.18310546875,0.885009765625
3.2324999,0.3645172119140625,-0.4908113479614258,9.787496566772461,-7.14111328125,0.48828125,-0.457763671875
3.2374999,0.2777273952960968,-0.38546648621559143,9.806650161743164,5.92041015625,-0.762939453125,-1.3427734375
3.2424999000000003,0.38546648621559143,-0.4944026470184326,9.832986831665039,-3.204345703125,0.54931640625,1.77001953125
3.2474999,0.26156654953956604,-0.5045779943466187,9.816226959228516,-0.1220703125,-0.30517578125,-2.44140625
3.2524999,0.27413609623908997,-0.44173020124435425,9.876680374145508,3.35693359375,0.396728515625,1.64794921875
3.2574999,0.2885012924671173,-0.47465047240257263,9.79288387298584,0.213623046875,0.518798828125,1.983642578125
3.2624999000000003,0.2885012924671173,-0.47465047240257263,9.79288387298584,0.213623046875,0.518798828125,1.983642578125
3.2674999000000002,0.23403321206569672,-0.5027823448181152,9.750386238098145,-3.448486328125,0.06103515625,-2.166748046875
3.2724999,0.22685061395168304,-0.41718965768814087,9.786299705505371,5.859375,0.213623046875,0.762939453125
3.2774999,0.3447650372982025,-0.5099649429321289,9.783905029296875,-6.439208984375,0.091552734375,-0.274658203125
3.2824999000000004,0.38965633511543274,-0.4866214990615845,9.88506031036377,-2.410888671875,0.67138671875,1.64794921875
3.2874999000000003,0.38965633511543274,-0.4866214990615845,9.88506031036377,-2.410888671875,0.67138671875,1.64794921875
3.2924999,0.284311443567276,-0.48961424827575684,9.854534149169922,-0.762939453125,-0.48828125,-2.471923828125
3.2974999,0.26815059781074524,-0.41359832882881165,9.91977596282959,4.119873046875,0.152587890625,1.40380859375
3.3024999000000004,0.3471592366695404,-0.47884035110473633,9.838373184204102,-5.92041015625,0.030517578125,-1.129150390625
3.3074999000000003,0.33279404044151306,-0.46627077460289,9.783307075500488,-4.45556640625,0.54931640625,1.251220703125
3.3124999,0.20470423996448517,-0.47584760189056396,9.747393608093262,1.312255859375,-0.274658203125,-2.3193359375
3.3174999,0.2322375625371933,-0.42856210470199585,9.746794700622559,2.50244140625,0.457763671875,1.739501953125
3.3224999000000004,0.3082534670829773,-0.47465047240257263,9.690531730651855,-5.218505859375,-0.18310546875,-1.556396484375
3.3274999000000003,0.24241292476654053,-0.3878606855869293,9.785101890563965,6.317138671875,-0.1220703125,-0.18310546875
3.3324999,0.3998316824436188,-0.4345476031303406,9.715071678161621,-5.218505859375,0.6103515625,0.91552734375
3.3374999,0.25737667083740234,-0.4207809567451477,9.75278091430664,2.44140625,-0.335693359375,-1.983642578125
3.3424999,0.2968810200691223,-0.40940847992897034,9.783307075500488,0.91552734375,0.579833984375,1.708984375
3.3474999000000003,0.28790274262428284,-0.47644615173339844,9.77253246307373,-4.5166015625,0.06103515625,-1.8310546875
3.3524999,0.21368250250816345,-0.42377370595932007,9.864709854125977,6.195068359375,-0.335693359375,0.152587890625
3.3574999,0.3357867896556854,-0.49799394607543945,9.799467086791992,-5.4931640625,0.579833984375,0.48828125
3.3624999,0.33518823981285095,-0.46986207365989685,9.797073364257812,-5.767822265625,0.3662109375,0.42724609375
3.3674999000000003,0.33518823981285095,-0.46986207365989685,9.797073364257812,-5.767822265625,0.3662109375,0.42724609375
3.3724999,0.23762452602386475,-0.4124012291431427,9.777320861816406,3.173828125,-0.579833984375,-1.678466796875
3.3774999,0.32202014327049255,-0.4489128291606903,9.812037467956543,0.30517578125,0.3662109375,1.708984375
3.3824999,0.30705636739730835,-0.48602294921875,9.782109260559082,-3.875732421875,0.18310546875,-1.64794921875
3.3874999000000003,0.2603694200515747,-0.436343252658844,9.82999324798584,5.79833984375,0.091552734375,0.42724609375
3.3924999000000002,0.35733461380004883,-0.47165772318840027,9.777320861816406,-5.0048828125,0.1220703125,0.18310546875
3.3974999,0.25318682193756104,-0.4159925580024719,9.780313491821289,3.0517578125,-0.30517578125,-1.8310546875
3.4024999,0.3130418658256531,-0.4118026793003082,9.816226959228516,0.640869140625,0.274658203125,2.105712890625
3.4074999000000004,0.31184476613998413,-0.4686649739742279,9.791686058044434,-3.692626953125,-0.274658203125,-1.739501953125
3.4124999000000003,0.24001872539520264,-0.42437225580215454,9.850942611694336,5.615234375,-0.091552734375,0.1220703125
3.4174999,0.24839842319488525,-0.44352585077285767,9.766547203063965,2.471923828125,-0.274658203125,-2.01416015625
3.4224999,0.304063618183136,-0.3926490843296051,9.78869342803955,1.5869140625,0.1220703125,1.617431640625
3.4274999000000004,0.3405751883983612,-0.47644615173339844,9.800664901733398,-4.33349609375,-0.152587890625,-1.495361328125
3.4324999000000003,0.22385786473751068,-0.4273650050163269,9.9000244140625,5.889892578125,0.030517578125,-0.091552734375
3.4374999,0.32860419154167175,-0.5159504413604736,9.817423820495605,-4.39453125,0.396728515625,0.8544921875
3.4424999,0.21428105235099792,-0.5009866952896118,9.797672271728516,1.28173828125,-0.579833984375,-2.166748046875
3.4474999000000004,0.2711433470249176,-0.44173020124435425,9.780912399291992,2.532958984375,0.18310546875,1.3427734375
3.4524999000000003,0.5033808946609497,-0.4507084786891937,9.672574996948242,-6.622314453125,1.220703125,-2.50244140625
3.4574999,0.7930793166160583,-0.44412440061569214,9.584588050842285,-1.03759765625,8.72802734375,-8.544921875
3.4624999,1.3557167053222656,-0.4405331015586853,9.191340446472168,-16.326904296875,23.284912109375,-8.1787109375
3.4674999,1.6406266689300537,-0.9744400978088379,8.313865661621094,-10.6201171875,38.604736328125,-7.965087890625
3.4724999000000003,1.469441294670105,-1.6430208683013916,8.128314971923828,20.355224609375,40.10009765625,24.383544921875
3.4774999,-0.6212953329086304,-2.5234885215759277,8.507197380065918,19.073486328125,-12.939453125,60.943603515625
3.4824999,-1.9141643047332764,-2.4821887016296387,9.061454772949219,5.035400390625,-25.604248046875,41.595458984375
3.4874999,-2.1547815799713135,-2.142810583114624,10.19032096862793,2.471923828125,-20.965576171875,39.398193359375
3.4924999000000003,-0.7128735780715942,-1.9045875072479248,11.445481300354004,62.43896484375,-1.983642578125,12.87841796875
3.4974999,1.8166005611419678,-1.809417963027954,11.977592468261719,59.417724609375,60.333251953125,-106.5673828125
3.5024999,4.729146957397461,-1.1641805171966553,12.375628471374512,16.357421875,82.611083984375,-154.72412109375
3.5074999,6.366182327270508,0.10354922711849213,11.751340866088867,19.256591796875,71.807861328125,-131.988525390625
3.5124999000000003,6.007051944732666,1.7561469078063965,10.81460952758789,15.44189453125,61.492919921875,-90.911865234375
3.5174999000000002,3.840898036956787,3.448847532272339,10.272322654724121,6.988525390625,56.45751953125,-51.7578125
3.5224999,-6.2171430587768555,0.595557689666748,8.507197380065918,-53.52783203125,-58.441162109375,8.85009765625
3.5274999,-5.359420299530029,-0.13407529890537262,8.682572364807129,-54.87060546875,-73.18115234375,1.5869140625
3.5324999000000004,-4.083311080932617,-0.7858967185020447,9.042900085449219,-47.821044921875,-77.33154296875,-1.64794921875
3.5374999000000003,-2.5480291843414307,-1.43532395362854,9.387664794921875,-38.055419921875,-79.010009765625,-1.708984375
3.5424999,-0.8978256583213806,-2.0159177780151367,9.730035781860352,-23.681640625,-77.08740234375,2.410888671875
3.5474999,0.7224503755569458,-2.5935189723968506,9.852738380432129,-7.293701171875,-71.258544921875,10.040283203125
3.5524999000000004,2.0871453285217285,-3.1016883850097656,9.82999324798584,8.148193359375,-65.36865234375,20.93505859375
3.5574999000000003,3.0998926162719727,-3.377021551132202,9.572616577148438,21.820068359375,-59.63134765625,28.839111328125
3.5624999,3.5655648708343506,-3.450643301010132,9.29069995880127,28.4423828125,-50.140380859375,31.18896484375
3.5674999,3.539228677749634,-3.1465795040130615,8.980650901794434,37.841796875,-35.400390625,26.580810546875
3.5724999000000004,3.1495723724365234,-2.5258827209472656,9.073426246643066,36.407470703125,-18.707275390625,19.6533203125
3.5774999000000003,1.9788076877593994,-0.5039794445037842,9.598953247070312,10.223388671875,15.655517578125,-10.25390625
3.5824999,1.6083049774169922,0.545877993106842,9.962871551513672,4.08935546875,20.751953125,-14.862060546875
3.5874999,1.2952631711959839,1.3317747116088867,10.19032096862793,0.579833984375,24.566650390625,-10.19287109375
3.5924999,1.1791443824768066,1.6759412288665771,10.234613418579102,-2.838134765625,28.86962890625,-1.922607421875
3.5974999000000003,1.0462661981582642,1.6280571222305298,10.253767013549805,-9.857177734375,34.5458984375,3.753662109375
3.6024999,0.6739677786827087,0.48303020000457764,10.057442665100098,-6.866455078125,33.447265625,3.5400390625
3.6074999,0.3495534360408783,-0.3166331648826599,9.997588157653809,-7.6904296875,33.50830078125,-0.091552734375
3.6124999,0.0586579404771328,-1.002571940422058,9.922170639038086,-1.495361328125,28.106689453125,-1.0986328125
3.6174999000000003,-0.35913026332855225,-1.43532395362854,9.797073364257812,5.584716796875,19.561767578125,-2.838134765625
3.6224999,-0.6548141837120056,-1.6286556720733643,9.761159896850586,4.82177734375,12.664794921875,-1.953125
3.6274999,-0.8643068075180054,-1.5047557353973389,9.672574996948242,9.033203125,3.448486328125,-0.79345703125
3.6324999,-1.0043675899505615,-1.125873327255249,9.715071678161621,5.218505859375,-3.082275390625,-0.457763671875
3.6374999000000003,-0.8792705535888672,-0.6775590777397156,9.797073364257812,4.39453125,-10.589599609375,2.532958984375
3.6424999000000002,-0.7218518257141113,-0.17238251864910126,9.849745750427246,-1.251220703125,-14.556884765625,-2.50244140625
3.6474999,-0.3274070918560028,0.1149216815829277,9.997588157653809,-3.021240234375,-13.763427734375,-1.617431640625
3.6524999,-0.030526071786880493,0.3034650683403015,9.928155899047852,-4.21142578125,-16.2353515625,2.9296875
3.6574999000000004,0.33758243918418884,0.14006079733371735,9.959280967712402,-7.537841796875,-12.20703125,-0.6103515625
3.6624999000000003,0.5949591398239136,-0.07003039866685867,9.82879638671875,0.885009765625,-10.8642578125,0.152587890625
3.6674999,0.7511807680130005,-0.3824737071990967,9.847949981689453,-5.7373046875,-7.354736328125,2.716064453125
3.6724999,0.9014169573783875,-0.6727706789970398,9.764751434326172,3.23486328125,-3.5400390625,-0.54931640625
3.6774999000000004,0.9169792532920837,-0.7942764163017273,9.81143856048584,-0.213623046875,2.166748046875,-3.265380859375
3.6824999000000003,0.9570821523666382,-0.8313865661621094,9.725846290588379,2.9296875,4.180908203125,0.9765625
3.6874999,0.8822633028030396,-0.7769184708595276,9.775525093078613,1.52587890625,7.843017578125,-1.28173828125
3.6924999,0.6141127347946167,-0.4602852761745453,9.73542308807373,-1.922607421875,9.613037109375,-0.762939453125
3.6974999000000004,0.4944026470184326,-0.3693056106567383,9.743204116821289,2.9296875,8.60595703125,-1.190185546875
3.7024999000000003,0.18315643072128296,-0.3106476664543152,9.877279281616211,-2.960205078125,5.92041015625,1.52587890625
3.7074999,0.0736217051744461,-0.40521863102912903,9.900622367858887,2.38037109375,2.105712890625,0.091552734375
3.7124999,-0.1604115068912506,-0.46088382601737976,9.985017776489258,-0.701904296875,0.885009765625,-2.3193359375
3.7174999,-0.19632454216480255,-0.47584760189056396,9.858125686645508,1.15966796875,-3.936767578125,2.410888671875
3.7224999000000003,-0.17537526786327362,-0.5309142470359802,9.880271911621094,-0.732421875,-3.875732421875,-1.708984375
3.7274999,-0.07422025501728058,-0.43095630407333374,9.759963035583496,1.434326171875,-5.706787109375,-0.640869140625
3.7324999,0.1215057373046875,-0.4273650050163269,9.818621635437012,-3.631591796875,-4.364013671875,1.28173828125
3.7374999,0.2669534981250763,-0.40222588181495667,9.771934509277344,3.60107421875,-4.2724609375,-2.13623046875
3.7424999000000003,0.46148237586021423,-0.42197805643081665,9.810839653015137,-3.90625,-1.495361328125,1.312255859375
3.7474999,0.5039794445037842,-0.48063600063323975,9.769539833068848,1.46484375,-1.434326171875,-1.129150390625
3.7524999,0.5530605912208557,-0.49140989780426025,9.715071678161621,-1.129150390625,1.373291015625,0.335693359375
3.7574999,0.6236895322799683,-0.5159504413604736,9.765350341796875,2.62451171875,3.5400390625,0.213623046875
3.7624999000000003,0.42676645517349243,-0.46088382601737976,9.740211486816406,-1.922607421875,2.50244140625,-1.251220703125
3.7674999000000002,0.39205053448677063,-0.43933600187301636,9.775525093078613,1.983642578125,2.0751953125,1.03759765625
3.7724999,0.2472013235092163,-0.44592007994651794,9.814431190490723,-1.251220703125,1.0986328125,-0.91552734375
3.7774999,0.1364694982767105,-0.3992331326007843,9.82759952545166,1.64794921875,-0.640869140625,0.79345703125
3.7824999000000004,0.17896658182144165,-0.46806642413139343,9.827000617980957,-1.129150390625,0.152587890625,-0.885009765625
3.7874999000000003,0.07661445438861847,-0.40701428055763245,9.807249069213867,1.220703125,-2.0751953125,-1.068115234375
3.7924999,0.25318682193756104,-0.4752490520477295,9.809642791748047,-0.091552734375,-1.129150390625,0.30517578125
3.7974999,0.2106897532939911,-0.4620809257030487,9.816226959228516,0.30517578125,-1.52587890625,-1.922607421875
3.8024999000000004,0.36990416049957275,-0.4255693554878235,9.82999324798584,0.67138671875,-0.762939453125,1.251220703125
3.8074999000000003,0.3944447338581085,-0.45010992884635925,9.86889934539795,-1.800537109375,0.823974609375,-1.678466796875
3.8124999,0.2735375463962555,-0.5003881454467773,9.803058624267578,3.204345703125,0.152587890625,-2.593994140625
3.8174999,0.43514615297317505,-0.43514615297317505,9.82879638671875,-1.46484375,1.28173828125,-0.1220703125
3.8224999000000004,0.3585317134857178,-0.4016273319721222,9.819219589233398,-1.0986328125,1.007080078125,-0.48828125
3.8274999000000003,0.45010992884635925,-0.37648820877075195,9.84615421295166,1.007080078125,1.77001953125,0.091552734375
3.8324999,0.33937808871269226,-0.3411737382411957,9.834781646728516,-3.662109375,-0.152587890625,1.556396484375
3.8374999,0.22385786473751068,-0.424970805644989,9.800664901733398,2.50244140625,-1.15966796875,0.732421875
3.8424999,0.37169981002807617,-0.44173020124435425,9.703699111938477,1.3427734375,0.6103515625,0.701904296875
3.8474999000000003,0.5476736426353455,-0.4273650050163269,9.795876502990723,-1.40380859375,3.082275390625,-1.434326171875
3.8524999,0.5476736426353455,-0.4273650050163269,9.795876502990723,-1.40380859375,3.082275390625,-1.434326171875
3.8574999,0.4513070285320282,-0.25977087020874023,9.773730278015137,-1.15966796875,2.410888671875,0.885009765625
3.8624999,0.48722004890441895,-0.3292027413845062,9.81024169921875,-0.885009765625,1.922607421875,3.570556640625
3.8674999000000003,0.3100491166114807,-0.39564183354377747,9.847949981689453,-0.396728515625,0.732421875,-1.129150390625
3.8724999,0.181959331035614,-0.4602852761745453,9.779715538024902,2.13623046875,-1.28173828125,1.190185546875
3.8774999,0.15023615956306458,-0.5985504388809204,9.82759952545166,-0.213623046875,-1.678466796875,-1.434326171875
3.8824999,0.10594342648983002,-0.586579442024231,9.765948295593262,2.99072265625,-1.129150390625,-6.04248046875
3.8874999000000003,0.2950853705406189,-0.40521863102912903,9.84495735168457,1.3427734375,-1.251220703125,2.44140625
3.8924999000000002,0.2950853705406189,-0.40521863102912903,9.84495735168457,1.3427734375,-1.251220703125,2.44140625
3.8974999,0.3519476354122162,-0.5380968451499939,9.78869342803955,0.9765625,0,-3.021240234375
3.9024999,0.2256535142660141,-0.6057330369949341,9.787496566772461,0.67138671875,-0.091552734375,-3.35693359375
3.9074999000000004,0.29149407148361206,-0.6171054840087891,9.730634689331055,2.38037109375,0.54931640625,-0.213623046875
3.9124999000000003,0.38905778527259827,-0.5434837937355042,9.791088104248047,-0.79345703125,1.861572265625,-3.326416015625
3.9174999,0.3423708379268646,-0.35015198588371277,9.810839653015137,0.244140625,0.823974609375,2.532958984375
3.9224999,0.4357447028160095,-0.2579752206802368,9.85034465789795,-1.52587890625,-0.335693359375,6.927490234375
3.9274999000000004,0.2651578485965729,-0.2819172441959381,9.855731010437012,-0.518798828125,-0.823974609375,-2.38037109375
3.9324999000000003,0.29209262132644653,-0.35254621505737305,9.807847023010254,1.03759765625,-0.640869140625,-3.60107421875
3.9374999,0.24121582508087158,-0.5129576921463013,9.743802070617676,2.349853515625,0.1220703125,-3.814697265625
3.9424999,0.42197805643081665,-0.5560533404350281,9.793481826782227,-1.129150390625,1.983642578125,-2.777099609375
3.9474999000000004,0.3423708379268646,-0.43933600187301636,9.874286651611328,0,-0.335693359375,7.01904296875
3.9524999000000003,0.38486793637275696,-0.46327802538871765,9.862914085388184,0.244140625,-1.495361328125,6.561279296875
3.9574999,0.3411737382411957,-0.4531026780605316,9.889848709106445,-1.922607421875,-0.48828125,-5.55419921875
3.9624999,0.21308395266532898,-0.47165772318840027,9.79408073425293,1.312255859375,0.244140625,-4.669189453125
3.9674999000000004,0.2890998423099518,-0.4926069974899292,9.791686058044434,-1.52587890625,0.244140625,1.983642578125
3.9724999000000003,0.21787235140800476,-0.4626794755458832,9.775525093078613,-0.1220703125,0.335693359375,-2.44140625
3.9774999,0.3363853394985199,-0.48722004890441895,9.792284965515137,-0.48828125,0.885009765625,0.274658203125
3.9824999,0.28969839215278625,-0.4381389021873474,9.859322547912598,-0.42724609375,-2.197265625,7.75146484375
3.9874999,0.23582886159420013,-0.4129997789859772,9.774328231811523,2.532958984375,-2.044677734375,3.90625
3.9924999000000003,0.2992752194404602,-0.4794389009475708,9.786897659301758,-2.62451171875,-0.091552734375,-8.97216796875
3.9974999,0.42676645517349243,-0.4339490532875061,9.763554573059082,-0.091552734375,0.701904296875,5.096435546875
4.0024999,0.23822307586669922,-0.4339490532875061,9.765948295593262,1.28173828125,0.152587890625,-2.166748046875
4.0074999,0.38307225704193115,-0.5147533416748047,9.743204116821289,-1.28173828125,2.227783203125,-2.227783203125
4.0124999,0.3411737382411957,-0.4692635238170624,9.819219589233398,-0.9765625,1.129150390625,-2.01416015625
4.0174999,0.3758896589279175,-0.4339490532875061,9.86770248413086,2.685546875,-0.9765625,5.645751953125
4.022499900000001,0.3232172429561615,-0.4854243993759155,9.895833969116211,0.091552734375,-1.52587890625,4.8828125
4.0274999000000005,0.22744916379451752,-0.456095427274704,9.838972091674805,0.335693359375,-0.06103515625,-4.058837890625
4.0324999,0.3082534670829773,-0.4908113479614258,9.742605209350586,-2.685546875,2.25830078125,-7.38525390625
4.0374999,0.28131869435310364,-0.4537012279033661,9.790489196777344,-0.79345703125,1.983642578125,-2.62451171875
4.0424999,0.3172317147254944,-0.5039794445037842,9.870695114135742,0,-2.532958984375,6.40869140625
4.0474999,0.2172738015651703,-0.4710591733455658,9.853337287902832,0.3662109375,-1.0986328125,-4.119873046875
4.0524999,0.2861070930957794,-0.5207388401031494,9.755773544311523,-2.62451171875,2.38037109375,-9.002685546875
4.0574999,0.28550854325294495,-0.45429977774620056,9.787496566772461,-0.6103515625,1.800537109375,-2.9296875
4.062499900000001,0.33279404044151306,-0.46806642413139343,9.799467086791992,3.35693359375,-1.617431640625,8.880615234375
4.0674999000000005,0.36810851097106934,-0.4920084476470947,9.882067680358887,0.274658203125,-2.960205078125,6.7138671875
4.0724999,0.2687491476535797,-0.4471171796321869,9.850942611694336,-0.091552734375,-0.67138671875,-6.378173828125
4.0774999,0.363918662071228,-0.5063736438751221,9.752182006835938,-2.44140625,3.72314453125,-9.674072265625
4.0824999,0.3555389642715454,-0.4471171796321869,9.786299705505371,-0.1220703125,2.86865234375,-0.18310546875
4.0874999,0.3926490843296051,-0.4429273009300232,9.777320861816406,4.364013671875,-1.46484375,9.979248046875
4.0924999,0.40282443165779114,-0.47884035110473633,9.876680374145508,0.30517578125,-2.86865234375,4.608154296875
4.0974999,0.23163901269435883,-0.41718965768814087,9.847949981689453,-0.946044921875,0.6103515625,-8.544921875
4.1024999,0.24839842319488525,-0.4489128291606903,9.746794700622559,0.67138671875,1.8310546875,2.777099609375
4.1074999000000005,0.2819172441959381,-0.43035775423049927,9.77672290802002,5.035400390625,-2.38037109375,10.7421875
4.1124999,0.31783026456832886,-0.4884171485900879,9.837176322937012,-0.396728515625,-3.509521484375,1.708984375
4.1174999,0.19871874153614044,-0.41120412945747375,9.879075050354004,-2.197265625,0.48828125,-10.589599609375
4.1224999,0.31603461503982544,-0.4908113479614258,9.780313491821289,-2.8076171875,3.143310546875,-6.256103515625
4.1274999,0.31364041566848755,-0.4644751250743866,9.843161582946777,1.434326171875,-0.274658203125,5.92041015625
4.1324999,0.32381579279899597,-0.444722980260849,9.798869132995605,5.584716796875,-3.35693359375,8.758544921875
4.1374999,0.3884592354297638,-0.49320554733276367,9.825204849243164,-1.77001953125,-2.044677734375,-2.86865234375
4.1424999,0.2801215946674347,-0.39384618401527405,9.786897659301758,-3.23486328125,2.62451171875,-10.284423828125
4.147499900000001,0.38067805767059326,-0.47644615173339844,9.771934509277344,-0.91552734375,2.899169921875,0.213623046875
4.1524999000000005,0.3477577865123749,-0.4554968774318695,9.82640266418457,2.3193359375,-1.46484375,8.575439453125
4.1574999,0.3100491166114807,-0.46627077460289,9.856928825378418,4.2724609375,-1.89208984375,1.312255859375
4.1624999,0.33039984107017517,-0.444722980260849,9.858125686645508,1.52587890625,-2.899169921875,5.67626953125
4.1674999,0.2795230448246002,-0.4225766062736511,9.804854393005371,-0.396728515625,-0.79345703125,-8.697509765625
4.1724999,0.33937808871269226,-0.4141969084739685,9.818022727966309,-5.950927734375,3.60107421875,-8.880615234375
4.1774999,0.2603694200515747,-0.36750996112823486,9.801262855529785,2.227783203125,0.9765625,5.0048828125
4.1824999,0.32620999217033386,-0.4513070285320282,9.767744064331055,6.317138671875,-3.35693359375,10.406494140625
4.187499900000001,0.3016694188117981,-0.4411316514015198,9.82999324798584,-1.556396484375,-2.13623046875,-3.84521484375
4.1924999000000005,0.2495955228805542,-0.43933600187301636,9.764153480529785,-4.39453125,2.166748046875,-10.650634765625
4.1974999,0.3423708379268646,-0.42676645517349243,9.762357711791992,-0.67138671875,2.13623046875,2.838134765625
4.2024999,0.2849099934101105,-0.395043283700943,9.836577415466309,4.45556640625,-3.0517578125,9.3994140625
4.2074999,0.3824737071990967,-0.5578489899635315,9.77791976928711,6.378173828125,-2.62451171875,11.41357421875
4.2124999,0.2735375463962555,-0.43514615297317505,9.831789016723633,0.42724609375,-1.556396484375,-2.8076171875
4.2174999,0.2651578485965729,-0.5123591423034668,9.881468772888184,-5.55419921875,2.8076171875,-10.284423828125
4.2224999,0.28371289372444153,-0.4734533727169037,9.903017044067383,-1.068115234375,2.349853515625,2.227783203125
4.2274999,0.2041056901216507,-0.4704606235027313,9.92097282409668,6.622314453125,-2.655029296875,10.284423828125
4.2324999000000005,0.31783026456832886,-0.4920084476470947,9.815628051757812,-2.01416015625,-1.861572265625,-3.448486328125
4.2374999,0.2902969419956207,-0.46148237586021423,9.812037467956543,-6.8359375,3.0517578125,-12.420654296875
4.2424999,0.30466216802597046,-0.46327802538871765,9.786299705505371,2.593994140625,1.89208984375,4.57763671875
4.2474999,0.36152446269989014,-0.4728548228740692,9.770736694335938,5.401611328125,-3.2958984375,10.498046875
4.2524999,0.2759317457675934,-0.41539400815963745,9.744400978088379,-0.06103515625,-1.03759765625,-7.38525390625
4.2574999,0.33997663855552673,-0.4297592043876648,9.711481094360352,1.617431640625,-2.838134765625,2.532958984375
4.2624999,0.3166331648826599,-0.4950011968612671,9.823410034179688,-5.645751953125,2.288818359375,-13.397216796875
4.2674999,0.363918662071228,-0.5207388401031494,9.837775230407715,-2.50244140625,2.655029296875,0.1220703125
4.272499900000001,0.21787235140800476,-0.47165772318840027,9.858125686645508,9.002685546875,-3.021240234375,12.359619140625
4.2774999000000005,0.3495534360408783,-0.4572925269603729,9.798869132995605,-0.8544921875,-0.79345703125,-5.279541015625
4.2824999,0.3064578175544739,-0.40282443165779114,9.783905029296875,-9.185791015625,3.753662109375,-12.603759765625
4.2874999,0.24839842319488525,-0.35673606395721436,9.797073364257812,5.462646484375,0.213623046875,9.429931640625
4.2924999,0.3130418658256531,-0.585382342338562,9.888052940368652,8.1787109375,-3.47900390625,12.359619140625
4.2974999,0.32860419154167175,-0.5638344883918762,9.789292335510254,2.227783203125,-1.617431640625,-3.204345703125
4.3024999,0.383670836687088,-0.5692214369773865,9.79527759552002,-10.711669921875,3.35693359375,-12.3291015625
4.3074999,0.2753331959247589,-0.49619829654693604,9.84495735168457,5.706787109375,-0.640869140625,8.148193359375
4.312499900000001,0.3232172429561615,-0.4321534037590027,9.746794700622559,6.8359375,-4.119873046875,9.613037109375
4.3174999000000005,0.28969839215278625,-0.3477577865123749,9.70549488067627,-7.9345703125,2.5634765625,-14.495849609375
4.3224999,0.2687491476535797,-0.3758896589279175,9.725846290588379,-0.79345703125,-1.3427734375,-4.974365234375
4.3274999,0.40282443165779114,-0.47405192255973816,9.761159896850586,-8.819580078125,5.126953125,-13.36669921875
4.3324999,0.3064578175544739,-0.497395396232605,9.754576683044434,4.7607421875,-4.638671875,7.99560546875
4.3374999,0.3687070608139038,-0.4734533727169037,9.77253246307373,-10.894775390625,4.364013671875,-15.899658203125
4.3424999,0.292691171169281,-0.48243165016174316,9.833584785461426,3.448486328125,1.89208984375,0.42724609375
4.3474999,0.383670836687088,-0.3974374830722809,9.607931137084961,6.4697265625,-5.462646484375,14.22119140625
4.352499900000001,0.25019407272338867,-0.31124621629714966,8.76577091217041,-10.07080078125,-5.79833984375,-9.765625
4.3574999000000005,0.26575639843940735,-0.3597288131713867,8.646060943603516,-26.336669921875,-15.31982421875,-7.8125
4.3624999,0.5003881454467773,-0.5847837924957275,9.224260330200195,22.3388671875,19.95849609375,9.979248046875
4.3674999,0.6745663285255432,-0.6542156338691711,10.06043529510498,40.34423828125,30.94482421875,-0.42724609375
4.3724999,0.9373299479484558,-0.7583633661270142,10.987589836120605,-26.67236328125,-11.474609375,-4.119873046875
4.3774999,0.6769605278968811,-0.4950011968612671,10.433332443237305,-7.476806640625,-19.134521484375,9.70458984375
4.3824999,0.21966800093650818,-0.02693476900458336,8.801085472106934,15.80810546875,-18.768310546875,9.58251953125
4.3874999,-0.32381579279899597,0.2172738015651703,7.316082000732422,-9.82666015625,4.852294921875,1.068115234375
4.3924999,0.7529764175415039,-1.268328309059143,10.799046516418457,3.11279296875,3.41796875,2.9296875
4.397499900000001,0.9552865028381348,-1.4107834100723267,11.504138946533203,12.14599609375,-1.89208984375,0.946044921875
4.4024999000000005,0.43035775423049927,-0.5770025849342346,9.454702377319336,23.345947265625,4.8828125,7.232666015625
4.4074999,0.33279404044151306,-0.25318682193756104,9.157222747802734,-7.843017578125,9.521484375,-5.9814453125
4.4124999,0.05267243832349777,-0.03411737456917763,9.474454879760742,0.823974609375,4.82177734375,-0.18310546875
4.4174999,0.048482585698366165,0.1322796493768692,9.803058624267578,11.962890625,0.79345703125,5.218505859375
4.4224999,-0.07182604819536209,0.2064998894929886,9.929352760314941,-11.8408203125,6.622314453125,-9.796142578125
4.4274999,-0.13587094843387604,0.1430535465478897,10.02452278137207,2.50244140625,1.556396484375,0.213623046875
4.4324999,-0.05386953800916672,-0.0011971008498221636,9.864110946655273,-12.664794921875,-4.21142578125,-7.415771484375
4.437499900000001,0.12449848651885986,-0.2555810213088989,9.974244117736816,2.13623046875,-2.777099609375,1.52587890625
4.4424999000000005,0.21368250250816345,-0.3363853394985199,9.851541519165039,4.57763671875,-7.6904296875,5.2490234375
4.4474999,0.38067805767059326,-0.5560533404350281,9.78989028930664,-14.6484375,-1.190185546875,-8.60595703125
4.4524999,0.38067805767059326,-0.5560533404350281,9.78989028930664,-14.6484375,-1.190185546875,-8.60595703125
4.4574999,0.5710170865058899,-0.8607155084609985,9.862914085388184,1.800537109375,1.190185546875,1.5869140625
4.4624999,0.547075092792511,-0.889445960521698,9.719860076904297,9.94873046875,-4.119873046875,7.476806640625
4.4674999,0.6799532771110535,-1.0235211849212646,9.567828178405762,-12.481689453125,2.716064453125,-5.06591796875
4.4724999,0.524330198764801,-1.0073603391647339,9.750985145568848,7.904052734375,1.617431640625,1.068115234375
4.477499900000001,0.43694180250167847,-0.8038532137870789,9.677363395690918,7.38525390625,-1.89208984375,3.082275390625
4.4824999000000005,0.34656068682670593,-0.304063618183136,9.79647445678711,1.03759765625,-1.495361328125,2.38037109375
4.4874999,0.2885012924671173,-0.24181437492370605,9.914987564086914,-9.33837890625,4.425048828125,-8.331298828125
4.4924999,0.272938996553421,-0.12509703636169434,9.9185791015625,14.068603515625,-1.556396484375,6.988525390625
4.4974999,0.27234044671058655,-0.0454898327589035,9.794678688049316,-4.8828125,-3.173828125,0.54931640625
4.5024999,0.2513911724090576,-0.07900865375995636,9.827000617980957,-8.48388671875,3.0517578125,-6.317138671875
4.5074999,0.322618693113327,-0.2232593148946762,9.899425506591797,9.979248046875,-2.410888671875,6.7138671875
4.5124999,0.28072014451026917,-0.2232593148946762,9.754576683044434,-9.246826171875,-0.48828125,-4.364013671875
4.5174999,0.383670836687088,-0.535702645778656,9.86231517791748,-3.41796875,3.72314453125,-2.716064453125
4.522499900000001,0.3166331648826599,-0.5746083855628967,9.855133056640625,11.65771484375,-3.60107421875,7.171630859375
4.5274999000000005,0.2825157940387726,-0.5764040350914001,9.68813705444336,-9.613037109375,1.89208984375,-6.072998046875
4.5324999,0.3298012912273407,-0.7122750282287598,9.853337287902832,3.631591796875,3.11279296875,-0.335693359375
4.5374999,0.14245499670505524,-0.5422866940498352,9.819818496704102,9.613037109375,-4.058837890625,4.608154296875
4.5424999,0.2519897222518921,-0.5758054852485657,9.726444244384766,-14.09912109375,2.838134765625,-5.401611328125
4.5474999,0.15741875767707825,-0.37828385829925537,9.704896926879883,1.46484375,-4.119873046875,1.007080078125
4.5524999,0.33937808871269226,-0.46806642413139343,9.845556259155273,-12.786865234375,2.105712890625,-6.378173828125
4.5574999,0.228047713637352,-0.34835633635520935,9.832387924194336,15.960693359375,-3.84521484375,5.31005859375
4.562499900000001,0.4644751250743866,-0.4638765752315521,9.66419506072998,4.0283203125,-1.03759765625,1.220703125
4.5674999000000005,0.35075053572654724,-0.5380968451499939,9.780912399291992,-11.3525390625,5.92041015625,-6.77490234375
4.5724999,0.24779987335205078,-0.5668272376060486,9.853935241699219,16.54052734375,-1.46484375,6.4697265625
4.5774999,0.17717093229293823,-0.4794389009475708,9.765350341796875,-8.575439453125,-0.091552734375,-2.25830078125
4.5824999,0.05027823522686958,-0.4596867263317108,9.888651847839355,10.650634765625,-4.119873046875,4.058837890625
4.5874999,0.05027823522686958,-0.4596867263317108,9.888651847839355,10.650634765625,-4.119873046875,4.058837890625
4.5924999,0.014365210197865963,-0.42437225580215454,9.813234329223633,-14.16015625,1.46484375,-6.927490234375
4.5974999,0.12868833541870117,-0.5303156971931458,9.97065258026123,10.92529296875,-1.89208984375,3.814697265625
4.602499900000001,0.21308395266532898,-0.4321534037590027,9.768342971801758,-0.3662109375,-4.08935546875,-0.42724609375
4.6074999000000005,0.3387795388698578,-0.45010992884635925,9.79527759552002,-10.31494140625,2.166748046875,-2.716064453125
4.6124999,0.46327802538871765,-0.4638765752315521,9.840767860412598,13.48876953125,-4.669189453125,5.096435546875
4.6174999,0.4315548539161682,-0.36152446269989014,9.633070945739746,-11.65771484375,0.54931640625,-5.523681640625
4.6224999,0.5440823435783386,-0.524330198764801,9.84376049041748,4.852294921875,1.64794921875,1.434326171875
4.6274999,0.4537012279033661,-0.3711012601852417,9.702502250671387,7.110595703125,-2.899169921875,0.79345703125
4.6324999,0.46806642413139343,-0.44173020124435425,9.729436874389648,-13.397216796875,4.608154296875,-2.960205078125
4.6374999,0.41718965768814087,-0.4315548539161682,9.858723640441895,12.75634765625,-1.46484375,4.425048828125
4.6424999,0.166995570063591,-0.37409400939941406,9.825204849243164,10.284423828125,-2.960205078125,0.640869140625
4.647499900000001,0.166995570063591,-0.37409400939941406,9.825204849243164,10.284423828125,-2.960205078125,0.640869140625
4.6524999000000005,0.23283611238002777,-0.49559974670410156,9.79288387298584,-15.19775390625,4.57763671875,-3.448486328125
4.6574999,0.1215057373046875,-0.5321113467216492,9.958083152770996,12.542724609375,-1.739501953125,4.2724609375
4.6624999,0.12330138683319092,-0.4620809257030487,9.689932823181152,-7.14111328125,0.3662109375,-3.96728515625
4.6674999,0.1999158412218094,-0.5596446394920349,9.914389610290527,0.701904296875,1.89208984375,1.129150390625
4.6724999,0.1430535465478897,-0.41718965768814087,9.785101890563965,9.521484375,-4.8828125,1.03759765625
4.6774999,0.27234044671058655,-0.5237316489219666,9.77791976928711,-15.625,2.471923828125,-2.74658203125
4.6824999,0.2585737705230713,-0.45250412821769714,9.90241813659668,13.85498046875,-4.486083984375,3.509521484375
4.687499900000001,0.3130418658256531,-0.4572925269603729,9.701904296875,-9.58251953125,-0.518798828125,-3.96728515625
4.6924999000000005,0.4381389021873474,-0.46088382601737976,9.970054626464844,3.387451171875,0.030517578125,1.739501953125
4.6974999,0.395043283700943,-0.33279404044151306,9.761758804321289,5.9814453125,-5.157470703125,0.457763671875
4.7024999,0.40940847992897034,-0.37828385829925537,9.832387924194336,16.66259765625,-2.86865234375,2.410888671875
4.7074999,0.4291606545448303,-0.4794389009475708,9.576208114624023,-12.63427734375,2.655029296875,-3.2958984375
4.7124999,0.4082113802433014,-0.5267243981361389,9.92097282409668,6.53076171875,1.983642578125,2.50244140625
4.7174999,0.3357867896556854,-0.4842272996902466,9.668983459472656,0.6103515625,-0.518798828125,-2.410888671875
4.7224999,0.28072014451026917,-0.4944026470184326,9.75397777557373,-16.448974609375,4.180908203125,-2.197265625
4.727499900000001,0.14664486050605774,-0.44352585077285767,9.935338973999023,11.90185546875,-1.190185546875,3.082275390625
4.7324999000000005,0.11312603205442429,-0.3992331326007843,9.638457298278809,-6.988525390625,-0.396728515625,-3.936767578125
4.7374999,0.20350714027881622,-0.42676645517349243,9.911994934082031,1.556396484375,1.03759765625,1.28173828125
4.7424999,0.14365209639072418,-0.2861070930957794,9.659406661987305,6.561279296875,-5.92041015625,-0.091552734375
4.7474999,0.35733461380004883,-0.395043283700943,9.768342971801758,-14.617919921875,1.15966796875,-0.762939453125
4.7524999,0.4129997789859772,-0.46507367491722107,9.679757118225098,-15.19775390625,0.518798828125,-2.8076171875
4.7574999,0.40462008118629456,-0.4920084476470947,10.005369186401367,9.429931640625,-1.708984375,2.685546875
4.7624999,0.4231751561164856,-0.46088382601737976,9.711481094360352,-5.06591796875,-0.885009765625,-3.753662109375
4.7674999,0.5392939448356628,-0.5045779943466187,9.959280967712402,-0.091552734375,4.2724609375,1.708984375
4.772499900000001,0.4124012291431427,-0.37409400939941406,9.731232643127441,8.880615234375,-2.105712890625,0.274658203125
4.7774999000000005,0.5213374495506287,-0.4710591733455658,9.762955665588379,-14.923095703125,5.7373046875,-0.3662109375
4.7824999,0.31124621629714966,-0.42437225580215454,9.804255485534668,16.937255859375,-0.48828125,0.06103515625
4.7874999,0.3315969407558441,-0.5273229479789734,9.66299819946289,-13.97705078125,4.5166015625,-2.349853515625
4.7924999,0.2064998894929886,-0.5398924946784973,9.912593841552734,10.68115234375,-0.18310546875,3.47900390625
4.7974999,0.16519992053508759,-0.4572925269603729,9.667786598205566,-7.354736328125,0.335693359375,-4.913330078125
4.8024999,0.33099839091300964,-0.46806642413139343,9.746196746826172,-14.984130859375,1.15966796875,-1.8310546875
4.8074999,0.33339259028434753,-0.4465186297893524,9.981427192687988,12.420654296875,-3.814697265625,2.9296875
4.812499900000001,0.4100070297718048,-0.44592007994651794,9.709086418151855,-11.444091796875,0.79345703125,-3.448486328125
4.8174999000000005,0.47824180126190186,-0.5273229479789734,9.983222961425781,10.68115234375,-0.213623046875,2.655029296875
4.8224999,0.40043023228645325,-0.38546648621559143,9.641449928283691,-6.34765625,-0.946044921875,-3.2958984375
4.8274999,0.48063600063323975,-0.5464765429496765,9.90122127532959,0.518798828125,3.204345703125,3.41796875
4.8324999,0.3016694188117981,-0.444722980260849,9.731831550598145,6.9580078125,-1.129150390625,-3.11279296875
4.8374999,0.37469255924224854,-0.48602294921875,9.824007987976074,-10.040283203125,4.364013671875,1.983642578125
4.8424999,0.25677812099456787,-0.4345476031303406,9.858125686645508,10.101318359375,-1.190185546875,-1.77001953125
4.8474999,0.22385786473751068,-0.42437225580215454,9.773131370544434,-10.3759765625,4.150390625,-1.129150390625
4.852499900000001,0.2214636504650116,-0.4596867263317108,9.869498252868652,11.688232421875,-2.288818359375,1.861572265625
4.8574999000000005,0.22026655077934265,-0.5452794432640076,9.9401273727417,14.7705078125,-1.495361328125,3.204345703125
4.8624999,0.17477671802043915,-0.4854243993759155,9.730634689331055,-12.26806640625,-1.190185546875,-3.35693359375
4.8674999,0.3100491166114807,-0.46746787428855896,9.946710586547852,7.415771484375,-0.79345703125,3.60107421875
4.8724999,0.3016694188117981,-0.3992331326007843,9.718064308166504,-2.716064453125,-2.62451171875,-4.119873046875
4.8774999,0.38486793637275696,-0.3489548861980438,9.893440246582031,-1.220703125,0.18310546875,3.631591796875
4.8824999,0.3974374830722809,-0.3669114112854004,9.697115898132324,1.5869140625,-2.716064453125,-3.23486328125
4.8874999,0.4016273319721222,-0.3818751573562622,9.891045570373535,-3.60107421875,1.739501953125,1.556396484375
4.8924999,0.4213795065879822,-0.436343252658844,9.761758804321289,5.43212890625,-2.838134765625,-0.67138671875
4.897499900000001,0.38965633511543274,-0.47165772318840027,9.819219589233398,-8.575439453125,3.814697265625,-1.0986328125
4.9024999000000005,0.3824737071990967,-0.5117605924606323,9.797672271728516,13.85498046875,-1.64794921875,0.518798828125
4.9074999,0.3585317134857178,-0.5063736438751221,9.747992515563965,-16.357421875,4.21142578125,-1.03759765625
4.9124999,0.31124621629714966,-0.5171475410461426,9.844358444213867,17.27294921875,-0.42724609375,1.678466796875
4.9174999,0.24420857429504395,-0.4255693554878235,9.929951667785645,12.725830078125,-0.091552734375,1.800537109375
4.9224999,0.272938996553421,-0.45010992884635925,9.740211486816406,-11.566162109375,1.46484375,-2.99072265625
4.9274999,0.19213469326496124,-0.3447650372982025,9.963470458984375,10.345458984375,-1.15966796875,3.021240234375
4.9324999,0.24420857429504395,-0.42197805643081665,9.695320129394531,-8.697509765625,-0.48828125,-2.471923828125
4.937499900000001,0.18614917993545532,-0.37469255924224854,9.96945571899414,7.32421875,-1.434326171875,2.0751953125
4.9424999000000005,0.243011474609375,-0.4668693244457245,9.655217170715332,-5.889892578125,-1.617431640625,-3.570556640625
4.9474999,0.3100491166114807,-0.4578910768032074,9.985616683959961,3.72314453125,-0.335693359375,2.3193359375
4.9524999,0.33758243918418884,-0.4866214990615845,9.700706481933594,-0.3662109375,-3.2958984375,-2.197265625
4.9574999,0.4554968774318695,-0.43754035234451294,9.907805442810059,-3.204345703125,1.708984375,2.74658203125
4.9624999,0.363918662071228,-0.38067805767059326,9.677961349487305,5.462646484375,-2.716064453125,-2.8076171875
4.9674999,0.4800374507904053,-0.395043283700943,9.79288387298584,-7.843017578125,2.9296875,2.593994140625
4.9724999,0.314238965511322,-0.33039984107017517,9.632472038269043,8.48388671875,-1.800537109375,-3.60107421875
4.977499900000001,0.3519476354122162,-0.5596446394920349,9.870096206665039,-7.87353515625,3.753662109375,1.800537109375
4.9824999000000005,0.22445641458034515,-0.5027823448181152,9.86231517791748,8.575439453125,-1.495361328125,-2.410888671875
4.9874999,0.34356793761253357,-0.4728548228740692,9.858125686645508,-7.720947265625,3.082275390625,1.953125
4.9924999,0.24241292476654053,-0.41778820753097534,9.858125686645508,7.843017578125,-2.227783203125,-1.922607421875
4.9974999,0.3381809890270233,-0.35673606395721436,9.785101890563965,-7.32421875,1.983642578125,0.67138671875
5.0024999,0.25019407272338867,-0.3411737382411957,9.825204849243164,6.9580078125,-3.387451171875,-1.220703125
5.0074999,0.2992752194404602,-0.42018240690231323,9.762357711791992,-7.720947265625,0.91552734375,0.762939453125
5.0124999,0.27234044671058655,-0.4183867573738098,9.824007987976074,7.62939453125,-3.84521484375,-1.007080078125
5.0174999,0.2998737692832947,-0.5363011956214905,9.798869132995605,-8.30078125,1.03759765625,0.732421875
5.022499900000001,0.31783026456832886,-0.5033808946609497,9.839570045471191,7.904052734375,-3.143310546875,-0.91552734375
5.0274999000000005,0.3561375141143799,-0.5901707410812378,9.808445930480957,-7.781982421875,1.8310546875,0.396728515625
5.0324999,0.3932476341724396,-0.5596446394920349,9.827000617980957,-7.2021484375,2.86865234375,0.48828125
5.0374999,0.35913026332855225,-0.4225766062736511,9.835979461669922,7.26318359375,-0.732421875,-0.91552734375
5.0424999,0.30705636739730835,-0.45190557837486267,9.894637107849121,-6.34765625,2.960205078125,0.8544921875
5.0474999,0.26156654953956604,-0.3627215623855591,9.782109260559082,6.134033203125,-1.64794921875,-1.220703125
5.0524999,0.2603694200515747,-0.42437225580215454,9.888651847839355,-5.37109375,2.166748046875,0.91552734375
5.0574999,0.2454056739807129,-0.3932476341724396,9.737217903137207,5.0048828125,-2.5634765625,-1.434326171875
5.062499900000001,0.24899697303771973,-0.4058171808719635,9.836577415466309,-4.21142578125,1.0986328125,1.251220703125
5.0674999000000005,0.2472013235092163,-0.3932476341724396,9.713874816894531,3.631591796875,-2.838134765625,-1.678466796875
5.0724999,0.30047231912612915,-0.36152446269989014,9.797672271728516,-3.082275390625,0.54931640625,1.373291015625
5.0774999,0.31184476613998413,-0.40043023228645325,9.684545516967773,1.922607421875,-2.655029296875,-2.0751953125
5.0824999,0.3860650360584259,-0.3693056106567383,9.833584785461426,0.67138671875,1.8310546875,1.708984375
5.0874999,0.40701428055763245,-0.5057750940322876,9.724648475646973,-1.89208984375,-0.335693359375,-2.288818359375
5.0924999,0.40701428055763245,-0.5057750940322876,9.724648475646973,-1.89208984375,-0.335693359375,-2.288818359375
5.0974999,0.3256114423274994,-0.46986207365989685,9.911994934082031,2.86865234375,2.197265625,1.861572265625
5.102499900000001,0.3345896899700165,-0.5793967843055725,9.742006301879883,-3.509521484375,-0.1220703125,-2.166748046875
5.1074999000000005,0.2513911724090576,-0.5297171473503113,9.999382972717285,5.035400390625,1.800537109375,1.678466796875
5.1124999,0.25737667083740234,-0.5925649404525757,9.785700798034668,-5.615234375,0.091552734375,-2.197265625
5.1174999,0.22744916379451752,-0.4704606235027313,10.00836181640625,6.561279296875,0.91552734375,1.46484375
5.1224999,0.2495955228805542,-0.5416881442070007,9.728838920593262,-7.354736328125,0.335693359375,-1.52587890625
5.1274999,0.2406172752380371,-0.3734954595565796,9.907206535339355,7.781982421875,-0.457763671875,1.15966796875
5.1324999,0.30047231912612915,-0.44352585077285767,9.636063575744629,-8.331298828125,-0.091552734375,-1.373291015625
5.1374999,0.3519476354122162,-0.4471171796321869,9.86111831665039,5.7373046875,-1.52587890625,-1.007080078125
5.1424999,0.3579331636428833,-0.4734533727169037,9.923367500305176,-4.913330078125,1.3427734375,1.28173828125
5.147499900000001,0.34656068682670593,-0.43933600187301636,9.818621635437012,3.387451171875,-1.434326171875,-1.5869140625
5.1524999000000005,0.3411737382411957,-0.36810851097106934,9.870096206665039,-1.617431640625,2.01416015625,1.251220703125
5.1574999,0.33099839091300964,-0.4165911078453064,9.731232643127441,-0.335693359375,0,-2.50244140625
5.1624999,0.29209262132644653,-0.3728969097137451,9.893440246582031,2.197265625,2.044677734375,1.190185546875
5.1674999,0.28311434388160706,-0.4991910457611084,9.747992515563965,-3.173828125,0.274658203125,-2.197265625
5.1724999,0.24660277366638184,-0.4596867263317108,9.952696800231934,5.06591796875,0.9765625,1.251220703125
5.1774999,0.3471592366695404,-0.641047477722168,9.612719535827637,-7.14111328125,0.79345703125,-1.312255859375
5.1824999,0.7529764175415039,-0.9696516990661621,8.917802810668945,-2.5634765625,10.345458984375,-2.044677734375
5.187499900000001,0.7529764175415039,-0.9696516990661621,8.917802810668945,-2.5634765625,10.345458984375,-2.044677734375
5.1924999000000005,1.0199298858642578,-1.3784615993499756,8.690353393554688,14.404296875,16.143798828125,0.54931640625
5.1974999,1.3754688501358032,-1.4957774877548218,8.44434928894043,1.46484375,26.092529296875,3.021240234375
5.2024999,1.5957354307174683,-1.5203180313110352,8.483255386352539,9.1552734375,33.26416015625,12.115478515625
5.2074999,1.5693992376327515,-1.1336544752120972,8.497021675109863,9.185791015625,38.360595703125,0.8544921875
5.2124999,1.002571940422058,-1.1001356840133667,8.69214916229248,30.6396484375,31.31103515625,40.10009765625
5.2174999,0.20889410376548767,-1.482010841369629,8.570643424987793,32.71484375,14.6484375,33.050537109375
5.2224999,-2.034472942352295,-3.1310172080993652,8.638279914855957,-8.575439453125,-3.631591796875,95.5810546875
5.227499900000001,-3.88818359375,-3.844489336013794,9.856329917907715,71.929931640625,-60.36376953125,200.3173828125
5.2324999000000005,-5.676053524017334,-4.26706600189209,10.449493408203125,105.28564453125,-5.79833984375,143.798828125
5.2374999,-6.464344501495361,-3.5637693405151367,10.616488456726074,-7.537841796875,4.486083984375,81.84814453125
