# Time (seconds),Accel_X,Accel_Y,Accel_Z,Gyro_X,Gyro_Y,Gyro_Z
0.0024999,0.4572925269603729,-0.2968810200691223,10.02691650390625,6.378173828125,0.54931640625,-0.732421875
0.0074999,0.28790274262428284,-0.24779987335205078,9.787496566772461,-4.150390625,0.152587890625,1.77001953125
0.012499900000000001,0.5225345492362976,-0.27712884545326233,9.600150108337402,-0.762939453125,-0.1220703125,-2.349853515625
0.0174999,0.43275195360183716,-0.2555810213088989,9.95329475402832,5.92041015625,0.48828125,-0.30517578125
0.0224999,0.32620999217033386,-0.25737667083740234,9.689932823181152,-5.37109375,0.244140625,1.800537109375
0.0274999,0.5380968451499939,-0.2861070930957794,9.59715747833252,0.48828125,0.3662109375,-2.3193359375
0.0324999,0.4189853072166443,-0.272938996553421,9.97603988647461,5.126953125,0.42724609375,0.213623046875
0.0374999,0.4818331003189087,-0.2555810213088989,9.667786598205566,1.739501953125,-0.06103515625,-2.777099609375
0.0424999,0.3645172119140625,-0.24779987335205078,10.022727012634277,4.39453125,0.518798828125,0.640869140625
0.0474999,0.28969839215278625,-0.22026655077934265,9.640253067016602,-5.889892578125,0.06103515625,0.91552734375
0.0524999,0.4985924959182739,-0.26396074891090393,9.693524360656738,3.021240234375,0.1220703125,-2.716064453125
0.0574999,0.38726213574409485,-0.2663549482822418,9.962871551513672,2.777099609375,0.48828125,1.312255859375
0.0624999,0.33937808871269226,-0.3148375153541565,9.552865028381348,-6.195068359375,0.152587890625,0.67138671875
0.0674999,0.5404910445213318,-0.35075053572654724,9.729436874389648,4.241943359375,-0.42724609375,-2.8076171875
0.0724999,0.345363587141037,-0.30047231912612915,9.998186111450195,1.617431640625,0.213623046875,1.5869140625
0.0774999,0.36810851097106934,-0.30047231912612915,9.59596061706543,-5.67626953125,-0.06103515625,0.152587890625
0.0824999,0.5656301379203796,-0.2950853705406189,9.870096206665039,4.913330078125,-0.06103515625,-2.410888671875
0.0874999,0.35494041442871094,-0.25318682193756104,9.989208221435547,0.30517578125,0.274658203125,1.800537109375
0.0924999,0.4471171796321869,-0.2759317457675934,9.556455612182617,-4.974365234375,-0.030517578125,-0.67138671875
0.0974999,0.3274070918560028,-0.26336219906806946,9.913191795349121,-1.15966796875,0.1220703125,2.0751953125
0.1024999,0.4495113790035248,-0.2717418968677521,9.564835548400879,-4.913330078125,-0.91552734375,-1.068115234375
0.1074999,0.5267243981361389,-0.2861070930957794,9.989806175231934,6.40869140625,0.30517578125,-1.8310546875
0.1124999,0.272938996553421,-0.21308395266532898,9.937732696533203,-2.13623046875,0.1220703125,2.0751953125
0.1174999,0.5033808946609497,-0.26396074891090393,9.63067626953125,-3.631591796875,-0.1220703125,-1.373291015625
0.1224999,0.517746090888977,-0.3082534670829773,10.020332336425781,6.317138671875,0.457763671875,-1.15966796875
0.1274999,0.31543606519699097,-0.2950853705406189,9.822811126708984,-3.5400390625,0.1220703125,2.0751953125
0.1324999,0.5464765429496765,-0.32680854201316833,9.59596061706543,-2.25830078125,-0.274658203125,-1.800537109375
0.1374999,0.4596867263317108,-0.3190273642539978,9.975440979003906,5.859375,-0.274658203125,-0.823974609375
0.1424999,0.2968810200691223,-0.2561795711517334,9.758167266845703,-4.5166015625,-0.762939453125,1.800537109375
0.1474999,0.5315127968788147,-0.27892449498176575,9.596558570861816,-0.8544921875,-0.396728515625,-2.105712890625
0.1524999,0.4429273009300232,-0.25438392162323,9.96945571899414,5.401611328125,-0.18310546875,-0.18310546875
0.1574999,0.5434837937355042,-0.28790274262428284,9.610325813293457,0.457763671875,-0.30517578125,-2.62451171875
0.1624999,0.4213795065879822,-0.28311434388160706,9.980229377746582,4.82177734375,0.396728515625,0.396728515625
0.1674999,0.33099839091300964,-0.2663549482822418,9.652822494506836,-5.828857421875,0.152587890625,1.312255859375
0.1724999,0.5033808946609497,-0.2579752206802368,9.676764488220215,2.197265625,0.335693359375,-2.777099609375
0.17749990000000002,0.395043283700943,-0.2472013235092163,10.026318550109863,4.0283203125,0.152587890625,0.823974609375
0.1824999,0.3100491166114807,-0.24420857429504395,9.635464668273926,-6.561279296875,-0.30517578125,0.9765625
0.1874999,0.5123591423034668,-0.2861070930957794,9.713275909423828,3.326416015625,0.54931640625,-2.716064453125
0.1924999,0.37169981002807617,-0.2783259451389313,9.993996620178223,2.9296875,0.335693359375,1.40380859375
0.1974999,0.33099839091300964,-0.3100491166114807,9.594164848327637,-6.072998046875,0.152587890625,0.67138671875
0.2024999,0.5363011956214905,-0.33099839091300964,9.78989028930664,4.608154296875,0.152587890625,-2.74658203125
0.20749990000000001,0.3381809890270233,-0.28072014451026917,10.022727012634277,1.495361328125,-0.244140625,1.28173828125
0.2124999,0.3800795078277588,-0.26815059781074524,9.941922187805176,-0.1220703125,-0.1220703125,1.556396484375
0.2174999,0.48063600063323975,-0.28790274262428284,9.539097785949707,-5.401611328125,-0.091552734375,-0.42724609375
0.2224999,0.595557689666748,-0.3423708379268646,9.911994934082031,6.195068359375,0.762939453125,-2.01416015625
0.2274999,0.3250128924846649,-0.2603694200515747,9.941922187805176,-1.220703125,0.335693359375,1.861572265625
0.2324999,0.44831427931785583,-0.28969839215278625,9.595361709594727,-3.7841796875,0.42724609375,-1.190185546875
0.2374999,0.5099649429321289,-0.304063618183136,10.025120735168457,6.500244140625,0.152587890625,-1.678466796875
0.2424999,0.26156654953956604,-0.2495955228805542,9.924564361572266,-2.9296875,-0.1220703125,2.13623046875
0.2474999,0.5057750940322876,-0.28969839215278625,9.637859344482422,-3.265380859375,-0.244140625,-1.708984375
0.2524999,0.49619829654693604,-0.3082534670829773,10.019734382629395,6.500244140625,0.42724609375,-1.190185546875
0.2574999,0.3100491166114807,-0.27234044671058655,9.830592155456543,-3.90625,0.3662109375,2.13623046875
0.2624999,0.5410895943641663,-0.3010708689689636,9.618705749511719,-1.678466796875,-0.213623046875,-2.105712890625
0.2674999,0.4423287510871887,-0.23283611238002777,9.998186111450195,5.523681640625,0.06103515625,-0.06103515625
0.2724999,0.3357867896556854,-0.2759317457675934,9.686341285705566,-5.584716796875,0.030517578125,1.708984375
0.2774999,0.5183446407318115,-0.2801215946674347,9.648633003234863,0.79345703125,-0.457763671875,-2.38037109375
0.2824999,0.39205053448677063,-0.25258827209472656,10.022727012634277,5.0048828125,0.48828125,0.42724609375
0.28749990000000003,0.29388827085494995,-0.23163901269435883,9.660603523254395,-5.615234375,0.091552734375,1.220703125
0.2924999,0.4866214990615845,-0.2298433631658554,9.691129684448242,2.685546875,0.48828125,-2.593994140625
0.2974999,0.3908534348011017,-0.21009120345115662,10.004171371459961,3.5400390625,-0.030517578125,1.068115234375
0.3024999,0.3345896899700165,-0.25498247146606445,9.592967987060547,-6.683349609375,-0.518798828125,0.8544921875
0.3074999,0.3345896899700165,-0.25498247146606445,9.592967987060547,-6.683349609375,-0.518798828125,0.8544921875
0.3124999,0.5500678420066833,-0.30286651849746704,9.693524360656738,3.84521484375,0.152587890625,-2.655029296875
0.3174999,0.5656301379203796,-0.29628247022628784,9.79408073425293,5.0048828125,0.640869140625,-2.471923828125
0.3224999,0.3513490855693817,-0.25917232036590576,10.016741752624512,1.556396484375,0.3662109375,1.77001953125
0.3274999,0.4034229815006256,-0.28969839215278625,9.581595420837402,-5.706787109375,-0.213623046875,-0.244140625
0.3324999,0.579995334148407,-0.3256114423274994,9.874884605407715,5.4931640625,-0.1220703125,-2.532958984375
0.3374999,0.353743314743042,-0.30885201692581177,9.935338973999023,-0.152587890625,-0.06103515625,1.953125
0.3424999,0.4554968774318695,-0.31783026456832886,9.537302017211914,-4.57763671875,0.732421875,-0.48828125
0.34749990000000003,0.5590460896492004,-0.3256114423274994,9.916184425354004,5.950927734375,-0.06103515625,-2.105712890625
0.35249990000000003,0.28550854325294495,-0.24660277366638184,9.907206535339355,-1.8310546875,-0.457763671875,2.01416015625
0.3574999,0.4537012279033661,-0.26815059781074524,9.57321548461914,-4.119873046875,-0.30517578125,-1.251220703125
0.3624999,0.5123591423034668,-0.2819172441959381,9.996390342712402,6.072998046875,0.42724609375,-1.40380859375
0.3674999,0.2890998423099518,-0.27653029561042786,9.876680374145508,-3.11279296875,0.1220703125,2.38037109375
0.3724999,0.3190273642539978,-0.2902969419956207,9.800664901733398,-4.0283203125,-0.06103515625,2.227783203125
0.3774999,0.5506663918495178,-0.30885201692581177,9.609726905822754,-1.64794921875,-0.3662109375,-2.044677734375
0.3824999,0.4507084786891937,-0.28072014451026917,9.973047256469727,6.072998046875,0.030517578125,-0.67138671875
0.3874999,0.3190273642539978,-0.2603694200515747,9.739612579345703,-5.06591796875,-0.06103515625,1.89208984375
0.3924999,0.5476736426353455,-0.2890998423099518,9.602544784545898,0.1220703125,0.54931640625,-2.410888671875
0.3974999,0.4387374520301819,-0.2825157940387726,9.977835655212402,5.4931640625,0,-0.091552734375
0.4024999,0.4991910457611084,-0.2663549482822418,9.635464668273926,1.52587890625,-0.030517578125,-2.838134765625
0.4074999,0.4991910457611084,-0.2663549482822418,9.635464668273926,1.52587890625,-0.030517578125,-2.838134765625
0.41249990000000003,0.36332011222839355,-0.24181437492370605,10.004770278930664,4.669189453125,0.091552734375,0.579833984375
0.41749990000000003,0.2693476974964142,-0.21547815203666687,9.646238327026367,-6.103515625,0.06103515625,1.129150390625
0.4224999,0.46148237586021423,-0.22266076505184174,9.695320129394531,2.3193359375,-0.30517578125,-3.021240234375
0.4274999,0.3124433159828186,-0.27712884545326233,9.5809965133667,-6.4697265625,-0.244140625,1.007080078125
0.4324999,0.5434837937355042,-0.3315969407558441,9.715670585632324,3.60107421875,-0.30517578125,-2.9296875
0.4374999,0.37828385829925537,-0.3100491166114807,9.984419822692871,2.197265625,0,1.28173828125
0.4424999,0.38067805767059326,-0.31124621629714966,9.592369079589844,-5.92041015625,-0.091552734375,0.48828125
0.4474999,0.5776011347770691,-0.30945056676864624,9.832986831665039,5.0048828125,0.152587890625,-2.685546875
0.4524999,0.363918662071228,-0.2687491476535797,10.011953353881836,0.8544921875,0.030517578125,1.678466796875
0.4574999,0.4321534037590027,-0.272938996553421,9.568427085876465,-5.43212890625,-0.1220703125,-0.06103515625
0.4624999,0.5919663906097412,-0.31842881441116333,9.856928825378418,5.645751953125,0,-2.166748046875
0.4674999,0.345363587141037,-0.2711433470249176,9.90241813659668,-0.762939453125,-0.18310546875,1.922607421875
0.47249990000000003,0.43993455171585083,-0.2687491476535797,9.521739959716797,-4.974365234375,-0.3662109375,-0.732421875
0.47749990000000003,0.5201402902603149,-0.3100491166114807,9.91738224029541,6.2255859375,0.518798828125,-1.800537109375
0.4824999,0.2537853717803955,-0.23163901269435883,9.920374870300293,-1.861572265625,0.18310546875,1.861572265625
0.4874999,0.5021837949752808,-0.31603461503982544,10.030508041381836,6.317138671875,0,-1.312255859375
0.4924999,0.292691171169281,-0.2819172441959381,9.874286651611328,-3.41796875,0.1220703125,2.105712890625
0.4974999,0.5488707423210144,-0.3106476664543152,9.622296333312988,-2.3193359375,0.244140625,-1.77001953125
0.5024999,0.5081692934036255,-0.33997663855552673,10.01075553894043,6.378173828125,0.396728515625,-0.91552734375
0.5074999,0.3357867896556854,-0.2777273952960968,9.798869132995605,-4.119873046875,0.244140625,1.861572265625
0.5124999,0.5746083855628967,-0.2998737692832947,9.62828254699707,-0.6103515625,0.640869140625,-2.197265625
0.5174999,0.4686649739742279,-0.30047231912612915,10.010157585144043,5.828857421875,0,-0.396728515625
0.5224999,0.3387795388698578,-0.2669534981250763,9.761758804321289,-5.43212890625,-0.213623046875,1.617431640625
0.5274999,0.5386953949928284,-0.28072014451026917,9.643245697021484,0.213623046875,-0.030517578125,-2.593994140625
0.5324999,0.40880993008613586,-0.292691171169281,10.016142845153809,5.2490234375,0.152587890625,0.3662109375
0.5374999,0.304063618183136,-0.25438392162323,9.706093788146973,-5.767822265625,-0.152587890625,1.64794921875
0.5424999,0.4734533727169037,-0.23403321206569672,9.693524360656738,1.495361328125,0.06103515625,-2.685546875
0.5474999,0.558447539806366,-0.3423708379268646,9.719860076904297,3.96728515625,0.274658203125,-2.685546875
0.5524999,0.36092591285705566,-0.3064578175544739,9.97484302520752,1.861572265625,0.274658203125,1.556396484375
0.5574999,0.36332011222839355,-0.28969839215278625,9.600150108337402,-5.767822265625,-0.06103515625,0.274658203125
0.5624999,0.3315969407558441,-0.2711433470249176,10.001178741455078,0.79345703125,0.1220703125,1.708984375
0.5674999000000001,0.414795458316803,-0.27892449498176575,9.570222854614258,-5.401611328125,-0.1220703125,-0.457763671875
0.5724999000000001,0.5656301379203796,-0.34177228808403015,9.865906715393066,5.462646484375,0.213623046875,-2.01416015625
0.5774999000000001,0.3196259140968323,-0.25498247146606445,9.909002304077148,-0.701904296875,-0.152587890625,1.861572265625
0.5824999,0.2717418968677521,-0.22026655077934265,9.948506355285645,-2.13623046875,-0.213623046875,1.983642578125
0.5874999,0.4926069974899292,-0.25737667083740234,9.644442558288574,-3.326416015625,0.335693359375,-1.190185546875
0.5924999,0.5201402902603149,-0.33039984107017517,10.043676376342773,6.28662109375,0.244140625,-1.007080078125
0.5974999,0.31543606519699097,-0.26336219906806946,9.86351203918457,-3.662109375,-0.1220703125,1.983642578125
0.6024999,0.5536591410636902,-0.3016694188117981,9.626486778259277,-2.38037109375,-0.335693359375,-1.953125
0.6074999,0.4686649739742279,-0.3232172429561615,10.005967140197754,6.439208984375,0.30517578125,-0.79345703125
0.6124999,0.2974795699119568,-0.23523031175136566,9.77791976928711,-4.608154296875,0.396728515625,1.77001953125
0.6174999,0.5339069962501526,-0.27473464608192444,9.609128952026367,-0.579833984375,-0.030517578125,-2.3193359375
0.6224999,0.4291606545448303,-0.2669534981250763,9.97065258026123,5.92041015625,0.030517578125,0
0.6274999,0.3298012912273407,-0.24899697303771973,9.68933391571045,-5.523681640625,-0.457763671875,1.708984375
0.6324999,0.5267243981361389,-0.27712884545326233,9.601945877075195,0.274658203125,-0.18310546875,-2.62451171875
0.6374999,0.3106476664543152,-0.2537853717803955,9.649829864501953,-5.67626953125,-0.579833984375,1.373291015625
0.6424999,0.4866214990615845,-0.25318682193756104,9.67077922821045,1.89208984375,-0.030517578125,-2.9296875
0.6474999,0.3842693865299225,-0.2603694200515747,10.02571964263916,4.2724609375,0.274658203125,0.8544921875
0.6524999,0.31603461503982544,-0.2298433631658554,9.624092102050781,-6.072998046875,-0.091552734375,0.9765625
0.6574999,0.5225345492362976,-0.2998737692832947,9.690531730651855,3.11279296875,0.030517578125,-2.838134765625
0.6624999,0.39205053448677063,-0.2783259451389313,9.949105262756348,2.9296875,-0.18310546875,1.15966796875
0.6674999,0.35673606395721436,-0.2801215946674347,9.55585765838623,-6.2255859375,-0.091552734375,0.67138671875
0.6724999,0.5518634915351868,-0.3208230137825012,9.73542308807373,4.180908203125,0.06103515625,-2.716064453125
0.6774999,0.345363587141037,-0.25498247146606445,9.984419822692871,1.52587890625,0.18310546875,1.495361328125
0.6824999,0.3734954595565796,-0.2621650993824005,9.543886184692383,-5.615234375,0.213623046875,0.091552734375
0.6874999,0.5554547905921936,-0.3172317147254944,9.825803756713867,5.340576171875,0.457763671875,-2.410888671875
0.6924999000000001,0.33099839091300964,-0.262763649225235,9.922768592834473,0.091552734375,0.18310546875,1.861572265625
0.6974999000000001,0.5626373887062073,-0.35494041442871094,9.903017044067383,5.9814453125,0.030517578125,-1.983642578125
0.7024999000000001,0.3076549172401428,-0.26156654953956604,9.929951667785645,-1.28173828125,-0.091552734375,2.0751953125
0.7074999,0.46746787428855896,-0.30466216802597046,9.607931137084961,-3.997802734375,0.18310546875,-1.220703125
0.7124999,0.536899745464325,-0.3555389642715454,10.037690162658691,6.195068359375,-0.1220703125,-1.64794921875
0.7174999,0.30286651849746704,-0.2849099934101105,9.952696800231934,-2.593994140625,-0.18310546875,2.0751953125
0.7224999,0.547075092792511,-0.31184476613998413,9.66419506072998,-2.899169921875,0.335693359375,-1.953125
0.7274999,0.5237316489219666,-0.33279404044151306,10.061034202575684,6.378173828125,0.42724609375,-1.190185546875
0.7324999,0.3298012912273407,-0.2495955228805542,9.8599214553833,-4.0283203125,0.30517578125,2.288818359375
0.7374999,0.5560533404350281,-0.2711433470249176,9.651026725769043,-1.556396484375,0.1220703125,-2.044677734375
0.7424999,0.4507084786891937,-0.2759317457675934,10.035895347595215,6.317138671875,0.396728515625,-0.6103515625
0.7474999,0.30945056676864624,-0.22445641458034515,9.800065994262695,-4.486083984375,0,1.861572265625
0.7524999,0.5380968451499939,-0.27234044671058655,9.651625633239746,-0.213623046875,0.579833984375,-2.410888671875
0.7574999,0.5710170865058899,-0.322618693113327,9.706093788146973,3.753662109375,0,-2.685546875
0.7624999,0.38486793637275696,-0.25737667083740234,9.946710586547852,2.13623046875,0.030517578125,1.312255859375
0.7674999,0.3728969097137451,-0.24600422382354736,9.529520988464355,-6.04248046875,-0.091552734375,-0.030517578125
0.7724999,0.5542576909065247,-0.2717418968677521,9.771934509277344,4.8828125,0.1220703125,-2.38037109375
0.7774999,0.40521863102912903,-0.228047713637352,9.498396873474121,-5.462646484375,-0.1220703125,-0.3662109375
0.7824999,0.545877993106842,-0.3100491166114807,9.82640266418457,5.615234375,-0.274658203125,-2.13623046875
0.7874999,0.29867666959762573,-0.23044191300868988,9.840767860412598,-1.15966796875,-0.518798828125,1.983642578125
0.7924999,0.4231751561164856,-0.27653029561042786,9.500192642211914,-4.39453125,0.152587890625,-0.91552734375
0.7974999,0.5183446407318115,-0.3447650372982025,9.915586471557617,6.011962890625,-0.457763671875,-1.708984375
0.8024999,0.27712884545326233,-0.27473464608192444,9.9000244140625,-2.38037109375,0.030517578125,2.0751953125
0.8074999,0.5279214978218079,-0.33039984107017517,9.621698379516602,-3.082275390625,0.762939453125,-1.52587890625
0.8124999,0.5524620413780212,-0.3794809579849243,10.029909133911133,6.591796875,0.579833984375,-1.03759765625
0.8174999000000001,0.35913026332855225,-0.30705636739730835,9.858125686645508,-3.35693359375,0.091552734375,2.044677734375
0.8224999000000001,0.586579442024231,-0.3274070918560028,9.618705749511719,-2.25830078125,-0.3662109375,-2.13623046875
0.8274999000000001,0.48063600063323975,-0.3256114423274994,10.00836181640625,6.40869140625,0.3662109375,-0.762939453125
0.8324999000000001,0.3034650683403015,-0.2346317619085312,9.77672290802002,-4.852294921875,0.152587890625,1.953125
0.8374999,0.48602294921875,-0.2495955228805542,9.660005569458008,0.518798828125,-0.79345703125,-2.471923828125
0.8424999,0.3597288131713867,-0.24420857429504395,10.04427433013916,4.2724609375,-0.762939453125,0.518798828125
0.8474999,0.2783259451389313,-0.21547815203666687,9.680954933166504,-6.65283203125,-1.190185546875,1.190185546875
0.8524999,0.48063600063323975,-0.25737667083740234,9.717466354370117,2.25830078125,0.152587890625,-2.685546875
0.8574999,0.39564183354377747,-0.2645592987537384,10.006566047668457,3.875732421875,0.30517578125,0.885009765625
0.8624999,0.3411737382411957,-0.2753331959247589,9.59057331085205,-6.072998046875,0.213623046875,0.701904296875
0.8674999,0.5608417391777039,-0.3381809890270233,9.690531730651855,3.570556640625,0.244140625,-2.5634765625
0.8724999,0.3908534348011017,-0.284311443567276,9.949105262756348,2.01416015625,0.1220703125,1.495361328125
0.8774999,0.3705027103424072,-0.2908954918384552,9.552865028381348,-6.256103515625,-0.3662109375,0.030517578125
0.8824999,0.5554547905921936,-0.31184476613998413,9.7791166305542,4.82177734375,0.06103515625,-2.532958984375
0.8874999,0.5315127968788147,-0.3321954905986786,9.923367500305176,6.011962890625,0.213623046875,-1.800537109375
0.8924999,0.2711433470249176,-0.23582886159420013,9.909601211547852,-2.044677734375,0.335693359375,2.227783203125
0.8974999,0.2711433470249176,-0.23582886159420013,9.909601211547852,-2.044677734375,0.335693359375,2.227783203125
0.9024999,0.4920084476470947,-0.2783259451389313,9.59835433959961,-3.143310546875,0.457763671875,-1.495361328125
0.9074999,0.5279214978218079,-0.3214215636253357,10.014347076416016,6.134033203125,-0.335693359375,-1.373291015625
0.9124999,0.32441434264183044,-0.2555810213088989,9.840767860412598,-3.5400390625,-0.213623046875,2.25830078125
0.9174999,0.5578489899635315,-0.2998737692832947,9.606135368347168,-2.25830078125,0.091552734375,-1.8310546875
0.9224999,0.47584760189056396,-0.2890998423099518,9.992799758911133,6.378173828125,0.54931640625,-0.732421875
0.9274999,0.5153518915176392,-0.28969839215278625,9.642048835754395,0.54931640625,-0.06103515625,-2.532958984375
0.9324999,0.3902548849582672,-0.25917232036590576,10.02811336517334,5.126953125,0.091552734375,0.274658203125
0.9374999,0.3010708689689636,-0.24420857429504395,9.66958236694336,-5.889892578125,-0.335693359375,1.251220703125
0.9424999000000001,0.4926069974899292,-0.2298433631658554,9.699509620666504,2.471923828125,0.48828125,-2.62451171875
0.9474999000000001,0.39145198464393616,-0.22625206410884857,10.00836181640625,3.692626953125,0.30517578125,0.8544921875
0.9524999000000001,0.33518823981285095,-0.24361002445220947,9.611522674560547,-6.378173828125,-0.152587890625,0.8544921875
0.9574999000000001,0.5560533404350281,-0.31364041566848755,9.695918083190918,3.47900390625,0.48828125,-2.50244140625
0.9624999,0.40282443165779114,-0.29568392038345337,9.971850395202637,2.593994140625,0.48828125,1.46484375
0.9674999,0.3770867586135864,-0.3280056416988373,9.576208114624023,-6.195068359375,0.030517578125,0.244140625
0.9724999,0.3250128924846649,-0.28550854325294495,9.904812812805176,-0.335693359375,0.274658203125,2.01416015625
0.9774999,0.43514615297317505,-0.29867666959762573,9.519346237182617,-4.638671875,0.18310546875,-0.885009765625
0.9824999,0.5333084464073181,-0.32680854201316833,9.925163269042969,6.16455078125,0.152587890625,-1.861572265625
0.9874999,0.26815059781074524,-0.2513911724090576,9.91977596282959,-2.0751953125,0.152587890625,2.349853515625
0.9924999,0.46507367491722107,-0.2902969419956207,9.59715747833252,-3.2958984375,0.274658203125,-1.373291015625
0.9974999,0.5111620426177979,-0.3172317147254944,10.019135475158691,6.2255859375,-0.152587890625,-1.495361328125
1.0024999,0.29568392038345337,-0.28550854325294495,9.864110946655273,-3.5400390625,-0.274658203125,2.105712890625
1.0074999000000002,0.5386953949928284,-0.3292027413845062,9.637260437011719,-2.410888671875,0.396728515625,-1.708984375
1.0124999000000001,0.46986207365989685,-0.3100491166114807,10.036493301391602,6.28662109375,-0.213623046875,-0.91552734375
1.0174999000000002,0.5303156971931458,-0.3034650683403015,9.631275177001953,-0.518798828125,0.732421875,-2.105712890625
1.0224999000000001,0.43993455171585083,-0.25677812099456787,9.992799758911133,6.072998046875,0.579833984375,-0.30517578125
1.0274999,0.32381579279899597,-0.28371289372444153,9.700108528137207,-5.43212890625,0.274658203125,1.89208984375
1.0324999000000001,0.5273229479789734,-0.2825157940387726,9.622296333312988,0.762939453125,0.244140625,-2.5634765625
1.0374999,0.4010287821292877,-0.25318682193756104,9.989208221435547,5.096435546875,0.701904296875,0.335693359375
1.0424999000000001,0.4854243993759155,-0.23762452602386475,9.660603523254395,2.044677734375,-0.3662109375,-2.716064453125
1.0474999,0.38546648621559143,-0.22625206410884857,10.012551307678223,4.0283203125,0.30517578125,0.8544921875
1.0524999000000002,0.3196259140968323,-0.2364274114370346,9.609128952026367,-6.317138671875,0.30517578125,1.068115234375
1.0574999,0.5321113467216492,-0.28969839215278625,9.698312759399414,3.753662109375,0.244140625,-2.777099609375
1.0624999000000002,0.38965633511543274,-0.2472013235092163,9.982624053955078,2.685546875,0,1.129150390625
1.0674999,0.3585317134857178,-0.27473464608192444,9.57860279083252,-6.256103515625,-0.48828125,0.30517578125
1.0724999000000002,0.34835633635520935,-0.22385786473751068,10.030508041381836,0.8544921875,-0.030517578125,1.64794921875
1.0774999,0.406415730714798,-0.26096799969673157,9.59177017211914,-6.04248046875,-0.762939453125,-0.091552734375
1.0824999000000002,0.5859808921813965,-0.304063618183136,9.867103576660156,5.767822265625,0.3662109375,-2.3193359375
1.0874999,0.35673606395721436,-0.2777273952960968,9.9371337890625,-0.152587890625,0.213623046875,1.8310546875
1.0924999000000002,0.45908817648887634,-0.29209262132644653,9.531316757202148,-4.669189453125,0.06103515625,-0.79345703125
1.0974999,0.5560533404350281,-0.32680854201316833,9.930550575256348,6.195068359375,-0.274658203125,-2.01416015625
1.1024999000000002,0.28790274262428284,-0.25019407272338867,9.926959037780762,-2.01416015625,-0.1220703125,2.044677734375
1.1074999,0.4668693244457245,-0.2968810200691223,9.59476375579834,-4.058837890625,0.152587890625,-1.068115234375
1.1124999000000002,0.5207388401031494,-0.3124433159828186,10.014347076416016,6.2255859375,0.213623046875,-1.52587890625
1.1174999,0.2908954918384552,-0.28550854325294495,9.853337287902832,-3.2958984375,-0.030517578125,2.01416015625
1.1224999000000002,0.5398924946784973,-0.32860419154167175,9.616909980773926,-2.685546875,0.091552734375,-1.739501953125
1.1274999,0.4734533727169037,-0.30705636739730835,10.005369186401367,6.4697265625,0.3662109375,-0.732421875
1.1324999000000002,0.524330198764801,-0.3034650683403015,9.607931137084961,-1.03759765625,-0.06103515625,-2.044677734375
1.1374999000000001,0.42197805643081665,-0.24660277366638184,9.988609313964844,5.767822265625,0,-0.457763671875
1.1424999000000002,0.3172317147254944,-0.2711433470249176,9.720458984375,-5.767822265625,-0.274658203125,1.800537109375
1.1474999000000001,0.5219359993934631,-0.28730419278144836,9.615114212036133,0.396728515625,0.396728515625,-2.38037109375
1.1524999000000002,0.4141969084739685,-0.25318682193756104,9.983222961425781,4.94384765625,0,0.274658203125
1.1574999000000001,0.3124433159828186,-0.2825157940387726,9.640851974487305,-6.2255859375,-0.54931640625,1.129150390625
1.1624999,0.48482584953308105,-0.27234044671058655,9.642048835754395,2.532958984375,0.396728515625,-2.777099609375
1.1674999000000001,0.37469255924224854,-0.24600422382354736,10.019734382629395,4.608154296875,0.30517578125,0.79345703125
1.1724999,0.29807811975479126,-0.26396074891090393,9.635464668273926,-6.256103515625,-0.030517578125,0.8544921875
1.1774999000000002,0.5165489912033081,-0.2968810200691223,9.713275909423828,2.86865234375,-0.213623046875,-2.8076171875
1.1824999,0.38726213574409485,-0.26755204796791077,9.988609313964844,2.777099609375,0.48828125,1.556396484375
1.1874999000000002,0.3561375141143799,-0.31603461503982544,9.57441234588623,-6.011962890625,0.335693359375,0.640869140625
1.1924999,0.3405751883983612,-0.2645592987537384,9.99339771270752,1.495361328125,0.06103515625,1.708984375
1.1974999000000002,0.3770867586135864,-0.28969839215278625,9.558850288391113,-5.279541015625,0.396728515625,-0.030517578125
1.2024999,0.4471171796321869,-0.3214215636253357,9.517550468444824,-5.340576171875,-0.54931640625,-0.579833984375
1.2074999000000002,0.5644330382347107,-0.32620999217033386,9.895833969116211,6.134033203125,0.1220703125,-1.89208984375
1.2124999,0.2974795699119568,-0.2687491476535797,9.900622367858887,-1.678466796875,0.213623046875,1.861572265625
1.2174999000000002,0.4489128291606903,-0.3010708689689636,9.570821762084961,-3.7841796875,0.244140625,-1.220703125
1.2224999,0.5171475410461426,-0.2819172441959381,10.00955867767334,6.53076171875,0.18310546875,-1.434326171875
1.2274999000000002,0.2819172441959381,-0.2932897210121155,9.88625717163086,-3.021240234375,-0.06103515625,1.983642578125
1.2324999,0.5351040959358215,-0.29209262132644653,9.635464668273926,-2.960205078125,-0.3662109375,-1.678466796875
1.2374999000000002,0.5021837949752808,-0.30466216802597046,10.029311180114746,6.28662109375,0.213623046875,-0.9765625
1.2424999,0.3292027413845062,-0.23163901269435883,9.744400978088379,-4.974365234375,-0.30517578125,1.77001953125
1.2474999000000002,0.5482721924781799,-0.2603694200515747,9.627084732055664,-0.152587890625,0.152587890625,-2.3193359375
1.2524999,0.42856210470199585,-0.2717418968677521,10.010157585144043,5.0048828125,0.1220703125,0.152587890625
1.2574999000000002,0.333991140127182,-0.24779987335205078,9.672574996948242,-6.134033203125,-0.30517578125,1.5869140625
1.2624999000000001,0.4920084476470947,-0.228047713637352,9.650428771972656,1.40380859375,-0.091552734375,-2.716064453125
1.2674999000000002,0.37169981002807617,-0.2513911724090576,10.005967140197754,4.2724609375,-0.244140625,0.67138671875
1.2724999000000001,0.2849099934101105,-0.20470423996448517,9.623494148254395,-6.28662109375,-0.30517578125,1.190185546875
1.2774999000000002,0.4920084476470947,-0.25977087020874023,9.6989107131958,2.9296875,0.42724609375,-2.62451171875
1.2824999000000001,0.35434186458587646,-0.2890998423099518,9.988011360168457,0.48828125,0.152587890625,1.64794921875
1.2874999,0.43514615297317505,-0.27473464608192444,9.549872398376465,-5.279541015625,-0.091552734375,-0.3662109375
1.2924999000000001,0.557250440120697,-0.3489548861980438,9.88386344909668,5.615234375,0.152587890625,-2.0751953125
1.2974999,0.29628247022628784,-0.2346317619085312,9.91977596282959,-0.946044921875,-0.244140625,1.739501953125
1.3024999000000002,0.4231751561164856,-0.2537853717803955,9.573814392089844,-4.69970703125,-0.701904296875,-0.885009765625
1.3074999,0.5033808946609497,-0.3232172429561615,10.00716495513916,6.195068359375,0.091552734375,-1.617431640625
1.3124999000000002,0.25917232036590576,-0.23582886159420013,9.940725326538086,-2.5634765625,0.152587890625,2.0751953125
1.3174999,0.5027823448181152,-0.28969839215278625,9.651625633239746,-3.204345703125,-0.18310546875,-1.52587890625
1.3224999000000002,0.3292027413845062,-0.292691171169281,9.856928825378418,-3.326416015625,-0.1220703125,1.89208984375
1.3274999,0.5776011347770691,-0.3232172429561615,9.63067626953125,-1.678466796875,0.244140625,-1.89208984375
1.3324999000000002,0.48901569843292236,-0.34596213698387146,10.02691650390625,6.16455078125,0.030517578125,-0.67138671875
1.3374999,0.33698388934135437,-0.2519897222518921,9.787496566772461,-4.791259765625,-0.152587890625,1.64794921875
1.3424999000000002,0.5554547905921936,-0.284311443567276,9.626486778259277,-0.3662109375,0.54931640625,-2.3193359375
1.3474999,0.43095630407333374,-0.2998737692832947,10.002376556396484,5.79833984375,0.42724609375,0.152587890625
1.3524999000000002,0.3196259140968323,-0.26396074891090393,9.697713851928711,-5.584716796875,-0.335693359375,1.495361328125
1.3574999,0.4908113479614258,-0.26994624733924866,9.654019355773926,0.9765625,-0.06103515625,-2.655029296875
1.3624999000000002,0.2717418968677521,-0.20889410376548767,9.658209800720215,-5.7373046875,-0.244140625,1.068115234375
1.3674999,0.46088382601737976,-0.23523031175136566,9.68274974822998,1.77001953125,-0.762939453125,-2.899169921875
1.3724999000000002,0.3693056106567383,-0.2561795711517334,9.970054626464844,3.60107421875,0.152587890625,1.15966796875
1.3774999,0.5392939448356628,-0.304063618183136,9.677363395690918,3.7841796875,0.3662109375,-2.8076171875
1.3824999000000002,0.3687070608139038,-0.2759317457675934,9.95329475402832,2.655029296875,0.274658203125,1.40380859375
1.3874999000000001,0.363918662071228,-0.24839842319488525,9.588777542114258,-5.615234375,0.091552734375,0.18310546875
1.3924999000000002,0.5620388388633728,-0.2932897210121155,9.84495735168457,5.0048828125,0.42724609375,-2.685546875
1.3974999000000001,0.34356793761253357,-0.23582886159420013,10.038289070129395,0.732421875,0.457763671875,1.708984375
1.4024999000000002,0.42018240690231323,-0.24779987335205078,9.59177017211914,-5.401611328125,0.244140625,-0.274658203125
1.4074999000000001,0.578798234462738,-0.3423708379268646,9.88506031036377,5.401611328125,0.06103515625,-2.13623046875
1.4124999,0.33339259028434753,-0.2693476974964142,9.932944297790527,-0.8544921875,-0.1220703125,1.8310546875
1.4174999000000001,0.4537012279033661,-0.2902969419956207,9.561244010925293,-4.57763671875,-0.48828125,-0.8544921875
1.4224999,0.5398924946784973,-0.35673606395721436,9.973047256469727,6.317138671875,0.091552734375,-1.617431640625
1.4274999000000002,0.28072014451026917,-0.24660277366638184,9.947908401489258,-1.953125,-0.18310546875,1.861572265625
1.4324999,0.5009866952896118,-0.2753331959247589,9.62947940826416,-3.2958984375,0.518798828125,-1.46484375
1.4374999000000002,0.5752069354057312,-0.3214215636253357,9.628880500793457,-2.593994140625,-0.79345703125,-2.13623046875
1.4424999,0.32202014327049255,-0.25318682193756104,9.807847023010254,-4.2724609375,0.18310546875,1.861572265625
1.4474999000000002,0.5416881442070007,-0.2783259451389313,9.64683723449707,-1.190185546875,-0.30517578125,-2.227783203125
1.4524999,0.4279635548591614,-0.28969839215278625,10.005967140197754,5.43212890625,0.030517578125,-0.30517578125
1.4574999000000002,0.3130418658256531,-0.24600422382354736,9.701305389404297,-5.645751953125,-0.030517578125,1.678466796875
1.4624999,0.5009866952896118,-0.2783259451389313,9.627084732055664,0.946044921875,0.335693359375,-2.38037109375
1.4674999000000002,0.3734954595565796,-0.2867056429386139,10.005967140197754,4.791259765625,0.30517578125,0.457763671875
1.4724999,0.2890998423099518,-0.24361002445220947,9.677363395690918,-5.92041015625,-0.030517578125,1.28173828125
1.4774999000000002,0.47584760189056396,-0.26755204796791077,9.709086418151855,2.166748046875,0.213623046875,-2.655029296875
1.4824999,0.3818751573562622,-0.2819172441959381,10.032303810119629,3.72314453125,0.213623046875,0.9765625
1.4874999000000002,0.5805938839912415,-0.3423708379268646,9.77672290802002,4.669189453125,0.335693359375,-2.44140625
1.4924999,0.5805938839912415,-0.3423708379268646,9.77672290802002,4.669189453125,0.335693359375,-2.44140625
1.4974999000000002,0.3603273630142212,-0.2759317457675934,9.99339771270752,1.068115234375,0.274658203125,1.739501953125
1.5024999,0.42676645517349243,-0.2825157940387726,9.564237594604492,-5.767822265625,0.091552734375,-0.274658203125
1.5074999000000002,0.5859808921813965,-0.34835633635520935,9.835380554199219,5.31005859375,-0.06103515625,-2.197265625
1.5124999000000001,0.3423708379268646,-0.25917232036590576,9.892242431640625,-0.54931640625,-0.274658203125,1.983642578125
1.5174999000000002,0.45010992884635925,-0.2513911724090576,9.498994827270508,-4.69970703125,-0.396728515625,-0.946044921875
1.5224999000000001,0.5315127968788147,-0.31783026456832886,9.896432876586914,6.28662109375,0.396728515625,-1.861572265625
1.5274999000000002,0.26575639843940735,-0.19931729137897491,9.892841339111328,-1.953125,0,2.01416015625
1.5324999000000001,0.28730419278144836,-0.24480712413787842,9.779715538024902,-4.45556640625,-0.213623046875,1.922607421875
1.5374999000000003,0.518943190574646,-0.27712884545326233,9.589975357055664,-1.0986328125,-0.091552734375,-2.25830078125
1.5424999000000001,0.4183867573738098,-0.27473464608192444,9.959280967712402,5.859375,0.6103515625,-0.091552734375
1.5474999,0.314238965511322,-0.23942017555236816,9.674968719482422,-5.645751953125,0.06103515625,1.800537109375
1.5524999000000002,0.5123591423034668,-0.25258827209472656,9.618705749511719,0.54931640625,0.1220703125,-2.349853515625
1.5574999,0.38307225704193115,-0.26156654953956604,10.016142845153809,4.638671875,-0.091552734375,0.396728515625
1.5624999000000002,0.2867056429386139,-0.21308395266532898,9.666589736938477,-6.256103515625,-0.67138671875,1.15966796875
1.5674999,0.46627077460289,-0.2322375625371933,9.718663215637207,2.01416015625,-0.244140625,-2.593994140625
1.5724999000000002,0.5464765429496765,-0.31783026456832886,9.741408348083496,3.173828125,-0.213623046875,-2.62451171875
1.5774999,0.40521863102912903,-0.2974795699119568,9.99459457397461,2.349853515625,-0.152587890625,1.434326171875
1.5824999000000002,0.39803603291511536,-0.3034650683403015,9.59057331085205,-5.79833984375,-0.06103515625,0.213623046875
1.5874999,0.6009446382522583,-0.35673606395721436,9.799467086791992,4.547119140625,-0.274658203125,-2.50244140625
1.5924999000000002,0.38067805767059326,-0.28969839215278625,10.002376556396484,1.0986328125,0.3662109375,1.983642578125
1.5974999,0.44412440061569214,-0.29149407148361206,9.545083999633789,-5.340576171875,0.18310546875,-0.335693359375
1.6024999000000002,0.3387795388698578,-0.26575639843940735,9.903017044067383,-0.79345703125,0,2.01416015625
1.6074999,0.44532153010368347,-0.2717418968677521,9.529520988464355,-4.608154296875,-0.030517578125,-1.129150390625
1.6124999000000002,0.5231330990791321,-0.3381809890270233,9.953893661499023,6.072998046875,-0.274658203125,-1.77001953125
1.6174999,0.2621650993824005,-0.22266076505184174,9.949105262756348,-2.166748046875,-0.152587890625,2.105712890625
1.6224999000000002,0.5069721937179565,-0.3447650372982025,10.056844711303711,6.34765625,0.3662109375,-1.312255859375
1.6274999,0.29867666959762573,-0.28072014451026917,9.86889934539795,-3.35693359375,0.335693359375,2.25830078125
1.6324999000000002,0.5452794432640076,-0.3166331648826599,9.639654159545898,-2.01416015625,0.030517578125,-1.953125
1.6374999000000001,0.4620809257030487,-0.3363853394985199,10.016741752624512,6.2255859375,0,-0.8544921875
1.6424999000000002,0.3058592677116394,-0.23702596127986908,9.79408073425293,-4.82177734375,0,1.89208984375
1.6474999000000001,0.5452794432640076,-0.2801215946674347,9.627084732055664,-0.3662109375,0.79345703125,-2.227783203125
1.6524999000000002,0.44173020124435425,-0.2783259451389313,9.999382972717285,5.55419921875,-0.091552734375,-0.1220703125
1.6574999000000001,0.33339259028434753,-0.26096799969673157,9.694122314453125,-5.859375,-0.213623046875,1.678466796875
1.6624999000000003,0.5105634927749634,-0.2819172441959381,9.642647743225098,0.8544921875,0.152587890625,-2.593994140625
1.6674999000000001,0.36990416049957275,-0.27653029561042786,9.99220085144043,4.69970703125,0.18310546875,0.42724609375
1.6724999,0.2735375463962555,-0.22266076505184174,9.631275177001953,-6.134033203125,-0.3662109375,1.15966796875
1.6774999000000002,0.4644751250743866,-0.2454056739807129,9.6618013381958,2.9296875,0.54931640625,-2.716064453125
1.6824999,0.5339069962501526,-0.32381579279899597,9.695918083190918,3.570556640625,-0.457763671875,-2.8076171875
1.6874999000000002,0.375291109085083,-0.27712884545326233,9.97364616394043,2.197265625,0,1.64794921875
1.6924999,0.383670836687088,-0.27234044671058655,9.573814392089844,-6.072998046875,-0.396728515625,-0.030517578125
1.6974999000000002,0.5859808921813965,-0.30466216802597046,9.840168952941895,4.7607421875,-0.30517578125,-2.62451171875
1.7024999,0.36990416049957275,-0.2364274114370346,10.011354446411133,0.823974609375,0.152587890625,1.922607421875
1.7074999000000002,0.45010992884635925,-0.24181437492370605,9.564835548400879,-5.37109375,0.457763671875,-0.48828125
1.7124999,0.5925649404525757,-0.3172317147254944,9.880870819091797,5.523681640625,-0.030517578125,-2.13623046875
1.7174999000000002,0.3345896899700165,-0.228047713637352,9.917980194091797,-0.885009765625,-0.274658203125,2.288818359375
1.7224999,0.4537012279033661,-0.25258827209472656,9.555258750915527,-4.364013671875,-0.030517578125,-1.129150390625
1.7274999000000002,0.524330198764801,-0.32620999217033386,9.98681354522705,6.04248046875,-0.213623046875,-1.77001953125
1.7324999,0.26575639843940735,-0.24600422382354736,9.943717956542969,-2.38037109375,-0.18310546875,2.3193359375
1.7374999000000002,0.46746787428855896,-0.3495534360408783,9.9772367477417,6.28662109375,0.457763671875,-0.42724609375
1.7424999,0.3250128924846649,-0.28131869435310364,9.750386238098145,-4.730224609375,0.335693359375,1.678466796875
1.7474999000000002,0.557250440120697,-0.3034650683403015,9.592369079589844,0.091552734375,0.457763671875,-2.410888671875
1.7524999,0.4465186297893524,-0.28790274262428284,9.965266227722168,5.584716796875,0.335693359375,0.1220703125
1.7574999000000002,0.34416648745536804,-0.25498247146606445,9.673172950744629,-5.950927734375,-0.1220703125,1.46484375
1.7624999000000001,0.5153518915176392,-0.243011474609375,9.663596153259277,1.129150390625,0.42724609375,-2.685546875
1.7674999000000002,0.375291109085083,-0.2472013235092163,10.059837341308594,4.39453125,0.06103515625,0.6103515625
1.7724999000000001,0.2861070930957794,-0.19871874153614044,9.679757118225098,-6.439208984375,-0.8544921875,1.15966796875
1.7774999000000002,0.4854243993759155,-0.25737667083740234,9.731232643127441,2.532958984375,0.030517578125,-2.5634765625
1.7824999000000001,0.33937808871269226,-0.2783259451389313,9.575011253356934,-6.622314453125,-0.213623046875,0.640869140625
1.7874999000000003,0.5692214369773865,-0.34356793761253357,9.722254753112793,4.180908203125,-0.18310546875,-2.685546875
1.7924999000000001,0.38127660751342773,-0.2885012924671173,9.97603988647461,1.5869140625,-0.152587890625,1.678466796875
1.7974999,0.4100070297718048,-0.2902969419956207,9.549273490905762,-6.04248046875,-0.396728515625,-0.152587890625
1.8024999000000002,0.606930136680603,-0.34177228808403015,9.818022727966309,5.18798828125,-0.213623046875,-2.532958984375
1.8074999,0.37828385829925537,-0.2777273952960968,9.947309494018555,0.396728515625,0.213623046875,1.922607421875
1.8124999000000002,0.46806642413139343,-0.2795230448246002,9.5223388671875,-4.94384765625,0.335693359375,-0.79345703125
1.8174999,0.5817909836769104,-0.34356793761253357,9.898826599121094,6.04248046875,0.67138671875,-1.922607421875
1.8224999000000002,0.304063618183136,-0.22206220030784607,9.916184425354004,-1.3427734375,0.274658203125,2.197265625
1.8274999,0.4411316514015198,-0.2585737705230713,9.588777542114258,-4.150390625,-0.06103515625,-1.28173828125
1.8324999000000002,0.5027823448181152,-0.3172317147254944,10.025120735168457,6.591796875,0.518798828125,-1.8310546875
1.8374999,0.518943190574646,-0.29807811975479126,9.660603523254395,-2.9296875,-0.213623046875,-1.52587890625
1.8424999000000002,0.545877993106842,-0.29867666959762573,9.655815124511719,-0.9765625,0.42724609375,-2.166748046875
1.8474999,0.4489128291606903,-0.2885012924671173,10.030508041381836,6.195068359375,0.54931640625,-0.396728515625
1.8524999000000002,0.3280056416988373,-0.24660277366638184,9.765948295593262,-4.94384765625,0.244140625,1.922607421875
1.8574999,0.5380968451499939,-0.2849099934101105,9.627084732055664,0.213623046875,-0.274658203125,-2.593994140625
1.8624999000000002,0.42197805643081665,-0.26994624733924866,9.997588157653809,5.462646484375,-0.091552734375,0.1220703125
1.8674999,0.3166331648826599,-0.24121582508087158,9.674968719482422,-5.828857421875,-0.457763671875,1.52587890625
1.8724999000000002,0.4944026470184326,-0.21847090125083923,9.688735961914062,1.800537109375,0.244140625,-2.655029296875
1.8774999,0.37409400939941406,-0.22385786473751068,10.063427925109863,4.180908203125,0,0.732421875
1.8824999000000002,0.30047231912612915,-0.19033902883529663,9.667187690734863,-6.317138671875,-0.79345703125,0.9765625
1.8874999000000001,0.5614402890205383,-0.33518823981285095,9.77672290802002,4.364013671875,0.030517578125,-2.44140625
1.8924999000000002,0.35075053572654724,-0.27712884545326233,10.011953353881836,1.129150390625,0.1220703125,1.708984375
1.8974999000000001,0.41359832882881165,-0.28131869435310364,9.578003883361816,-5.55419921875,0.091552734375,-0.48828125
1.9024999000000002,0.5871779918670654,-0.3489548861980438,9.867103576660156,5.462646484375,-0.1220703125,-2.166748046875
1.9074999000000001,0.353743314743042,-0.2753331959247589,9.935338973999023,-0.152587890625,-0.030517578125,1.953125
1.9124999000000003,0.45250412821769714,-0.2861070930957794,9.539097785949707,-4.69970703125,0.030517578125,-1.03759765625
1.9174999000000001,0.5422866940498352,-0.33758243918418884,9.93474006652832,6.103515625,0.335693359375,-1.953125
1.9224999,0.4985924959182739,-0.32860419154167175,10.02571964263916,6.561279296875,0.48828125,-1.52587890625
1.9274999000000002,0.5297171473503113,-0.3196259140968323,9.621099472045898,-2.410888671875,0.213623046875,-1.861572265625
1.9324999,0.46088382601737976,-0.34356793761253357,10.005967140197754,6.28662109375,0.091552734375,-0.762939453125
1.9374999000000002,0.2974795699119568,-0.2603694200515747,9.782109260559082,-4.5166015625,-0.213623046875,1.89208984375
1.9424999,0.5416881442070007,-0.3130418658256531,9.602544784545898,-0.518798828125,0.1220703125,-2.50244140625
1.9474999000000002,0.44831427931785583,-0.2968810200691223,9.975440979003906,5.859375,-0.06103515625,-0.030517578125
1.9524999,0.345363587141037,-0.28311434388160706,9.677961349487305,-5.340576171875,-0.274658203125,1.678466796875
1.9574999000000002,0.5321113467216492,-0.2819172441959381,9.622296333312988,0.823974609375,0.091552734375,-2.86865234375
1.9624999,0.38905778527259827,-0.26336219906806946,9.988609313964844,4.974365234375,0.244140625,0.518798828125
1.9674999000000002,0.28550854325294495,-0.21368250250816345,9.635464668273926,-5.889892578125,-0.091552734375,1.46484375
1.9724999,0.45908817648887634,-0.22685061395168304,9.64923095703125,2.25830078125,0.54931640625,-2.777099609375
1.9774999000000002,0.35075053572654724,-0.24420857429504395,9.955090522766113,3.631591796875,0.54931640625,0.885009765625
1.9824999,0.2885012924671173,-0.2519897222518921,9.541492462158203,-6.011962890625,0.213623046875,0.762939453125
1.9874999000000002,0.33937808871269226,-0.2944868206977844,9.922768592834473,2.0751953125,-0.030517578125,1.434326171875
1.9924999,0.3447650372982025,-0.29628247022628784,9.5223388671875,-6.439208984375,-0.1220703125,0.30517578125
1.9974999000000002,0.5518634915351868,-0.3232172429561615,9.782109260559082,5.31005859375,0.701904296875,-2.410888671875
2.0024999,0.34416648745536804,-0.24839842319488525,9.955689430236816,0.54931640625,0.30517578125,1.708984375
2.0074999,0.44412440061569214,-0.25677812099456787,9.536105155944824,-5.0048828125,-0.396728515625,-0.457763671875
2.0124999000000003,0.5877765417098999,-0.3280056416988373,9.877279281616211,5.767822265625,-0.1220703125,-1.953125
2.0174999000000002,0.33758243918418884,-0.23343466222286224,9.898228645324707,-0.885009765625,-0.30517578125,1.861572265625
2.0224999,0.456095427274704,-0.2645592987537384,9.544485092163086,-4.21142578125,-0.274658203125,-1.007080078125
2.0274999,0.5273229479789734,-0.3076549172401428,9.962871551513672,6.500244140625,0.335693359375,-1.5869140625
2.0324999000000004,0.26994624733924866,-0.2256535142660141,9.9000244140625,-2.685546875,-0.1220703125,2.0751953125
2.0374999000000003,0.5153518915176392,-0.26156654953956604,9.63067626953125,-3.265380859375,0.18310546875,-1.40380859375
2.0424999,0.5015852451324463,-0.32381579279899597,10.045472145080566,6.53076171875,0.335693359375,-1.220703125
2.0474999,0.5452794432640076,-0.30945056676864624,9.632472038269043,-1.77001953125,-0.152587890625,-1.922607421875
2.0524999,0.4465186297893524,-0.3058592677116394,9.990405082702637,6.195068359375,0.396728515625,-0.30517578125
2.0574999000000003,0.31543606519699097,-0.2537853717803955,9.758766174316406,-5.279541015625,0.06103515625,1.922607421875
2.0624999,0.5386953949928284,-0.3016694188117981,9.618705749511719,0.152587890625,0.579833984375,-2.655029296875
2.0674999,0.43095630407333374,-0.2825157940387726,9.980229377746582,5.462646484375,0.244140625,0.244140625
2.0724999,0.33339259028434753,-0.2819172441959381,9.671378135681152,-5.767822265625,-0.091552734375,1.312255859375
2.0774999000000003,0.5081692934036255,-0.2621650993824005,9.6618013381958,1.922607421875,-0.091552734375,-2.899169921875
2.0824999,0.38307225704193115,-0.2585737705230713,10.04307746887207,4.82177734375,0.30517578125,0.732421875
2.0874999,0.38307225704193115,-0.2585737705230713,10.04307746887207,4.82177734375,0.30517578125,0.732421875
2.0924999,0.29867666959762573,-0.20350714027881622,9.64564037322998,-5.950927734375,0.213623046875,1.007080078125
2.0974999000000003,0.507570743560791,-0.2693476974964142,9.710283279418945,2.716064453125,-0.42724609375,-2.838134765625
2.1024999,0.3842693865299225,-0.24899697303771973,9.972448348999023,2.86865234375,0.213623046875,1.3427734375
2.1074999,0.5560533404350281,-0.322618693113327,9.77013874053955,4.241943359375,0.030517578125,-2.74658203125
2.1124999,0.3423708379268646,-0.2735375463962555,10.013748168945312,1.40380859375,0.030517578125,1.800537109375
2.1174999000000003,0.395043283700943,-0.2735375463962555,9.57860279083252,-5.828857421875,-0.18310546875,0
2.1224999,0.5829881429672241,-0.3357867896556854,9.874286651611328,5.584716796875,0.18310546875,-2.44140625
2.1274999,0.3627215623855591,-0.262763649225235,9.958083152770996,0,0.152587890625,1.922607421875
2.1324999,0.47165772318840027,-0.2711433470249176,9.563638687133789,-5.035400390625,-0.06103515625,-0.54931640625
2.1374999000000003,0.5740098357200623,-0.33518823981285095,9.949105262756348,6.2255859375,0.30517578125,-1.922607421875
2.1424999000000002,0.2992752194404602,-0.2364274114370346,9.951498985290527,-1.77001953125,-0.18310546875,1.953125
2.1474999,0.4854243993759155,-0.28072014451026917,9.617507934570312,-4.0283203125,-0.54931640625,-1.3427734375
2.1524999,0.5141547918319702,-0.3489548861980438,10.036493301391602,6.805419921875,0.335693359375,-1.434326171875
2.1574999000000004,0.28969839215278625,-0.27653029561042786,9.8784761428833,-3.173828125,-0.091552734375,2.0751953125
2.1624999000000003,0.5237316489219666,-0.3232172429561615,9.64564037322998,-2.288818359375,0.457763671875,-1.8310546875
2.1674999,0.34596213698387146,-0.2693476974964142,9.737217903137207,-5.43212890625,-0.213623046875,1.678466796875
2.1724999,0.5428852438926697,-0.2519897222518921,9.66539192199707,0.701904296875,0.42724609375,-2.50244140625
2.1774999000000004,0.414795458316803,-0.22385786473751068,10.050260543823242,4.8828125,0.274658203125,0.30517578125
2.1824999000000003,0.30945056676864624,-0.17836803197860718,9.660603523254395,-6.16455078125,-0.54931640625,1.251220703125
2.1874999,0.4920084476470947,-0.2190694510936737,9.68813705444336,2.44140625,0.1220703125,-2.716064453125
2.1924999,0.375291109085083,-0.22505496442317963,9.99220085144043,3.5400390625,-0.244140625,0.946044921875
2.1974999,0.304063618183136,-0.2537853717803955,9.581595420837402,-6.561279296875,-0.579833984375,0.732421875
2.2024999000000003,0.5279214978218079,-0.3058592677116394,9.708487510681152,3.753662109375,0.244140625,-2.655029296875
2.2074999,0.35254621505737305,-0.25977087020874023,9.99339771270752,2.01416015625,0.213623046875,1.52587890625
2.2124999,0.35494041442871094,-0.2645592987537384,10.005967140197754,0.579833984375,-0.18310546875,1.861572265625
2.2174999,0.45010992884635925,-0.28371289372444153,9.556455612182617,-5.18798828125,-0.213623046875,-0.518798828125
2.2224999000000003,0.5979518890380859,-0.35494041442871094,9.88506031036377,6.011962890625,0.244140625,-2.197265625
2.2274999,0.3405751883983612,-0.25318682193756104,9.904812812805176,-1.0986328125,-0.244140625,2.105712890625
2.2324999,0.47884035110473633,-0.284311443567276,9.5408935546875,-4.669189453125,-0.701904296875,-1.28173828125
2.2374999,0.5440823435783386,-0.33279404044151306,9.995792388916016,6.34765625,0.3662109375,-1.739501953125
2.2424999000000003,0.2902969419956207,-0.2645592987537384,9.922768592834473,-2.532958984375,0.18310546875,2.01416015625
2.2474999,0.5261258482933044,-0.3130418658256531,9.655217170715332,-3.2958984375,-0.335693359375,-1.739501953125
2.2524999,0.5015852451324463,-0.3477577865123749,10.056245803833008,6.561279296875,0.30517578125,-0.946044921875
2.2574999,0.3076549172401428,-0.2735375463962555,9.854534149169922,-4.150390625,0.091552734375,2.197265625
2.2624999000000003,0.5386953949928284,-0.31124621629714966,9.636661529541016,-2.01416015625,-0.42724609375,-2.197265625
2.2674999000000002,0.30945056676864624,-0.2513911724090576,9.77672290802002,-5.096435546875,-0.18310546875,1.861572265625
2.2724999,0.5183446407318115,-0.28311434388160706,9.633668899536133,-0.1220703125,-0.762939453125,-2.685546875
2.2774999,0.41120412945747375,-0.26336219906806946,10.00955867767334,5.340576171875,-0.18310546875,-0.06103515625
2.2824999000000004,0.30945056676864624,-0.2585737705230713,9.673771858215332,-5.706787109375,-0.579833984375,1.28173828125
2.2874999000000003,0.49320554733276367,-0.23403321206569672,9.670180320739746,1.678466796875,-0.48828125,-2.777099609375
2.2924999,0.37648820877075195,-0.23343466222286224,10.033500671386719,4.33349609375,0.213623046875,0.518798828125
2.2974999,0.30526071786880493,-0.21308395266532898,9.642647743225098,-6.195068359375,0.457763671875,1.129150390625
2.3024999000000004,0.5099649429321289,-0.2950853705406189,9.689932823181152,2.62451171875,-0.3662109375,-2.593994140625
2.3074999000000003,0.38486793637275696,-0.28790274262428284,9.95329475402832,2.8076171875,0.152587890625,1.251220703125
2.3124999,0.34356793761253357,-0.3256114423274994,9.53969669342041,-6.2255859375,0.030517578125,0.54931640625
2.3174999,0.5434837937355042,-0.33518823981285095,9.72285270690918,4.364013671875,-0.06103515625,-2.5634765625
2.3224999,0.33758243918418884,-0.2687491476535797,9.975440979003906,1.28173828125,0.1220703125,1.556396484375
2.3274999000000003,0.3824737071990967,-0.26575639843940735,9.525930404663086,-5.767822265625,-0.244140625,-0.1220703125
2.3324999,0.5716156363487244,-0.30945056676864624,9.82640266418457,5.584716796875,0.274658203125,-2.288818359375
2.3374999,0.34356793761253357,-0.26575639843940735,9.904213905334473,-0.152587890625,0.030517578125,1.678466796875
2.3424999,0.4507084786891937,-0.2783259451389313,9.519944190979004,-4.730224609375,-0.244140625,-0.67138671875
2.3474999000000003,0.5500678420066833,-0.3315969407558441,9.934141159057617,6.103515625,-0.030517578125,-1.861572265625
2.3524999,0.2783259451389313,-0.23343466222286224,9.943120002746582,-1.89208984375,-0.1220703125,1.983642578125
2.3574999,0.4710591733455658,-0.2759317457675934,9.637859344482422,-4.058837890625,-0.48828125,-1.312255859375
2.3624999,0.5117605924606323,-0.31842881441116333,10.06043529510498,6.622314453125,0.67138671875,-1.190185546875
2.3674999000000003,0.2944868206977844,-0.27234044671058655,9.904213905334473,-3.265380859375,0.30517578125,2.13623046875
2.3724999,0.5410895943641663,-0.3076549172401428,9.67077922821045,-2.44140625,-0.152587890625,-2.166748046875
2.3774999,0.4686649739742279,-0.30286651849746704,10.06701946258545,6.622314453125,0.579833984375,-0.67138671875
2.3824999,0.304063618183136,-0.2406172752380371,9.844358444213867,-4.45556640625,0.335693359375,2.105712890625
2.3874999000000003,0.5207388401031494,-0.272938996553421,9.621698379516602,0.54931640625,-0.701904296875,-2.74658203125
2.3924999000000002,0.38486793637275696,-0.25737667083740234,10.010157585144043,5.157470703125,-0.030517578125,0.274658203125
2.3974999,0.29388827085494995,-0.2214636504650116,9.637260437011719,-6.16455078125,-0.42724609375,1.373291015625
2.4024999,0.3842693865299225,-0.24660277366638184,9.996390342712402,3.41796875,0.30517578125,1.007080078125
2.4074999000000004,0.3250128924846649,-0.2783259451389313,9.589975357055664,-6.34765625,0.030517578125,1.03759765625
2.4124999000000003,0.545877993106842,-0.33039984107017517,9.716269493103027,3.997802734375,0.274658203125,-2.5634765625
2.4174999,0.3728969097137451,-0.2825157940387726,9.995792388916016,2.105712890625,0.152587890625,1.3427734375
2.4224999,0.3758896589279175,-0.2950853705406189,9.57201862335205,-6.4697265625,-0.48828125,0.091552734375
2.4274999000000004,0.5746083855628967,-0.3082534670829773,9.839570045471191,5.035400390625,0.30517578125,-2.349853515625
2.4324999000000003,0.30526071786880493,-0.24660277366638184,9.906009674072266,-1.129150390625,-0.213623046875,1.89208984375
2.4374999,0.43035775423049927,-0.27653029561042786,9.543886184692383,-4.21142578125,-0.18310546875,-1.190185546875
2.4424999,0.4991910457611084,-0.31543606519699097,9.981427192687988,6.256103515625,-0.1220703125,-1.708984375
2.4474999,0.24899697303771973,-0.2621650993824005,9.911994934082031,-2.685546875,-0.152587890625,2.0751953125
2.4524999000000003,0.4926069974899292,-0.32680854201316833,9.635464668273926,-2.74658203125,0.091552734375,-1.40380859375
2.4574999,0.49140989780426025,-0.3555389642715454,10.04846477508545,6.683349609375,0.3662109375,-1.15966796875
2.4624999,0.3130418658256531,-0.30526071786880493,9.852140426635742,-3.7841796875,-0.18310546875,2.105712890625
2.4674999,0.557250440120697,-0.3292027413845062,9.64564037322998,-1.556396484375,0.396728515625,-2.0751953125
2.4724999000000003,0.46746787428855896,-0.29388827085494995,10.022727012634277,5.9814453125,0.244140625,-0.67138671875
2.4774999,0.3298012912273407,-0.262763649225235,9.774927139282227,-5.31005859375,-0.18310546875,1.953125
2.4824999,0.4255693554878235,-0.2645592987537384,9.980229377746582,5.31005859375,0.1220703125,0.06103515625
2.4874999,0.3196259140968323,-0.2645592987537384,9.634267807006836,-5.9814453125,-0.335693359375,1.312255859375
2.4924999000000003,0.48243165016174316,-0.24660277366638184,9.63187313079834,1.922607421875,0.732421875,-2.62451171875
2.4974999,0.35494041442871094,-0.22266076505184174,9.998785018920898,4.2724609375,0.1220703125,0.79345703125
2.5024999,0.26994624733924866,-0.2148796021938324,9.618705749511719,-6.500244140625,-0.885009765625,0.79345703125
2.5074999,0.48482584953308105,-0.28072014451026917,9.679159164428711,3.509521484375,0.152587890625,-2.716064453125
2.5124999000000003,0.365115761756897,-0.26156654953956604,9.966463088989258,3.2958984375,0.30517578125,1.434326171875
2.5174999000000002,0.3363853394985199,-0.3076549172401428,9.55585765838623,-6.16455078125,-0.213623046875,0.274658203125
2.5224999,0.5518634915351868,-0.30047231912612915,9.761159896850586,4.57763671875,0.06103515625,-2.716064453125
2.5274999,0.35015198588371277,-0.24181437492370605,10.01075553894043,1.251220703125,0.213623046875,1.739501953125
2.5324999000000004,0.40222588181495667,-0.25079262256622314,9.57979965209961,-5.9814453125,-0.518798828125,-0.18310546875
2.5374999000000003,0.5919663906097412,-0.28311434388160706,9.870096206665039,5.18798828125,0.274658203125,-2.25830078125
2.5424999,0.4578910768032074,-0.26994624733924866,9.535507202148438,-4.913330078125,0.091552734375,-0.54931640625
2.5474999,0.5560533404350281,-0.31364041566848755,9.915586471557617,5.950927734375,-0.18310546875,-2.227783203125
2.5524999000000004,0.28072014451026917,-0.22685061395168304,9.908403396606445,-1.89208984375,-0.06103515625,1.953125
2.5574999000000003,0.46627077460289,-0.284311443567276,9.5809965133667,-3.448486328125,0.518798828125,-1.068115234375
2.5624999,0.5351040959358215,-0.3447650372982025,9.640851974487305,-2.593994140625,-0.244140625,-1.678466796875
2.5674999,0.46806642413139343,-0.31783026456832886,10.041281700134277,6.34765625,0.091552734375,-0.79345703125
2.5724999,0.29149407148361206,-0.28550854325294495,9.824606895446777,-4.425048828125,0.030517578125,1.861572265625
2.5774999000000003,0.5285200476646423,-0.3196259140968323,9.636063575744629,-0.91552734375,-0.335693359375,-2.288818359375
2.5824999,0.4339490532875061,-0.26096799969673157,9.998785018920898,6.16455078125,0.335693359375,-0.335693359375
2.5874999,0.3250128924846649,-0.2998737692832947,9.688735961914062,-5.4931640625,-0.244140625,1.5869140625
2.5924999,0.40462008118629456,-0.25318682193756104,9.995792388916016,5.096435546875,0.244140625,0.42724609375
2.5974999000000003,0.3082534670829773,-0.2663549482822418,9.6618013381958,-6.256103515625,-0.152587890625,1.52587890625
2.6024999,0.4878185987472534,-0.2561795711517334,9.697115898132324,2.38037109375,0.1220703125,-2.838134765625
2.6074999,0.37469255924224854,-0.22744916379451752,10.046070098876953,3.814697265625,-0.274658203125,0.79345703125
2.6124999,0.30286651849746704,-0.28131869435310364,9.627683639526367,-6.591796875,-0.457763671875,0.91552734375
2.6174999000000003,0.5171475410461426,-0.3076549172401428,9.712677955627441,3.997802734375,0.518798828125,-2.532958984375
2.6224999,0.36152446269989014,-0.2777273952960968,9.989208221435547,2.471923828125,0.18310546875,1.495361328125
2.6274999,0.3555389642715454,-0.31603461503982544,9.55705451965332,-6.16455078125,-0.518798828125,0.30517578125
2.6324999,0.5614402890205383,-0.28790274262428284,9.815030097961426,4.913330078125,-0.244140625,-2.593994140625
2.6374999000000003,0.3489548861980438,-0.2759317457675934,9.999382972717285,0.579833984375,-0.06103515625,1.77001953125
2.6424999000000002,0.2555810213088989,-0.24480712413787842,9.919178009033203,-2.0751953125,-0.335693359375,2.25830078125
2.6474999,0.47405192255973816,-0.27413609623908997,9.617507934570312,-3.936767578125,-0.79345703125,-1.5869140625
2.6524999,0.48482584953308105,-0.3190273642539978,10.039485931396484,6.500244140625,0.42724609375,-1.434326171875
2.6574999000000004,0.28072014451026917,-0.2950853705406189,9.86231517791748,-3.387451171875,-0.06103515625,2.25830078125
2.6624999000000003,0.5261258482933044,-0.3387795388698578,9.640851974487305,-1.953125,-0.030517578125,-2.044677734375
2.6674999,0.44532153010368347,-0.31842881441116333,10.011354446411133,6.53076171875,0.213623046875,-0.946044921875
2.6724999,0.29807811975479126,-0.2669534981250763,9.78989028930664,-4.547119140625,-0.091552734375,2.044677734375
2.6774999000000004,0.5410895943641663,-0.28730419278144836,9.601945877075195,-0.54931640625,0.091552734375,-2.471923828125
2.6824999000000003,0.4423287510871887,-0.2561795711517334,9.973047256469727,5.401611328125,0.06103515625,-0.213623046875
2.6874999,0.34356793761253357,-0.2825157940387726,9.662399291992188,-5.79833984375,-0.06103515625,1.800537109375
2.6924999,0.2998737692832947,-0.20769700407981873,9.62828254699707,-6.134033203125,0.48828125,1.434326171875
2.6974999,0.4854243993759155,-0.2172738015651703,9.665990829467773,2.197265625,0.274658203125,-2.685546875
2.7024999000000003,0.38546648621559143,-0.22266076505184174,9.973047256469727,3.326416015625,0.30517578125,1.007080078125
2.7074999,0.32381579279899597,-0.2717418968677521,9.568427085876465,-6.317138671875,0.18310546875,0.91552734375
2.7124999,0.5333084464073181,-0.32381579279899597,9.704896926879883,3.997802734375,0.1220703125,-2.593994140625
2.7174999,0.36750996112823486,-0.2890998423099518,9.989806175231934,2.50244140625,0.18310546875,1.3427734375
2.7224999000000003,0.35913026332855225,-0.3064578175544739,9.581595420837402,-5.706787109375,-0.18310546875,0.152587890625
2.7274999,0.5662286877632141,-0.292691171169281,9.851541519165039,4.608154296875,-0.42724609375,-2.410888671875
2.7324999,0.3561375141143799,-0.25019407272338867,10.013748168945312,0.213623046875,-0.3662109375,1.64794921875
2.7374999,0.43694180250167847,-0.2777273952960968,9.556455612182617,-5.79833984375,-0.823974609375,-0.579833984375
2.7424999000000003,0.4531026780605316,-0.29628247022628784,9.5223388671875,-4.69970703125,0.06103515625,-1.03759765625
2.7474999,0.5285200476646423,-0.2992752194404602,9.95748519897461,6.53076171875,0.42724609375,-1.678466796875
2.7524999,0.26396074891090393,-0.24839842319488525,9.923367500305176,-2.716064453125,0,2.3193359375
2.7574999,0.48243165016174316,-0.30526071786880493,9.638457298278809,-3.692626953125,-0.152587890625,-1.40380859375
2.7624999000000003,0.4944026470184326,-0.33039984107017517,10.049661636352539,6.072998046875,-0.152587890625,-1.220703125
2.7674999000000002,0.2932897210121155,-0.32441434264183044,9.871891975402832,-4.0283203125,-0.30517578125,1.983642578125
2.7724999,0.5351040959358215,-0.36092591285705566,9.654618263244629,-2.01416015625,-0.213623046875,-1.8310546875
2.7774999,0.45429977774620056,-0.29568392038345337,10.04307746887207,6.256103515625,0.030517578125,-0.67138671875
2.7824999000000004,0.2992752194404602,-0.2693476974964142,9.808445930480957,-5.0048828125,-0.213623046875,2.01416015625
2.7874999000000003,0.5398924946784973,-0.28790274262428284,9.640851974487305,-0.6103515625,-0.518798828125,-2.471923828125
2.7924999,0.4405331015586853,-0.23822307586669922,10.004770278930664,5.218505859375,-0.030517578125,-0.091552734375
2.7974999,0.27653029561042786,-0.22445641458034515,9.639056205749512,-6.439208984375,-0.30517578125,1.3427734375
2.8024999000000004,0.29807811975479126,-0.25258827209472656,9.575011253356934,-6.16455078125,-0.3662109375,0.701904296875
2.8074999000000003,0.5237316489219666,-0.3010708689689636,9.695320129394531,3.448486328125,-0.1220703125,-2.410888671875
2.8124999,0.3663128614425659,-0.29388827085494995,9.932345390319824,2.227783203125,0.274658203125,1.5869140625
2.8174999,0.3663128614425659,-0.2825157940387726,9.545681953430176,-5.7373046875,0.213623046875,0.1220703125
2.8224999,0.5722141861915588,-0.3148375153541565,9.787496566772461,4.82177734375,0.3662109375,-2.3193359375
2.8274999000000003,0.3597288131713867,-0.2663549482822418,9.975440979003906,0.946044921875,0.152587890625,1.861572265625
2.8324999,0.43993455171585083,-0.26755204796791077,9.543288230895996,-5.43212890625,0.06103515625,-0.396728515625
2.8374999,0.4495113790035248,-0.26396074891090393,9.527725219726562,-4.974365234375,-0.42724609375,-1.03759765625
2.8424999,0.5249287486076355,-0.33039984107017517,9.959878921508789,6.16455078125,0.18310546875,-1.739501953125
2.8474999000000003,0.2513911724090576,-0.23283611238002777,9.956287384033203,-2.105712890625,0.091552734375,2.410888671875
2.8524999,0.47165772318840027,-0.2693476974964142,9.65222454071045,-3.936767578125,-0.579833984375,-1.739501953125
2.8574999,0.49978959560394287,-0.34177228808403015,10.056245803833008,6.4697265625,0.244140625,-1.251220703125
2.8624999,0.3016694188117981,-0.27653029561042786,9.86650562286377,-3.326416015625,0.1220703125,2.38037109375
2.8674999000000003,0.5560533404350281,-0.3124433159828186,9.622895240783691,-2.655029296875,-0.762939453125,-2.01416015625
2.8724999,0.4800374507904053,-0.3387795388698578,9.998186111450195,5.9814453125,-0.06103515625,-1.007080078125
2.8774999,0.3232172429561615,-0.25019407272338867,9.77253246307373,-4.39453125,-0.091552734375,2.044677734375
2.8824999,0.5201402902603149,-0.28131869435310364,9.639654159545898,0.579833984375,0.54931640625,-2.655029296875
2.8874999000000003,0.37888240814208984,-0.284311443567276,10.026318550109863,4.69970703125,0.396728515625,0.335693359375
2.8924999000000002,0.272938996553421,-0.22685061395168304,9.690531730651855,-6.04248046875,-0.335693359375,1.40380859375
2.8974999,0.4578910768032074,-0.23044191300868988,9.730035781860352,2.50244140625,0.701904296875,-2.62451171875
2.9024999,0.3555389642715454,-0.2537853717803955,10.04427433013916,3.753662109375,-0.18310546875,0.67138671875
2.9074999000000004,0.3010708689689636,-0.23762452602386475,9.616909980773926,-6.439208984375,-1.068115234375,0.732421875
2.9124999000000003,0.5279214978218079,-0.31603461503982544,9.700108528137207,3.7841796875,0,-2.9296875
2.9174999,0.39145198464393616,-0.30466216802597046,9.956886291503906,2.13623046875,-0.244140625,1.220703125
2.9224999,0.38127660751342773,-0.2998737692832947,9.569623947143555,-6.195068359375,-0.54931640625,0.213623046875
2.9274999000000004,0.5871779918670654,-0.3423708379268646,9.806051254272461,4.638671875,0.3662109375,-2.471923828125
2.9324999000000003,0.37229835987091064,-0.28790274262428284,10.02811336517334,1.03759765625,0.518798828125,1.800537109375
2.9374999,0.5841852426528931,-0.35673606395721436,9.88625717163086,5.9814453125,0.762939453125,-2.13623046875
2.9424999,0.3363853394985199,-0.2735375463962555,9.947309494018555,-0.518798828125,-0.091552734375,2.105712890625
2.9474999,0.43754035234451294,-0.26396074891090393,9.577404975891113,-4.791259765625,-0.79345703125,-1.0986328125
2.9524999000000003,0.517746090888977,-0.31543606519699097,9.984419822692871,6.011962890625,-0.244140625,-1.678466796875
2.9574999,0.25677812099456787,-0.1999158412218094,9.988609313964844,-1.8310546875,-0.091552734375,2.197265625
2.9624999,0.45848962664604187,-0.243011474609375,9.6618013381958,-3.662109375,-0.244140625,-1.434326171875
2.9674999,0.5069721937179565,-0.3130418658256531,10.072406768798828,6.317138671875,0.457763671875,-1.28173828125
2.9724999000000003,0.29628247022628784,-0.25917232036590576,9.882665634155273,-3.387451171875,0.091552734375,2.166748046875
2.9774999,0.5530605912208557,-0.3076549172401428,9.639654159545898,-2.44140625,-0.152587890625,-1.983642578125
2.9824999,0.4836287498474121,-0.3429693877696991,10.019734382629395,6.072998046875,0,-0.946044921875
2.9874999,0.3208230137825012,-0.25917232036590576,9.797672271728516,-4.2724609375,0.030517578125,1.983642578125
2.9924999000000003,0.5530605912208557,-0.2902969419956207,9.610325813293457,-1.0986328125,-0.42724609375,-2.25830078125
2.9974999,0.5333084464073181,-0.27413609623908997,9.622296333312988,0.18310546875,-0.457763671875,-2.50244140625
3.0024999,0.3998316824436188,-0.2717418968677521,10.014945983886719,4.974365234375,0.06103515625,0.48828125
3.0074999,0.30466216802597046,-0.2190694510936737,9.675567626953125,-5.706787109375,0.396728515625,1.5869140625
3.0124999000000003,0.4800374507904053,-0.2298433631658554,9.702502250671387,1.8310546875,-0.030517578125,-2.74658203125
3.0174999000000002,0.3818751573562622,-0.2406172752380371,10.038289070129395,3.814697265625,0.030517578125,0.8544921875
3.0224999,0.3196259140968323,-0.2190694510936737,9.640851974487305,-6.2255859375,-0.457763671875,1.03759765625
3.0274999,0.5422866940498352,-0.29568392038345337,9.716269493103027,3.204345703125,0.152587890625,-2.593994140625
3.0324999000000004,0.40521863102912903,-0.2849099934101105,9.978434562683105,2.44140625,0.030517578125,1.434326171875
3.0374999000000003,0.38307225704193115,-0.29867666959762573,9.566631317138672,-6.103515625,-0.3662109375,0.457763671875
3.0424999,0.5859808921813965,-0.3495534360408783,9.774328231811523,5.126953125,0.823974609375,-2.62451171875
3.0474999,0.37409400939941406,-0.2998737692832947,9.983820915222168,1.434326171875,0.244140625,1.64794921875
3.0524999000000004,0.4578910768032074,-0.2908954918384552,9.541492462158203,-5.279541015625,-0.457763671875,-0.732421875
3.0574999000000003,0.5464765429496765,-0.333991140127182,9.93593692779541,6.103515625,0.518798828125,-1.983642578125
3.0624999,0.27234044671058655,-0.2256535142660141,9.948506355285645,-1.708984375,0,2.105712890625
3.0674999,0.4602852761745453,-0.2495955228805542,9.612719535827637,-3.662109375,0.30517578125,-1.28173828125
3.0724999000000004,0.507570743560791,-0.32202014327049255,10.042478561401367,6.7138671875,0.8544921875,-1.373291015625
3.0774999000000003,0.28969839215278625,-0.25318682193756104,9.870695114135742,-2.99072265625,0.213623046875,2.197265625
3.0824999,0.5464765429496765,-0.29388827085494995,9.633070945739746,-2.25830078125,-0.3662109375,-2.01416015625
3.0874999,0.48722004890441895,-0.33099839091300964,10.036493301391602,6.34765625,0.152587890625,-1.03759765625
3.0924999,0.322618693113327,-0.2454056739807129,9.821015357971191,-4.33349609375,-0.030517578125,2.166748046875
3.0974999000000003,0.5632359385490417,-0.3010708689689636,9.66539192199707,-0.640869140625,0.457763671875,-2.197265625
3.1024999,0.3423708379268646,-0.2902969419956207,9.75517463684082,-5.218505859375,0.30517578125,1.556396484375
3.1074999,0.5327098965644836,-0.30466216802597046,9.64803409576416,0.701904296875,0.30517578125,-2.62451171875
3.1124999,0.39145198464393616,-0.28790274262428284,10.020931243896484,4.7607421875,0.1220703125,0.244140625
3.1174999000000003,0.2867056429386139,-0.22924481332302094,9.676764488220215,-6.34765625,-0.213623046875,1.251220703125
3.1224999,0.36332011222839355,-0.2663549482822418,9.557653427124023,-6.4697265625,-0.8544921875,0.396728515625
3.1274999,0.579995334148407,-0.3058592677116394,9.77791976928711,5.035400390625,0.396728515625,-2.5634765625
3.1324999,0.365115761756897,-0.26815059781074524,9.990405082702637,1.40380859375,0.091552734375,1.64794921875
3.1374999000000003,0.456095427274704,-0.26396074891090393,9.549872398376465,-4.7607421875,0.18310546875,-0.79345703125
3.1424999000000002,0.535702645778656,-0.32022446393966675,9.944316864013672,6.072998046875,0.18310546875,-1.800537109375
3.1474999,0.25917232036590576,-0.21428105235099792,9.928155899047852,-1.89208984375,-0.3662109375,1.953125
3.1524999,0.45010992884635925,-0.24779987335205078,9.608530044555664,-4.2724609375,-0.732421875,-1.15966796875
3.1574999000000004,0.497395396232605,-0.33279404044151306,10.032303810119629,6.378173828125,0.18310546875,-1.28173828125
3.1624999000000003,0.2867056429386139,-0.2621650993824005,9.873088836669922,-3.2958984375,0.213623046875,2.13623046875
3.1674999,0.5494692921638489,-0.30226796865463257,9.654019355773926,-2.716064453125,-0.030517578125,-1.89208984375
3.1724999,0.48303020000457764,-0.3447650372982025,10.038887977600098,6.103515625,-0.152587890625,-0.79345703125
3.1774999000000004,0.3148375153541565,-0.2561795711517334,9.801861763000488,-4.69970703125,-0.18310546875,2.044677734375
3.1824999000000003,0.5524620413780212,-0.30466216802597046,9.610325813293457,-0.54931640625,0.244140625,-2.410888671875
3.1874999,0.3292027413845062,-0.27712884545326233,9.678560256958008,-5.401611328125,-0.030517578125,1.861572265625
3.1924999,0.5159504413604736,-0.2825157940387726,9.606734275817871,0.244140625,-0.579833984375,-2.74658203125
3.1974999000000004,0.37648820877075195,-0.28371289372444153,9.995193481445312,4.8828125,0.1220703125,0.091552734375
3.2024999000000003,0.27892449498176575,-0.22685061395168304,9.674370765686035,-5.79833984375,-0.1220703125,1.556396484375
3.2074999,0.46627077460289,-0.22385786473751068,9.70549488067627,1.89208984375,-0.518798828125,-2.655029296875
3.2124999,0.36571431159973145,-0.2537853717803955,10.034099578857422,3.90625,0.06103515625,0.79345703125
3.2174999,0.31184476613998413,-0.22385786473751068,9.619303703308105,-6.011962890625,0.1220703125,0.823974609375
3.2224999000000003,0.5321113467216492,-0.2890998423099518,9.699509620666504,3.60107421875,0.30517578125,-2.50244140625
3.2274999,0.3902548849582672,-0.2783259451389313,9.967061996459961,2.50244140625,0.1220703125,1.190185546875
3.2324999,0.3770867586135864,-0.2651578485965729,9.563039779663086,-6.195068359375,-0.06103515625,0.18310546875
3.2374999,0.5877765417098999,-0.30945056676864624,9.803058624267578,4.5166015625,-0.213623046875,-2.471923828125
3.2424999000000003,0.36750996112823486,-0.2687491476535797,9.99100399017334,0.67138671875,0.06103515625,1.373291015625
3.2474999,0.5961562395095825,-0.3621230125427246,9.853337287902832,5.889892578125,0.67138671875,-2.13623046875
3.2524999,0.3513490855693817,-0.2849099934101105,9.920374870300293,-0.42724609375,0.30517578125,2.197265625
3.2574999,0.45848962664604187,-0.2801215946674347,9.546878814697266,-4.7607421875,0.213623046875,-0.823974609375
3.2624999000000003,0.535702645778656,-0.3387795388698578,9.96825885772705,6.011962890625,0.213623046875,-1.678466796875
3.2674999000000002,0.26575639843940735,-0.23104046285152435,9.946112632751465,-2.0751953125,-0.030517578125,2.349853515625
3.2724999,0.47584760189056396,-0.2825157940387726,9.644442558288574,-3.662109375,-0.030517578125,-1.52587890625
3.2774999,0.5021837949752808,-0.35733461380004883,10.052056312561035,6.256103515625,0.244140625,-1.28173828125
3.2824999000000004,0.2974795699119568,-0.28730419278144836,9.877279281616211,-3.509521484375,0.152587890625,2.13623046875
3.2874999000000003,0.2974795699119568,-0.28730419278144836,9.877279281616211,-3.509521484375,0.152587890625,2.13623046875
3.2924999,0.5440823435783386,-0.31543606519699097,9.655217170715332,-2.25830078125,0.274658203125,-1.861572265625
3.2974999,0.4620809257030487,-0.33997663855552673,10.032901763916016,6.16455078125,0.1220703125,-0.6103515625
3.3024999000000004,0.3034650683403015,-0.23762452602386475,9.800065994262695,-4.547119140625,0.1220703125,1.861572265625
3.3074999000000003,0.42676645517349243,-0.2861070930957794,9.981427192687988,5.645751953125,-0.1220703125,-0.091552734375
3.3124999,0.3208230137825012,-0.2537853717803955,9.686341285705566,-5.615234375,-0.244140625,1.739501953125
3.3174999,0.5033808946609497,-0.25438392162323,9.639056205749512,1.007080078125,0.1220703125,-2.593994140625
3.3224999000000004,0.3770867586135864,-0.2561795711517334,10.042478561401367,4.669189453125,-0.06103515625,0.457763671875
3.3274999000000003,0.28969839215278625,-0.1933317929506302,9.693524360656738,-6.256103515625,-0.54931640625,1.40380859375
3.3324999,0.4770447015762329,-0.2172738015651703,9.731232643127441,2.13623046875,-0.518798828125,-2.685546875
3.3374999,0.38067805767059326,-0.25498247146606445,10.033500671386719,3.72314453125,0,0.732421875
3.3424999,0.31842881441116333,-0.24480712413787842,9.600150108337402,-6.2255859375,-0.3662109375,0.6103515625
3.3474999000000003,0.5363011956214905,-0.3130418658256531,9.711481094360352,3.936767578125,0.457763671875,-2.593994140625
3.3524999,0.3758896589279175,-0.2908954918384552,9.97065258026123,2.166748046875,-0.030517578125,1.46484375
3.3574999,0.37409400939941406,-0.2735375463962555,9.578003883361816,-6.072998046875,-0.54931640625,-0.030517578125
3.3624999,0.5907692909240723,-0.3663128614425659,9.86351203918457,5.31005859375,-0.152587890625,-2.0751953125
3.3674999000000003,0.33758243918418884,-0.2801215946674347,9.896432876586914,-0.701904296875,0.030517578125,2.197265625
3.3724999,0.4513070285320282,-0.2825157940387726,9.536704063415527,-4.5166015625,-0.152587890625,-1.129150390625
3.3774999,0.5267243981361389,-0.33997663855552673,9.966463088989258,6.28662109375,0.42724609375,-1.739501953125
3.3824999,0.2651578485965729,-0.23702596127986908,9.930550575256348,-2.166748046875,0.244140625,2.410888671875
3.3874999000000003,0.4920084476470947,-0.2717418968677521,9.644442558288574,-3.60107421875,-0.030517578125,-1.40380859375
3.3924999000000002,0.5057750940322876,-0.33698388934135437,10.047865867614746,6.103515625,0.152587890625,-1.40380859375
3.3974999,0.3082534670829773,-0.26336219906806946,9.8599214553833,-3.72314453125,-0.06103515625,2.044677734375
3.4024999,0.5554547905921936,-0.29867666959762573,9.633668899536133,-2.0751953125,0,-1.922607421875
3.4074999000000004,0.4638765752315521,-0.32441434264183044,10.022128105163574,6.16455078125,0.640869140625,-0.54931640625
3.4124999000000003,0.31543606519699097,-0.24899697303771973,9.786299705505371,-4.69970703125,0.091552734375,1.861572265625
3.4174999,0.5291185975074768,-0.2801215946674347,9.661202430725098,1.220703125,-0.06103515625,-2.8076171875
3.4224999,0.39145198464393616,-0.2717418968677521,10.023324966430664,4.547119140625,0.18310546875,0.42724609375
3.4274999000000004,0.2974795699119568,-0.19692309200763702,9.635464668273926,-6.2255859375,0.091552734375,1.068115234375
3.4324999000000003,0.4836287498474121,-0.2232593148946762,9.677363395690918,2.777099609375,0.518798828125,-2.593994140625
3.4374999,0.37648820877075195,-0.24779987335205078,9.962273597717285,3.753662109375,0.274658203125,1.15966796875
3.4424999,0.3196259140968323,-0.25019407272338867,9.560047149658203,-6.103515625,0,0.48828125
3.4474999000000004,0.5351040959358215,-0.3166331648826599,9.720458984375,4.0283203125,0.06103515625,-2.532958984375
3.4524999000000003,0.3561375141143799,-0.2998737692832947,10.002974510192871,2.166748046875,0.18310546875,1.52587890625
3.4574999,0.3687070608139038,-0.27234044671058655,9.608530044555664,-5.79833984375,-0.244140625,-0.152587890625
3.4624999,0.35494041442871094,-0.26755204796791077,10.011953353881836,0.42724609375,-0.152587890625,1.953125
3.4674999,0.44412440061569214,-0.25737667083740234,9.5624418258667,-5.55419921875,-0.6103515625,-0.54931640625
3.4724999000000003,0.5805938839912415,-0.3405751883983612,9.873687744140625,5.706787109375,-0.030517578125,-2.044677734375
3.4774999,0.3214215636253357,-0.2346317619085312,9.911396026611328,-0.701904296875,-0.030517578125,2.0751953125
3.4824999,0.45010992884635925,-0.23762452602386475,9.552266120910645,-4.364013671875,0.244140625,-1.03759765625
3.4874999,0.517746090888977,-0.2968810200691223,9.99220085144043,6.04248046875,0.030517578125,-1.617431640625
3.4924999000000003,0.26396074891090393,-0.1975216418504715,9.93474006652832,-2.50244140625,-0.030517578125,2.44140625
3.4974999,0.5015852451324463,-0.23702596127986908,9.653421401977539,-3.5400390625,-0.3662109375,-1.678466796875
3.5024999,0.4944026470184326,-0.322618693113327,10.049062728881836,6.103515625,0.091552734375,-1.190185546875
3.5074999,0.30286651849746704,-0.2579752206802368,9.859322547912598,-3.84521484375,-0.30517578125,2.166748046875
3.5124999000000003,0.5488707423210144,-0.3058592677116394,9.636063575744629,-2.62451171875,-0.823974609375,-2.227783203125
3.5174999000000002,0.4537012279033661,-0.33997663855552673,10.029311180114746,6.4697265625,0.335693359375,-0.396728515625
3.5224999,0.345363587141037,-0.29209262132644653,9.709086418151855,-5.55419921875,-0.152587890625,1.5869140625
3.5274999,0.5219359993934631,-0.29388827085494995,9.673771858215332,1.068115234375,-0.1220703125,-2.9296875
3.5324999000000004,0.383670836687088,-0.2950853705406189,10.043676376342773,4.82177734375,0.030517578125,0.518798828125
3.5374999000000003,0.2974795699119568,-0.21428105235099792,9.666589736938477,-6.16455078125,-0.274658203125,1.190185546875
3.5424999,0.4800374507904053,-0.2322375625371933,9.699509620666504,2.9296875,0.701904296875,-3.021240234375
3.5474999,0.3687070608139038,-0.24420857429504395,9.970054626464844,3.41796875,0.3662109375,1.15966796875
3.5524999000000004,0.3082534670829773,-0.24001872539520264,9.548076629638672,-6.378173828125,-0.091552734375,0.79345703125
3.5574999000000003,0.5201402902603149,-0.3148375153541565,9.694122314453125,4.119873046875,0.18310546875,-2.899169921875
3.5624999,0.33937808871269226,-0.29628247022628784,9.960477828979492,2.01416015625,-0.06103515625,1.617431640625
3.5674999,0.36092591285705566,-0.2867056429386139,9.57860279083252,-5.9814453125,-0.06103515625,0.244140625
3.5724999000000004,0.3381809890270233,-0.2454056739807129,9.90361499786377,-0.885009765625,0.091552734375,1.739501953125
3.5774999000000003,0.4626794755458832,-0.25079262256622314,9.550470352172852,-4.180908203125,-0.396728515625,-1.007080078125
3.5824999,0.5297171473503113,-0.32202014327049255,9.978434562683105,6.28662109375,0.091552734375,-1.495361328125
3.5874999,0.27413609623908997,-0.23403321206569672,9.924564361572266,-2.197265625,0.030517578125,1.8310546875
3.5924999,0.49978959560394287,-0.2735375463962555,9.646238327026367,-3.204345703125,0.06103515625,-1.40380859375
3.5974999000000003,0.4944026470184326,-0.34356793761253357,10.04068374633789,6.34765625,0.396728515625,-0.67138671875
3.6024999,0.29628247022628784,-0.24361002445220947,9.816226959228516,-3.875732421875,0.091552734375,1.953125
3.6074999,0.5333084464073181,-0.27712884545326233,9.592369079589844,-2.01416015625,-0.091552734375,-1.983642578125
3.6124999,0.43694180250167847,-0.29807811975479126,9.959280967712402,6.591796875,0.732421875,-0.335693359375
3.6174999000000003,0.5339069962501526,-0.27473464608192444,9.603741645812988,-0.9765625,-0.9765625,-2.50244140625
3.6224999,0.4357447028160095,-0.2998737692832947,10.002974510192871,5.767822265625,0.3662109375,-0.152587890625
3.6274999,0.34835633635520935,-0.2555810213088989,9.709685325622559,-5.43212890625,0.030517578125,1.5869140625
3.6324999,0.5363011956214905,-0.2537853717803955,9.683348655700684,1.220703125,0.091552734375,-2.8076171875
3.6374999000000003,0.39803603291511536,-0.2495955228805542,10.050260543823242,4.45556640625,-0.244140625,0.579833984375
3.6424999000000002,0.3076549172401428,-0.1885433793067932,9.670180320739746,-6.378173828125,-0.579833984375,1.220703125
3.6474999,0.48722004890441895,-0.22505496442317963,9.700108528137207,2.349853515625,0.091552734375,-2.593994140625
3.6524999,0.3776853084564209,-0.2495955228805542,9.971251487731934,3.265380859375,0.396728515625,1.0986328125
3.6574999000000004,0.3148375153541565,-0.24181437492370605,9.560646057128906,-6.53076171875,-0.518798828125,0.823974609375
3.6624999000000003,0.5297171473503113,-0.30286651849746704,9.700706481933594,3.570556640625,0,-2.593994140625
3.6674999,0.34656068682670593,-0.28311434388160706,9.965864181518555,2.044677734375,0.152587890625,1.434326171875
3.6724999,0.35733461380004883,-0.27653029561042786,9.568427085876465,-5.828857421875,-0.3662109375,0.244140625
3.6774999000000004,0.333991140127182,-0.26396074891090393,9.890447616577148,-1.007080078125,0.152587890625,2.044677734375
3.6824999000000003,0.4596867263317108,-0.26096799969673157,9.528923034667969,-4.69970703125,0.457763671875,-0.9765625
3.6874999,0.5285200476646423,-0.3280056416988373,9.947309494018555,6.34765625,0.48828125,-1.708984375
3.6924999,0.27234044671058655,-0.23163901269435883,9.895833969116211,-2.197265625,0.18310546875,2.227783203125
3.6974999000000004,0.507570743560791,-0.2645592987537384,9.627084732055664,-3.662109375,-0.8544921875,-1.64794921875
3.7024999000000003,0.5015852451324463,-0.33758243918418884,10.039485931396484,6.2255859375,0.152587890625,-0.946044921875
3.7074999,0.3064578175544739,-0.24899697303771973,9.86889934539795,-3.753662109375,-0.091552734375,2.105712890625
3.7124999,0.5422866940498352,-0.2902969419956207,9.654618263244629,-1.861572265625,-0.3662109375,-2.105712890625
3.7174999,0.44412440061569214,-0.333991140127182,10.040084838867188,6.011962890625,-0.1220703125,-0.67138671875
3.7224999000000003,0.5410895943641663,-0.3166331648826599,9.638457298278809,-0.518798828125,0.1220703125,-2.349853515625
3.7274999,0.43993455171585083,-0.3345896899700165,10.018536567687988,5.584716796875,0.396728515625,-0.1220703125
3.7324999,0.34177228808403015,-0.2968810200691223,9.700706481933594,-5.828857421875,0.1220703125,1.495361328125
3.7374999,0.5201402902603149,-0.28072014451026917,9.671976089477539,0.762939453125,-0.518798828125,-2.655029296875
3.7424999000000003,0.3800795078277588,-0.2825157940387726,10.04188060760498,4.608154296875,0.48828125,0.67138671875
3.7474999,0.28730419278144836,-0.20769700407981873,9.671976089477539,-5.706787109375,0.701904296875,1.190185546875
3.7524999,0.47465047240257263,-0.24241292476654053,9.709086418151855,2.532958984375,-0.091552734375,-2.62451171875
3.7574999,0.3693056106567383,-0.2621650993824005,9.992799758911133,3.173828125,-0.1220703125,1.15966796875
3.7624999000000003,0.3447650372982025,-0.28550854325294495,9.979032516479492,2.166748046875,-0.091552734375,1.5869140625
3.7674999000000002,0.35673606395721436,-0.284311443567276,9.592369079589844,-5.645751953125,-0.1220703125,0.1220703125
3.7724999,0.34835633635520935,-0.27473464608192444,9.999382972717285,0.8544921875,0.030517578125,1.953125
3.7774999,0.44352585077285767,-0.2585737705230713,9.559449195861816,-5.340576171875,0,-0.396728515625
3.7824999000000004,0.5877765417098999,-0.33279404044151306,9.877877235412598,5.859375,0.244140625,-2.25830078125
3.7874999000000003,0.32441434264183044,-0.22685061395168304,9.894038200378418,-0.9765625,-0.091552734375,1.89208984375
3.7924999,0.4537012279033661,-0.23822307586669922,9.553462982177734,-4.852294921875,-0.18310546875,-1.129150390625
3.7974999,0.5171475410461426,-0.31842881441116333,9.971251487731934,6.591796875,1.03759765625,-1.64794921875
3.8024999000000004,0.2645592987537384,-0.22086510062217712,9.91977596282959,-2.25830078125,0.396728515625,2.227783203125
3.8074999000000003,0.4985924959182739,-0.26815059781074524,9.62828254699707,-3.631591796875,-0.54931640625,-1.556396484375
3.8124999,0.50876784324646,-0.333991140127182,10.023923873901367,6.378173828125,0.48828125,-1.190185546875
3.8174999,0.31783026456832886,-0.24121582508087158,9.82999324798584,-3.60107421875,0.030517578125,2.166748046875
3.8224999000000004,0.5596446394920349,-0.2753331959247589,9.609726905822754,-1.861572265625,-0.3662109375,-2.01416015625
3.8274999000000003,0.46507367491722107,-0.3076549172401428,10.007762908935547,6.134033203125,-0.030517578125,-0.701904296875
3.8324999,0.30226796865463257,-0.22266076505184174,9.643245697021484,-6.16455078125,0.091552734375,1.190185546875
3.8374999,0.4878185987472534,-0.243011474609375,9.710283279418945,2.44140625,-0.152587890625,-2.74658203125
3.8424999,0.37648820877075195,-0.2555810213088989,9.992799758911133,3.448486328125,0,1.220703125
3.8474999000000003,0.31184476613998413,-0.24181437492370605,9.588179588317871,-6.256103515625,-0.640869140625,0.54931640625
3.8524999,0.5291185975074768,-0.30466216802597046,9.736021041870117,3.692626953125,-0.1220703125,-2.74658203125
3.8574999,0.34596213698387146,-0.27054479718208313,9.989806175231934,2.197265625,0.030517578125,1.800537109375
3.8624999,0.35913026332855225,-0.2621650993824005,9.592967987060547,-5.462646484375,0.213623046875,0.18310546875
3.8674999000000003,0.3519476354122162,-0.28790274262428284,9.998785018920898,0.8544921875,-0.06103515625,1.861572265625
3.8724999,0.4423287510871887,-0.2932897210121155,9.563039779663086,-5.37109375,0.18310546875,-0.3662109375
3.8774999,0.5895721912384033,-0.38067805767059326,9.88625717163086,5.645751953125,0.244140625,-2.0751953125
3.8824999,0.3357867896556854,-0.2711433470249176,9.925163269042969,-0.946044921875,0.244140625,2.166748046875
3.8874999000000003,0.4638765752315521,-0.26575639843940735,9.57979965209961,-4.5166015625,0.18310546875,-1.0986328125
3.8924999000000002,0.5363011956214905,-0.33039984107017517,10.00716495513916,6.103515625,0.244140625,-1.8310546875
3.8974999,0.2783259451389313,-0.2214636504650116,9.956287384033203,-2.38037109375,0,2.044677734375
3.9024999,0.50876784324646,-0.26575639843940735,9.66539192199707,-3.35693359375,-0.06103515625,-1.434326171875
3.9074999000000004,0.5069721937179565,-0.3471592366695404,10.04307746887207,6.103515625,-0.274658203125,-1.03759765625
3.9124999000000003,0.3058592677116394,-0.27054479718208313,9.847352027893066,-3.72314453125,-0.518798828125,2.105712890625
3.9174999,0.547075092792511,-0.30885201692581177,9.603741645812988,-2.227783203125,-0.6103515625,-2.13623046875
3.9224999,0.5476736426353455,-0.2885012924671173,9.621698379516602,-0.6103515625,-0.030517578125,-2.3193359375
3.9274999000000004,0.4405331015586853,-0.2992752194404602,10.014347076416016,5.767822265625,0.457763671875,0
3.9324999000000003,0.33997663855552673,-0.27473464608192444,9.712079048156738,-5.4931640625,0.091552734375,1.556396484375
3.9374999,0.5135562419891357,-0.2645592987537384,9.670180320739746,0.91552734375,-0.030517578125,-2.62451171875
3.9424999,0.3728969097137451,-0.272938996553421,10.041281700134277,5.035400390625,0.1220703125,0.518798828125
3.9474999000000004,0.28072014451026917,-0.20111294090747833,9.674968719482422,-5.7373046875,-0.18310546875,1.129150390625
3.9524999000000003,0.46806642413139343,-0.23403321206569672,9.70429801940918,2.349853515625,-0.18310546875,-2.5634765625
3.9574999,0.36571431159973145,-0.25019407272338867,10.001178741455078,3.631591796875,0.1220703125,1.0986328125
3.9624999,0.3034650683403015,-0.24660277366638184,9.576208114624023,-6.134033203125,-0.1220703125,0.579833984375
3.9674999000000004,0.5273229479789734,-0.3130418658256531,9.697713851928711,3.875732421875,0.274658203125,-2.685546875
3.9724999000000003,0.46088382601737976,-0.27653029561042786,9.560047149658203,-5.523681640625,-0.3662109375,-0.457763671875
3.9774999,0.6039373874664307,-0.3579331636428833,9.864709854125977,5.43212890625,-0.274658203125,-2.166748046875
3.9824999,0.3471592366695404,-0.2735375463962555,9.914987564086914,-0.823974609375,-0.18310546875,2.166748046875
3.9874999,0.4638765752315521,-0.2849099934101105,9.554061889648438,-4.425048828125,-0.1220703125,-0.946044921875
3.9924999000000003,0.5345055460929871,-0.353743314743042,9.987412452697754,5.9814453125,-0.091552734375,-1.8310546875
3.9974999,0.27234044671058655,-0.24121582508087158,9.956287384033203,-2.38037109375,-0.091552734375,2.25830078125
4.0024999,0.4985924959182739,-0.2890998423099518,9.647436141967773,-3.7841796875,-0.396728515625,-1.251220703125
4.0074999,0.50876784324646,-0.3447650372982025,10.052056312561035,6.28662109375,0.1220703125,-1.190185546875
4.0124999,0.30705636739730835,-0.2687491476535797,9.8599214553833,-3.7841796875,0.54931640625,2.227783203125
4.0174999,0.45429977774620056,-0.3315969407558441,10.031106948852539,6.256103515625,0.18310546875,-0.732421875
4.022499900000001,0.3016694188117981,-0.24420857429504395,9.799467086791992,-4.608154296875,-0.213623046875,1.8310546875
4.0274999000000005,0.5351040959358215,-0.29867666959762573,9.643844604492188,-0.885009765625,-0.3662109375,-2.13623046875
4.0324999,0.4315548539161682,-0.3100491166114807,10.011953353881836,5.55419921875,-0.3662109375,-0.152587890625
4.0374999,0.33279404044151306,-0.27653029561042786,9.708487510681152,-5.92041015625,-0.518798828125,1.678466796875
4.0424999,0.518943190574646,-0.2944868206977844,9.65222454071045,1.28173828125,0.518798828125,-2.685546875
4.0474999,0.38965633511543274,-0.28371289372444153,10.02811336517334,4.82177734375,0.30517578125,0.54931640625
4.0524999,0.30047231912612915,-0.2232593148946762,9.667187690734863,-5.889892578125,0,1.28173828125
4.0574999,0.48961424827575684,-0.24241292476654053,9.70429801940918,2.288818359375,0.152587890625,-2.62451171875
4.062499900000001,0.3878606855869293,-0.24779987335205078,10.004770278930664,3.387451171875,0.274658203125,0.946044921875
4.0674999000000005,0.3208230137825012,-0.228047713637352,9.592967987060547,-6.591796875,-0.30517578125,0.823974609375
4.0724999,0.5333084464073181,-0.30705636739730835,9.697115898132324,4.0283203125,0.213623046875,-2.62451171875
4.0774999,0.6045359373092651,-0.3357867896556854,9.873687744140625,5.645751953125,0.335693359375,-2.227783203125
4.0824999,0.47644615173339844,-0.25258827209472656,9.52473258972168,-4.486083984375,0.152587890625,-0.79345703125
4.0874999,0.5482721924781799,-0.3298012912273407,9.929951667785645,6.103515625,-0.091552734375,-1.922607421875
4.0924999,0.28311434388160706,-0.228047713637352,9.912593841552734,-2.25830078125,-0.396728515625,1.89208984375
4.0974999,0.4944026470184326,-0.27892449498176575,9.607931137084961,-3.5400390625,-0.18310546875,-1.434326171875
4.1024999,0.5117605924606323,-0.3405751883983612,10.019734382629395,6.2255859375,-0.091552734375,-1.220703125
4.1074999000000005,0.304063618183136,-0.2603694200515747,9.847949981689453,-4.150390625,-0.213623046875,2.0751953125
4.1124999,0.45908817648887634,-0.3256114423274994,10.020931243896484,5.767822265625,-0.1220703125,-0.54931640625
4.1174999,0.3034650683403015,-0.24181437492370605,9.807249069213867,-4.730224609375,-0.30517578125,2.01416015625
4.1224999,0.5422866940498352,-0.29149407148361206,9.644442558288574,-1.373291015625,-0.79345703125,-2.44140625
4.1274999,0.4495113790035248,-0.3064578175544739,10.016741752624512,5.79833984375,-0.18310546875,-0.213623046875
4.1324999,0.34596213698387146,-0.27892449498176575,9.72285270690918,-5.401611328125,-0.030517578125,1.8310546875
4.1374999,0.5339069962501526,-0.2992752194404602,9.651625633239746,1.190185546875,0.67138671875,-2.74658203125
4.1424999,0.39863458275794983,-0.29568392038345337,10.029909133911133,4.974365234375,0.48828125,0.3662109375
4.147499900000001,0.2944868206977844,-0.2346317619085312,9.687539100646973,-5.950927734375,0.091552734375,1.52587890625
4.1524999000000005,0.4734533727169037,-0.25677812099456787,9.716867446899414,2.5634765625,0.701904296875,-2.8076171875
4.1574999,0.3776853084564209,-0.24839842319488525,10.039485931396484,3.997802734375,0.274658203125,0.823974609375
4.1624999,0.40043023228645325,-0.27473464608192444,9.585186958312988,-5.31005859375,-0.244140625,-0.42724609375
4.1674999,0.5722141861915588,-0.3555389642715454,9.895833969116211,5.7373046875,0.244140625,-1.983642578125
4.1724999,0.35075053572654724,-0.27234044671058655,9.95329475402832,-0.06103515625,-0.06103515625,1.953125
4.1774999,0.46746787428855896,-0.27473464608192444,9.569623947143555,-4.730224609375,-0.1220703125,-0.946044921875
4.1824999,0.5560533404350281,-0.3429693877696991,9.953893661499023,6.04248046875,0.213623046875,-1.739501953125
4.187499900000001,0.29149407148361206,-0.21547815203666687,9.950302124023438,-1.922607421875,0.335693359375,2.288818359375
4.1924999000000005,0.4728548228740692,-0.26815059781074524,9.615114212036133,-3.41796875,0.3662109375,-1.46484375
4.1974999,0.5141547918319702,-0.3405751883983612,10.030508041381836,6.256103515625,0.48828125,-1.373291015625
4.2024999,0.2944868206977844,-0.2717418968677521,9.856928825378418,-3.021240234375,-0.06103515625,2.0751953125
4.2074999,0.5416881442070007,-0.27054479718208313,9.609128952026367,-1.0986328125,0.518798828125,-2.044677734375
4.2124999,0.44412440061569214,-0.2735375463962555,9.989806175231934,6.04248046875,0.244140625,-0.457763671875
4.2174999,0.3471592366695404,-0.23283611238002777,9.750386238098145,-5.06591796875,-0.152587890625,1.708984375
4.2224999,0.5512649416923523,-0.27413609623908997,9.639654159545898,0.335693359375,0.06103515625,-2.38037109375
4.2274999,0.4291606545448303,-0.2759317457675934,10.00955867767334,5.279541015625,0.48828125,0.335693359375
4.2324999000000005,0.3208230137825012,-0.24420857429504395,9.651625633239746,-5.950927734375,0.457763671875,1.220703125
4.2374999,0.4920084476470947,-0.24839842319488525,9.658807754516602,1.8310546875,-0.030517578125,-2.532958984375
4.2424999,0.5111620426177979,-0.2669534981250763,9.694122314453125,2.86865234375,-0.396728515625,-2.777099609375
4.2474999,0.3471592366695404,-0.25438392162323,9.564237594604492,-6.34765625,-0.30517578125,0.42724609375
4.2524999,0.5548562407493591,-0.3106476664543152,9.768941879272461,4.150390625,0,-2.471923828125
4.2574999,0.3477577865123749,-0.25677812099456787,10.013748168945312,1.373291015625,0.1220703125,1.739501953125
4.2624999,0.3968389332294464,-0.27712884545326233,9.583391189575195,-5.645751953125,-0.335693359375,-0.30517578125
4.2674999,0.5859808921813965,-0.3489548861980438,9.86351203918457,4.791259765625,-0.518798828125,-2.197265625
4.272499900000001,0.3663128614425659,-0.28371289372444153,9.937732696533203,-0.06103515625,0.030517578125,2.0751953125
4.2774999000000005,0.4692635238170624,-0.2950853705406189,9.528324127197266,-4.974365234375,0.518798828125,-0.79345703125
4.2824999,0.5752069354057312,-0.35434186458587646,9.900622367858887,6.195068359375,0.823974609375,-1.922607421875
4.2874999,0.30526071786880493,-0.23403321206569672,9.921571731567383,-1.617431640625,0.54931640625,2.044677734375
4.2924999,0.45669397711753845,-0.26994624733924866,9.601945877075195,-4.058837890625,-0.54931640625,-1.434326171875
4.2974999,0.517746090888977,-0.33698388934135437,10.036493301391602,6.744384765625,0.274658203125,-1.5869140625
4.3024999,0.2717418968677521,-0.2537853717803955,9.914987564086914,-2.8076171875,-0.152587890625,2.25830078125
4.3074999,0.536899745464325,-0.314238965511322,9.633070945739746,-1.983642578125,-1.03759765625,-2.44140625
4.312499900000001,0.4423287510871887,-0.31124621629714966,10.002376556396484,5.828857421875,-0.152587890625,-0.54931640625
4.3174999000000005,0.3208230137825012,-0.2561795711517334,9.771934509277344,-5.06591796875,-0.06103515625,2.044677734375
4.3224999,0.5506663918495178,-0.29807811975479126,9.626486778259277,-0.18310546875,0.1220703125,-2.44140625
4.3274999,0.4297592043876648,-0.304063618183136,10.005369186401367,5.096435546875,0.1220703125,0.091552734375
4.3324999,0.3321954905986786,-0.28072014451026917,9.660005569458008,-5.645751953125,0,1.800537109375
4.3374999,0.48722004890441895,-0.2890998423099518,9.63067626953125,1.5869140625,0.518798828125,-2.838134765625
4.3424999,0.36332011222839355,-0.26096799969673157,9.997588157653809,4.638671875,0.030517578125,0.3662109375
4.3474999,0.27712884545326233,-0.20051439106464386,9.61212158203125,-6.317138671875,-0.54931640625,1.28173828125
4.352499900000001,0.48602294921875,-0.2472013235092163,9.68574333190918,2.410888671875,-0.30517578125,-2.8076171875
4.3574999000000005,0.3471592366695404,-0.2645592987537384,9.571419715881348,-5.767822265625,-0.06103515625,0.6103515625
4.3624999,0.5620388388633728,-0.33698388934135437,9.733028411865234,3.96728515625,0.030517578125,-2.655029296875
4.3674999,0.3776853084564209,-0.272938996553421,9.99100399017334,2.25830078125,-0.152587890625,1.3427734375
4.3724999,0.39384618401527405,-0.2687491476535797,9.592967987060547,-5.950927734375,0.152587890625,0.030517578125
4.3774999,0.5937620401382446,-0.3010708689689636,9.854534149169922,5.0048828125,0.48828125,-2.471923828125
4.3824999,0.37469255924224854,-0.21847090125083923,9.985616683959961,0.396728515625,0.18310546875,1.739501953125
4.3874999,0.46627077460289,-0.2364274114370346,9.55825138092041,-5.06591796875,0.18310546875,-0.518798828125
4.3924999,0.5847837924957275,-0.3172317147254944,9.885659217834473,5.9814453125,0.213623046875,-2.044677734375
4.397499900000001,0.3208230137825012,-0.21787235140800476,9.897629737854004,-0.732421875,0.06103515625,2.13623046875
4.4024999000000005,0.5057750940322876,-0.2992752194404602,9.956886291503906,6.40869140625,0.579833984375,-1.64794921875
4.4074999,0.25318682193756104,-0.21128830313682556,9.903017044067383,-2.532958984375,0.152587890625,2.227783203125
4.4124999,0.49559974670410156,-0.26815059781074524,9.605537414550781,-3.265380859375,-0.274658203125,-1.52587890625
4.4174999,0.5099649429321289,-0.33339259028434753,10.015543937683105,6.744384765625,-0.030517578125,-1.220703125
4.4224999,0.3166331648826599,-0.27712884545326233,9.81143856048584,-3.692626953125,-0.18310546875,2.01416015625
4.4274999,0.5548562407493591,-0.333991140127182,9.606135368347168,-2.3193359375,-0.48828125,-2.044677734375
4.4324999,0.46627077460289,-0.3250128924846649,9.975440979003906,6.103515625,-0.213623046875,-0.396728515625
4.437499900000001,0.31543606519699097,-0.25438392162323,9.761758804321289,-4.852294921875,-0.30517578125,2.01416015625
4.4424999000000005,0.5530605912208557,-0.2998737692832947,9.606135368347168,-0.54931640625,-0.06103515625,-2.349853515625
4.4474999,0.5530605912208557,-0.2998737692832947,9.606135368347168,-0.54931640625,-0.06103515625,-2.349853515625
4.4524999,0.45250412821769714,-0.28072014451026917,9.980828285217285,5.584716796875,-0.30517578125,-0.152587890625
4.4574999,0.34177228808403015,-0.2908954918384552,9.68694019317627,-5.889892578125,-0.06103515625,1.800537109375
4.4624999,0.518943190574646,-0.30286651849746704,9.64564037322998,1.007080078125,0.48828125,-2.471923828125
4.4674999,0.3824737071990967,-0.28072014451026917,10.026318550109863,4.5166015625,-0.030517578125,0.30517578125
4.4724999,0.3705027103424072,-0.2256535142660141,10.011354446411133,3.631591796875,0.274658203125,0.946044921875
4.477499900000001,0.3705027103424072,-0.2256535142660141,10.011354446411133,3.631591796875,0.274658203125,0.946044921875
4.4824999000000005,0.5225345492362976,-0.31603461503982544,9.683947563171387,3.875732421875,0.30517578125,-2.716064453125
4.4874999,0.5225345492362976,-0.31603461503982544,9.683947563171387,3.875732421875,0.30517578125,-2.716064453125
4.4924999,0.3627215623855591,-0.28072014451026917,9.966463088989258,2.349853515625,-0.1220703125,1.40380859375
4.4974999,0.35254621505737305,-0.32381579279899597,9.567230224609375,-6.317138671875,-0.518798828125,0.335693359375
4.5024999,0.5500678420066833,-0.33518823981285095,9.812037467956543,5.126953125,0.762939453125,-2.532958984375
4.5074999,0.35015198588371277,-0.26336219906806946,10.02571964263916,1.251220703125,0.6103515625,1.953125
4.5124999,0.4279635548591614,-0.27413609623908997,9.583989143371582,-5.37109375,0.030517578125,-0.274658203125
4.5174999,0.6051344871520996,-0.3298012912273407,9.874884605407715,5.18798828125,-0.48828125,-2.197265625
4.522499900000001,0.3770867586135864,-0.2711433470249176,9.911396026611328,-0.6103515625,-0.152587890625,1.739501953125
4.5274999000000005,0.4770447015762329,-0.3064578175544739,9.525930404663086,-4.8828125,0.30517578125,-0.732421875
4.5324999,0.50876784324646,-0.3058592677116394,10.034099578857422,6.683349609375,0.091552734375,-1.40380859375
4.5374999,0.28790274262428284,-0.27892449498176575,9.8784761428833,-3.387451171875,0.030517578125,2.105712890625
4.5424999,0.5345055460929871,-0.33039984107017517,9.644442558288574,-2.01416015625,0.274658203125,-1.861572265625
4.5474999,0.48482584953308105,-0.29568392038345337,10.029909133911133,6.439208984375,-0.42724609375,-0.9765625
4.5524999,0.3190273642539978,-0.2585737705230713,9.822811126708984,-4.5166015625,-0.244140625,2.227783203125
4.5574999,0.5590460896492004,-0.30226796865463257,9.616909980773926,-0.9765625,0.06103515625,-2.197265625
4.562499900000001,0.47405192255973816,-0.22864626348018646,9.989208221435547,5.767822265625,0.06103515625,-0.30517578125
4.5674999000000005,0.353743314743042,-0.2663549482822418,9.710882186889648,-5.462646484375,-0.6103515625,1.89208984375
4.5724999,0.5638344883918762,-0.29628247022628784,9.588179588317871,0.06103515625,0.152587890625,-2.471923828125
4.5774999,0.4339490532875061,-0.23163901269435883,9.988609313964844,5.126953125,0.091552734375,0.244140625
4.5824999,0.3663128614425659,-0.2082955539226532,10.061633110046387,4.21142578125,0.274658203125,0.67138671875
4.5874999,0.2932897210121155,-0.21428105235099792,9.677961349487305,-6.317138671875,0.30517578125,1.0986328125
4.5924999,0.49978959560394287,-0.2519897222518921,9.728838920593262,2.5634765625,-0.640869140625,-2.593994140625
4.5974999,0.3992331326007843,-0.2908954918384552,9.993996620178223,3.0517578125,0.091552734375,1.220703125
4.602499900000001,0.35913026332855225,-0.3166331648826599,9.575610160827637,-5.859375,-0.30517578125,0.6103515625
4.6074999000000005,0.5722141861915588,-0.34596213698387146,9.733028411865234,4.302978515625,0.67138671875,-2.410888671875
4.6124999,0.3728969097137451,-0.2890998423099518,9.98681354522705,1.5869140625,0.3662109375,1.8310546875
4.6174999,0.39145198464393616,-0.2867056429386139,9.580398559570312,-5.889892578125,0.030517578125,0
4.6224999,0.5805938839912415,-0.3058592677116394,9.856928825378418,5.157470703125,0.091552734375,-2.471923828125
4.6274999,0.36571431159973145,-0.272938996553421,9.988609313964844,0.42724609375,0.244140625,1.922607421875
4.6324999,0.4537012279033661,-0.284311443567276,9.570821762084961,-4.913330078125,0.457763671875,-0.48828125
4.6374999,0.3106476664543152,-0.2406172752380371,9.929951667785645,-0.8544921875,-0.18310546875,2.13623046875
4.6424999,0.43035775423049927,-0.262763649225235,9.584588050842285,-4.241943359375,0.457763671875,-0.885009765625
4.647499900000001,0.4985924959182739,-0.2867056429386139,10.00716495513916,5.584716796875,-0.396728515625,-1.739501953125
4.6524999000000005,0.25438392162323,-0.23762452602386475,9.95748519897461,-2.532958984375,-0.42724609375,1.922607421875
4.6574999,0.4920084476470947,-0.30226796865463257,9.652822494506836,-3.173828125,-0.213623046875,-1.46484375
4.6624999,0.5159504413604736,-0.33758243918418884,10.046070098876953,6.317138671875,0.18310546875,-1.251220703125
4.6674999,0.32381579279899597,-0.3100491166114807,9.84495735168457,-3.662109375,-0.1220703125,2.105712890625
4.6724999,0.5590460896492004,-0.3489548861980438,9.613917350769043,-1.89208984375,0.152587890625,-1.708984375
4.6774999,0.47465047240257263,-0.3058592677116394,9.984419822692871,6.34765625,0.42724609375,-0.6103515625
4.6824999,0.3124433159828186,-0.26994624733924866,9.763554573059082,-4.69970703125,0.213623046875,2.01416015625
4.687499900000001,0.545877993106842,-0.30286651849746704,9.59715747833252,-0.518798828125,0.274658203125,-2.349853515625
4.6924999000000005,0.45190557837486267,-0.25019407272338867,9.975440979003906,5.828857421875,0,-0.152587890625
4.6974999,0.2950853705406189,-0.2513911724090576,9.673771858215332,-6.2255859375,0,1.556396484375
4.7024999,0.4692635238170624,-0.2172738015651703,9.701305389404297,2.62451171875,0.823974609375,-2.685546875
4.7074999,0.3627215623855591,-0.22685061395168304,10.023324966430664,4.058837890625,0.457763671875,0.762939453125
4.7124999,0.2998737692832947,-0.25019407272338867,9.617507934570312,-5.645751953125,0.396728515625,1.007080078125
4.7174999,0.5141547918319702,-0.28790274262428284,9.694721221923828,3.082275390625,-0.579833984375,-2.74658203125
4.7224999,0.38726213574409485,-0.2944868206977844,9.95209789276123,2.685546875,0.030517578125,1.190185546875
4.727499900000001,0.35913026332855225,-0.3010708689689636,9.552266120910645,-5.79833984375,0.1220703125,0.274658203125
4.7324999000000005,0.5548562407493591,-0.30047231912612915,9.733627319335938,4.241943359375,-0.213623046875,-2.38037109375
4.7374999,0.35075053572654724,-0.2513911724090576,9.97364616394043,1.0986328125,-0.18310546875,1.678466796875
4.7424999,0.3878606855869293,-0.25438392162323,9.540295600891113,-5.828857421875,-0.244140625,-0.244140625
4.7474999,0.5536591410636902,-0.314238965511322,9.8599214553833,5.9814453125,0.6103515625,-1.89208984375
4.7524999,0.2908954918384552,-0.228047713637352,9.886856079101562,-1.312255859375,-0.1220703125,2.166748046875
4.7574999,0.424970805644989,-0.25438392162323,9.545681953430176,-4.913330078125,-0.885009765625,-1.068115234375
4.7624999,0.5099649429321289,-0.3034650683403015,9.990405082702637,6.011962890625,-0.06103515625,-1.5869140625
4.7674999,0.2759317457675934,-0.26156654953956604,9.924564361572266,-2.716064453125,-0.06103515625,2.25830078125
4.772499900000001,0.5315127968788147,-0.3100491166114807,9.642048835754395,-3.173828125,0.244140625,-1.617431640625
4.7774999000000005,0.5446808934211731,-0.35673606395721436,10.034099578857422,6.28662109375,0.213623046875,-1.3427734375
4.7824999,0.34656068682670593,-0.3076549172401428,9.847949981689453,-3.47900390625,-0.06103515625,2.105712890625
4.7874999,0.5770025849342346,-0.33039984107017517,9.624691009521484,-1.861572265625,0.274658203125,-2.01416015625
4.7924999,0.4668693244457245,-0.32680854201316833,10.029909133911133,6.04248046875,0.335693359375,-0.67138671875
4.7974999,0.5315127968788147,-0.3076549172401428,9.66299819946289,-0.30517578125,0.30517578125,-2.25830078125
4.8024999,0.42856210470199585,-0.2819172441959381,10.035296440124512,5.43212890625,-0.30517578125,-0.213623046875
4.8074999,0.322618693113327,-0.29388827085494995,9.73542308807373,-5.859375,-0.67138671875,1.5869140625
4.812499900000001,0.5063736438751221,-0.2849099934101105,9.674370765686035,0.579833984375,0.030517578125,-2.62451171875
4.8174999000000005,0.37648820877075195,-0.25677812099456787,10.035895347595215,4.547119140625,0.30517578125,0.396728515625
4.8224999,0.2801215946674347,-0.22924481332302094,9.685144424438477,-5.92041015625,-0.244140625,1.434326171875
4.8274999,0.46986207365989685,-0.228047713637352,9.70310115814209,1.922607421875,-0.579833984375,-2.8076171875
4.8324999,0.3776853084564209,-0.23762452602386475,10.011354446411133,3.5400390625,0.152587890625,0.91552734375
4.8374999,0.3256114423274994,-0.2603694200515747,9.607931137084961,-6.28662109375,-0.213623046875,1.068115234375
4.8424999,0.5392939448356628,-0.3172317147254944,9.676166534423828,3.509521484375,0.48828125,-2.532958984375
4.8474999,0.4010287821292877,-0.29867666959762573,9.95090103149414,2.532958984375,0.6103515625,1.312255859375
4.852499900000001,0.3585317134857178,-0.322618693113327,9.55825138092041,-5.79833984375,0.18310546875,0.42724609375
4.8574999000000005,0.5530605912208557,-0.30526071786880493,9.848548889160156,5.43212890625,0,-2.044677734375
4.8624999,0.3405751883983612,-0.26156654953956604,9.938929557800293,-0.091552734375,0.18310546875,1.953125
4.8674999,0.44592007994651794,-0.28131869435310364,9.525930404663086,-4.913330078125,0.335693359375,-0.885009765625
4.8724999,0.5620388388633728,-0.3280056416988373,9.911396026611328,6.134033203125,0.152587890625,-1.861572265625
4.8774999,0.3010708689689636,-0.24001872539520264,9.938929557800293,-1.373291015625,0.06103515625,2.166748046875
4.8824999,0.2753331959247589,-0.2495955228805542,9.953893661499023,-3.082275390625,-0.518798828125,2.166748046875
4.8874999,0.5171475410461426,-0.3010708689689636,9.657012939453125,-2.960205078125,0,-1.800537109375
4.8924999,0.5201402902603149,-0.2974795699119568,10.045472145080566,6.561279296875,0.18310546875,-1.007080078125
4.897499900000001,0.5620388388633728,-0.32022446393966675,9.637859344482422,-1.8310546875,-0.18310546875,-2.13623046875
4.9024999000000005,0.46986207365989685,-0.2693476974964142,10.019734382629395,6.40869140625,0.579833984375,-0.6103515625
4.9074999,0.31184476613998413,-0.2603694200515747,9.782109260559082,-4.638671875,0.06103515625,1.89208984375
4.9124999,0.5410895943641663,-0.3010708689689636,9.627683639526367,-0.518798828125,-0.244140625,-2.410888671875
4.9174999,0.4405331015586853,-0.243011474609375,9.981427192687988,5.43212890625,0.152587890625,0.091552734375
4.9224999,0.3298012912273407,-0.3106476664543152,9.694122314453125,-5.645751953125,-0.457763671875,1.708984375
4.9274999,0.5237316489219666,-0.27653029561042786,9.641449928283691,0.9765625,0.457763671875,-2.74658203125
4.9324999,0.3944447338581085,-0.25737667083740234,10.011354446411133,4.638671875,0.152587890625,0.30517578125
4.937499900000001,0.29628247022628784,-0.2346317619085312,9.659406661987305,-5.9814453125,-0.579833984375,1.373291015625
4.9424999000000005,0.48303020000457764,-0.20350714027881622,9.702502250671387,2.38037109375,0.79345703125,-2.685546875
4.9474999,0.38307225704193115,-0.22924481332302094,10.021530151367188,3.72314453125,0.30517578125,0.79345703125
4.9524999,0.314238965511322,-0.23582886159420013,9.625288963317871,-6.28662109375,-0.06103515625,0.9765625
4.9574999,0.3315969407558441,-0.284311443567276,9.990405082702637,1.52587890625,-0.06103515625,1.495361328125
4.9624999,0.3597288131713867,-0.2777273952960968,9.5624418258667,-5.584716796875,0.30517578125,-0.213623046875
4.9674999,0.5500678420066833,-0.31842881441116333,9.819219589233398,5.37109375,0.42724609375,-2.0751953125
4.9724999,0.3387795388698578,-0.2861070930957794,9.909002304077148,0.335693359375,0.06103515625,2.01416015625
4.977499900000001,0.4429273009300232,-0.31543606519699097,9.490615844726562,-5.2490234375,0.18310546875,-0.67138671875
4.9824999000000005,0.5668272376060486,-0.36990416049957275,9.831191062927246,5.67626953125,-0.030517578125,-1.922607421875
4.9874999,0.30286651849746704,-0.284311443567276,9.851541519165039,-1.312255859375,0.213623046875,2.197265625
4.9924999,0.4225766062736511,-0.29628247022628784,9.514557838439941,-4.0283203125,0.030517578125,-1.3427734375
4.9974999,0.4950011968612671,-0.3274070918560028,9.947309494018555,5.9814453125,-0.030517578125,-1.8310546875
5.0024999,0.24361002445220947,-0.2603694200515747,9.891045570373535,-2.62451171875,0.274658203125,2.3193359375
5.0074999,0.48243165016174316,-0.30885201692581177,9.607333183288574,-3.448486328125,-0.30517578125,-1.52587890625
5.0124999,0.5027823448181152,-0.33937808871269226,10.020332336425781,6.317138671875,-0.06103515625,-1.434326171875
5.0174999,0.3034650683403015,-0.29149407148361206,9.848548889160156,-3.72314453125,-0.18310546875,2.197265625
5.022499900000001,0.5416881442070007,-0.31364041566848755,9.644442558288574,-2.349853515625,-0.518798828125,-1.953125
5.0274999000000005,0.46088382601737976,-0.2944868206977844,10.039485931396484,6.134033203125,0.18310546875,-0.885009765625
5.0324999,0.2932897210121155,-0.23582886159420013,9.810839653015137,-4.425048828125,-0.518798828125,2.01416015625
5.0374999,0.5392939448356628,-0.28371289372444153,9.651625633239746,-0.946044921875,-0.640869140625,-2.3193359375
5.0424999,0.444722980260849,-0.2454056739807129,10.001777648925781,5.615234375,0.06103515625,-0.48828125
5.0474999,0.3387795388698578,-0.26755204796791077,9.720458984375,-5.4931640625,-0.274658203125,1.861572265625
5.0524999,0.5392939448356628,-0.28790274262428284,9.632472038269043,0.396728515625,0.18310546875,-2.38037109375
5.0574999,0.41539400815963745,-0.24899697303771973,10.001178741455078,5.37109375,0.579833984375,0.091552734375
5.062499900000001,0.3711012601852417,-0.20709845423698425,10.035895347595215,4.150390625,-0.091552734375,0.640869140625
5.0674999000000005,0.304063618183136,-0.22924481332302094,9.64564037322998,-6.591796875,-0.244140625,1.15966796875
5.0724999,0.5117605924606323,-0.2651578485965729,9.700108528137207,3.60107421875,0.213623046875,-2.685546875
5.0774999,0.39803603291511536,-0.24420857429504395,9.97603988647461,2.74658203125,-0.06103515625,1.068115234375
5.0824999,0.35015198588371277,-0.3166331648826599,9.561842918395996,-6.2255859375,-0.579833984375,0.579833984375
5.0874999,0.5518634915351868,-0.3016694188117981,9.73781681060791,4.364013671875,0.396728515625,-2.349853515625
5.0924999,0.35254621505737305,-0.27473464608192444,9.997588157653809,1.8310546875,0.396728515625,1.52587890625
5.0974999,0.3711012601852417,-0.28969839215278625,9.582792282104492,-5.79833984375,-0.091552734375,-0.091552734375
5.102499900000001,0.5626373887062073,-0.29867666959762573,9.858125686645508,5.096435546875,-0.030517578125,-2.44140625
5.1074999000000005,0.3579331636428833,-0.2944868206977844,9.983820915222168,0.06103515625,-0.152587890625,1.5869140625
5.1124999,0.5919663906097412,-0.3645172119140625,9.888052940368652,5.67626953125,0,-2.044677734375
5.1174999,0.3411737382411957,-0.29807811975479126,9.926959037780762,-0.762939453125,-0.18310546875,2.01416015625
5.1224999,0.46986207365989685,-0.2777273952960968,9.658807754516602,-3.448486328125,-0.396728515625,-1.739501953125
5.1274999,0.5129576921463013,-0.3256114423274994,10.063427925109863,6.65283203125,0.518798828125,-1.3427734375
5.1324999,0.2998737692832947,-0.28550854325294495,9.882665634155273,-2.960205078125,0.457763671875,2.3193359375
5.1374999,0.5464765429496765,-0.31124621629714966,9.637859344482422,-2.38037109375,0.244140625,-2.01416015625
5.1424999,0.48063600063323975,-0.3250128924846649,10.035895347595215,6.04248046875,-0.06103515625,-1.007080078125
5.147499900000001,0.2950853705406189,-0.2537853717803955,9.808445930480957,-4.5166015625,-0.213623046875,2.227783203125
5.1524999000000005,0.5398924946784973,-0.2867056429386139,9.64923095703125,-0.9765625,0.6103515625,-2.166748046875
5.1574999,0.33339259028434753,-0.26396074891090393,9.768342971801758,-5.06591796875,-0.6103515625,1.8310546875
5.1624999,0.5560533404350281,-0.2885012924671173,9.651625633239746,-0.18310546875,-0.152587890625,-2.44140625
5.1674999,0.43694180250167847,-0.28969839215278625,10.02811336517334,5.37109375,0.54931640625,0.213623046875
5.1724999,0.3298012912273407,-0.2801215946674347,9.690531730651855,-5.67626953125,0.3662109375,1.556396484375
5.1774999,0.49320554733276367,-0.25438392162323,9.68574333190918,1.617431640625,-0.244140625,-2.655029296875
5.1824999,0.36332011222839355,-0.24181437492370605,10.04427433013916,4.547119140625,0.18310546875,0.457763671875
5.187499900000001,0.28550854325294495,-0.20470423996448517,9.673771858215332,-6.04248046875,0.152587890625,0.8544921875
5.1924999000000005,0.48243165016174316,-0.23343466222286224,9.717466354370117,2.685546875,-0.030517578125,-2.62451171875
5.1974999,0.38965633511543274,-0.24361002445220947,9.972448348999023,3.387451171875,0.030517578125,1.220703125
5.2024999,0.3357867896556854,-0.2651578485965729,9.555258750915527,-6.317138671875,-0.091552734375,0.6103515625
5.2074999,0.5422866940498352,-0.31364041566848755,9.677363395690918,3.936767578125,0.30517578125,-2.62451171875
5.2124999,0.3687070608139038,-0.2651578485965729,9.950302124023438,2.13623046875,0.244140625,1.708984375
5.2174999,0.3585317134857178,-0.24001872539520264,10.019135475158691,0.54931640625,0,1.922607421875
5.2224999,0.43694180250167847,-0.2621650993824005,9.583989143371582,-5.340576171875,-0.213623046875,-0.3662109375
5.227499900000001,0.6009446382522583,-0.3196259140968323,9.875483512878418,5.218505859375,-0.213623046875,-2.25830078125
5.2324999000000005,0.3603273630142212,-0.2735375463962555,9.923367500305176,-0.54931640625,-0.030517578125,2.01416015625
5.2374999,0.4578910768032074,-0.2890998423099518,9.531316757202148,-4.94384765625,0.274658203125,-0.54931640625
5.2424999,0.5404910445213318,-0.32620999217033386,9.930550575256348,6.4697265625,0.48828125,-2.01416015625
5.2474999,0.27054479718208313,-0.23702596127986908,9.914389610290527,-1.678466796875,-0.244140625,2.13623046875
5.2524999,0.44831427931785583,-0.28371289372444153,9.593565940856934,-3.814697265625,0.213623046875,-1.0986328125
5.2574999,0.5123591423034668,-0.3058592677116394,10.012551307678223,6.4697265625,0.152587890625,-1.556396484375
5.2624999,0.29628247022628784,-0.2783259451389313,9.86770248413086,-2.86865234375,-0.18310546875,2.044677734375
