# Time (seconds),Accel_X,Accel_Y,Accel_Z,Gyro_X,Gyro_Y,Gyro_Z
0.0024999,0.872686505317688,-0.5632359385490417,9.769539833068848,0,0.091552734375,-0.213623046875
0.0074999,0.8744821548461914,-0.5662286877632141,9.773730278015137,0.06103515625,0.091552734375,-0.213623046875
0.012499900000000001,0.8744821548461914,-0.5662286877632141,9.773730278015137,0.06103515625,0.091552734375,-0.213623046875
0.0174999,0.8756792545318604,-0.5692214369773865,9.77672290802002,0.091552734375,-0.06103515625,-0.274658203125
0.0224999,0.8786720037460327,-0.5728127360343933,9.777320861816406,0.030517578125,0.030517578125,-0.30517578125
0.0274999,0.8744821548461914,-0.5716156363487244,9.765350341796875,0.06103515625,-0.030517578125,-0.152587890625
0.0324999,0.8792705535888672,-0.5680243372917175,9.768941879272461,0.06103515625,0,-0.152587890625
0.0374999,0.8774749040603638,-0.5626373887062073,9.758766174316406,-0.030517578125,0.030517578125,-0.18310546875
0.0424999,0.8738836050033569,-0.557250440120697,9.759963035583496,0.06103515625,0.152587890625,-0.152587890625
0.0474999,0.8643068075180054,-0.5542576909065247,9.765948295593262,0.030517578125,0.06103515625,-0.274658203125
0.0524999,0.8631097078323364,-0.5566518902778625,9.775525093078613,0.06103515625,0.06103515625,-0.30517578125
0.0574999,0.861314058303833,-0.5596446394920349,9.773730278015137,0.030517578125,0.213623046875,-0.30517578125
0.0624999,0.8589198589324951,-0.5620388388633728,9.77013874053955,0.030517578125,0,-0.213623046875
0.0674999,0.8619126081466675,-0.5662286877632141,9.773131370544434,-0.06103515625,0.030517578125,-0.244140625
0.0724999,0.8583213090896606,-0.5644330382347107,9.763554573059082,-0.030517578125,-0.091552734375,-0.18310546875
0.0774999,0.8643068075180054,-0.5638344883918762,9.771934509277344,0.030517578125,-0.091552734375,-0.1220703125
0.0824999,0.8864531517028809,-0.5590460896492004,9.777320861816406,0.06103515625,0,-0.274658203125
0.0874999,0.8864531517028809,-0.5590460896492004,9.777320861816406,0.06103515625,0,-0.274658203125
0.0924999,0.8864531517028809,-0.558447539806366,9.767744064331055,-0.030517578125,0.152587890625,-0.152587890625
0.0974999,0.8876502513885498,-0.5590460896492004,9.776124000549316,0.030517578125,0.030517578125,-0.213623046875
0.1024999,0.872686505317688,-0.5596446394920349,9.77253246307373,0.06103515625,0.030517578125,-0.213623046875
0.1074999,0.8696937561035156,-0.5632359385490417,9.780313491821289,0.1220703125,-0.030517578125,-0.30517578125
0.1124999,0.8601169586181641,-0.5656301379203796,9.774328231811523,0.030517578125,0,-0.1220703125
0.1174999,0.8583213090896606,-0.5680243372917175,9.77791976928711,0.06103515625,0.091552734375,-0.152587890625
0.1224999,0.8601169586181641,-0.5668272376060486,9.777320861816406,0.030517578125,0.06103515625,-0.18310546875
0.1274999,0.8601169586181641,-0.5668272376060486,9.770736694335938,0.030517578125,-0.152587890625,-0.152587890625
0.1324999,0.8720879554748535,-0.5656301379203796,9.774328231811523,0.091552734375,-0.030517578125,-0.244140625
0.1374999,0.871489405632019,-0.5650315880775452,9.764751434326172,0.06103515625,0.030517578125,-0.213623046875
0.1424999,0.882861852645874,-0.5650315880775452,9.766547203063965,0.1220703125,-0.030517578125,-0.274658203125
0.1474999,0.8852560520172119,-0.5614402890205383,9.767146110534668,-0.091552734375,0.152587890625,-0.30517578125
0.1524999,0.8846575021743774,-0.5560533404350281,9.766547203063965,-0.030517578125,0.06103515625,-0.274658203125
0.1574999,0.8870517015457153,-0.5530605912208557,9.77672290802002,-0.06103515625,0.1220703125,-0.42724609375
0.1624999,0.8744821548461914,-0.5578489899635315,9.77133560180664,0.091552734375,0.091552734375,-0.274658203125
0.1674999,0.8744821548461914,-0.5578489899635315,9.77133560180664,0.091552734375,0.091552734375,-0.274658203125
0.1724999,0.8631097078323364,-0.5638344883918762,9.764751434326172,-0.06103515625,0,-0.244140625
0.17749990000000002,0.8667010068893433,-0.5704185366630554,9.773131370544434,0,0.06103515625,-0.244140625
0.1824999,0.8619126081466675,-0.5704185366630554,9.767146110534668,0.1220703125,0.244140625,-0.30517578125
0.1874999,0.8667010068893433,-0.568622887134552,9.77133560180664,0.030517578125,0.244140625,-0.30517578125
0.1924999,0.871489405632019,-0.5656301379203796,9.774927139282227,0.1220703125,0.30517578125,-0.3662109375
0.1974999,0.8678981065750122,-0.5614402890205383,9.771934509277344,0,0.091552734375,-0.152587890625
0.2024999,0.8696937561035156,-0.5608417391777039,9.783307075500488,-0.091552734375,0.1220703125,-0.274658203125
0.20749990000000001,0.8655039072036743,-0.558447539806366,9.779715538024902,-0.06103515625,-0.06103515625,-0.244140625
0.2124999,0.8637082576751709,-0.5590460896492004,9.782708168029785,0.030517578125,-0.091552734375,-0.213623046875
0.2174999,0.8667010068893433,-0.5566518902778625,9.782708168029785,0.030517578125,0.06103515625,-0.244140625
0.2224999,0.8655039072036743,-0.558447539806366,9.77791976928711,-0.091552734375,-0.030517578125,-0.18310546875
0.2274999,0.8649053573608398,-0.5596446394920349,9.77253246307373,0.091552734375,-0.091552734375,-0.213623046875
0.2324999,0.8661024570465088,-0.5614402890205383,9.77253246307373,0,-0.091552734375,-0.213623046875
0.2374999,0.8720879554748535,-0.5638344883918762,9.774328231811523,0,0.06103515625,-0.274658203125
0.2424999,0.871489405632019,-0.5704185366630554,9.768941879272461,0,0.1220703125,-0.213623046875
0.2474999,0.8696937561035156,-0.5710170865058899,9.773131370544434,0.091552734375,0.091552734375,-0.152587890625
0.2524999,0.861314058303833,-0.5674257874488831,9.764751434326172,-0.06103515625,-0.030517578125,-0.244140625
0.2574999,0.8637082576751709,-0.5668272376060486,9.773730278015137,0.06103515625,0,-0.335693359375
0.2624999,0.8643068075180054,-0.5650315880775452,9.766547203063965,-0.1220703125,-0.030517578125,-0.274658203125
0.2674999,0.8690952062606812,-0.5638344883918762,9.774328231811523,-0.1220703125,0.06103515625,-0.30517578125
0.2724999,0.8655039072036743,-0.5626373887062073,9.767146110534668,0.030517578125,0,-0.244140625
0.2774999,0.8667010068893433,-0.5608417391777039,9.774328231811523,0,0,-0.274658203125
0.2824999,0.8643068075180054,-0.5614402890205383,9.77133560180664,-0.030517578125,0.030517578125,-0.335693359375
0.28749990000000003,0.8601169586181641,-0.5602431893348694,9.767146110534668,-0.06103515625,-0.152587890625,-0.335693359375
0.2924999,0.8649053573608398,-0.5620388388633728,9.767146110534668,-0.1220703125,0,-0.335693359375
0.2974999,0.8619126081466675,-0.5602431893348694,9.759963035583496,-0.06103515625,-0.1220703125,-0.213623046875
0.3024999,0.8684966564178467,-0.558447539806366,9.765350341796875,0.06103515625,-0.06103515625,-0.244140625
0.3074999,0.871489405632019,-0.558447539806366,9.765948295593262,0.1220703125,-0.030517578125,-0.213623046875
0.3124999,0.8684966564178467,-0.557250440120697,9.767744064331055,-0.06103515625,0.091552734375,-0.18310546875
0.3174999,0.8750807046890259,-0.558447539806366,9.77672290802002,-0.030517578125,0.18310546875,-0.244140625
0.3224999,0.872686505317688,-0.5632359385490417,9.77672290802002,0.030517578125,0.091552734375,-0.213623046875
0.3274999,0.8744821548461914,-0.5638344883918762,9.776124000549316,0.152587890625,0.030517578125,-0.213623046875
0.3324999,0.8690952062606812,-0.5674257874488831,9.77133560180664,0,-0.030517578125,-0.18310546875
0.3374999,0.872686505317688,-0.5668272376060486,9.777320861816406,0.06103515625,0.06103515625,-0.213623046875
0.3424999,0.8631097078323364,-0.5656301379203796,9.775525093078613,-0.06103515625,-0.06103515625,-0.274658203125
0.34749990000000003,0.861314058303833,-0.5638344883918762,9.781511306762695,-0.1220703125,-0.152587890625,-0.30517578125
0.35249990000000003,0.8637082576751709,-0.5644330382347107,9.786897659301758,0,-0.06103515625,-0.30517578125
0.3574999,0.8643068075180054,-0.5638344883918762,9.782708168029785,0.030517578125,-0.1220703125,-0.274658203125
0.3624999,0.8774749040603638,-0.5638344883918762,9.784503936767578,0,0,-0.213623046875
0.3674999,0.8810662031173706,-0.5632359385490417,9.773131370544434,-0.030517578125,0.030517578125,-0.091552734375
0.3724999,0.8870517015457153,-0.5614402890205383,9.77133560180664,0,0.18310546875,-0.18310546875
0.3774999,0.8924387097358704,-0.5608417391777039,9.773131370544434,0,0.274658203125,-0.30517578125
0.3824999,0.8858546018600464,-0.558447539806366,9.778518676757812,0.091552734375,0.06103515625,-0.030517578125
0.3874999,0.8786720037460327,-0.558447539806366,9.777320861816406,0.06103515625,0.091552734375,-0.091552734375
0.3924999,0.8774749040603638,-0.5596446394920349,9.777320861816406,0.06103515625,0.06103515625,-0.152587890625
0.3974999,0.8804676532745361,-0.5638344883918762,9.782708168029785,0.091552734375,0.091552734375,-0.213623046875
0.4024999,0.8792705535888672,-0.5662286877632141,9.771934509277344,0.06103515625,-0.030517578125,-0.152587890625
0.4074999,0.8816647529602051,-0.5680243372917175,9.77253246307373,0.1220703125,-0.091552734375,-0.213623046875
0.41249990000000003,0.8804676532745361,-0.5668272376060486,9.768342971801758,-0.06103515625,0.030517578125,-0.244140625
0.41749990000000003,0.8768763542175293,-0.5650315880775452,9.770736694335938,0,0.091552734375,-0.244140625
0.4224999,0.8744821548461914,-0.5638344883918762,9.77253246307373,0.1220703125,0.030517578125,-0.244140625
0.4274999,0.8684966564178467,-0.5626373887062073,9.774927139282227,0.1220703125,0.030517578125,-0.244140625
0.4324999,0.8684966564178467,-0.5644330382347107,9.784503936767578,0.06103515625,0.18310546875,-0.152587890625
0.4374999,0.8661024570465088,-0.5644330382347107,9.780912399291992,0,-0.030517578125,-0.1220703125
0.4424999,0.8732850551605225,-0.568622887134552,9.788095474243164,-0.06103515625,0.152587890625,-0.396728515625
0.4474999,0.871489405632019,-0.568622887134552,9.77253246307373,0.030517578125,-0.152587890625,-0.274658203125
0.4524999,0.8774749040603638,-0.5674257874488831,9.775525093078613,0.030517578125,-0.06103515625,-0.396728515625
0.4574999,0.8780734539031982,-0.5632359385490417,9.763554573059082,0,0.152587890625,-0.1220703125
0.4624999,0.8792705535888672,-0.5578489899635315,9.756970405578613,0.06103515625,0.06103515625,-0.18310546875
0.4674999,0.8876502513885498,-0.557250440120697,9.763554573059082,0.152587890625,0.274658203125,-0.335693359375
0.47249990000000003,0.8816647529602051,-0.5566518902778625,9.757569313049316,0.152587890625,0.091552734375,-0.152587890625
0.47749990000000003,0.8852560520172119,-0.5578489899635315,9.767744064331055,0.1220703125,0.06103515625,-0.18310546875
0.4824999,0.8696937561035156,-0.5590460896492004,9.773131370544434,0.06103515625,-0.091552734375,-0.152587890625
0.4874999,0.8643068075180054,-0.5602431893348694,9.7791166305542,0,-0.030517578125,-0.30517578125
0.4924999,0.8577227592468262,-0.5626373887062073,9.773131370544434,0.06103515625,0.1220703125,-0.274658203125
0.4974999,0.8619126081466675,-0.5662286877632141,9.767146110534668,-0.06103515625,-0.030517578125,-0.30517578125
0.5024999,0.8661024570465088,-0.5650315880775452,9.766547203063965,-0.06103515625,0.06103515625,-0.274658203125
0.5074999,0.8708908557891846,-0.5626373887062073,9.768941879272461,-0.030517578125,0.06103515625,-0.274658203125
0.5124999,0.8667010068893433,-0.5596446394920349,9.762357711791992,0.030517578125,0.06103515625,-0.152587890625
0.5174999,0.8708908557891846,-0.5602431893348694,9.768941879272461,0.030517578125,0.030517578125,-0.213623046875
0.5224999,0.8702923059463501,-0.5602431893348694,9.765350341796875,0,-0.152587890625,-0.213623046875
0.5274999,0.8702923059463501,-0.5596446394920349,9.766547203063965,-0.030517578125,-0.244140625,-0.213623046875
0.5324999,0.8768763542175293,-0.5620388388633728,9.77791976928711,0.091552734375,0,-0.30517578125
0.5374999,0.8756792545318604,-0.5602431893348694,9.773730278015137,0.091552734375,-0.152587890625,-0.152587890625
0.5424999,0.8792705535888672,-0.5614402890205383,9.782708168029785,-0.030517578125,0.030517578125,-0.244140625
0.5474999,0.8792705535888672,-0.5632359385490417,9.780313491821289,0.030517578125,0.18310546875,-0.274658203125
0.5524999,0.8738836050033569,-0.5632359385490417,9.774927139282227,0.030517578125,0.091552734375,-0.213623046875
0.5574999,0.8678981065750122,-0.5656301379203796,9.77253246307373,-0.091552734375,0.1220703125,-0.274658203125
0.5624999,0.8678981065750122,-0.5680243372917175,9.777320861816406,0.06103515625,0,-0.213623046875
0.5674999000000001,0.862511157989502,-0.5668272376060486,9.777320861816406,-0.030517578125,0.030517578125,-0.213623046875
0.5724999000000001,0.8583213090896606,-0.5668272376060486,9.773730278015137,0.030517578125,-0.030517578125,-0.213623046875
0.5774999000000001,0.8583213090896606,-0.5674257874488831,9.777320861816406,-0.06103515625,0.06103515625,-0.244140625
0.5824999,0.8517372608184814,-0.5626373887062073,9.767744064331055,0.030517578125,-0.244140625,-0.18310546875
0.5874999,0.8565256595611572,-0.5620388388633728,9.769539833068848,0.030517578125,-0.091552734375,-0.30517578125
0.5924999,0.861314058303833,-0.5596446394920349,9.765948295593262,0,0,-0.274658203125
0.5974999,0.8655039072036743,-0.5560533404350281,9.764751434326172,0.030517578125,-0.1220703125,-0.1220703125
0.6024999,0.8786720037460327,-0.5596446394920349,9.773131370544434,-0.06103515625,0.18310546875,-0.244140625
0.6074999,0.8780734539031982,-0.557250440120697,9.773131370544434,0,0.030517578125,-0.152587890625
0.6124999,0.8822633028030396,-0.558447539806366,9.782109260559082,0,0.091552734375,-0.244140625
0.6174999,0.8804676532745361,-0.5542576909065247,9.78869342803955,-0.091552734375,0.030517578125,-0.30517578125
0.6224999,0.8780734539031982,-0.5548562407493591,9.77791976928711,0,-0.091552734375,-0.244140625
0.6274999,0.8804676532745361,-0.5566518902778625,9.780912399291992,0,0,-0.152587890625
0.6324999,0.8798691034317017,-0.5596446394920349,9.777320861816406,-0.091552734375,0.06103515625,-0.244140625
0.6374999,0.8756792545318604,-0.557250440120697,9.773131370544434,-0.06103515625,0.030517578125,-0.213623046875
0.6424999,0.8750807046890259,-0.5560533404350281,9.777320861816406,0.091552734375,0.1220703125,-0.213623046875
0.6474999,0.8684966564178467,-0.5548562407493591,9.773131370544434,0.1220703125,-0.06103515625,-0.274658203125
0.6524999,0.8672995567321777,-0.5524620413780212,9.77791976928711,0,0.030517578125,-0.244140625
0.6574999,0.8678981065750122,-0.5548562407493591,9.777320861816406,0,0.06103515625,-0.30517578125
0.6624999,0.8649053573608398,-0.5560533404350281,9.776124000549316,0.030517578125,-0.152587890625,-0.244140625
0.6674999,0.8696937561035156,-0.5614402890205383,9.782109260559082,0.030517578125,0.091552734375,-0.274658203125
0.6724999,0.8678981065750122,-0.5704185366630554,9.777320861816406,-0.030517578125,0.06103515625,-0.3662109375
0.6774999,0.8643068075180054,-0.5704185366630554,9.77133560180664,0.030517578125,0.030517578125,-0.274658203125
0.6824999,0.8672995567321777,-0.5728127360343933,9.775525093078613,0.18310546875,0.244140625,-0.152587890625
0.6874999,0.8637082576751709,-0.5722141861915588,9.765948295593262,0.1220703125,0.091552734375,-0.1220703125
0.6924999000000001,0.8637082576751709,-0.5740098357200623,9.768941879272461,0,0.1220703125,-0.244140625
0.6974999000000001,0.8655039072036743,-0.5740098357200623,9.766547203063965,0.030517578125,0.06103515625,-0.18310546875
0.7024999000000001,0.8631097078323364,-0.5716156363487244,9.761758804321289,0.030517578125,-0.091552734375,-0.152587890625
0.7074999,0.8672995567321777,-0.569819986820221,9.766547203063965,0.091552734375,-0.091552734375,-0.335693359375
0.7124999,0.8667010068893433,-0.5662286877632141,9.759963035583496,0.030517578125,-0.091552734375,-0.244140625
0.7174999,0.8720879554748535,-0.5644330382347107,9.764153480529785,0,0.030517578125,-0.244140625
0.7224999,0.8762778043746948,-0.5668272376060486,9.77672290802002,0.06103515625,0.091552734375,-0.335693359375
0.7274999,0.8672995567321777,-0.5632359385490417,9.77133560180664,-0.030517578125,0.1220703125,-0.152587890625
0.7324999,0.8661024570465088,-0.5608417391777039,9.777320861816406,-0.030517578125,0.06103515625,-0.244140625
0.7374999,0.8619126081466675,-0.5566518902778625,9.776124000549316,0.06103515625,0.091552734375,-0.274658203125
0.7424999,0.8619126081466675,-0.5566518902778625,9.782708168029785,-0.06103515625,-0.030517578125,-0.213623046875
0.7474999,0.8631097078323364,-0.5566518902778625,9.78989028930664,-0.030517578125,0.152587890625,-0.30517578125
0.7524999,0.8607155084609985,-0.5590460896492004,9.785700798034668,-0.030517578125,-0.030517578125,-0.152587890625
0.7574999,0.8720879554748535,-0.5608417391777039,9.777320861816406,0.030517578125,-0.06103515625,-0.244140625
0.7624999,0.8720879554748535,-0.5608417391777039,9.777320861816406,0.030517578125,-0.06103515625,-0.244140625
0.7674999,0.8774749040603638,-0.5644330382347107,9.77672290802002,-0.06103515625,-0.030517578125,-0.335693359375
0.7724999,0.8732850551605225,-0.5656301379203796,9.768941879272461,0.030517578125,-0.091552734375,-0.274658203125
0.7774999,0.8762778043746948,-0.5680243372917175,9.776124000549316,0,0.1220703125,-0.3662109375
0.7824999,0.8702923059463501,-0.5674257874488831,9.77253246307373,0,-0.06103515625,-0.213623046875
0.7874999,0.8702923059463501,-0.5674257874488831,9.77672290802002,0,-0.030517578125,-0.152587890625
0.7924999,0.8756792545318604,-0.5668272376060486,9.782109260559082,0,-0.06103515625,-0.213623046875
0.7974999,0.8756792545318604,-0.5650315880775452,9.775525093078613,0.030517578125,0,-0.152587890625
0.8024999,0.8816647529602051,-0.569819986820221,9.768941879272461,-0.030517578125,0.1220703125,-0.152587890625
0.8074999,0.8487445116043091,-0.558447539806366,9.767146110534668,0.030517578125,0,-0.18310546875
0.8124999,0.8487445116043091,-0.5560533404350281,9.77013874053955,0.06103515625,-0.18310546875,-0.091552734375
0.8174999000000001,0.8577227592468262,-0.557250440120697,9.776124000549316,0.091552734375,-0.06103515625,-0.244140625
0.8224999000000001,0.8589198589324951,-0.558447539806366,9.773131370544434,0.091552734375,-0.152587890625,-0.1220703125
0.8274999000000001,0.8750807046890259,-0.5620388388633728,9.783307075500488,0.06103515625,-0.152587890625,-0.18310546875
0.8324999000000001,0.8804676532745361,-0.5656301379203796,9.780313491821289,0.030517578125,-0.030517578125,-0.244140625
0.8374999,0.8876502513885498,-0.5674257874488831,9.7791166305542,0,-0.1220703125,-0.213623046875
0.8424999,0.8954314589500427,-0.569819986820221,9.77791976928711,0.091552734375,0.152587890625,-0.335693359375
0.8474999,0.889445960521698,-0.568622887134552,9.768342971801758,0.1220703125,0.030517578125,-0.213623046875
0.8524999,0.8882488012313843,-0.5662286877632141,9.773730278015137,0.091552734375,0.18310546875,-0.244140625
0.8574999,0.8702923059463501,-0.5578489899635315,9.774927139282227,0.18310546875,0,-0.213623046875
0.8624999,0.8684966564178467,-0.5536591410636902,9.781511306762695,0.06103515625,0.1220703125,-0.30517578125
0.8674999,0.8619126081466675,-0.5506663918495178,9.77791976928711,-0.030517578125,-0.06103515625,-0.152587890625
0.8724999,0.8661024570465088,-0.5524620413780212,9.780912399291992,0,-0.06103515625,-0.152587890625
0.8774999,0.8678981065750122,-0.5554547905921936,9.775525093078613,-0.06103515625,0.091552734375,-0.274658203125
0.8824999,0.8774749040603638,-0.5722141861915588,9.763554573059082,0.1220703125,-0.030517578125,-0.091552734375
0.8874999,0.8798691034317017,-0.5770025849342346,9.770736694335938,0.06103515625,0.030517578125,-0.244140625
0.8924999,0.8792705535888672,-0.5776011347770691,9.767744064331055,-0.06103515625,0.06103515625,-0.274658203125
0.8974999,0.8762778043746948,-0.5764040350914001,9.765350341796875,0,0.091552734375,-0.244140625
0.9024999,0.8804676532745361,-0.5734112858772278,9.765948295593262,0.030517578125,0.244140625,-0.244140625
0.9074999,0.8756792545318604,-0.5656301379203796,9.764751434326172,0.06103515625,0.091552734375,-0.18310546875
0.9124999,0.8738836050033569,-0.5650315880775452,9.765948295593262,0.1220703125,0.091552734375,-0.244140625
0.9174999,0.8655039072036743,-0.5632359385490417,9.77013874053955,0.06103515625,0.030517578125,-0.18310546875
0.9224999,0.8672995567321777,-0.5650315880775452,9.780912399291992,0.091552734375,0.18310546875,-0.18310546875
0.9274999,0.8619126081466675,-0.5614402890205383,9.77791976928711,0,-0.030517578125,-0.152587890625
0.9324999,0.8607155084609985,-0.5590460896492004,9.787496566772461,-0.1220703125,0.030517578125,-0.274658203125
0.9374999,0.8595184087753296,-0.5620388388633728,9.788095474243164,0,0.091552734375,-0.274658203125
0.9424999000000001,0.8547300100326538,-0.5614402890205383,9.78869342803955,0.1220703125,0,-0.18310546875
0.9474999000000001,0.861314058303833,-0.5704185366630554,9.79408073425293,-0.06103515625,-0.030517578125,-0.335693359375
0.9524999000000001,0.8637082576751709,-0.5710170865058899,9.783905029296875,0.091552734375,-0.18310546875,-0.18310546875
0.9574999000000001,0.8738836050033569,-0.5746083855628967,9.783905029296875,0.091552734375,-0.152587890625,-0.152587890625
0.9624999,0.8804676532745361,-0.5716156363487244,9.774927139282227,-0.06103515625,-0.091552734375,-0.30517578125
0.9674999,0.8888474106788635,-0.5614402890205383,9.771934509277344,0.030517578125,0.091552734375,-0.213623046875
0.9724999,0.8876502513885498,-0.5560533404350281,9.767146110534668,0.1220703125,0.152587890625,-0.30517578125
0.9774999,0.8888474106788635,-0.557250440120697,9.774328231811523,0.030517578125,0.274658203125,-0.30517578125
0.9824999,0.8876502513885498,-0.557250440120697,9.773730278015137,0.030517578125,0.244140625,-0.335693359375
0.9874999,0.8810662031173706,-0.5614402890205383,9.770736694335938,-0.030517578125,0.06103515625,-0.274658203125
0.9924999,0.8780734539031982,-0.5638344883918762,9.778518676757812,0.030517578125,0.152587890625,-0.213623046875
0.9974999,0.8690952062606812,-0.5656301379203796,9.77133560180664,0.091552734375,0.06103515625,-0.213623046875
1.0024999,0.8684966564178467,-0.5656301379203796,9.77791976928711,-0.030517578125,0.091552734375,-0.30517578125
1.0074999000000002,0.8696937561035156,-0.5656301379203796,9.776124000549316,0.06103515625,0.06103515625,-0.244140625
1.0124999000000001,0.8708908557891846,-0.5608417391777039,9.77013874053955,-0.06103515625,-0.091552734375,-0.244140625
1.0174999000000002,0.8798691034317017,-0.5602431893348694,9.776124000549316,-0.091552734375,0.06103515625,-0.213623046875
1.0224999000000001,0.8786720037460327,-0.558447539806366,9.765948295593262,0,-0.030517578125,-0.244140625
1.0274999,0.8834604024887085,-0.5590460896492004,9.77013874053955,0,0.06103515625,-0.244140625
1.0324999000000001,0.8798691034317017,-0.5566518902778625,9.765350341796875,0,0,-0.152587890625
1.0374999,0.8774749040603638,-0.5590460896492004,9.774328231811523,-0.06103515625,0.213623046875,-0.30517578125
1.0424999000000001,0.8678981065750122,-0.5638344883918762,9.77253246307373,0,0.091552734375,-0.18310546875
1.0474999,0.8661024570465088,-0.568622887134552,9.77013874053955,-0.030517578125,0.091552734375,-0.3662109375
1.0524999000000002,0.8631097078323364,-0.5692214369773865,9.761758804321289,-0.030517578125,0.1220703125,-0.18310546875
1.0574999,0.8655039072036743,-0.5710170865058899,9.763554573059082,-0.030517578125,0.030517578125,-0.244140625
1.0624999000000002,0.8619126081466675,-0.569819986820221,9.75637149810791,0.06103515625,-0.1220703125,-0.335693359375
1.0674999,0.8637082576751709,-0.5710170865058899,9.764153480529785,0.06103515625,0.091552734375,-0.244140625
1.0724999000000002,0.8684966564178467,-0.569819986820221,9.769539833068848,-0.06103515625,0.152587890625,-0.42724609375
1.0774999,0.8696937561035156,-0.5692214369773865,9.767744064331055,-0.1220703125,0.030517578125,-0.244140625
1.0824999000000002,0.8810662031173706,-0.5656301379203796,9.774927139282227,0.030517578125,-0.030517578125,-0.274658203125
1.0874999,0.8822633028030396,-0.5626373887062073,9.782109260559082,0.091552734375,-0.1220703125,-0.274658203125
1.0924999000000002,0.882861852645874,-0.5632359385490417,9.791686058044434,0.1220703125,0.213623046875,-0.335693359375
1.0974999,0.872686505317688,-0.5596446394920349,9.786897659301758,0.06103515625,0.06103515625,-0.244140625
1.1024999000000002,0.8684966564178467,-0.5620388388633728,9.79527759552002,0.06103515625,0.030517578125,-0.274658203125
1.1074999,0.8583213090896606,-0.5590460896492004,9.785700798034668,0.091552734375,0.06103515625,-0.213623046875
1.1124999000000002,0.8523358106613159,-0.5590460896492004,9.785101890563965,-0.030517578125,-0.06103515625,-0.152587890625
1.1174999,0.8547300100326538,-0.557250440120697,9.782708168029785,0.030517578125,0,-0.18310546875
1.1224999000000002,0.8577227592468262,-0.557250440120697,9.775525093078613,0.091552734375,-0.030517578125,-0.18310546875
1.1274999,0.8696937561035156,-0.5608417391777039,9.773730278015137,0.213623046875,0,-0.18310546875
1.1324999000000002,0.8780734539031982,-0.5638344883918762,9.768342971801758,0.06103515625,-0.030517578125,-0.244140625
1.1374999000000001,0.8852560520172119,-0.5674257874488831,9.765948295593262,0,0.06103515625,-0.244140625
1.1424999000000002,0.8876502513885498,-0.5680243372917175,9.771934509277344,-0.06103515625,0.06103515625,-0.274658203125
1.1474999000000001,0.8870517015457153,-0.5656301379203796,9.782708168029785,-0.030517578125,0.06103515625,-0.213623046875
1.1524999000000002,0.8774749040603638,-0.5614402890205383,9.77791976928711,0,0.213623046875,-0.244140625
1.1574999000000001,0.8690952062606812,-0.558447539806366,9.77672290802002,0.06103515625,0.1220703125,-0.213623046875
1.1624999,0.8667010068893433,-0.5560533404350281,9.777320861816406,-0.06103515625,0.091552734375,-0.244140625
1.1674999000000001,0.8595184087753296,-0.5554547905921936,9.769539833068848,0,-0.06103515625,-0.213623046875
1.1724999,0.861314058303833,-0.5566518902778625,9.777320861816406,-0.06103515625,-0.091552734375,-0.213623046875
1.1774999000000002,0.861314058303833,-0.557250440120697,9.7791166305542,-0.06103515625,0.030517578125,-0.091552734375
1.1824999,0.8619126081466675,-0.557250440120697,9.782109260559082,0,0.030517578125,-0.18310546875
1.1874999000000002,0.8684966564178467,-0.5596446394920349,9.790489196777344,-0.030517578125,0.030517578125,-0.30517578125
1.1924999,0.8678981065750122,-0.5602431893348694,9.782109260559082,0.091552734375,0,-0.1220703125
1.1974999000000002,0.8744821548461914,-0.5638344883918762,9.774328231811523,0,-0.030517578125,-0.091552734375
1.2024999,0.8774749040603638,-0.5680243372917175,9.782109260559082,0.030517578125,0.06103515625,-0.213623046875
1.2074999000000002,0.8744821548461914,-0.5674257874488831,9.778518676757812,0,0.030517578125,-0.30517578125
1.2124999,0.8768763542175293,-0.5674257874488831,9.787496566772461,0.091552734375,0.06103515625,-0.335693359375
1.2174999000000002,0.8750807046890259,-0.5668272376060486,9.7791166305542,0,0.1220703125,-0.335693359375
1.2224999,0.8702923059463501,-0.5662286877632141,9.778518676757812,0.091552734375,0.1220703125,-0.152587890625
1.2274999000000002,0.8720879554748535,-0.568622887134552,9.77791976928711,0.1220703125,0.213623046875,-0.18310546875
1.2324999,0.8649053573608398,-0.5692214369773865,9.768342971801758,-0.030517578125,-0.06103515625,-0.1220703125
1.2374999000000002,0.8696937561035156,-0.5704185366630554,9.776124000549316,-0.18310546875,0.030517578125,-0.244140625
1.2424999,0.8690952062606812,-0.5710170865058899,9.767744064331055,-0.1220703125,-0.091552734375,-0.244140625
1.2474999000000002,0.8702923059463501,-0.5704185366630554,9.762955665588379,-0.030517578125,-0.18310546875,-0.274658203125
1.2524999,0.8738836050033569,-0.5734112858772278,9.75936508178711,0.030517578125,-0.18310546875,-0.152587890625
1.2574999000000002,0.8786720037460327,-0.5734112858772278,9.773131370544434,0,0.030517578125,-0.30517578125
1.2624999000000001,0.8768763542175293,-0.5704185366630554,9.77133560180664,0.091552734375,0.06103515625,-0.274658203125
1.2674999000000002,0.872686505317688,-0.5650315880775452,9.77133560180664,0.06103515625,0.152587890625,-0.1220703125
1.2724999000000001,0.8720879554748535,-0.5626373887062073,9.7791166305542,-0.06103515625,0.48828125,-0.213623046875
1.2774999000000002,0.8553285598754883,-0.5596446394920349,9.768342971801758,0,0.244140625,-0.244140625
1.2824999000000001,0.8469488620758057,-0.558447539806366,9.77672290802002,-0.091552734375,0.06103515625,-0.48828125
1.2874999,0.8361749649047852,-0.5566518902778625,9.777320861816406,-0.030517578125,-0.06103515625,-0.274658203125
1.2924999000000001,0.8313865661621094,-0.5536591410636902,9.771934509277344,0.030517578125,-0.152587890625,-0.213623046875
1.2974999,0.8457517623901367,-0.5566518902778625,9.777320861816406,-0.1220703125,-0.152587890625,-0.3662109375
1.3024999000000002,0.8457517623901367,-0.5566518902778625,9.777320861816406,-0.1220703125,-0.152587890625,-0.3662109375
1.3074999,0.8583213090896606,-0.5566518902778625,9.764751434326172,-0.091552734375,-0.244140625,-0.213623046875
1.3124999000000002,0.8972271084785461,-0.5638344883918762,9.761159896850586,0.06103515625,0.1220703125,-0.152587890625
1.3174999,0.9002198576927185,-0.5644330382347107,9.77253246307373,0.030517578125,0.335693359375,-0.152587890625
1.3224999000000002,0.8888474106788635,-0.5626373887062073,9.768342971801758,-0.030517578125,0.335693359375,-0.244140625
1.3274999,0.8792705535888672,-0.5650315880775452,9.77672290802002,0.091552734375,0.274658203125,-0.244140625
1.3324999000000002,0.8672995567321777,-0.5638344883918762,9.781511306762695,0.1220703125,0.335693359375,-0.274658203125
1.3374999,0.8577227592468262,-0.5602431893348694,9.782708168029785,0.06103515625,-0.06103515625,-0.274658203125
1.3424999000000002,0.8589198589324951,-0.558447539806366,9.798270225524902,0.091552734375,-0.06103515625,-0.18310546875
1.3474999,0.8553285598754883,-0.557250440120697,9.791686058044434,-0.091552734375,-0.1220703125,-0.213623046875
1.3524999000000002,0.8601169586181641,-0.5644330382347107,9.795876502990723,0,-0.244140625,-0.335693359375
1.3574999,0.8661024570465088,-0.5704185366630554,9.792284965515137,-0.091552734375,0,-0.274658203125
1.3624999000000002,0.8786720037460327,-0.5728127360343933,9.783307075500488,0.06103515625,0.1220703125,-0.3662109375
1.3674999,0.8786720037460327,-0.5650315880775452,9.770736694335938,0,0.213623046875,-0.274658203125
1.3724999000000002,0.8786720037460327,-0.5644330382347107,9.77133560180664,-0.152587890625,0.18310546875,-0.213623046875
1.3774999,0.8690952062606812,-0.5668272376060486,9.77253246307373,-0.06103515625,0.091552734375,-0.396728515625
1.3824999000000002,0.8559271097183228,-0.5716156363487244,9.77013874053955,0.06103515625,-0.06103515625,-0.244140625
1.3874999000000001,0.849941611289978,-0.5752069354057312,9.787496566772461,0.06103515625,0,-0.213623046875
1.3924999000000002,0.8409633636474609,-0.5728127360343933,9.783307075500488,0.030517578125,-0.152587890625,-0.213623046875
1.3974999000000001,0.8481459617614746,-0.5668272376060486,9.791088104248047,0.030517578125,-0.274658203125,-0.244140625
1.4024999000000002,0.8553285598754883,-0.5608417391777039,9.79527759552002,-0.06103515625,-0.030517578125,-0.244140625
1.4074999000000001,0.862511157989502,-0.5596446394920349,9.784503936767578,-0.1220703125,-0.091552734375,-0.274658203125
1.4124999,0.8768763542175293,-0.5590460896492004,9.78869342803955,-0.06103515625,0.091552734375,-0.30517578125
1.4174999000000001,0.8846575021743774,-0.557250440120697,9.780313491821289,0.1220703125,0.18310546875,-0.152587890625
1.4224999,0.8918401598930359,-0.5566518902778625,9.777320861816406,0.06103515625,0,-0.152587890625
1.4274999000000002,0.884058952331543,-0.557250440120697,9.774328231811523,0,0.06103515625,-0.18310546875
1.4324999,0.8744821548461914,-0.5620388388633728,9.778518676757812,0.091552734375,0.030517578125,-0.1220703125
1.4374999000000002,0.8601169586181641,-0.5668272376060486,9.773131370544434,0,0.1220703125,-0.213623046875
1.4424999,0.851138710975647,-0.5662286877632141,9.765948295593262,0,-0.091552734375,-0.213623046875
1.4474999000000002,0.851138710975647,-0.5662286877632141,9.765948295593262,0,-0.091552734375,-0.213623046875
1.4524999,0.8619126081466675,-0.5704185366630554,9.773131370544434,0.030517578125,-0.18310546875,-0.244140625
1.4574999000000002,0.8637082576751709,-0.5728127360343933,9.765350341796875,-0.030517578125,-0.030517578125,-0.274658203125
1.4624999,0.8702923059463501,-0.5722141861915588,9.766547203063965,0.030517578125,0,-0.18310546875
1.4674999000000002,0.8780734539031982,-0.5692214369773865,9.769539833068848,0.06103515625,0.1220703125,-0.274658203125
1.4724999,0.8786720037460327,-0.5626373887062073,9.761758804321289,-0.06103515625,-0.030517578125,-0.244140625
1.4774999000000002,0.8864531517028809,-0.5608417391777039,9.766547203063965,-0.06103515625,0.091552734375,-0.274658203125
1.4824999,0.8684966564178467,-0.5620388388633728,9.775525093078613,-0.030517578125,-0.030517578125,-0.274658203125
1.4874999000000002,0.8643068075180054,-0.5614402890205383,9.785700798034668,0,0.06103515625,-0.274658203125
1.4924999,0.8577227592468262,-0.5614402890205383,9.783905029296875,0.091552734375,0.030517578125,-0.152587890625
1.4974999000000002,0.8541314601898193,-0.5650315880775452,9.783905029296875,-0.030517578125,0.06103515625,-0.1220703125
1.5024999,0.8601169586181641,-0.5668272376060486,9.786299705505371,0.06103515625,0.213623046875,-0.1220703125
1.5074999000000002,0.8583213090896606,-0.5632359385490417,9.780912399291992,-0.06103515625,0.091552734375,-0.213623046875
1.5124999000000001,0.8643068075180054,-0.5590460896492004,9.786299705505371,0.030517578125,0.18310546875,-0.152587890625
1.5174999000000002,0.8631097078323364,-0.5554547905921936,9.783307075500488,0,-0.06103515625,-0.244140625
1.5224999000000001,0.8619126081466675,-0.5512649416923523,9.782109260559082,0.030517578125,-0.213623046875,-0.274658203125
1.5274999000000002,0.8637082576751709,-0.5536591410636902,9.782708168029785,0,0.091552734375,-0.18310546875
1.5324999000000001,0.8690952062606812,-0.557250440120697,9.776124000549316,-0.152587890625,-0.06103515625,-0.274658203125
1.5374999000000003,0.8738836050033569,-0.5566518902778625,9.769539833068848,0.06103515625,-0.091552734375,-0.274658203125
1.5424999000000001,0.8816647529602051,-0.5602431893348694,9.767744064331055,0.091552734375,-0.06103515625,-0.244140625
1.5474999,0.8906430602073669,-0.5614402890205383,9.770736694335938,0.06103515625,0.1220703125,-0.335693359375
1.5524999000000002,0.8900445103645325,-0.5638344883918762,9.762955665588379,-0.06103515625,0.06103515625,-0.18310546875
1.5574999,0.8936358094215393,-0.5662286877632141,9.767146110534668,0.030517578125,0.244140625,-0.396728515625
1.5624999000000002,0.8864531517028809,-0.5638344883918762,9.764751434326172,0.030517578125,0.30517578125,-0.335693359375
1.5674999,0.8792705535888672,-0.5614402890205383,9.762357711791992,0.030517578125,0.152587890625,-0.30517578125
1.5724999000000002,0.8756792545318604,-0.5590460896492004,9.768342971801758,-0.030517578125,0.213623046875,-0.244140625
1.5774999,0.8637082576751709,-0.5590460896492004,9.763554573059082,-0.030517578125,-0.030517578125,-0.18310546875
1.5824999000000002,0.8661024570465088,-0.5602431893348694,9.773131370544434,0.1220703125,0.030517578125,-0.213623046875
1.5874999,0.8649053573608398,-0.5638344883918762,9.777320861816406,0.091552734375,-0.030517578125,-0.30517578125
1.5924999000000002,0.8774749040603638,-0.5590460896492004,9.788095474243164,0.06103515625,-0.091552734375,-0.091552734375
1.5974999,0.8858546018600464,-0.5578489899635315,9.791088104248047,0.030517578125,0,-0.1220703125
1.6024999000000002,0.8834604024887085,-0.5590460896492004,9.778518676757812,0.06103515625,0.030517578125,-0.30517578125
1.6074999,0.8732850551605225,-0.5590460896492004,9.770736694335938,0.091552734375,-0.030517578125,-0.152587890625
1.6124999000000002,0.8738836050033569,-0.5602431893348694,9.776124000549316,0.06103515625,0.152587890625,-0.274658203125
1.6174999,0.8678981065750122,-0.5608417391777039,9.770736694335938,0.030517578125,0.1220703125,-0.3662109375
1.6224999000000002,0.8655039072036743,-0.5602431893348694,9.768342971801758,0.1220703125,0.030517578125,-0.213623046875
1.6274999,0.8678981065750122,-0.5602431893348694,9.774927139282227,0.1220703125,0.18310546875,-0.457763671875
1.6324999000000002,0.8475474119186401,-0.5530605912208557,9.777320861816406,0,0,-0.18310546875
1.6374999000000001,0.8403648138046265,-0.5536591410636902,9.77253246307373,0.06103515625,-0.152587890625,-0.274658203125
1.6424999000000002,0.8475474119186401,-0.5530605912208557,9.779715538024902,-0.030517578125,-0.030517578125,-0.3662109375
1.6474999000000001,0.849941611289978,-0.5536591410636902,9.771934509277344,0,-0.091552734375,-0.1220703125
1.6524999000000002,0.8643068075180054,-0.5548562407493591,9.77791976928711,0.030517578125,-0.18310546875,-0.18310546875
1.6574999000000001,0.872686505317688,-0.557250440120697,9.777320861816406,-0.030517578125,-0.030517578125,-0.30517578125
1.6624999000000003,0.8810662031173706,-0.5608417391777039,9.773730278015137,0.030517578125,-0.18310546875,-0.244140625
1.6674999000000001,0.8882488012313843,-0.5668272376060486,9.777320861816406,-0.06103515625,-0.06103515625,-0.3662109375
1.6724999,0.8900445103645325,-0.5692214369773865,9.766547203063965,0.030517578125,0,-0.30517578125
1.6774999000000002,0.8918401598930359,-0.5704185366630554,9.770736694335938,0.091552734375,0.06103515625,-0.152587890625
1.6824999,0.8649053573608398,-0.5626373887062073,9.773131370544434,0.06103515625,-0.06103515625,-0.18310546875
1.6874999000000002,0.861314058303833,-0.5626373887062073,9.777320861816406,0.1220703125,0,-0.274658203125
1.6924999,0.8595184087753296,-0.5644330382347107,9.780313491821289,-0.091552734375,0.091552734375,-0.274658203125
1.6974999000000002,0.8583213090896606,-0.5638344883918762,9.775525093078613,-0.06103515625,-0.1220703125,-0.274658203125
1.7024999,0.8672995567321777,-0.5602431893348694,9.785700798034668,-0.030517578125,-0.1220703125,-0.335693359375
1.7074999000000002,0.8696937561035156,-0.558447539806366,9.77672290802002,0.030517578125,-0.030517578125,-0.152587890625
1.7124999,0.8774749040603638,-0.5518634915351868,9.783905029296875,-0.030517578125,-0.030517578125,-0.213623046875
1.7174999000000002,0.8834604024887085,-0.5524620413780212,9.785101890563965,-0.06103515625,-0.030517578125,-0.213623046875
1.7224999,0.8822633028030396,-0.5512649416923523,9.782109260559082,0.06103515625,0,-0.274658203125
1.7274999000000002,0.8864531517028809,-0.557250440120697,9.78989028930664,0.091552734375,-0.030517578125,-0.18310546875
1.7324999,0.8834604024887085,-0.5638344883918762,9.780912399291992,0.152587890625,-0.091552734375,-0.152587890625
1.7374999000000002,0.8744821548461914,-0.5704185366630554,9.769539833068848,0.091552734375,0.06103515625,-0.213623046875
1.7424999,0.8750807046890259,-0.5692214369773865,9.773730278015137,0,0.152587890625,-0.457763671875
1.7474999000000002,0.871489405632019,-0.5662286877632141,9.770736694335938,0.091552734375,0.06103515625,-0.396728515625
1.7524999,0.871489405632019,-0.5668272376060486,9.773131370544434,0.06103515625,0,-0.18310546875
1.7574999000000002,0.8738836050033569,-0.5638344883918762,9.781511306762695,-0.06103515625,0.030517578125,-0.244140625
1.7624999000000001,0.8696937561035156,-0.5626373887062073,9.778518676757812,0.06103515625,-0.1220703125,-0.18310546875
1.7674999000000002,0.872686505317688,-0.5620388388633728,9.786299705505371,0.030517578125,0.06103515625,-0.18310546875
1.7724999000000001,0.8690952062606812,-0.5644330382347107,9.780912399291992,0.06103515625,-0.030517578125,-0.244140625
1.7774999000000002,0.8678981065750122,-0.5650315880775452,9.780313491821289,0.030517578125,-0.244140625,-0.152587890625
1.7824999000000001,0.871489405632019,-0.5668272376060486,9.783307075500488,0,0.030517578125,-0.244140625
1.7874999000000003,0.8708908557891846,-0.5650315880775452,9.776124000549316,0,-0.091552734375,-0.213623046875
1.7924999000000001,0.8816647529602051,-0.5626373887062073,9.775525093078613,0.06103515625,0.091552734375,-0.274658203125
1.7974999,0.871489405632019,-0.5638344883918762,9.773131370544434,-0.06103515625,0.030517578125,-0.18310546875
1.8024999000000002,0.8702923059463501,-0.5680243372917175,9.781511306762695,0,0.1220703125,-0.244140625
1.8074999,0.8631097078323364,-0.5692214369773865,9.7791166305542,-0.06103515625,0.091552734375,-0.152587890625
1.8124999000000002,0.8595184087753296,-0.568622887134552,9.783905029296875,0.030517578125,-0.06103515625,-0.244140625
1.8174999,0.862511157989502,-0.5674257874488831,9.787496566772461,-0.030517578125,0.091552734375,-0.244140625
1.8224999000000002,0.8619126081466675,-0.5632359385490417,9.77791976928711,-0.030517578125,-0.030517578125,-0.18310546875
1.8274999,0.8678981065750122,-0.5608417391777039,9.785700798034668,-0.030517578125,0.06103515625,-0.335693359375
1.8324999000000002,0.8684966564178467,-0.557250440120697,9.778518676757812,-0.030517578125,-0.030517578125,-0.244140625
1.8374999,0.871489405632019,-0.5560533404350281,9.77672290802002,-0.030517578125,-0.152587890625,-0.1220703125
1.8424999000000002,0.8738836050033569,-0.5608417391777039,9.764751434326172,-0.030517578125,-0.06103515625,-0.274658203125
1.8474999,0.8804676532745361,-0.5656301379203796,9.764751434326172,-0.030517578125,0,-0.30517578125
1.8524999000000002,0.8786720037460327,-0.5680243372917175,9.75936508178711,0,0.091552734375,-0.213623046875
1.8574999,0.8786720037460327,-0.5662286877632141,9.762955665588379,0,0.06103515625,-0.30517578125
1.8624999000000002,0.8792705535888672,-0.5662286877632141,9.770736694335938,0,0.18310546875,-0.244140625
1.8674999,0.8732850551605225,-0.5626373887062073,9.768342971801758,-0.06103515625,0,-0.244140625
1.8724999000000002,0.8768763542175293,-0.5620388388633728,9.7791166305542,-0.06103515625,0.18310546875,-0.30517578125
1.8774999,0.8762778043746948,-0.5608417391777039,9.776124000549316,0.06103515625,0.091552734375,-0.274658203125
1.8824999000000002,0.8756792545318604,-0.5602431893348694,9.774328231811523,0.06103515625,-0.06103515625,-0.30517578125
1.8874999000000001,0.8804676532745361,-0.5626373887062073,9.7791166305542,-0.06103515625,0.152587890625,-0.274658203125
1.8924999000000002,0.8744821548461914,-0.5620388388633728,9.771934509277344,0,0.1220703125,-0.091552734375
1.8974999000000001,0.8774749040603638,-0.5632359385490417,9.7791166305542,0.06103515625,0.091552734375,-0.152587890625
1.9024999000000002,0.8684966564178467,-0.5608417391777039,9.77672290802002,0.091552734375,-0.152587890625,-0.18310546875
1.9074999000000001,0.8720879554748535,-0.5590460896492004,9.780313491821289,0.030517578125,0.030517578125,-0.213623046875
1.9124999000000003,0.8690952062606812,-0.5566518902778625,9.773730278015137,-0.06103515625,-0.06103515625,-0.18310546875
1.9174999000000001,0.8786720037460327,-0.5554547905921936,9.781511306762695,0.091552734375,0,-0.244140625
1.9224999,0.8870517015457153,-0.5644330382347107,9.776124000549316,-0.091552734375,-0.06103515625,-0.152587890625
1.9274999000000002,0.8954314589500427,-0.5692214369773865,9.779715538024902,-0.06103515625,0.1220703125,-0.274658203125
1.9324999,0.8912416100502014,-0.5716156363487244,9.769539833068848,0.091552734375,0.030517578125,-0.18310546875
1.9374999000000002,0.8912416100502014,-0.5716156363487244,9.769539833068848,0.091552734375,0.030517578125,-0.18310546875
1.9424999,0.8936358094215393,-0.5722141861915588,9.774328231811523,0.091552734375,0.18310546875,-0.274658203125
1.9474999000000002,0.8846575021743774,-0.5704185366630554,9.774328231811523,0.091552734375,0.152587890625,-0.335693359375
1.9524999,0.8750807046890259,-0.5662286877632141,9.773131370544434,0.1220703125,0.152587890625,-0.30517578125
1.9574999000000002,0.8631097078323364,-0.5626373887062073,9.775525093078613,-0.06103515625,0.06103515625,-0.18310546875
1.9624999,0.8631097078323364,-0.5626373887062073,9.775525093078613,-0.06103515625,0.06103515625,-0.18310546875
1.9674999000000002,0.8643068075180054,-0.5644330382347107,9.780313491821289,-0.030517578125,-0.1220703125,-0.18310546875
1.9724999,0.861314058303833,-0.5650315880775452,9.782109260559082,0,-0.152587890625,-0.30517578125
1.9774999000000002,0.8631097078323364,-0.5644330382347107,9.77791976928711,0,-0.06103515625,-0.30517578125
1.9824999,0.8672995567321777,-0.5662286877632141,9.785101890563965,0,0.1220703125,-0.3662109375
1.9874999000000002,0.8661024570465088,-0.5638344883918762,9.776124000549316,0,0,-0.18310546875
1.9924999,0.872686505317688,-0.5680243372917175,9.782109260559082,-0.06103515625,0.091552734375,-0.274658203125
1.9974999000000002,0.8738836050033569,-0.5668272376060486,9.776124000549316,0.091552734375,0,-0.335693359375
2.0024999,0.8720879554748535,-0.5560533404350281,9.7791166305542,-0.06103515625,0,-0.152587890625
2.0074999,0.8720879554748535,-0.5560533404350281,9.7791166305542,-0.06103515625,0,-0.152587890625
2.0124999000000003,0.8637082576751709,-0.5542576909065247,9.777320861816406,0.030517578125,-0.091552734375,-0.213623046875
2.0174999000000002,0.8601169586181641,-0.5560533404350281,9.786299705505371,0.091552734375,-0.06103515625,-0.30517578125
2.0224999,0.8583213090896606,-0.5620388388633728,9.785700798034668,0.1220703125,-0.030517578125,-0.244140625
2.0274999,0.8565256595611572,-0.5674257874488831,9.782708168029785,0.06103515625,-0.1220703125,-0.091552734375
2.0324999000000004,0.8637082576751709,-0.5758054852485657,9.787496566772461,0.030517578125,0.1220703125,-0.244140625
2.0374999000000003,0.8655039072036743,-0.5793967843055725,9.777320861816406,0.091552734375,0.030517578125,-0.244140625
2.0424999,0.8756792545318604,-0.5817909836769104,9.782708168029785,-0.091552734375,-0.091552734375,-0.18310546875
2.0474999,0.8804676532745361,-0.5817909836769104,9.7791166305542,-0.030517578125,0,-0.244140625
2.0524999,0.8852560520172119,-0.5776011347770691,9.77791976928711,0,-0.06103515625,-0.244140625
2.0574999000000003,0.8690952062606812,-0.5650315880775452,9.774927139282227,0,0,-0.42724609375
2.0624999,0.8649053573608398,-0.5602431893348694,9.766547203063965,0.1220703125,-0.030517578125,-0.244140625
2.0674999,0.871489405632019,-0.5578489899635315,9.767744064331055,0.06103515625,0.18310546875,-0.274658203125
2.0724999,0.8708908557891846,-0.557250440120697,9.757569313049316,0,0.030517578125,-0.18310546875
2.0774999000000003,0.8762778043746948,-0.5590460896492004,9.761758804321289,0.091552734375,0.030517578125,-0.3662109375
2.0824999,0.8768763542175293,-0.5620388388633728,9.759963035583496,-0.06103515625,0,-0.213623046875
2.0874999,0.8798691034317017,-0.5626373887062073,9.773730278015137,-0.030517578125,0.091552734375,-0.18310546875
2.0924999,0.8750807046890259,-0.5614402890205383,9.768342971801758,0.06103515625,-0.06103515625,-0.274658203125
2.0974999000000003,0.8720879554748535,-0.5602431893348694,9.7791166305542,0.06103515625,0.030517578125,-0.244140625
2.1024999,0.8762778043746948,-0.5674257874488831,9.79527759552002,0,0.152587890625,-0.244140625
2.1074999,0.8762778043746948,-0.5674257874488831,9.79527759552002,0,0.152587890625,-0.244140625
2.1124999,0.8768763542175293,-0.5656301379203796,9.785101890563965,-0.091552734375,0.06103515625,-0.244140625
2.1174999000000003,0.8810662031173706,-0.5680243372917175,9.787496566772461,0.06103515625,0.091552734375,-0.30517578125
2.1224999,0.8822633028030396,-0.5680243372917175,9.780912399291992,0.030517578125,0.152587890625,-0.335693359375
2.1274999,0.8774749040603638,-0.568622887134552,9.770736694335938,0.091552734375,0.06103515625,-0.152587890625
2.1324999,0.8810662031173706,-0.5710170865058899,9.7791166305542,0,0.06103515625,-0.30517578125
2.1374999000000003,0.8738836050033569,-0.568622887134552,9.77133560180664,0.091552734375,-0.1220703125,-0.335693359375
2.1424999000000002,0.8744821548461914,-0.5668272376060486,9.77791976928711,-0.030517578125,0.030517578125,-0.18310546875
2.1474999,0.8750807046890259,-0.5644330382347107,9.7791166305542,-0.152587890625,0.06103515625,-0.335693359375
2.1524999,0.8750807046890259,-0.5626373887062073,9.776124000549316,0.030517578125,-0.06103515625,-0.244140625
2.1574999000000004,0.8792705535888672,-0.5632359385490417,9.77791976928711,0.030517578125,0.091552734375,-0.335693359375
2.1624999000000003,0.8541314601898193,-0.5608417391777039,9.771934509277344,-0.06103515625,0,-0.274658203125
2.1674999,0.8517372608184814,-0.5620388388633728,9.762357711791992,-0.030517578125,-0.030517578125,-0.244140625
2.1724999,0.8541314601898193,-0.5626373887062073,9.766547203063965,0.030517578125,-0.091552734375,-0.18310546875
2.1774999000000004,0.8607155084609985,-0.5650315880775452,9.77253246307373,0.030517578125,-0.030517578125,-0.18310546875
2.1824999000000003,0.8637082576751709,-0.5668272376060486,9.771934509277344,0.06103515625,-0.091552734375,-0.30517578125
2.1874999,0.8750807046890259,-0.5674257874488831,9.782109260559082,-0.030517578125,0,-0.274658203125
2.1924999,0.8780734539031982,-0.5668272376060486,9.777320861816406,0.06103515625,0.030517578125,-0.18310546875
2.1974999,0.8870517015457153,-0.5608417391777039,9.767744064331055,-0.06103515625,0.18310546875,-0.152587890625
2.2024999000000003,0.8804676532745361,-0.5566518902778625,9.75637149810791,-0.091552734375,0.091552734375,-0.213623046875
2.2074999,0.8780734539031982,-0.5602431893348694,9.7605619430542,-0.1220703125,0.06103515625,-0.30517578125
2.2124999,0.8672995567321777,-0.5608417391777039,9.759963035583496,0,0.152587890625,-0.213623046875
2.2174999,0.8601169586181641,-0.5620388388633728,9.7605619430542,0.030517578125,0.1220703125,-0.152587890625
2.2224999000000003,0.8589198589324951,-0.5614402890205383,9.764751434326172,0.06103515625,0.152587890625,-0.30517578125
2.2274999,0.8571242094039917,-0.5608417391777039,9.75936508178711,0.030517578125,0.091552734375,-0.18310546875
2.2324999,0.862511157989502,-0.5602431893348694,9.766547203063965,0.06103515625,0.091552734375,-0.18310546875
2.2374999,0.8661024570465088,-0.5626373887062073,9.766547203063965,0.030517578125,-0.030517578125,-0.3662109375
2.2424999000000003,0.8678981065750122,-0.5662286877632141,9.767744064331055,-0.091552734375,0.06103515625,-0.335693359375
2.2474999,0.8744821548461914,-0.569819986820221,9.77253246307373,-0.030517578125,0.030517578125,-0.274658203125
2.2524999,0.872686505317688,-0.5710170865058899,9.766547203063965,0.213623046875,-0.1220703125,-0.244140625
2.2574999,0.8750807046890259,-0.5674257874488831,9.774328231811523,-0.030517578125,-0.091552734375,-0.244140625
2.2624999000000003,0.8708908557891846,-0.5626373887062073,9.775525093078613,-0.091552734375,-0.1220703125,-0.335693359375
2.2674999000000002,0.8732850551605225,-0.5602431893348694,9.783307075500488,-0.091552734375,0.152587890625,-0.335693359375
2.2724999,0.8690952062606812,-0.5590460896492004,9.77133560180664,0.06103515625,0.152587890625,-0.244140625
2.2774999,0.8696937561035156,-0.558447539806366,9.774927139282227,0.152587890625,0,-0.213623046875
2.2824999000000004,0.8702923059463501,-0.558447539806366,9.77133560180664,0.091552734375,0.18310546875,-0.213623046875
2.2874999000000003,0.8672995567321777,-0.557250440120697,9.77013874053955,0,0.213623046875,-0.152587890625
2.2924999,0.8708908557891846,-0.5596446394920349,9.77791976928711,-0.030517578125,0.274658203125,-0.274658203125
2.2974999,0.8667010068893433,-0.5596446394920349,9.773730278015137,0,0.18310546875,-0.30517578125
2.3024999000000004,0.8661024570465088,-0.5614402890205383,9.77791976928711,0.06103515625,0,-0.152587890625
2.3074999000000003,0.8655039072036743,-0.5632359385490417,9.780313491821289,0.030517578125,0.030517578125,-0.244140625
2.3124999,0.8619126081466675,-0.5590460896492004,9.775525093078613,-0.1220703125,-0.1220703125,-0.244140625
2.3174999,0.8667010068893433,-0.5554547905921936,9.77133560180664,0.06103515625,-0.091552734375,-0.213623046875
2.3224999,0.8750807046890259,-0.5566518902778625,9.770736694335938,-0.06103515625,-0.091552734375,-0.335693359375
2.3274999000000003,0.8780734539031982,-0.5542576909065247,9.765948295593262,0.030517578125,-0.152587890625,-0.244140625
2.3324999,0.8810662031173706,-0.5548562407493591,9.776124000549316,0.152587890625,0.152587890625,-0.091552734375
2.3374999,0.8816647529602051,-0.5524620413780212,9.77253246307373,0.1220703125,0.213623046875,-0.1220703125
2.3424999,0.8810662031173706,-0.5524620413780212,9.780313491821289,-0.091552734375,0.213623046875,-0.213623046875
2.3474999000000003,0.8786720037460327,-0.5524620413780212,9.777320861816406,-0.030517578125,0.396728515625,-0.30517578125
2.3524999,0.8678981065750122,-0.5542576909065247,9.774328231811523,-0.1220703125,0.244140625,-0.30517578125
2.3574999,0.8649053573608398,-0.5560533404350281,9.77791976928711,0.030517578125,0.18310546875,-0.30517578125
2.3624999,0.8517372608184814,-0.5554547905921936,9.768941879272461,0.030517578125,0.091552734375,-0.18310546875
2.3674999000000003,0.8505401611328125,-0.5530605912208557,9.777320861816406,0.091552734375,0.1220703125,-0.18310546875
2.3724999,0.8415619134902954,-0.5482721924781799,9.7791166305542,0.091552734375,-0.1220703125,-0.1220703125
2.3774999,0.8457517623901367,-0.5536591410636902,9.788095474243164,0,0.030517578125,-0.18310546875
2.3824999,0.8445546627044678,-0.5596446394920349,9.785101890563965,-0.091552734375,0.030517578125,-0.213623046875
2.3874999000000003,0.8541314601898193,-0.5692214369773865,9.78869342803955,-0.030517578125,-0.1220703125,-0.152587890625
2.3924999000000002,0.8601169586181641,-0.5746083855628967,9.781511306762695,0,-0.030517578125,-0.18310546875
2.3974999,0.8690952062606812,-0.5770025849342346,9.77253246307373,-0.030517578125,-0.1220703125,-0.213623046875
2.4024999,0.8888474106788635,-0.5578489899635315,9.765948295593262,-0.091552734375,0.152587890625,-0.244140625
2.4074999000000004,0.882861852645874,-0.5530605912208557,9.765350341796875,0.091552734375,0.1220703125,-0.274658203125
2.4124999000000003,0.8816647529602051,-0.5542576909065247,9.774927139282227,0,0.335693359375,-0.213623046875
2.4174999,0.8649053573608398,-0.5542576909065247,9.781511306762695,0,0.1220703125,-0.18310546875
2.4224999,0.8541314601898193,-0.5578489899635315,9.782109260559082,-0.06103515625,0.152587890625,-0.18310546875
2.4274999000000004,0.8439561128616333,-0.5596446394920349,9.779715538024902,0.030517578125,-0.152587890625,-0.152587890625
2.4324999000000003,0.8451532125473022,-0.5650315880775452,9.781511306762695,0.06103515625,-0.091552734375,-0.152587890625
2.4374999,0.8439561128616333,-0.5632359385490417,9.773730278015137,0.030517578125,-0.06103515625,-0.06103515625
2.4424999,0.8547300100326538,-0.5644330382347107,9.773131370544434,-0.030517578125,-0.213623046875,-0.244140625
2.4474999,0.8637082576751709,-0.5632359385490417,9.769539833068848,-0.030517578125,-0.1220703125,-0.335693359375
2.4524999000000003,0.8702923059463501,-0.5638344883918762,9.764153480529785,0.1220703125,-0.3662109375,-0.213623046875
2.4574999,0.8804676532745361,-0.5662286877632141,9.769539833068848,0.06103515625,-0.091552734375,-0.18310546875
2.4624999,0.8792705535888672,-0.5668272376060486,9.767744064331055,-0.030517578125,0,-0.06103515625
2.4674999,0.8810662031173706,-0.5650315880775452,9.773730278015137,0.030517578125,-0.1220703125,-0.030517578125
2.4724999000000003,0.8661024570465088,-0.5596446394920349,9.770736694335938,0.030517578125,0.18310546875,-0.244140625
2.4774999,0.8631097078323364,-0.5620388388633728,9.77013874053955,-0.030517578125,0.152587890625,-0.18310546875
2.4824999,0.8487445116043091,-0.5638344883918762,9.759963035583496,0,0.030517578125,-0.152587890625
2.4874999,0.8505401611328125,-0.5638344883918762,9.767146110534668,0.030517578125,0.06103515625,-0.244140625
2.4924999000000003,0.8523358106613159,-0.5626373887062073,9.764751434326172,0.06103515625,-0.1220703125,-0.18310546875
2.4974999,0.862511157989502,-0.5626373887062073,9.773730278015137,-0.030517578125,-0.1220703125,-0.1220703125
2.5024999,0.8702923059463501,-0.5638344883918762,9.77013874053955,-0.1220703125,-0.030517578125,-0.213623046875
2.5074999,0.8768763542175293,-0.5650315880775452,9.767146110534668,0.030517578125,-0.152587890625,-0.213623046875
2.5124999000000003,0.8870517015457153,-0.5656301379203796,9.77133560180664,0.030517578125,-0.030517578125,-0.274658203125
2.5174999000000002,0.884058952331543,-0.5620388388633728,9.768342971801758,0.030517578125,-0.06103515625,-0.244140625
2.5224999,0.8804676532745361,-0.5632359385490417,9.773131370544434,0.030517578125,0.213623046875,-0.335693359375
2.5274999,0.8732850551605225,-0.5632359385490417,9.77013874053955,0.030517578125,0.274658203125,-0.213623046875
2.5324999000000004,0.8708908557891846,-0.5674257874488831,9.773730278015137,0,0.06103515625,-0.213623046875
2.5374999000000003,0.8708908557891846,-0.5674257874488831,9.773730278015137,0,0.06103515625,-0.213623046875
2.5424999,0.8667010068893433,-0.5644330382347107,9.770736694335938,-0.06103515625,0.152587890625,-0.335693359375
2.5474999,0.8649053573608398,-0.5638344883918762,9.77013874053955,0.030517578125,0,-0.335693359375
2.5524999000000004,0.8672995567321777,-0.5590460896492004,9.771934509277344,-0.030517578125,0.06103515625,-0.335693359375
2.5574999000000003,0.8637082576751709,-0.5566518902778625,9.764153480529785,-0.091552734375,-0.1220703125,-0.1220703125
2.5624999,0.862511157989502,-0.5578489899635315,9.767744064331055,-0.06103515625,-0.091552734375,-0.213623046875
2.5674999,0.8696937561035156,-0.5590460896492004,9.774927139282227,-0.06103515625,-0.091552734375,-0.091552734375
2.5724999,0.8762778043746948,-0.5614402890205383,9.779715538024902,-0.091552734375,0.06103515625,-0.18310546875
2.5774999000000003,0.8762778043746948,-0.5590460896492004,9.774328231811523,0.06103515625,0.091552734375,-0.30517578125
2.5824999,0.8774749040603638,-0.558447539806366,9.7791166305542,0.06103515625,0,-0.244140625
2.5874999,0.8792705535888672,-0.5566518902778625,9.7791166305542,0,0.244140625,-0.335693359375
2.5924999,0.8762778043746948,-0.5566518902778625,9.774927139282227,0.06103515625,0.091552734375,-0.244140625
2.5974999000000003,0.8780734539031982,-0.5566518902778625,9.77791976928711,0.06103515625,0.091552734375,-0.213623046875
2.6024999,0.872686505317688,-0.557250440120697,9.767744064331055,0.1220703125,-0.030517578125,-0.18310546875
2.6074999,0.871489405632019,-0.5590460896492004,9.768941879272461,0.152587890625,0.091552734375,-0.152587890625
2.6124999,0.8690952062606812,-0.5596446394920349,9.767146110534668,0,0.244140625,-0.244140625
2.6174999000000003,0.8696937561035156,-0.5644330382347107,9.770736694335938,-0.030517578125,0.06103515625,-0.18310546875
2.6224999,0.8643068075180054,-0.5656301379203796,9.767744064331055,0,-0.030517578125,-0.244140625
2.6274999,0.8678981065750122,-0.5668272376060486,9.778518676757812,0.030517578125,0,-0.3662109375
2.6324999,0.8690952062606812,-0.5662286877632141,9.778518676757812,-0.030517578125,0.030517578125,-0.3662109375
2.6374999000000003,0.8708908557891846,-0.5656301379203796,9.778518676757812,0,0.1220703125,-0.274658203125
2.6424999000000002,0.8786720037460327,-0.5668272376060486,9.7791166305542,-0.1220703125,0.18310546875,-0.3662109375
2.6474999,0.8792705535888672,-0.5680243372917175,9.768342971801758,0.030517578125,-0.18310546875,-0.274658203125
2.6524999,0.8834604024887085,-0.5644330382347107,9.773131370544434,0.1220703125,0.1220703125,-0.213623046875
2.6574999000000004,0.882861852645874,-0.5644330382347107,9.770736694335938,-0.06103515625,0.244140625,-0.42724609375
2.6624999000000003,0.8792705535888672,-0.5596446394920349,9.776124000549316,0,0.091552734375,-0.152587890625
2.6674999,0.8810662031173706,-0.5596446394920349,9.777320861816406,0.030517578125,0.06103515625,-0.1220703125
2.6724999,0.8720879554748535,-0.5596446394920349,9.770736694335938,0.030517578125,0.030517578125,-0.091552734375
2.6774999000000004,0.8678981065750122,-0.5644330382347107,9.762955665588379,0.030517578125,-0.091552734375,-0.30517578125
2.6824999000000003,0.8667010068893433,-0.5668272376060486,9.758766174316406,0.030517578125,-0.06103515625,-0.18310546875
2.6874999,0.8661024570465088,-0.568622887134552,9.764153480529785,0.06103515625,0.091552734375,-0.244140625
2.6924999,0.8619126081466675,-0.5680243372917175,9.761159896850586,0.06103515625,-0.091552734375,-0.274658203125
2.6974999,0.8649053573608398,-0.5650315880775452,9.773730278015137,-0.06103515625,0,-0.274658203125
2.7024999000000003,0.8637082576751709,-0.5626373887062073,9.77672290802002,0.1220703125,0.091552734375,-0.213623046875
2.7074999,0.8672995567321777,-0.5608417391777039,9.782109260559082,0.06103515625,-0.06103515625,-0.213623046875
2.7124999,0.8738836050033569,-0.5596446394920349,9.786897659301758,-0.06103515625,0.030517578125,-0.274658203125
2.7174999,0.8738836050033569,-0.5626373887062073,9.777320861816406,0.091552734375,0,-0.18310546875
2.7224999000000003,0.8834604024887085,-0.5644330382347107,9.782708168029785,0.152587890625,0.1220703125,-0.152587890625
2.7274999,0.8792705535888672,-0.5668272376060486,9.774328231811523,0.030517578125,0.091552734375,-0.244140625
2.7324999,0.8774749040603638,-0.5674257874488831,9.77672290802002,0.06103515625,0.091552734375,-0.274658203125
2.7374999,0.8678981065750122,-0.5662286877632141,9.77253246307373,0.030517578125,0.06103515625,-0.06103515625
2.7424999000000003,0.8684966564178467,-0.5650315880775452,9.77672290802002,0.030517578125,0.091552734375,-0.213623046875
2.7474999,0.862511157989502,-0.5626373887062073,9.769539833068848,-0.030517578125,0,-0.30517578125
2.7524999,0.862511157989502,-0.5608417391777039,9.77133560180664,0.06103515625,-0.091552734375,-0.30517578125
2.7574999,0.8661024570465088,-0.558447539806366,9.767146110534668,0.091552734375,0.030517578125,-0.244140625
2.7624999000000003,0.8649053573608398,-0.5578489899635315,9.762357711791992,0.06103515625,-0.152587890625,-0.152587890625
2.7674999000000002,0.872686505317688,-0.5620388388633728,9.767744064331055,0,-0.030517578125,-0.244140625
2.7724999,0.8684966564178467,-0.5632359385490417,9.764153480529785,0.091552734375,0,-0.274658203125
2.7774999,0.8684966564178467,-0.5668272376060486,9.768342971801758,-0.06103515625,-0.1220703125,-0.335693359375
2.7824999000000004,0.8696937561035156,-0.5692214369773865,9.773131370544434,-0.030517578125,0,-0.213623046875
2.7874999000000003,0.8684966564178467,-0.568622887134552,9.765350341796875,0,-0.030517578125,-0.030517578125
2.7924999,0.872686505317688,-0.5674257874488831,9.771934509277344,0.152587890625,0.06103515625,-0.213623046875
2.7974999,0.8702923059463501,-0.5644330382347107,9.768941879272461,0,0.030517578125,-0.18310546875
2.8024999000000004,0.8589198589324951,-0.5644330382347107,9.771934509277344,0.091552734375,-0.030517578125,-0.213623046875
2.8074999000000003,0.8553285598754883,-0.5638344883918762,9.766547203063965,-0.1220703125,-0.06103515625,-0.1220703125
2.8124999,0.8559271097183228,-0.5602431893348694,9.768342971801758,0.030517578125,-0.213623046875,-0.152587890625
2.8174999,0.862511157989502,-0.5602431893348694,9.776124000549316,0.030517578125,0.030517578125,-0.30517578125
2.8224999,0.8649053573608398,-0.557250440120697,9.768941879272461,0,0,-0.213623046875
2.8274999000000003,0.8750807046890259,-0.5566518902778625,9.77791976928711,-0.030517578125,0,-0.274658203125
2.8324999,0.8762778043746948,-0.5548562407493591,9.77253246307373,0.030517578125,-0.091552734375,-0.274658203125
2.8374999,0.8768763542175293,-0.5542576909065247,9.77133560180664,0.1220703125,0.06103515625,-0.152587890625
2.8424999,0.8786720037460327,-0.558447539806366,9.777320861816406,-0.030517578125,0.30517578125,-0.42724609375
2.8474999000000003,0.8744821548461914,-0.5596446394920349,9.7791166305542,-0.030517578125,0.06103515625,-0.152587890625
2.8524999,0.8732850551605225,-0.5578489899635315,9.777320861816406,-0.030517578125,0.091552734375,-0.213623046875
2.8574999,0.8762778043746948,-0.5596446394920349,9.781511306762695,-0.030517578125,0.152587890625,-0.30517578125
2.8624999,0.8690952062606812,-0.5578489899635315,9.775525093078613,0.06103515625,0.06103515625,-0.18310546875
2.8674999000000003,0.8720879554748535,-0.5590460896492004,9.781511306762695,0.06103515625,-0.030517578125,-0.244140625
2.8724999,0.8702923059463501,-0.5596446394920349,9.774328231811523,0.06103515625,-0.030517578125,-0.244140625
2.8774999,0.8690952062606812,-0.5608417391777039,9.77253246307373,-0.1220703125,-0.1220703125,-0.213623046875
2.8824999,0.8750807046890259,-0.5644330382347107,9.774927139282227,-0.06103515625,0.091552734375,-0.244140625
2.8874999000000003,0.8702923059463501,-0.5662286877632141,9.767146110534668,-0.030517578125,-0.030517578125,-0.274658203125
2.8924999000000002,0.8762778043746948,-0.5680243372917175,9.773131370544434,0,0.030517578125,-0.274658203125
2.8974999,0.8762778043746948,-0.5662286877632141,9.77133560180664,0.030517578125,-0.030517578125,-0.213623046875
2.9024999,0.884058952331543,-0.5626373887062073,9.77672290802002,-0.091552734375,0.1220703125,-0.152587890625
2.9074999000000004,0.8816647529602051,-0.5638344883918762,9.770736694335938,0.152587890625,0,-0.06103515625
2.9124999000000003,0.8804676532745361,-0.5644330382347107,9.782109260559082,-0.030517578125,0.152587890625,-0.274658203125
2.9174999,0.8744821548461914,-0.5668272376060486,9.778518676757812,0,0.091552734375,-0.274658203125
2.9224999,0.8678981065750122,-0.5680243372917175,9.780313491821289,-0.030517578125,0,-0.244140625
2.9274999000000004,0.8667010068893433,-0.568622887134552,9.781511306762695,0.06103515625,0.213623046875,-0.30517578125
2.9324999000000003,0.8571242094039917,-0.5668272376060486,9.77253246307373,0.091552734375,0.030517578125,-0.274658203125
2.9374999,0.8589198589324951,-0.5650315880775452,9.77791976928711,-0.091552734375,0.030517578125,-0.18310546875
2.9424999,0.8583213090896606,-0.5608417391777039,9.773730278015137,0,0.06103515625,-0.244140625
2.9474999,0.861314058303833,-0.5560533404350281,9.77253246307373,0.030517578125,0.06103515625,-0.244140625
2.9524999000000003,0.8708908557891846,-0.5542576909065247,9.778518676757812,0.18310546875,-0.06103515625,-0.213623046875
2.9574999,0.8768763542175293,-0.5644330382347107,9.77133560180664,-0.030517578125,-0.030517578125,-0.274658203125
2.9624999,0.8810662031173706,-0.5662286877632141,9.769539833068848,0.06103515625,0,-0.152587890625
2.9674999,0.8852560520172119,-0.5668272376060486,9.774927139282227,-0.030517578125,0.1220703125,-0.274658203125
2.9724999000000003,0.8834604024887085,-0.5644330382347107,9.765948295593262,0.091552734375,-0.06103515625,-0.30517578125
2.9774999,0.884058952331543,-0.5620388388633728,9.774328231811523,0.1220703125,0.213623046875,-0.335693359375
2.9824999,0.8774749040603638,-0.5620388388633728,9.770736694335938,0,0.18310546875,-0.18310546875
2.9874999,0.8702923059463501,-0.5614402890205383,9.774328231811523,0.030517578125,0.244140625,-0.213623046875
2.9924999000000003,0.8649053573608398,-0.5620388388633728,9.780313491821289,0.06103515625,0.396728515625,-0.335693359375
2.9974999,0.8547300100326538,-0.5608417391777039,9.773730278015137,0,-0.030517578125,-0.244140625
3.0024999,0.8553285598754883,-0.5602431893348694,9.784503936767578,0.030517578125,0.030517578125,-0.30517578125
3.0074999,0.8529343605041504,-0.5608417391777039,9.779715538024902,0.06103515625,-0.030517578125,-0.244140625
3.0124999000000003,0.8643068075180054,-0.5650315880775452,9.785700798034668,0.030517578125,0.213623046875,-0.30517578125
3.0174999000000002,0.8655039072036743,-0.5662286877632141,9.777320861816406,-0.030517578125,-0.091552734375,-0.244140625
3.0224999,0.8744821548461914,-0.5662286877632141,9.779715538024902,0.06103515625,-0.1220703125,-0.1220703125
3.0274999,0.8774749040603638,-0.5668272376060486,9.770736694335938,-0.1220703125,0.030517578125,-0.152587890625
3.0324999000000004,0.8834604024887085,-0.5674257874488831,9.765948295593262,0.030517578125,-0.030517578125,-0.274658203125
3.0374999000000003,0.889445960521698,-0.568622887134552,9.768941879272461,-0.06103515625,0.244140625,-0.213623046875
3.0424999,0.8870517015457153,-0.5692214369773865,9.762955665588379,-0.06103515625,-0.06103515625,-0.18310546875
3.0474999,0.8858546018600464,-0.5692214369773865,9.77672290802002,-0.06103515625,0.152587890625,-0.244140625
3.0524999000000004,0.8750807046890259,-0.5668272376060486,9.776124000549316,0,0.213623046875,-0.244140625
3.0574999000000003,0.8702923059463501,-0.5662286877632141,9.781511306762695,-0.06103515625,0.091552734375,-0.3662109375
3.0624999,0.8637082576751709,-0.5656301379203796,9.784503936767578,-0.030517578125,0.152587890625,-0.457763671875
3.0674999,0.8559271097183228,-0.5668272376060486,9.77791976928711,0,0.091552734375,-0.1220703125
3.0724999000000004,0.8535329103469849,-0.5680243372917175,9.777320861816406,0.030517578125,-0.030517578125,-0.335693359375
3.0774999000000003,0.8535329103469849,-0.5680243372917175,9.782708168029785,0.06103515625,-0.091552734375,-0.244140625
3.0824999,0.8589198589324951,-0.5674257874488831,9.782109260559082,0.030517578125,-0.06103515625,-0.42724609375
3.0874999,0.8589198589324951,-0.5668272376060486,9.77791976928711,-0.030517578125,-0.1220703125,-0.274658203125
3.0924999,0.8720879554748535,-0.5656301379203796,9.783905029296875,-0.1220703125,0,-0.18310546875
3.0974999000000003,0.8762778043746948,-0.5638344883918762,9.776124000549316,-0.091552734375,0.030517578125,-0.18310546875
3.1024999,0.882861852645874,-0.5608417391777039,9.779715538024902,0,-0.1220703125,-0.152587890625
3.1074999,0.884058952331543,-0.5596446394920349,9.778518676757812,-0.06103515625,0,-0.335693359375
3.1124999,0.8798691034317017,-0.5596446394920349,9.776124000549316,0,0.06103515625,-0.274658203125
3.1174999000000003,0.882861852645874,-0.5602431893348694,9.777320861816406,0,0.274658203125,-0.335693359375
3.1224999,0.8768763542175293,-0.5614402890205383,9.769539833068848,0.030517578125,0.1220703125,-0.244140625
3.1274999,0.8792705535888672,-0.5638344883918762,9.77253246307373,-0.030517578125,0.213623046875,-0.213623046875
3.1324999,0.8553285598754883,-0.5548562407493591,9.765948295593262,0.091552734375,-0.06103515625,-0.274658203125
3.1374999000000003,0.8607155084609985,-0.5536591410636902,9.768342971801758,0.030517578125,0.030517578125,-0.335693359375
3.1424999000000002,0.8619126081466675,-0.5518634915351868,9.764153480529785,-0.030517578125,0,-0.213623046875
3.1474999,0.8690952062606812,-0.5524620413780212,9.758766174316406,-0.030517578125,-0.091552734375,-0.244140625
3.1524999,0.8792705535888672,-0.5566518902778625,9.764153480529785,0.06103515625,0,-0.18310546875
3.1574999000000004,0.882861852645874,-0.5560533404350281,9.757569313049316,0.06103515625,-0.091552734375,-0.1220703125
3.1624999000000003,0.8876502513885498,-0.5608417391777039,9.765948295593262,0.030517578125,-0.06103515625,-0.1220703125
3.1674999,0.889445960521698,-0.5626373887062073,9.762357711791992,0.1220703125,-0.1220703125,-0.274658203125
3.1724999,0.8876502513885498,-0.5632359385490417,9.766547203063965,0,-0.030517578125,-0.274658203125
3.1774999000000004,0.8864531517028809,-0.5656301379203796,9.765948295593262,0.030517578125,0.152587890625,-0.213623046875
3.1824999000000003,0.8810662031173706,-0.5662286877632141,9.775525093078613,-0.030517578125,0.091552734375,-0.18310546875
3.1874999,0.8756792545318604,-0.5662286877632141,9.776124000549316,0,0.1220703125,-0.213623046875
3.1924999,0.8756792545318604,-0.5620388388633728,9.782708168029785,0.091552734375,0.152587890625,-0.274658203125
3.1974999000000004,0.8756792545318604,-0.5620388388633728,9.782708168029785,0.091552734375,0.152587890625,-0.274658203125
3.2024999000000003,0.8649053573608398,-0.5608417391777039,9.774328231811523,-0.030517578125,0.06103515625,-0.274658203125
3.2074999,0.8649053573608398,-0.5608417391777039,9.774328231811523,-0.030517578125,0.06103515625,-0.274658203125
3.2124999,0.8577227592468262,-0.5620388388633728,9.768342971801758,-0.091552734375,-0.06103515625,-0.152587890625
3.2174999,0.8583213090896606,-0.568622887134552,9.769539833068848,-0.030517578125,0,-0.244140625
3.2224999000000003,0.8553285598754883,-0.5692214369773865,9.768342971801758,-0.06103515625,0.152587890625,-0.213623046875
3.2274999,0.8595184087753296,-0.5674257874488831,9.768342971801758,0.091552734375,-0.030517578125,-0.213623046875
3.2324999,0.8643068075180054,-0.5668272376060486,9.773131370544434,0.06103515625,-0.030517578125,-0.335693359375
3.2374999,0.8798691034317017,-0.5650315880775452,9.77791976928711,0.06103515625,0.091552734375,-0.244140625
3.2424999000000003,0.8846575021743774,-0.5662286877632141,9.775525093078613,0.030517578125,0.18310546875,-0.274658203125
3.2474999,0.8804676532745361,-0.5650315880775452,9.77672290802002,0.091552734375,0.091552734375,-0.213623046875
3.2524999,0.8792705535888672,-0.5650315880775452,9.778518676757812,-0.030517578125,0.18310546875,-0.244140625
3.2574999,0.8708908557891846,-0.5644330382347107,9.774927139282227,0.152587890625,0.06103515625,-0.18310546875
3.2624999000000003,0.8702923059463501,-0.5656301379203796,9.780313491821289,0.030517578125,0.030517578125,-0.213623046875
3.2674999000000002,0.8696937561035156,-0.5662286877632141,9.7791166305542,0.030517578125,0.1220703125,-0.30517578125
3.2724999,0.8696937561035156,-0.5680243372917175,9.77791976928711,0.030517578125,-0.06103515625,-0.18310546875
3.2774999,0.8732850551605225,-0.5662286877632141,9.779715538024902,-0.06103515625,-0.152587890625,0.091552734375
3.2824999000000004,0.8684966564178467,-0.5668272376060486,9.770736694335938,0,0,-0.18310546875
3.2874999000000003,0.8678981065750122,-0.5644330382347107,9.769539833068848,-0.091552734375,-0.06103515625,-0.30517578125
3.2924999,0.8678981065750122,-0.5644330382347107,9.769539833068848,-0.091552734375,-0.06103515625,-0.30517578125
3.2974999,0.8702923059463501,-0.5656301379203796,9.773730278015137,-0.06103515625,-0.091552734375,-0.213623046875
3.3024999000000004,0.8756792545318604,-0.5662286877632141,9.780313491821289,0,0.06103515625,-0.152587890625
3.3074999000000003,0.8768763542175293,-0.5668272376060486,9.778518676757812,0.06103515625,-0.091552734375,-0.18310546875
3.3124999,0.8816647529602051,-0.5668272376060486,9.786299705505371,0.1220703125,0,-0.335693359375
3.3174999,0.8816647529602051,-0.5650315880775452,9.77791976928711,-0.030517578125,0.091552734375,-0.30517578125
3.3224999000000004,0.8822633028030396,-0.5602431893348694,9.77672290802002,-0.030517578125,-0.152587890625,-0.274658203125
3.3274999000000003,0.8816647529602051,-0.5554547905921936,9.771934509277344,-0.1220703125,0.152587890625,-0.335693359375
3.3324999,0.8750807046890259,-0.5506663918495178,9.764153480529785,0.030517578125,0.152587890625,-0.244140625
3.3374999,0.8720879554748535,-0.5506663918495178,9.767146110534668,0,0.18310546875,-0.244140625
3.3424999,0.8637082576751709,-0.5494692921638489,9.763554573059082,-0.06103515625,0.06103515625,-0.18310546875
3.3474999000000003,0.862511157989502,-0.5530605912208557,9.767146110534668,0,0.18310546875,-0.30517578125
3.3524999,0.8619126081466675,-0.5512649416923523,9.771934509277344,0.030517578125,-0.030517578125,-0.244140625
3.3574999,0.8619126081466675,-0.5512649416923523,9.771934509277344,0.030517578125,-0.030517578125,-0.244140625
3.3624999,0.8655039072036743,-0.5506663918495178,9.773730278015137,0.152587890625,-0.06103515625,-0.152587890625
3.3674999000000003,0.8720879554748535,-0.5524620413780212,9.77013874053955,0.152587890625,0.030517578125,-0.152587890625
3.3724999,0.8732850551605225,-0.5530605912208557,9.767146110534668,0,-0.06103515625,-0.213623046875
3.3774999,0.882861852645874,-0.5566518902778625,9.773131370544434,0.030517578125,0,-0.30517578125
3.3824999,0.8804676532745361,-0.557250440120697,9.769539833068848,0,0.1220703125,-0.152587890625
3.3874999000000003,0.884058952331543,-0.5590460896492004,9.776124000549316,-0.06103515625,0.213623046875,-0.274658203125
3.3924999000000002,0.8810662031173706,-0.5608417391777039,9.77013874053955,-0.06103515625,0.244140625,-0.30517578125
3.3974999,0.8786720037460327,-0.5620388388633728,9.765350341796875,0.06103515625,0.06103515625,-0.244140625
3.4024999,0.8720879554748535,-0.5614402890205383,9.757569313049316,0.06103515625,-0.06103515625,-0.213623046875
3.4074999000000004,0.8720879554748535,-0.5620388388633728,9.77013874053955,0.030517578125,-0.030517578125,-0.18310546875
3.4124999000000003,0.8684966564178467,-0.5602431893348694,9.767146110534668,-0.030517578125,0.030517578125,-0.30517578125
3.4174999,0.8684966564178467,-0.5596446394920349,9.774927139282227,0.06103515625,-0.030517578125,-0.3662109375
3.4224999,0.8696937561035156,-0.5566518902778625,9.786897659301758,0,-0.030517578125,-0.274658203125
3.4274999000000004,0.8637082576751709,-0.5524620413780212,9.785700798034668,0.030517578125,-0.18310546875,-0.152587890625
3.4324999000000003,0.8690952062606812,-0.5512649416923523,9.79408073425293,0.030517578125,-0.030517578125,-0.274658203125
3.4374999,0.8661024570465088,-0.5518634915351868,9.788095474243164,0.030517578125,0.06103515625,-0.335693359375
3.4424999,0.8702923059463501,-0.5566518902778625,9.780912399291992,0.06103515625,0,-0.30517578125
3.4474999000000004,0.8744821548461914,-0.5614402890205383,9.775525093078613,-0.030517578125,0.244140625,-0.244140625
3.4524999000000003,0.872686505317688,-0.5656301379203796,9.764751434326172,0.091552734375,0.06103515625,-0.18310546875
3.4574999,0.8738836050033569,-0.568622887134552,9.766547203063965,0,0.213623046875,-0.244140625
3.4624999,0.8523358106613159,-0.5740098357200623,9.75517463684082,-0.030517578125,0.152587890625,-0.274658203125
3.4674999,0.851138710975647,-0.5710170865058899,9.762357711791992,0,0.06103515625,-0.213623046875
3.4724999000000003,0.849941611289978,-0.5656301379203796,9.758766174316406,0,-0.06103515625,-0.213623046875
3.4774999,0.8535329103469849,-0.5644330382347107,9.768941879272461,0.030517578125,0.030517578125,-0.1220703125
3.4824999,0.8583213090896606,-0.5638344883918762,9.773131370544434,0.091552734375,0.1220703125,-0.18310546875
3.4874999,0.8595184087753296,-0.5626373887062073,9.771934509277344,0.1220703125,-0.091552734375,-0.213623046875
3.4924999000000003,0.8649053573608398,-0.5656301379203796,9.77791976928711,0,0,-0.3662109375
3.4974999,0.8631097078323364,-0.5632359385490417,9.769539833068848,0.06103515625,0.06103515625,-0.244140625
3.5024999,0.8643068075180054,-0.5638344883918762,9.77253246307373,0.06103515625,0.030517578125,-0.213623046875
3.5074999,0.8643068075180054,-0.5614402890205383,9.767146110534668,-0.030517578125,0.152587890625,-0.396728515625
3.5124999000000003,0.871489405632019,-0.5566518902778625,9.769539833068848,0,0,-0.3662109375
3.5174999000000002,0.871489405632019,-0.5548562407493591,9.764153480529785,-0.06103515625,-0.030517578125,-0.3662109375
3.5224999,0.8768763542175293,-0.557250440120697,9.768941879272461,-0.091552734375,0.030517578125,-0.18310546875
3.5274999,0.8774749040603638,-0.5578489899635315,9.768941879272461,-0.06103515625,0.06103515625,-0.244140625
3.5324999000000004,0.8756792545318604,-0.5608417391777039,9.767744064331055,-0.030517578125,0,-0.18310546875
3.5374999000000003,0.8804676532745361,-0.5644330382347107,9.774328231811523,0.06103515625,0.091552734375,-0.396728515625
3.5424999,0.8780734539031982,-0.5662286877632141,9.770736694335938,0.091552734375,-0.06103515625,-0.3662109375
3.5474999,0.8822633028030396,-0.5668272376060486,9.774927139282227,0,0,-0.18310546875
3.5524999000000004,0.8810662031173706,-0.5662286877632141,9.769539833068848,0,0,-0.30517578125
3.5574999000000003,0.8792705535888672,-0.5608417391777039,9.767146110534668,0.091552734375,0.06103515625,-0.213623046875
3.5624999,0.8774749040603638,-0.5608417391777039,9.77013874053955,0.1220703125,0.091552734375,-0.30517578125
3.5674999,0.8720879554748535,-0.558447539806366,9.767146110534668,0.06103515625,-0.1220703125,-0.244140625
3.5724999000000004,0.8732850551605225,-0.5626373887062073,9.77253246307373,0.06103515625,0,-0.18310546875
3.5774999000000003,0.8762778043746948,-0.5614402890205383,9.77253246307373,0,0.030517578125,-0.274658203125
3.5824999,0.8822633028030396,-0.5602431893348694,9.768342971801758,-0.030517578125,0.244140625,-0.335693359375
3.5874999,0.8774749040603638,-0.5548562407493591,9.765948295593262,-0.030517578125,0.152587890625,-0.18310546875
3.5924999,0.8780734539031982,-0.5536591410636902,9.77253246307373,0.091552734375,0.06103515625,-0.30517578125
3.5974999000000003,0.8702923059463501,-0.5488707423210144,9.774927139282227,0.091552734375,0.06103515625,-0.213623046875
3.6024999,0.8643068075180054,-0.5488707423210144,9.785101890563965,0.152587890625,-0.1220703125,-0.244140625
3.6074999,0.862511157989502,-0.5494692921638489,9.786299705505371,0.030517578125,0.06103515625,-0.335693359375
3.6124999,0.8577227592468262,-0.5506663918495178,9.785700798034668,0.06103515625,-0.06103515625,-0.42724609375
3.6174999000000003,0.8619126081466675,-0.5554547905921936,9.787496566772461,0.06103515625,-0.152587890625,-0.335693359375
3.6224999,0.8619126081466675,-0.557250440120697,9.774927139282227,0.06103515625,-0.06103515625,-0.06103515625
3.6274999,0.8702923059463501,-0.5614402890205383,9.773131370544434,0,-0.030517578125,-0.244140625
3.6324999,0.8888474106788635,-0.5668272376060486,9.775525093078613,-0.06103515625,0.1220703125,-0.335693359375
3.6374999000000003,0.8888474106788635,-0.5680243372917175,9.77013874053955,-0.030517578125,0.06103515625,-0.18310546875
3.6424999000000002,0.8906430602073669,-0.5662286877632141,9.774328231811523,-0.06103515625,0.213623046875,-0.274658203125
3.6474999,0.8864531517028809,-0.5644330382347107,9.770736694335938,-0.1220703125,0.213623046875,-0.244140625
3.6524999,0.8756792545318604,-0.5632359385490417,9.765350341796875,0.1220703125,0,-0.18310546875
3.6574999000000004,0.8690952062606812,-0.5626373887062073,9.770736694335938,-0.030517578125,0.1220703125,-0.213623046875
3.6624999000000003,0.8559271097183228,-0.5608417391777039,9.764153480529785,-0.030517578125,-0.091552734375,-0.213623046875
3.6674999,0.8553285598754883,-0.5620388388633728,9.773730278015137,0,-0.030517578125,-0.30517578125
3.6724999,0.8547300100326538,-0.5614402890205383,9.773131370544434,0.030517578125,0.152587890625,-0.213623046875
3.6774999000000004,0.8565256595611572,-0.5596446394920349,9.779715538024902,0.06103515625,-0.091552734375,-0.152587890625
3.6824999000000003,0.8649053573608398,-0.5626373887062073,9.782708168029785,-0.091552734375,0,-0.18310546875
3.6874999,0.8655039072036743,-0.5614402890205383,9.777320861816406,-0.06103515625,0,-0.244140625
3.6924999,0.8702923059463501,-0.5650315880775452,9.779715538024902,0.030517578125,0,-0.213623046875
3.6974999000000004,0.8678981065750122,-0.5692214369773865,9.770736694335938,0,0,-0.244140625
3.7024999000000003,0.8672995567321777,-0.5710170865058899,9.768342971801758,0.06103515625,0,-0.18310546875
3.7074999,0.8690952062606812,-0.5728127360343933,9.77013874053955,0.06103515625,0.152587890625,-0.152587890625
3.7124999,0.8667010068893433,-0.568622887134552,9.764751434326172,0.06103515625,0.18310546875,-0.30517578125
3.7174999,0.8702923059463501,-0.5662286877632141,9.775525093078613,-0.06103515625,0.244140625,-0.335693359375
3.7224999000000003,0.8684966564178467,-0.5602431893348694,9.774328231811523,0,0.152587890625,-0.244140625
3.7274999,0.8684966564178467,-0.5578489899635315,9.777320861816406,0,0.1220703125,-0.213623046875
3.7324999,0.8708908557891846,-0.558447539806366,9.776124000549316,-0.030517578125,0.06103515625,-0.213623046875
3.7374999,0.8667010068893433,-0.5590460896492004,9.769539833068848,-0.030517578125,0.030517578125,-0.06103515625
3.7424999000000003,0.8732850551605225,-0.5632359385490417,9.77133560180664,0,-0.06103515625,-0.213623046875
3.7474999,0.8678981065750122,-0.5668272376060486,9.764751434326172,0.06103515625,-0.091552734375,-0.3662109375
3.7524999,0.871489405632019,-0.568622887134552,9.767744064331055,0.06103515625,0,-0.274658203125
3.7574999,0.8702923059463501,-0.5704185366630554,9.77013874053955,0.06103515625,-0.030517578125,-0.18310546875
3.7624999000000003,0.8708908557891846,-0.5728127360343933,9.777320861816406,0,0.06103515625,-0.335693359375
3.7674999000000002,0.8720879554748535,-0.5722141861915588,9.774328231811523,0.030517578125,0.06103515625,-0.244140625
3.7724999,0.8774749040603638,-0.5722141861915588,9.779715538024902,0.091552734375,0.091552734375,-0.213623046875
3.7774999,0.8804676532745361,-0.5692214369773865,9.777320861816406,-0.06103515625,0.06103515625,-0.30517578125
3.7824999000000004,0.8786720037460327,-0.5644330382347107,9.776124000549316,-0.06103515625,0,-0.06103515625
3.7874999000000003,0.8798691034317017,-0.5608417391777039,9.781511306762695,0,0.18310546875,-0.18310546875
3.7924999,0.8738836050033569,-0.5542576909065247,9.77253246307373,0.1220703125,0.06103515625,-0.213623046875
3.7974999,0.8750807046890259,-0.5512649416923523,9.776124000549316,0.091552734375,0.030517578125,-0.30517578125
3.8024999000000004,0.8738836050033569,-0.5524620413780212,9.768342971801758,0,0.152587890625,-0.244140625
3.8074999000000003,0.8684966564178467,-0.5548562407493591,9.765350341796875,-0.06103515625,0.030517578125,-0.1220703125
3.8124999,0.8667010068893433,-0.5620388388633728,9.765350341796875,0.030517578125,0.030517578125,-0.091552734375
3.8174999,0.871489405632019,-0.5614402890205383,9.773730278015137,-0.030517578125,0.091552734375,-0.30517578125
3.8224999000000004,0.8774749040603638,-0.5662286877632141,9.77013874053955,0.030517578125,-0.06103515625,-0.274658203125
3.8274999000000003,0.8816647529602051,-0.568622887134552,9.77253246307373,0.030517578125,-0.1220703125,-0.274658203125
3.8324999,0.8876502513885498,-0.5692214369773865,9.773730278015137,0.030517578125,0.152587890625,-0.3662109375
3.8374999,0.8870517015457153,-0.5692214369773865,9.767744064331055,0.030517578125,-0.091552734375,-0.274658203125
3.8424999,0.8888474106788635,-0.5644330382347107,9.77133560180664,-0.030517578125,0.152587890625,-0.152587890625
3.8474999000000003,0.8846575021743774,-0.5614402890205383,9.763554573059082,0,0.152587890625,-0.18310546875
3.8524999,0.8804676532745361,-0.5590460896492004,9.768342971801758,-0.06103515625,-0.030517578125,-0.213623046875
3.8574999,0.8744821548461914,-0.5608417391777039,9.769539833068848,-0.030517578125,0.091552734375,-0.274658203125
3.8624999,0.8661024570465088,-0.5620388388633728,9.767744064331055,0.091552734375,0.06103515625,-0.18310546875
3.8674999000000003,0.8643068075180054,-0.5692214369773865,9.769539833068848,0.030517578125,-0.1220703125,-0.213623046875
3.8724999,0.8690952062606812,-0.569819986820221,9.767146110534668,0.030517578125,0.06103515625,-0.274658203125
3.8774999,0.8667010068893433,-0.569819986820221,9.765350341796875,-0.06103515625,-0.06103515625,-0.274658203125
3.8824999,0.8732850551605225,-0.5680243372917175,9.770736694335938,0.030517578125,0.1220703125,-0.30517578125
3.8874999000000003,0.8667010068893433,-0.5650315880775452,9.765350341796875,0,0.030517578125,-0.213623046875
3.8924999000000002,0.8672995567321777,-0.5638344883918762,9.77133560180664,0.06103515625,-0.06103515625,-0.1220703125
3.8974999,0.8667010068893433,-0.5638344883918762,9.768342971801758,0.091552734375,-0.091552734375,-0.244140625
3.9024999,0.8661024570465088,-0.5644330382347107,9.764751434326172,-0.030517578125,-0.152587890625,-0.244140625
3.9074999000000004,0.871489405632019,-0.5680243372917175,9.770736694335938,0.091552734375,0.06103515625,-0.152587890625
3.9124999000000003,0.8696937561035156,-0.5680243372917175,9.764153480529785,-0.030517578125,-0.1220703125,-0.18310546875
3.9174999,0.8750807046890259,-0.5656301379203796,9.773131370544434,0,0.030517578125,-0.335693359375
3.9224999,0.8762778043746948,-0.5632359385490417,9.773131370544434,0,0.030517578125,-0.213623046875
3.9274999000000004,0.8792705535888672,-0.5626373887062073,9.77672290802002,0.091552734375,0.18310546875,-0.213623046875
3.9324999000000003,0.8732850551605225,-0.5614402890205383,9.768941879272461,-0.06103515625,-0.030517578125,-0.18310546875
3.9374999,0.8774749040603638,-0.5644330382347107,9.773730278015137,0.030517578125,0.06103515625,-0.18310546875
3.9424999,0.8708908557891846,-0.5632359385490417,9.77013874053955,-0.030517578125,-0.030517578125,-0.30517578125
3.9474999000000004,0.871489405632019,-0.5620388388633728,9.77253246307373,0.030517578125,0.091552734375,-0.244140625
3.9524999000000003,0.872686505317688,-0.5596446394920349,9.777320861816406,-0.030517578125,0,-0.3662109375
3.9574999,0.8655039072036743,-0.5548562407493591,9.776124000549316,0.030517578125,-0.091552734375,-0.244140625
3.9624999,0.8667010068893433,-0.5524620413780212,9.783905029296875,0.152587890625,0.091552734375,-0.274658203125
3.9674999000000004,0.8637082576751709,-0.5506663918495178,9.777320861816406,-0.06103515625,-0.06103515625,-0.274658203125
3.9724999000000003,0.8672995567321777,-0.5512649416923523,9.774927139282227,-0.091552734375,-0.06103515625,-0.335693359375
3.9774999,0.8810662031173706,-0.5560533404350281,9.762955665588379,0.030517578125,-0.091552734375,-0.152587890625
3.9824999,0.8906430602073669,-0.5560533404350281,9.767744064331055,-0.06103515625,0.18310546875,-0.244140625
3.9874999,0.8882488012313843,-0.5548562407493591,9.761758804321289,-0.06103515625,0.274658203125,-0.30517578125
3.9924999000000003,0.8888474106788635,-0.5530605912208557,9.762357711791992,0.030517578125,0.213623046875,-0.244140625
3.9974999,0.8834604024887085,-0.5530605912208557,9.762357711791992,0,0.1220703125,-0.18310546875
4.0024999,0.8768763542175293,-0.5554547905921936,9.761159896850586,-0.091552734375,0.030517578125,-0.213623046875
4.0074999,0.8768763542175293,-0.5578489899635315,9.768342971801758,-0.030517578125,0.244140625,-0.30517578125
4.0124999,0.8702923059463501,-0.5614402890205383,9.765948295593262,0,0.091552734375,-0.244140625
4.0174999,0.871489405632019,-0.5614402890205383,9.770736694335938,0.091552734375,-0.152587890625,-0.1220703125
4.022499900000001,0.8684966564178467,-0.5632359385490417,9.77013874053955,0.152587890625,0.06103515625,-0.244140625
4.0274999000000005,0.8667010068893433,-0.5626373887062073,9.768342971801758,0.091552734375,0.18310546875,-0.152587890625
4.0324999,0.8708908557891846,-0.5650315880775452,9.77133560180664,0.030517578125,0.1220703125,-0.18310546875
4.0374999,0.8774749040603638,-0.5692214369773865,9.773730278015137,-0.091552734375,-0.06103515625,-0.30517578125
4.0424999,0.8786720037460327,-0.568622887134552,9.775525093078613,-0.06103515625,-0.030517578125,-0.3662109375
4.0474999,0.8822633028030396,-0.568622887134552,9.768941879272461,0.030517578125,-0.030517578125,-0.244140625
4.0524999,0.8870517015457153,-0.569819986820221,9.777320861816406,0.1220703125,0.06103515625,-0.18310546875
4.0574999,0.8846575021743774,-0.5674257874488831,9.768941879272461,0.030517578125,0,-0.213623046875
4.062499900000001,0.8852560520172119,-0.5650315880775452,9.778518676757812,0.18310546875,0.1220703125,-0.152587890625
4.0674999000000005,0.8852560520172119,-0.5662286877632141,9.77791976928711,0.091552734375,0.1220703125,-0.152587890625
4.0724999,0.8810662031173706,-0.5650315880775452,9.779715538024902,-0.06103515625,0.030517578125,-0.06103515625
4.0774999,0.8816647529602051,-0.5692214369773865,9.782708168029785,0,0.152587890625,-0.30517578125
4.0824999,0.8720879554748535,-0.5614402890205383,9.768342971801758,0.091552734375,0.030517578125,-0.274658203125
4.0874999,0.8756792545318604,-0.5614402890205383,9.776124000549316,0.030517578125,0.091552734375,-0.30517578125
4.0924999,0.871489405632019,-0.5602431893348694,9.77013874053955,0.152587890625,0.152587890625,-0.274658203125
4.0974999,0.8696937561035156,-0.557250440120697,9.775525093078613,0.030517578125,0.091552734375,-0.213623046875
4.1024999,0.8696937561035156,-0.5566518902778625,9.77672290802002,0.06103515625,0.335693359375,-0.244140625
4.1074999000000005,0.862511157989502,-0.5560533404350281,9.773131370544434,0.152587890625,0.1220703125,-0.213623046875
4.1124999,0.8643068075180054,-0.558447539806366,9.779715538024902,0.030517578125,0.1220703125,-0.244140625
4.1174999,0.8607155084609985,-0.558447539806366,9.775525093078613,-0.091552734375,0.1220703125,-0.1220703125
4.1224999,0.8607155084609985,-0.5602431893348694,9.780912399291992,-0.091552734375,0.1220703125,-0.152587890625
4.1274999,0.8631097078323364,-0.5602431893348694,9.782708168029785,-0.030517578125,-0.06103515625,-0.18310546875
4.1324999,0.8607155084609985,-0.558447539806366,9.780912399291992,0,-0.18310546875,-0.213623046875
4.1374999,0.871489405632019,-0.5602431893348694,9.773730278015137,0.06103515625,-0.18310546875,-0.1220703125
4.1424999,0.8810662031173706,-0.5650315880775452,9.774328231811523,-0.030517578125,-0.091552734375,-0.274658203125
4.147499900000001,0.8852560520172119,-0.5650315880775452,9.767146110534668,0,0.06103515625,-0.244140625
4.1524999000000005,0.884058952331543,-0.5650315880775452,9.765948295593262,0.06103515625,0,-0.244140625
4.1574999,0.8864531517028809,-0.5638344883918762,9.77253246307373,-0.030517578125,0.30517578125,-0.213623046875
4.1624999,0.8786720037460327,-0.5608417391777039,9.768342971801758,0.030517578125,0.152587890625,-0.213623046875
4.1674999,0.8780734539031982,-0.5620388388633728,9.777320861816406,0.091552734375,0.091552734375,-0.335693359375
4.1724999,0.8672995567321777,-0.5632359385490417,9.77253246307373,0.06103515625,0.244140625,-0.244140625
4.1774999,0.8595184087753296,-0.5626373887062073,9.77253246307373,-0.030517578125,0.213623046875,-0.1220703125
4.1824999,0.8523358106613159,-0.5656301379203796,9.776124000549316,-0.152587890625,0.091552734375,-0.152587890625
4.187499900000001,0.8433575630187988,-0.5632359385490417,9.77253246307373,-0.030517578125,-0.06103515625,-0.274658203125
4.1924999000000005,0.8475474119186401,-0.5644330382347107,9.781511306762695,0.06103515625,-0.091552734375,-0.152587890625
4.1974999,0.8661024570465088,-0.5680243372917175,9.777320861816406,-0.030517578125,-0.244140625,-0.244140625
4.2024999,0.8822633028030396,-0.5716156363487244,9.778518676757812,0,-0.152587890625,-0.152587890625
4.2074999,0.8876502513885498,-0.568622887134552,9.773730278015137,-0.06103515625,-0.1220703125,-0.06103515625
4.2124999,0.8966285586357117,-0.5674257874488831,9.7791166305542,0.18310546875,-0.030517578125,-0.091552734375
4.2174999,0.8930372595787048,-0.5602431893348694,9.774328231811523,0.091552734375,0.06103515625,-0.274658203125
4.2224999,0.8918401598930359,-0.557250440120697,9.77672290802002,0,0.030517578125,-0.30517578125
4.2274999,0.8900445103645325,-0.5548562407493591,9.775525093078613,-0.030517578125,0.213623046875,-0.274658203125
4.2324999000000005,0.882861852645874,-0.5548562407493591,9.773131370544434,0,0.06103515625,-0.30517578125
4.2374999,0.8810662031173706,-0.5566518902778625,9.7791166305542,0.091552734375,0.18310546875,-0.30517578125
4.2424999,0.8643068075180054,-0.557250440120697,9.780313491821289,-0.030517578125,0.18310546875,-0.06103515625
4.2474999,0.8565256595611572,-0.5590460896492004,9.77791976928711,0.091552734375,0.335693359375,-0.335693359375
4.2524999,0.8535329103469849,-0.5638344883918762,9.771934509277344,0,-0.1220703125,-0.244140625
4.2574999,0.8607155084609985,-0.5650315880775452,9.774328231811523,-0.030517578125,-0.1220703125,-0.457763671875
4.2624999,0.862511157989502,-0.5650315880775452,9.77133560180664,0,-0.1220703125,-0.213623046875
4.2674999,0.8649053573608398,-0.5650315880775452,9.77013874053955,-0.030517578125,-0.274658203125,-0.030517578125
4.272499900000001,0.872686505317688,-0.5656301379203796,9.773730278015137,-0.06103515625,-0.091552734375,-0.18310546875
4.2774999000000005,0.8762778043746948,-0.5656301379203796,9.77253246307373,-0.030517578125,-0.152587890625,-0.244140625
4.2824999,0.8834604024887085,-0.5656301379203796,9.77791976928711,0.091552734375,0.030517578125,-0.18310546875
4.2874999,0.8858546018600464,-0.5650315880775452,9.779715538024902,0.030517578125,0.091552734375,-0.18310546875
4.2924999,0.8864531517028809,-0.5638344883918762,9.779715538024902,-0.1220703125,0.152587890625,-0.335693359375
4.2974999,0.8870517015457153,-0.5614402890205383,9.779715538024902,0,0.42724609375,-0.42724609375
4.3024999,0.8804676532745361,-0.558447539806366,9.773131370544434,0.06103515625,0.213623046875,-0.30517578125
4.3074999,0.8732850551605225,-0.557250440120697,9.768941879272461,0.091552734375,0.18310546875,-0.152587890625
4.312499900000001,0.8672995567321777,-0.5602431893348694,9.773730278015137,0.030517578125,0.1220703125,-0.213623046875
4.3174999000000005,0.8637082576751709,-0.5620388388633728,9.780912399291992,0,0.091552734375,-0.213623046875
4.3224999,0.8553285598754883,-0.5632359385490417,9.779715538024902,0,-0.06103515625,-0.213623046875
4.3274999,0.8583213090896606,-0.5662286877632141,9.788095474243164,0.030517578125,0.06103515625,-0.30517578125
4.3324999,0.8565256595611572,-0.568622887134552,9.781511306762695,0.06103515625,0.030517578125,-0.152587890625
4.3374999,0.8601169586181641,-0.5710170865058899,9.781511306762695,-0.06103515625,-0.06103515625,-0.091552734375
4.3424999,0.8684966564178467,-0.5722141861915588,9.774328231811523,-0.091552734375,0,-0.30517578125
4.3474999,0.8708908557891846,-0.5692214369773865,9.765350341796875,-0.030517578125,-0.091552734375,-0.274658203125
4.352499900000001,0.8810662031173706,-0.5650315880775452,9.764153480529785,0,-0.06103515625,-0.18310546875
4.3574999000000005,0.8816647529602051,-0.5614402890205383,9.75397777557373,0,0,-0.213623046875
4.3624999,0.8834604024887085,-0.5566518902778625,9.75397777557373,-0.06103515625,0.152587890625,-0.30517578125
4.3674999,0.8762778043746948,-0.5554547905921936,9.75397777557373,0.091552734375,0.1220703125,-0.274658203125
4.3724999,0.8762778043746948,-0.557250440120697,9.763554573059082,0.030517578125,0.335693359375,-0.274658203125
4.3774999,0.871489405632019,-0.5578489899635315,9.762955665588379,0.091552734375,0.274658203125,-0.213623046875
4.3824999,0.8744821548461914,-0.5590460896492004,9.77013874053955,0.06103515625,0.152587890625,-0.213623046875
4.3874999,0.8756792545318604,-0.5602431893348694,9.77253246307373,-0.06103515625,0.152587890625,-0.213623046875
4.3924999,0.8750807046890259,-0.558447539806366,9.774328231811523,0,0,-0.18310546875
4.397499900000001,0.8780734539031982,-0.5578489899635315,9.780912399291992,0,0.030517578125,-0.30517578125
4.4024999000000005,0.872686505317688,-0.557250440120697,9.775525093078613,0,0,-0.396728515625
4.4074999,0.8774749040603638,-0.5548562407493591,9.780912399291992,0.030517578125,-0.18310546875,-0.30517578125
4.4124999,0.8774749040603638,-0.5560533404350281,9.773131370544434,-0.06103515625,-0.152587890625,-0.244140625
4.4174999,0.8822633028030396,-0.5554547905921936,9.77253246307373,-0.06103515625,-0.18310546875,-0.30517578125
4.4224999,0.8942343592643738,-0.5596446394920349,9.77013874053955,-0.030517578125,0,-0.244140625
4.4274999,0.900818407535553,-0.5608417391777039,9.780313491821289,0,0.1220703125,-0.244140625
4.4324999,0.8978256583213806,-0.5608417391777039,9.77253246307373,0.091552734375,0.1220703125,-0.213623046875
4.437499900000001,0.889445960521698,-0.5596446394920349,9.776124000549316,0.091552734375,0.152587890625,-0.244140625
4.4424999000000005,0.882861852645874,-0.5602431893348694,9.77791976928711,-0.030517578125,0.274658203125,-0.42724609375
4.4474999,0.8708908557891846,-0.5614402890205383,9.77672290802002,-0.06103515625,0.091552734375,-0.213623046875
4.4524999,0.8649053573608398,-0.5650315880775452,9.783307075500488,0,0.18310546875,-0.18310546875
4.4574999,0.8601169586181641,-0.5662286877632141,9.7791166305542,0.18310546875,0.152587890625,-0.244140625
4.4624999,0.8601169586181641,-0.5662286877632141,9.783307075500488,0.091552734375,0.152587890625,-0.18310546875
4.4674999,0.8637082576751709,-0.5650315880775452,9.779715538024902,0.1220703125,0.030517578125,-0.213623046875
4.4724999,0.8637082576751709,-0.5608417391777039,9.77672290802002,0.030517578125,-0.1220703125,-0.091552734375
4.477499900000001,0.8696937561035156,-0.5614402890205383,9.782708168029785,-0.030517578125,-0.06103515625,-0.244140625
4.4824999000000005,0.8738836050033569,-0.5638344883918762,9.780313491821289,-0.030517578125,-0.1220703125,-0.244140625
4.4874999,0.8792705535888672,-0.5662286877632141,9.780912399291992,-0.06103515625,0.06103515625,-0.274658203125
4.4924999,0.8822633028030396,-0.5662286877632141,9.773730278015137,-0.152587890625,-0.091552734375,-0.213623046875
4.4974999,0.8912416100502014,-0.5650315880775452,9.780313491821289,-0.030517578125,0.1220703125,-0.30517578125
4.5024999,0.8906430602073669,-0.5656301379203796,9.77133560180664,0.06103515625,0.091552734375,-0.18310546875
4.5074999,0.8888474106788635,-0.5650315880775452,9.776124000549316,0,0.152587890625,-0.244140625
4.5124999,0.8846575021743774,-0.5668272376060486,9.780313491821289,-0.06103515625,0.3662109375,-0.244140625
4.5174999,0.8744821548461914,-0.5692214369773865,9.783307075500488,0.06103515625,0.091552734375,-0.091552734375
4.522499900000001,0.872686505317688,-0.5722141861915588,9.79527759552002,-0.030517578125,0.18310546875,-0.30517578125
4.5274999000000005,0.872686505317688,-0.5722141861915588,9.79527759552002,-0.030517578125,0.18310546875,-0.30517578125
4.5324999,0.8672995567321777,-0.5716156363487244,9.789292335510254,0,0.152587890625,-0.335693359375
4.5374999,0.8690952062606812,-0.5710170865058899,9.791686058044434,0,0.06103515625,-0.152587890625
4.5424999,0.871489405632019,-0.5596446394920349,9.776124000549316,0.030517578125,-0.091552734375,-0.1220703125
4.5474999,0.8756792545318604,-0.5542576909065247,9.775525093078613,-0.06103515625,-0.091552734375,-0.18310546875
4.5524999,0.8708908557891846,-0.5530605912208557,9.771934509277344,0.18310546875,-0.152587890625,-0.244140625
4.5574999,0.8738836050033569,-0.5542576909065247,9.780912399291992,0.06103515625,0.091552734375,-0.18310546875
4.562499900000001,0.8684966564178467,-0.5608417391777039,9.778518676757812,0.06103515625,0.091552734375,-0.152587890625
4.5674999000000005,0.8684966564178467,-0.5608417391777039,9.778518676757812,0.06103515625,0.091552734375,-0.152587890625
4.5724999,0.8678981065750122,-0.5626373887062073,9.778518676757812,0,0.213623046875,-0.1220703125
4.5774999,0.8672995567321777,-0.5620388388633728,9.77013874053955,-0.030517578125,0.18310546875,-0.152587890625
4.5824999,0.8696937561035156,-0.5614402890205383,9.775525093078613,0.06103515625,0.1220703125,-0.18310546875
4.5874999,0.8655039072036743,-0.5602431893348694,9.767744064331055,0,-0.091552734375,-0.213623046875
4.5924999,0.8661024570465088,-0.5590460896492004,9.77133560180664,-0.06103515625,0.030517578125,-0.244140625
4.5974999,0.8649053573608398,-0.5554547905921936,9.770736694335938,0.06103515625,0.152587890625,-0.274658203125
4.602499900000001,0.8690952062606812,-0.5530605912208557,9.780313491821289,-0.06103515625,0,-0.213623046875
4.6074999000000005,0.8667010068893433,-0.5548562407493591,9.776124000549316,-0.06103515625,-0.030517578125,-0.18310546875
4.6124999,0.8684966564178467,-0.5590460896492004,9.780313491821289,-0.06103515625,0.06103515625,-0.18310546875
4.6174999,0.8696937561035156,-0.5632359385490417,9.773730278015137,0,0.091552734375,-0.396728515625
4.6224999,0.8678981065750122,-0.5638344883918762,9.767146110534668,-0.1220703125,-0.06103515625,-0.274658203125
4.6274999,0.8756792545318604,-0.5638344883918762,9.77013874053955,0.030517578125,0.030517578125,-0.244140625
4.6324999,0.8738836050033569,-0.5626373887062073,9.766547203063965,0.152587890625,0.030517578125,-0.244140625
4.6374999,0.8780734539031982,-0.5590460896492004,9.773730278015137,-0.030517578125,0.091552734375,-0.244140625
4.6424999,0.8732850551605225,-0.5578489899635315,9.773730278015137,0.091552734375,0.030517578125,-0.274658203125
4.647499900000001,0.8661024570465088,-0.5560533404350281,9.773131370544434,0.030517578125,-0.06103515625,-0.152587890625
4.6524999000000005,0.8643068075180054,-0.557250440120697,9.775525093078613,0.030517578125,0.1220703125,-0.1220703125
4.6574999,0.8565256595611572,-0.5578489899635315,9.767744064331055,-0.152587890625,-0.152587890625,-0.1220703125
4.6624999,0.8696937561035156,-0.5644330382347107,9.767146110534668,-0.06103515625,-0.06103515625,-0.244140625
4.6674999,0.8780734539031982,-0.5704185366630554,9.77133560180664,-0.091552734375,0.06103515625,-0.244140625
4.6724999,0.8804676532745361,-0.5716156363487244,9.768941879272461,0,0.1220703125,-0.18310546875
4.6774999,0.8834604024887085,-0.5728127360343933,9.776124000549316,0.030517578125,0.152587890625,-0.244140625
4.6824999,0.8786720037460327,-0.5716156363487244,9.77672290802002,0.213623046875,0.091552734375,-0.213623046875
4.687499900000001,0.872686505317688,-0.5650315880775452,9.77672290802002,0,-0.1220703125,-0.1220703125
4.6924999000000005,0.8702923059463501,-0.5614402890205383,9.780912399291992,0.091552734375,0.06103515625,-0.1220703125
4.6974999,0.8643068075180054,-0.5554547905921936,9.774328231811523,0.030517578125,0.030517578125,-0.274658203125
4.7024999,0.8684966564178467,-0.557250440120697,9.779715538024902,-0.06103515625,0.213623046875,-0.3662109375
4.7074999,0.8667010068893433,-0.5578489899635315,9.773730278015137,-0.1220703125,0.06103515625,-0.213623046875
4.7124999,0.8690952062606812,-0.558447539806366,9.77672290802002,0,-0.030517578125,-0.213623046875
4.7174999,0.8744821548461914,-0.5590460896492004,9.779715538024902,0,0.091552734375,-0.244140625
4.7224999,0.8822633028030396,-0.5620388388633728,9.767744064331055,0.030517578125,0.030517578125,-0.30517578125
4.727499900000001,0.8846575021743774,-0.5626373887062073,9.768941879272461,0,-0.030517578125,-0.1220703125
4.7324999000000005,0.8852560520172119,-0.5662286877632141,9.776124000549316,0.030517578125,0.152587890625,-0.152587890625
4.7374999,0.884058952331543,-0.5668272376060486,9.778518676757812,0.030517578125,-0.030517578125,-0.30517578125
4.7424999,0.8792705535888672,-0.5680243372917175,9.785700798034668,0.030517578125,0.152587890625,-0.244140625
4.7474999,0.8762778043746948,-0.5680243372917175,9.788095474243164,0.06103515625,0.18310546875,-0.30517578125
4.7524999,0.8661024570465088,-0.5650315880775452,9.786299705505371,0.06103515625,0.18310546875,-0.213623046875
4.7574999,0.8690952062606812,-0.5638344883918762,9.773730278015137,0.091552734375,-0.091552734375,-0.244140625
4.7624999,0.8738836050033569,-0.5650315880775452,9.773131370544434,-0.091552734375,0.091552734375,-0.274658203125
4.7674999,0.8720879554748535,-0.5644330382347107,9.762955665588379,-0.030517578125,-0.244140625,-0.091552734375
4.772499900000001,0.871489405632019,-0.5620388388633728,9.768941879272461,-0.06103515625,-0.030517578125,-0.30517578125
4.7774999000000005,0.8684966564178467,-0.5608417391777039,9.765350341796875,-0.030517578125,0.091552734375,-0.30517578125
4.7824999,0.8690952062606812,-0.5590460896492004,9.767146110534668,0.030517578125,-0.1220703125,-0.213623046875
4.7874999,0.8732850551605225,-0.5590460896492004,9.771934509277344,0,0.06103515625,-0.30517578125
4.7924999,0.872686505317688,-0.5596446394920349,9.767744064331055,0.030517578125,0.030517578125,-0.30517578125
4.7974999,0.8780734539031982,-0.5596446394920349,9.777320861816406,-0.06103515625,0.213623046875,-0.335693359375
4.8024999,0.872686505317688,-0.5620388388633728,9.77672290802002,0.030517578125,0.1220703125,-0.18310546875
4.8074999,0.8672995567321777,-0.5632359385490417,9.769539833068848,-0.091552734375,0,-0.152587890625
4.812499900000001,0.8690952062606812,-0.5638344883918762,9.776124000549316,-0.1220703125,0.030517578125,-0.396728515625
4.8174999000000005,0.8619126081466675,-0.5650315880775452,9.769539833068848,-0.213623046875,0.030517578125,-0.3662109375
4.8224999,0.8631097078323364,-0.5626373887062073,9.774927139282227,0.030517578125,-0.030517578125,-0.152587890625
4.8274999,0.862511157989502,-0.5650315880775452,9.774927139282227,-0.030517578125,0.1220703125,-0.152587890625
4.8324999,0.862511157989502,-0.5644330382347107,9.774927139282227,0.030517578125,-0.030517578125,-0.152587890625
4.8374999,0.8696937561035156,-0.5644330382347107,9.781511306762695,-0.1220703125,0.091552734375,-0.244140625
4.8424999,0.872686505317688,-0.5650315880775452,9.776124000549316,-0.06103515625,-0.06103515625,-0.30517578125
4.8474999,0.8804676532745361,-0.5626373887062073,9.784503936767578,0.030517578125,-0.1220703125,-0.274658203125
4.852499900000001,0.8846575021743774,-0.5602431893348694,9.779715538024902,-0.091552734375,0.030517578125,-0.3662109375
4.8574999000000005,0.8876502513885498,-0.5554547905921936,9.785700798034668,0.030517578125,0.152587890625,-0.18310546875
4.8624999,0.882861852645874,-0.5524620413780212,9.781511306762695,0.030517578125,0.152587890625,-0.152587890625
4.8674999,0.882861852645874,-0.5542576909065247,9.788095474243164,-0.030517578125,0.274658203125,-0.274658203125
4.8724999,0.8756792545318604,-0.5548562407493591,9.784503936767578,0,0.152587890625,-0.335693359375
4.8774999,0.8702923059463501,-0.5578489899635315,9.78869342803955,0.152587890625,0.030517578125,-0.152587890625
4.8824999,0.8672995567321777,-0.5626373887062073,9.789292335510254,0.1220703125,0.18310546875,-0.244140625
4.8874999,0.8589198589324951,-0.5656301379203796,9.782109260559082,0,0.06103515625,-0.18310546875
4.8924999,0.862511157989502,-0.5674257874488831,9.783307075500488,0,0.1220703125,-0.396728515625
4.897499900000001,0.8607155084609985,-0.5662286877632141,9.77013874053955,0.030517578125,0,-0.30517578125
4.9024999000000005,0.8655039072036743,-0.5638344883918762,9.768941879272461,0.030517578125,-0.091552734375,-0.18310546875
4.9074999,0.8708908557891846,-0.5632359385490417,9.769539833068848,-0.091552734375,0.030517578125,-0.213623046875
4.9124999,0.872686505317688,-0.5614402890205383,9.768342971801758,-0.030517578125,-0.030517578125,-0.213623046875
4.9174999,0.8822633028030396,-0.5668272376060486,9.782109260559082,0.091552734375,-0.030517578125,-0.213623046875
4.9224999,0.882861852645874,-0.5680243372917175,9.779715538024902,0.06103515625,0.06103515625,-0.244140625
4.9274999,0.8822633028030396,-0.5656301379203796,9.777320861816406,0,0,-0.244140625
4.9324999,0.8852560520172119,-0.5692214369773865,9.779715538024902,-0.091552734375,0.18310546875,-0.1220703125
4.937499900000001,0.8762778043746948,-0.568622887134552,9.77133560180664,0.091552734375,0.1220703125,-0.152587890625
4.9424999000000005,0.8750807046890259,-0.5722141861915588,9.783307075500488,0.030517578125,0.18310546875,-0.335693359375
4.9474999,0.8667010068893433,-0.5704185366630554,9.778518676757812,0.1220703125,0.244140625,-0.244140625
4.9524999,0.861314058303833,-0.569819986820221,9.783307075500488,0.06103515625,-0.030517578125,-0.3662109375
4.9574999,0.8607155084609985,-0.5674257874488831,9.780912399291992,-0.030517578125,-0.06103515625,-0.396728515625
4.9624999,0.8553285598754883,-0.5644330382347107,9.770736694335938,-0.091552734375,-0.18310546875,-0.30517578125
4.9674999,0.862511157989502,-0.5638344883918762,9.773730278015137,0,-0.030517578125,-0.213623046875
4.9724999,0.8684966564178467,-0.5656301379203796,9.77133560180664,-0.06103515625,0,-0.30517578125
4.977499900000001,0.8744821548461914,-0.5680243372917175,9.77133560180664,-0.091552734375,0,-0.30517578125
4.9824999000000005,0.8708908557891846,-0.5668272376060486,9.765948295593262,0.030517578125,-0.030517578125,-0.213623046875
4.9874999,0.8732850551605225,-0.568622887134552,9.766547203063965,0.091552734375,0,-0.213623046875
4.9924999,0.8750807046890259,-0.5668272376060486,9.763554573059082,0,0.213623046875,-0.335693359375
4.9974999,0.8684966564178467,-0.5662286877632141,9.765350341796875,0,0.030517578125,-0.30517578125
5.0024999,0.8696937561035156,-0.5674257874488831,9.771934509277344,0.030517578125,0.091552734375,-0.30517578125
5.0074999,0.8637082576751709,-0.5650315880775452,9.77013874053955,-0.030517578125,-0.06103515625,-0.152587890625
5.0124999,0.8661024570465088,-0.5662286877632141,9.774927139282227,0,0.06103515625,-0.30517578125
5.0174999,0.8667010068893433,-0.5638344883918762,9.773730278015137,0.030517578125,0.091552734375,-0.244140625
5.022499900000001,0.8756792545318604,-0.5620388388633728,9.777320861816406,0,-0.06103515625,-0.1220703125
5.0274999000000005,0.8756792545318604,-0.5596446394920349,9.774927139282227,-0.091552734375,-0.030517578125,-0.18310546875
5.0324999,0.8804676532745361,-0.5596446394920349,9.775525093078613,-0.06103515625,0.06103515625,-0.274658203125
5.0374999,0.8756792545318604,-0.5632359385490417,9.77013874053955,0.1220703125,0,-0.213623046875
5.0424999,0.8774749040603638,-0.5632359385490417,9.773131370544434,-0.06103515625,0.091552734375,-0.30517578125
5.0474999,0.8732850551605225,-0.5650315880775452,9.77133560180664,-0.06103515625,0,-0.30517578125
5.0524999,0.8702923059463501,-0.5656301379203796,9.77253246307373,-0.030517578125,0.091552734375,-0.244140625
5.0574999,0.871489405632019,-0.5632359385490417,9.7791166305542,0.06103515625,0.18310546875,-0.18310546875
5.062499900000001,0.8720879554748535,-0.5626373887062073,9.777320861816406,0.06103515625,-0.030517578125,-0.18310546875
5.0674999000000005,0.8756792545318604,-0.5614402890205383,9.786897659301758,0.06103515625,0.030517578125,-0.213623046875
5.0724999,0.8750807046890259,-0.5638344883918762,9.786897659301758,-0.06103515625,0.152587890625,-0.274658203125
5.0774999,0.871489405632019,-0.5644330382347107,9.786299705505371,-0.030517578125,0.06103515625,-0.213623046875
5.0824999,0.8607155084609985,-0.5614402890205383,9.783905029296875,-0.030517578125,-0.030517578125,-0.335693359375
5.0874999,0.861314058303833,-0.558447539806366,9.778518676757812,-0.06103515625,0.030517578125,-0.152587890625
5.0924999,0.8678981065750122,-0.5590460896492004,9.779715538024902,0,-0.030517578125,-0.244140625
5.0974999,0.8756792545318604,-0.5620388388633728,9.780912399291992,0.091552734375,0,-0.335693359375
5.102499900000001,0.8792705535888672,-0.5632359385490417,9.777320861816406,0.06103515625,0,-0.30517578125
5.1074999000000005,0.8858546018600464,-0.5680243372917175,9.7791166305542,-0.030517578125,0.1220703125,-0.244140625
5.1124999,0.8810662031173706,-0.568622887134552,9.769539833068848,-0.06103515625,-0.030517578125,-0.1220703125
5.1174999,0.8804676532745361,-0.5722141861915588,9.77253246307373,0,-0.06103515625,-0.091552734375
5.1224999,0.8762778043746948,-0.5728127360343933,9.77013874053955,0,0.18310546875,-0.213623046875
5.1274999,0.8732850551605225,-0.5746083855628967,9.767744064331055,0.1220703125,0.091552734375,-0.1220703125
5.1324999,0.8738836050033569,-0.5752069354057312,9.77133560180664,0,0.152587890625,-0.18310546875
5.1374999,0.8732850551605225,-0.5662286877632141,9.771934509277344,-0.06103515625,0.06103515625,-0.213623046875
5.1424999,0.871489405632019,-0.5650315880775452,9.77672290802002,-0.030517578125,-0.06103515625,-0.274658203125
5.147499900000001,0.871489405632019,-0.5650315880775452,9.776124000549316,0.030517578125,0.06103515625,-0.3662109375
5.1524999000000005,0.8684966564178467,-0.5632359385490417,9.771934509277344,0.213623046875,-0.091552734375,-0.244140625
5.1574999,0.871489405632019,-0.5650315880775452,9.77253246307373,0.06103515625,-0.091552734375,-0.213623046875
5.1624999,0.871489405632019,-0.5650315880775452,9.77253246307373,0.06103515625,-0.091552734375,-0.213623046875
5.1674999,0.871489405632019,-0.5626373887062073,9.77013874053955,-0.091552734375,-0.091552734375,-0.152587890625
5.1724999,0.8756792545318604,-0.5602431893348694,9.776124000549316,0.06103515625,0.1220703125,-0.42724609375
5.1774999,0.8774749040603638,-0.558447539806366,9.776124000549316,0.06103515625,0.091552734375,-0.244140625
5.1824999,0.8762778043746948,-0.5566518902778625,9.77672290802002,0,0.06103515625,-0.152587890625
5.187499900000001,0.8798691034317017,-0.5566518902778625,9.774927139282227,0.06103515625,0.18310546875,-0.152587890625
5.1924999000000005,0.871489405632019,-0.5614402890205383,9.773131370544434,0.06103515625,0.06103515625,-0.18310546875
5.1974999,0.871489405632019,-0.5614402890205383,9.773131370544434,0.06103515625,0.06103515625,-0.18310546875
5.2024999,0.8762778043746948,-0.5650315880775452,9.771934509277344,-0.091552734375,0,-0.30517578125
5.2074999,0.8762778043746948,-0.5650315880775452,9.771934509277344,-0.091552734375,0,-0.30517578125
5.2124999,0.8882488012313843,-0.5668272376060486,9.7791166305542,-0.06103515625,0.030517578125,-0.274658203125
5.2174999,0.8876502513885498,-0.5674257874488831,9.773131370544434,0,-0.030517578125,-0.152587890625
5.2224999,0.8918401598930359,-0.5680243372917175,9.780313491821289,0.06103515625,-0.030517578125,-0.091552734375
5.227499900000001,0.8906430602073669,-0.5680243372917175,9.774927139282227,0.030517578125,0,-0.213623046875
5.2324999000000005,0.8876502513885498,-0.5674257874488831,9.773730278015137,0.06103515625,0.030517578125,-0.274658203125
5.2374999,0.8870517015457153,-0.5674257874488831,9.776124000549316,-0.1220703125,0.152587890625,-0.213623046875
5.2424999,0.8780734539031982,-0.5668272376060486,9.775525093078613,0.1220703125,0,-0.213623046875
5.2474999,0.8732850551605225,-0.5620388388633728,9.768342971801758,0.06103515625,-0.030517578125,-0.18310546875
5.2524999,0.872686505317688,-0.5608417391777039,9.771934509277344,0.06103515625,0,-0.18310546875
5.2574999,0.8750807046890259,-0.5578489899635315,9.771934509277344,-0.030517578125,0.213623046875,-0.244140625
5.2624999,0.871489405632019,-0.5554547905921936,9.77133560180664,-0.06103515625,0.091552734375,-0.152587890625
5.2674999,0.8756792545318604,-0.558447539806366,9.7791166305542,-0.06103515625,0.1220703125,-0.244140625
5.272499900000001,0.8708908557891846,-0.5560533404350281,9.774927139282227,0.1220703125,-0.1220703125,-0.18310546875
5.2774999000000005,0.872686505317688,-0.5578489899635315,9.781511306762695,0.06103515625,0.06103515625,-0.18310546875
5.2824999,0.8720879554748535,-0.5542576909065247,9.780912399291992,0,0.030517578125,-0.244140625
5.2874999,0.8702923059463501,-0.5512649416923523,9.781511306762695,-0.091552734375,-0.152587890625,-0.244140625
5.2924999,0.872686505317688,-0.5512649416923523,9.783307075500488,0.091552734375,-0.18310546875,-0.274658203125
5.2974999,0.8690952062606812,-0.5512649416923523,9.77791976928711,0.213623046875,-0.152587890625,-0.30517578125
5.3024999,0.8744821548461914,-0.5578489899635315,9.776124000549316,0.06103515625,0.030517578125,-0.335693359375
5.3074999,0.8756792545318604,-0.5578489899635315,9.779715538024902,0.091552734375,-0.030517578125,-0.274658203125
5.312499900000001,0.8750807046890259,-0.5602431893348694,9.778518676757812,0.030517578125,0.06103515625,-0.30517578125
5.3174999000000005,0.871489405632019,-0.5590460896492004,9.77791976928711,0,0.030517578125,-0.274658203125
5.3224999,0.8744821548461914,-0.5590460896492004,9.782708168029785,-0.06103515625,0.213623046875,-0.18310546875
5.3274999,0.872686505317688,-0.5602431893348694,9.77791976928711,0.1220703125,0.030517578125,-0.18310546875
5.3324999,0.8768763542175293,-0.5620388388633728,9.785700798034668,0.091552734375,0.030517578125,-0.244140625
5.3374999,0.8744821548461914,-0.5626373887062073,9.782109260559082,0.030517578125,0.030517578125,-0.152587890625
5.3424999,0.8690952062606812,-0.5626373887062073,9.780313491821289,0.152587890625,-0.091552734375,-0.244140625
5.3474999,0.8672995567321777,-0.5602431893348694,9.779715538024902,-0.06103515625,0.091552734375,-0.30517578125
5.352499900000001,0.8607155084609985,-0.5602431893348694,9.774927139282227,0,-0.06103515625,-0.1220703125
5.3574999000000005,0.8631097078323364,-0.5614402890205383,9.780313491821289,0.091552734375,0.06103515625,-0.091552734375
5.3624999,0.8768763542175293,-0.558447539806366,9.780912399291992,0.030517578125,-0.030517578125,-0.213623046875
5.3674999,0.8792705535888672,-0.557250440120697,9.780313491821289,-0.091552734375,0.244140625,-0.274658203125
5.3724999,0.8732850551605225,-0.5542576909065247,9.774328231811523,-0.06103515625,0.091552734375,-0.213623046875
5.3774999,0.8768763542175293,-0.5524620413780212,9.775525093078613,-0.06103515625,0.091552734375,-0.18310546875
5.3824999,0.8732850551605225,-0.5518634915351868,9.769539833068848,0.091552734375,0.091552734375,-0.1220703125
5.3874999,0.8720879554748535,-0.5506663918495178,9.767744064331055,0.06103515625,0.152587890625,-0.244140625
5.3924999,0.8708908557891846,-0.5524620413780212,9.764751434326172,0,0.06103515625,-0.274658203125
5.397499900000001,0.8643068075180054,-0.5560533404350281,9.761159896850586,-0.030517578125,0,-0.274658203125
5.4024999000000005,0.8607155084609985,-0.5602431893348694,9.762357711791992,0.06103515625,0,-0.274658203125
5.4074999,0.8541314601898193,-0.5626373887062073,9.7605619430542,0,-0.030517578125,-0.274658203125
