# Time (seconds),Accel_X,Accel_Y,Accel_Z,Gyro_X,Gyro_Y,Gyro_Z
0.0024999,0.9977835416793823,-0.228047713637352,9.770736694335938,-1.03759765625,-0.42724609375,0.579833984375
0.0074999,0.9977835416793823,-0.228047713637352,9.770736694335938,-1.03759765625,-0.42724609375,0.579833984375
0.012499900000000001,0.9271546006202698,-0.21188685297966003,9.884461402893066,-0.213623046875,-0.579833984375,-1.678466796875
0.0174999,0.9253589510917664,-0.23044191300868988,9.59715747833252,1.495361328125,1.251220703125,0.518798828125
0.0224999,1.0259153842926025,-0.2651578485965729,9.764751434326172,-1.0986328125,-0.091552734375,0.396728515625
0.0274999,0.9457096457481384,-0.262763649225235,9.88506031036377,0.06103515625,-0.518798828125,-1.77001953125
0.0324999,0.9409212470054626,-0.26575639843940735,9.584588050842285,1.708984375,0.91552734375,0.701904296875
0.0374999,0.9367313981056213,-0.28550854325294495,9.873088836669922,-0.213623046875,-0.213623046875,-1.46484375
0.0424999,0.933738648891449,-0.28969839215278625,9.575011253356934,1.46484375,1.007080078125,0.91552734375
0.0474999,1.0229226350784302,-0.3100491166114807,9.762955665588379,-1.28173828125,-0.6103515625,0.30517578125
0.0524999,0.9367313981056213,-0.3082534670829773,9.872490882873535,0.18310546875,-0.9765625,-1.739501953125
0.0574999,0.9528923034667969,-0.2902969419956207,9.582193374633789,1.5869140625,1.15966796875,0.79345703125
0.0624999,1.0564415454864502,-0.30226796865463257,9.782708168029785,-1.3427734375,-0.457763671875,0.274658203125
0.0674999,0.9594763517379761,-0.30047231912612915,9.892242431640625,-0.06103515625,-0.030517578125,-1.89208984375
0.0724999,0.9738415479660034,-0.2783259451389313,9.586383819580078,1.3427734375,0.9765625,0.762939453125
0.0774999,1.0522516965866089,-0.2902969419956207,9.802460670471191,-1.28173828125,-0.701904296875,0.30517578125
0.0824999,1.0522516965866089,-0.2902969419956207,9.802460670471191,-1.28173828125,-0.701904296875,0.30517578125
0.0874999,0.9385270476341248,-0.2950853705406189,9.888052940368652,0.213623046875,-0.67138671875,-1.8310546875
0.0924999,0.9666589498519897,-0.2687491476535797,9.588777542114258,1.373291015625,0.885009765625,0.946044921875
0.0974999,0.9175778031349182,-0.25438392162323,9.882665634155273,0.48828125,-0.3662109375,-1.52587890625
0.1024999,0.9175778031349182,-0.25438392162323,9.882665634155273,0.48828125,-0.3662109375,-1.52587890625
0.1074999,0.9684545993804932,-0.20709845423698425,9.607333183288574,1.03759765625,0.946044921875,0.823974609375
0.1124999,0.9983820915222168,-0.22086510062217712,9.864709854125977,-1.64794921875,-0.335693359375,0.06103515625
0.1174999,0.884058952331543,-0.20949265360832214,9.874884605407715,0.42724609375,-0.1220703125,-1.678466796875
0.1224999,0.9349357485771179,-0.16998831927776337,9.624092102050781,1.15966796875,0.701904296875,0.762939453125
0.1274999,0.9582792520523071,-0.1975216418504715,9.879075050354004,-1.40380859375,-0.91552734375,0.1220703125
0.1324999,0.8559271097183228,-0.19033902883529663,9.86351203918457,0.457763671875,-0.396728515625,-1.434326171875
0.1374999,0.9343371987342834,-0.16998831927776337,9.620500564575195,1.251220703125,0.9765625,0.732421875
0.1424999,0.961870551109314,-0.2148796021938324,9.870695114135742,-1.495361328125,-0.091552734375,-0.030517578125
0.1474999,0.9726444482803345,-0.23283611238002777,9.850942611694336,-1.495361328125,-1.007080078125,-0.335693359375
0.1524999,0.9726444482803345,-0.23283611238002777,9.850942611694336,-1.495361328125,-1.007080078125,-0.335693359375
0.1574999,0.8810662031173706,-0.21547815203666687,9.799467086791992,0.579833984375,-0.213623046875,-1.434326171875
0.1624999,0.9648633003234863,-0.20530278980731964,9.611522674560547,1.129150390625,0.79345703125,0.885009765625
0.1674999,0.9840168952941895,-0.2825157940387726,9.856928825378418,-1.64794921875,-0.67138671875,-0.396728515625
0.1724999,0.8978256583213806,-0.26755204796791077,9.81143856048584,0.42724609375,0,-1.15966796875
0.17749990000000002,0.9923965930938721,-0.25318682193756104,9.642647743225098,1.28173828125,1.068115234375,1.3427734375
0.1824999,1.0097545385360718,-0.32620999217033386,9.871294021606445,-1.495361328125,-0.885009765625,-0.640869140625
0.1874999,0.9187749028205872,-0.292691171169281,9.79288387298584,0.732421875,-0.274658203125,-1.495361328125
0.1924999,1.0109516382217407,-0.2735375463962555,9.627084732055664,1.190185546875,0.8544921875,1.3427734375
0.1974999,1.0109516382217407,-0.34416648745536804,9.84495735168457,-1.556396484375,-0.79345703125,-0.640869140625
0.2024999,0.9157821536064148,-0.2974795699119568,9.765350341796875,0.762939453125,0.18310546875,-1.40380859375
0.20749990000000001,1.004966139793396,-0.3345896899700165,9.841964721679688,-1.64794921875,-0.79345703125,-0.54931640625
0.2124999,1.004966139793396,-0.3345896899700165,9.841964721679688,-1.64794921875,-0.79345703125,-0.54931640625
0.2174999,0.9157821536064148,-0.28790274262428284,9.753378868103027,0.762939453125,-0.48828125,-1.312255859375
0.2224999,1.0133458375930786,-0.27473464608192444,9.621099472045898,0.9765625,0.457763671875,1.28173828125
0.2274999,1.0295066833496094,-0.32381579279899597,9.856928825378418,-1.3427734375,-1.220703125,-0.732421875
0.2324999,0.9307458996772766,-0.27473464608192444,9.758167266845703,0.91552734375,0.091552734375,-1.129150390625
0.2374999,1.0301052331924438,-0.25498247146606445,9.64564037322998,0.79345703125,1.251220703125,1.312255859375
0.2424999,1.0145429372787476,-0.29568392038345337,9.90241813659668,-1.739501953125,-0.3662109375,-0.79345703125
0.2474999,0.8990227580070496,-0.2406172752380371,9.77253246307373,0.8544921875,0.1220703125,-1.28173828125
0.2524999,0.9911994934082031,-0.22266076505184174,9.678560256958008,0.732421875,0.732421875,1.190185546875
0.2574999,0.9786299467086792,-0.262763649225235,9.91738224029541,-1.3427734375,-1.220703125,-0.885009765625
0.2624999,0.8768763542175293,-0.20769700407981873,9.774328231811523,0.946044921875,-0.3662109375,-1.190185546875
0.2674999,0.872686505317688,-0.1975216418504715,9.75936508178711,0.732421875,0.518798828125,-1.312255859375
0.2724999,0.872686505317688,-0.1975216418504715,9.75936508178711,0.732421875,0.518798828125,-1.312255859375
0.2774999,0.9804255962371826,-0.1999158412218094,9.670180320739746,0.67138671875,1.068115234375,1.312255859375
0.2824999,0.9534908533096313,-0.23822307586669922,9.913790702819824,-1.434326171875,-1.0986328125,-0.885009765625
0.28749990000000003,0.8487445116043091,-0.1777694821357727,9.718064308166504,1.190185546875,-0.152587890625,-1.3427734375
0.2924999,0.9582792520523071,-0.18614917993545532,9.616909980773926,0.579833984375,0.67138671875,1.373291015625
0.2974999,0.9481038451194763,-0.22445641458034515,9.880271911621094,-1.617431640625,-0.946044921875,-1.03759765625
0.3024999,0.8505401611328125,-0.1711854189634323,9.66958236694336,0.9765625,0.518798828125,-0.946044921875
0.3074999,0.9798270463943481,-0.19871874153614044,9.589975357055664,0.335693359375,0.823974609375,1.3427734375
0.3124999,0.9756371974945068,-0.26336219906806946,9.860519409179688,-1.46484375,-0.9765625,-1.068115234375
0.3174999,0.8870517015457153,-0.2106897532939911,9.639654159545898,1.3427734375,0.06103515625,-0.91552734375
0.3224999,1.0157400369644165,-0.25258827209472656,9.57321548461914,0.640869140625,0.42724609375,1.3427734375
0.3274999,0.8918401598930359,-0.28550854325294495,9.624691009521484,1.40380859375,0.274658203125,-0.762939453125
0.3324999,1.0127472877502441,-0.38307225704193115,9.570222854614258,0.213623046875,0.18310546875,0.9765625
0.3374999,1.0319008827209473,-0.3878606855869293,9.90361499786377,-1.28173828125,-1.28173828125,-1.007080078125
0.3424999,0.9157821536064148,-0.30885201692581177,9.62828254699707,1.64794921875,0.42724609375,-0.885009765625
0.34749990000000003,1.0360907316207886,-0.3603273630142212,9.612719535827637,-0.06103515625,0.732421875,0.732421875
0.35249990000000003,1.0450690984725952,-0.3250128924846649,9.956886291503906,-1.52587890625,-0.42724609375,-0.823974609375
0.3574999,0.9151836037635803,-0.26156654953956604,9.680954933166504,1.3427734375,0.457763671875,-0.48828125
0.3624999,1.0103530883789062,-0.3274070918560028,9.66958236694336,0.06103515625,0.06103515625,1.0986328125
0.3674999,1.0241197347640991,-0.29867666959762573,9.988011360168457,-1.190185546875,-1.373291015625,-1.220703125
0.3724999,0.99479079246521,-0.3130418658256531,9.667786598205566,0.091552734375,0.42724609375,0.9765625
0.3774999,1.0121487379074097,-0.26336219906806946,9.985017776489258,-1.373291015625,-0.640869140625,-1.129150390625
0.3824999,0.8792705535888672,-0.22086510062217712,9.700706481933594,1.52587890625,1.007080078125,-0.457763671875
0.3874999,0.9642647504806519,-0.28371289372444153,9.68933391571045,-0.244140625,0.3662109375,0.91552734375
0.3924999,0.9906009435653687,-0.228047713637352,10.016741752624512,-1.190185546875,-0.9765625,-1.434326171875
0.3974999,0.8487445116043091,-0.1867477297782898,9.701305389404297,1.800537109375,0.518798828125,-0.48828125
0.4024999,0.9427168965339661,-0.24480712413787842,9.695918083190918,-0.3662109375,0.1220703125,1.0986328125
0.4074999,0.9546879529953003,-0.1843535304069519,9.96825885772705,-1.15966796875,-0.701904296875,-1.434326171875
0.41249990000000003,0.8236053586006165,-0.14903905987739563,9.655815124511719,1.5869140625,0.732421875,-0.091552734375
0.41749990000000003,0.9259575009346008,-0.21787235140800476,9.633070945739746,-0.3662109375,0.152587890625,1.129150390625
0.4224999,0.9498994946479797,-0.15801730751991272,9.898228645324707,-1.03759765625,-1.129150390625,-1.5869140625
0.4274999,0.8457517623901367,-0.14484919607639313,9.566631317138672,1.861572265625,0.42724609375,-0.06103515625
0.4324999,0.8589198589324951,-0.16639702022075653,9.512163162231445,1.40380859375,0.67138671875,-0.396728515625
0.4374999,0.961870551109314,-0.24001872539520264,9.548674583435059,-0.3662109375,0.06103515625,1.312255859375
0.4424999,0.9570821523666382,-0.2148796021938324,9.833584785461426,-0.823974609375,-1.373291015625,-1.373291015625
0.4474999,0.8649053573608398,-0.21428105235099792,9.549273490905762,1.46484375,0.67138671875,-0.48828125
0.4524999,0.9756371974945068,-0.2908954918384552,9.611522674560547,-0.54931640625,0.3662109375,0.823974609375
0.4574999,0.9690531492233276,-0.26994624733924866,9.882665634155273,-0.946044921875,-0.579833984375,-1.251220703125
0.4624999,0.9002198576927185,-0.2711433470249176,9.597756385803223,1.52587890625,0.640869140625,-0.06103515625
0.4674999,1.013944387435913,-0.33758243918418884,9.672574996948242,-0.518798828125,-0.244140625,0.67138671875
0.47249990000000003,0.9923965930938721,-0.3148375153541565,9.911994934082031,-0.732421875,-1.03759765625,-1.251220703125
0.47749990000000003,0.9271546006202698,-0.2992752194404602,9.61571216583252,1.64794921875,1.0986328125,0.091552734375
0.4824999,1.025316834449768,-0.3357867896556854,9.682151794433594,-0.6103515625,0.3662109375,0.48828125
0.4874999,0.99479079246521,-0.2968810200691223,9.875483512878418,-0.823974609375,-0.335693359375,-1.861572265625
0.4924999,0.9403226971626282,-0.2795230448246002,9.598953247070312,1.708984375,1.129150390625,0.18310546875
0.4974999,1.0456676483154297,-0.31124621629714966,9.717466354370117,-0.732421875,-0.18310546875,0.640869140625
0.5024999,0.9923965930938721,-0.2861070930957794,9.891045570373535,-0.701904296875,-0.9765625,-1.739501953125
0.5074999,0.9373299479484558,-0.2753331959247589,9.626486778259277,1.52587890625,1.007080078125,0.30517578125
0.5124999,1.0187327861785889,-0.30047231912612915,9.75637149810791,-0.823974609375,0.244140625,0.885009765625
0.5174999,0.9582792520523071,-0.27712884545326233,9.911396026611328,-0.6103515625,-0.732421875,-2.044677734375
0.5224999,0.9080010056495667,-0.24660277366638184,9.645041465759277,1.617431640625,0.54931640625,-0.06103515625
0.5274999,0.9941922426223755,-0.2651578485965729,9.769539833068848,-0.79345703125,-0.091552734375,1.007080078125
0.5324999,0.9319429993629456,-0.23942017555236816,9.90241813659668,-0.762939453125,-0.244140625,-1.800537109375
0.5374999,0.9870096445083618,-0.2603694200515747,9.770736694335938,-0.701904296875,-0.213623046875,0.9765625
0.5424999,0.9151836037635803,-0.2214636504650116,9.90361499786377,-0.42724609375,-0.67138671875,-1.495361328125
0.5474999,0.8906430602073669,-0.2064998894929886,9.634267807006836,1.373291015625,1.068115234375,0.18310546875
0.5524999,0.9678560495376587,-0.22625206410884857,9.783307075500488,-1.03759765625,0.18310546875,0.701904296875
0.5574999,0.8960300087928772,-0.1885433793067932,9.906009674072266,-0.48828125,-0.8544921875,-1.556396484375
0.5624999,0.8786720037460327,-0.1951274424791336,9.638457298278809,1.617431640625,0.54931640625,0.152587890625
0.5674999000000001,0.9612720012664795,-0.21547815203666687,9.79408073425293,-0.8544921875,-0.06103515625,0.54931640625
0.5724999000000001,0.8978256583213806,-0.18914192914962769,9.913790702819824,-0.54931640625,-0.213623046875,-1.434326171875
0.5774999000000001,0.8816647529602051,-0.18614917993545532,9.627683639526367,1.678466796875,0.762939453125,0.244140625
0.5824999,0.9666589498519897,-0.2064998894929886,9.776124000549316,-0.762939453125,-0.640869140625,0.457763671875
0.5874999,0.8960300087928772,-0.17836803197860718,9.876680374145508,-0.42724609375,-0.67138671875,-1.678466796875
0.5924999,0.8864531517028809,-0.1843535304069519,9.576807022094727,1.434326171875,1.007080078125,0.42724609375
0.5974999,0.9139865040779114,-0.24899697303771973,9.858125686645508,-0.457763671875,-0.244140625,-1.3427734375
0.6024999,0.8487445116043091,-0.3531447649002075,9.559449195861816,1.3427734375,0.54931640625,0.9765625
0.6074999,0.8313865661621094,-0.38905778527259827,9.578003883361816,-2.86865234375,-2.044677734375,5.279541015625
0.6124999,0.09816227108240128,-0.8343793153762817,9.060855865478516,-8.270263671875,-13.5498046875,18.890380859375
0.6174999,-0.33279404044151306,-1.0893617868423462,8.415019989013672,-19.83642578125,-35.15625,62.408447265625
0.6224999,-2.1284453868865967,-2.7263972759246826,8.553884506225586,-20.1416015625,-63.4765625,148.162841796875
0.6274999,-2.758718967437744,-4.0863037109375,8.990825653076172,42.54150390625,-89.78271484375,310.455322265625
0.6324999,-4.630984783172607,-5.937021732330322,9.557653427124023,159.210205078125,-86.60888671875,307.525634765625
0.6374999,-5.321113109588623,-7.700949668884277,10.085575103759766,183.441162109375,-80.352783203125,291.229248046875
0.6424999,-7.391499042510986,-8.48205852508545,8.489240646362305,262.237548828125,-51.20849609375,425.10986328125
0.6474999,-6.822277545928955,-7.893084526062012,9.16081428527832,383.6669921875,-26.4892578125,375.67138671875
0.6524999,-5.4911017417907715,-6.785167694091797,9.490615844726562,577.362060546875,-15.7470703125,331.97021484375
0.6574999,-2.9269115924835205,-5.5563435554504395,9.871891975402832,653.472900390625,-35.491943359375,245.208740234375
0.6624999,-0.4818331003189087,-3.4829649925231934,7.5219831466674805,512.0849609375,-64.727783203125,198.638916015625
0.6674999,2.1811177730560303,-1.5352818965911865,4.687847137451172,416.595458984375,-197.93701171875,132.476806640625
0.6724999,4.39156436920166,0.9648633003234863,1.6549919843673706,405.2734375,-286.4990234375,71.22802734375
0.6774999,6.09324312210083,2.6443958282470703,-0.9050082564353943,318.084716796875,-291.534423828125,43.548583984375
0.6824999,8.17380428314209,4.064755916595459,-1.1683704853057861,235.931396484375,-346.5576171875,-13.946533203125
0.6874999,10.102334022521973,5.054758548736572,-1.206079125404358,200.68359375,-370.941162109375,-81.787109375
0.6924999000000001,12.130821228027344,5.810129165649414,-0.363918662071228,179.13818359375,-350.555419921875,-141.693115234375
0.6974999000000001,14.299967765808105,6.179434776306152,1.30543851852417,129.547119140625,-273.25439453125,-182.769775390625
0.7024999000000001,14.07970142364502,6.214748859405518,2.404376983642578,107.574462890625,-190.185546875,-155.21240234375
0.7074999,12.705430030822754,5.766434669494629,2.625840663909912,73.699951171875,-114.593505859375,-124.6337890625
0.7124999,10.857705116271973,5.726930618286133,3.375824451446533,30.1513671875,-79.315185546875,-103.240966796875
0.7174999,8.579023361206055,5.923853397369385,3.693654775619507,-22.4609375,-66.22314453125,-83.92333984375
0.7224999,6.478709697723389,6.099827289581299,4.019266128540039,-70.61767578125,-52.276611328125,-70.49560546875
0.7274999,6.478709697723389,6.099827289581299,4.019266128540039,-70.61767578125,-52.276611328125,-70.49560546875
0.7324999,4.795586109161377,6.4386067390441895,4.3825860023498535,-124.114990234375,-31.3720703125,-58.197021484375
0.7374999,3.5033156871795654,6.512228488922119,4.531625270843506,-169.219970703125,-0.06103515625,-53.009033203125
0.7424999,2.8425159454345703,6.833051681518555,5.08648157119751,-218.93310546875,24.566650390625,-50.506591796875
0.7474999,2.382230758666992,6.570886611938477,4.847660064697266,-258.30078125,52.6123046875,-52.91748046875
0.7524999,2.492363929748535,6.59004020690918,5.0248308181762695,-292.96875,87.7685546875,-53.28369140625
0.7574999,3.028665065765381,5.828683853149414,4.37540340423584,-342.315673828125,155.609130859375,-49.98779296875
0.7624999,3.338714361190796,5.477334976196289,4.275445461273193,-368.7744140625,176.849365234375,-50.811767578125
0.7674999,3.378817081451416,5.206191539764404,3.980360269546509,-390.533447265625,187.80517578125,-55.48095703125
0.7724999,3.336918592453003,4.950610637664795,3.823540210723877,-411.4990234375,200.775146484375,-61.767578125
0.7774999,3.1058781147003174,4.726154327392578,3.6577415466308594,-426.788330078125,218.658447265625,-65.49072265625
0.7824999,2.876034736633301,4.419097900390625,3.6810851097106934,-441.71142578125,240.78369140625,-60.302734375
0.7874999,2.5761611461639404,4.095282077789307,3.554192304611206,-460.845947265625,261.688232421875,-49.468994140625
0.7924999,2.3576900959014893,3.7684733867645264,3.9223008155822754,-451.995849609375,281.8603515625,-43.02978515625
0.7974999,1.985990285873413,3.3877954483032227,4.035427093505859,-465.88134765625,296.905517578125,-41.046142578125
0.8024999,4.154538631439209,-0.7613561153411865,11.439496040344238,224.639892578125,207.70263671875,-225.4638671875
0.8074999,4.154538631439209,-0.7613561153411865,11.439496040344238,224.639892578125,207.70263671875,-225.4638671875
0.8124999,1.3844470977783203,-3.3297359943389893,8.358757019042969,0.1220703125,-169.3115234375,-100.2197265625
0.8174999000000001,0.13168109953403473,-2.0685901641845703,5.114014625549316,-15.13671875,-202.301025390625,-79.833984375
0.8224999000000001,-0.2693476974964142,-1.0540473461151123,2.564189910888672,-15.960693359375,-208.984375,-57.891845703125
0.8274999000000001,-0.4884171485900879,-0.04908113554120064,1.315613865852356,-33.0810546875,-151.2451171875,-26.18408203125
0.8324999000000001,-0.06643909960985184,0.04010287672281265,1.889025092124939,-83.587646484375,-14.58740234375,0.732421875
0.8374999,0.2495955228805542,0.0520738884806633,3.448847532272339,-75.74462890625,91.00341796875,15.5029296875
0.8424999,0.524330198764801,-0.6302735805511475,5.8616042137146,-49.468994140625,173.88916015625,26.42822265625
0.8474999,0.861314058303833,-1.6496049165725708,8.494627952575684,-28.74755859375,194.3359375,24.5361328125
0.8524999,1.027711033821106,-3.3429040908813477,11.045649528503418,-11.810302734375,135.162353515625,19.622802734375
0.8574999,0.9002198576927185,-5.096656799316406,13.104063987731934,10.68115234375,42.96875,16.6015625
0.8624999,-1.0229226350784302,-6.053140640258789,11.900978088378906,19.95849609375,-26.214599609375,42.66357421875
0.8674999,-1.533486247062683,-4.3191399574279785,9.659406661987305,20.782470703125,-21.514892578125,46.661376953125
0.8724999,-1.468244194984436,-2.427121877670288,8.192359924316406,-4.547119140625,2.8076171875,45.928955078125
0.8774999,-1.060032844543457,-0.4010287821292877,7.64109468460083,-4.913330078125,4.0283203125,39.093017578125
0.8824999,-0.26396074891090393,1.049857497215271,8.325836181640625,1.617431640625,-3.662109375,30.029296875
0.8874999,0.44771572947502136,2.0147206783294678,9.013570785522461,8.209228515625,-2.01416015625,19.6533203125
0.8924999,0.9810241460800171,2.3499090671539307,9.667786598205566,6.683349609375,-4.119873046875,9.979248046875
0.8974999,1.1558008193969727,2.1589713096618652,9.810839653015137,-1.64794921875,-1.068115234375,4.39453125
0.9024999,1.1791443824768066,1.5388731956481934,9.86889934539795,-6.561279296875,6.7138671875,0.946044921875
0.9074999,1.0893617868423462,0.7709329724311829,9.852738380432129,-3.509521484375,5.462646484375,-0.885009765625
0.9124999,0.9421183466911316,-0.058059390634298325,9.860519409179688,0.8544921875,1.77001953125,-1.495361328125
0.9174999,0.899621307849884,-0.3902548849582672,9.75397777557373,-2.5634765625,1.0986328125,-1.617431640625
0.9224999,1.0073603391647339,-0.18076223134994507,9.616311073303223,-0.457763671875,-0.335693359375,-0.518798828125
0.9274999,1.047463297843933,-0.02693476900458336,9.610325813293457,-0.701904296875,0.91552734375,-0.30517578125
0.9324999,1.0636241436004639,-0.08978256583213806,9.696516990661621,-1.220703125,1.617431640625,3.082275390625
0.9374999,1.0396820306777954,-0.1562216579914093,9.726444244384766,1.89208984375,-2.9296875,1.40380859375
0.9424999000000001,0.9959878921508789,-0.2406172752380371,9.744999885559082,1.434326171875,-3.23486328125,-3.143310546875
0.9474999000000001,1.035492181777954,-0.2687491476535797,9.7791166305542,-1.617431640625,2.3193359375,-2.227783203125
0.9524999000000001,1.0432734489440918,-0.2472013235092163,9.649829864501953,-0.335693359375,1.220703125,-0.030517578125
0.9574999000000001,1.0492589473724365,-0.14784196019172668,9.636063575744629,-0.244140625,0.67138671875,0.1220703125
0.9624999,1.0720038414001465,-0.2064998894929886,9.774328231811523,-0.396728515625,2.105712890625,1.15966796875
0.9674999,1.0402805805206299,-0.15023615956306458,9.795876502990723,0.518798828125,-0.1220703125,1.77001953125
0.9724999,0.9906009435653687,-0.22026655077934265,9.87967300415039,-0.152587890625,0.30517578125,3.143310546875
0.9774999,0.9361328482627869,-0.30226796865463257,9.835979461669922,2.410888671875,-4.150390625,-1.495361328125
0.9824999,0.9050082564353943,-0.3232172429561615,9.816825866699219,-0.42724609375,-1.190185546875,-6.7138671875
0.9874999,0.9798270463943481,-0.3172317147254944,9.841964721679688,-3.11279296875,6.2255859375,-0.946044921875
0.9924999,1.0217255353927612,-0.18375498056411743,9.737217903137207,1.617431640625,0.335693359375,4.364013671875
0.9974999,0.9684545993804932,-0.14903905987739563,9.788095474243164,0.701904296875,-3.631591796875,3.509521484375
1.0024999,0.9995791912078857,-0.14903905987739563,9.767146110534668,0.091552734375,-0.9765625,0.48828125
1.0074999000000002,1.0618284940719604,-0.14065934717655182,9.73781681060791,3.5400390625,-6.16455078125,3.936767578125
1.0124999000000001,1.0384849309921265,-0.1843535304069519,9.819219589233398,-0.9765625,-2.0751953125,-2.655029296875
1.0174999000000002,1.0121487379074097,-0.22924481332302094,9.728240013122559,-1.77001953125,3.875732421875,-3.84521484375
1.0224999000000001,0.9756371974945068,-0.2579752206802368,9.684545516967773,-0.274658203125,1.77001953125,-1.8310546875
1.0274999,0.9690531492233276,-0.262763649225235,9.765350341796875,1.068115234375,1.678466796875,4.425048828125
1.0324999000000001,0.9983820915222168,-0.304063618183136,9.757569313049316,2.532958984375,-4.638671875,2.01416015625
1.0374999,0.9307458996772766,-0.2992752194404602,9.755773544311523,-0.48828125,-3.265380859375,-7.049560546875
1.0424999000000001,0.9923965930938721,-0.2519897222518921,9.873687744140625,-4.119873046875,6.8359375,-2.288818359375
1.0474999,0.9702502489089966,-0.24181437492370605,9.81024169921875,1.52587890625,0.91552734375,4.974365234375
1.0524999000000002,0.9175778031349182,-0.1604115068912506,9.865307807922363,1.953125,-5.828857421875,3.265380859375
1.0574999,0.9498994946479797,-0.2711433470249176,9.688735961914062,-1.312255859375,1.922607421875,-5.828857421875
1.0624999000000002,0.9876081943511963,-0.23403321206569672,9.6989107131958,-1.28173828125,5.462646484375,0.396728515625
1.0674999,1.0462661981582642,-0.26396074891090393,9.709685325622559,3.60107421875,-1.495361328125,6.53076171875
1.0724999000000002,1.01753568649292,-0.1867477297782898,9.688735961914062,1.953125,-7.843017578125,-3.11279296875
1.0774999,1.0295066833496094,-0.17178396880626678,9.862914085388184,-4.39453125,4.180908203125,-5.615234375
1.0824999000000002,1.0642226934432983,-0.17417816817760468,9.837176322937012,-1.28173828125,5.43212890625,3.204345703125
1.0874999,1.0097545385360718,-0.1999158412218094,9.884461402893066,3.23486328125,-5.096435546875,3.448486328125
1.0924999000000002,1.0606313943862915,-0.2232593148946762,9.880870819091797,0.518798828125,-3.173828125,-1.0986328125
1.0974999,1.0372878313064575,-0.22206220030784607,9.768342971801758,-1.77001953125,2.50244140625,-4.547119140625
1.1024999000000002,0.9923965930938721,-0.24660277366638184,9.780313491821289,-1.46484375,5.31005859375,0.396728515625
1.1074999,1.0630255937576294,-0.21966800093650818,9.77253246307373,3.692626953125,-1.0986328125,5.523681640625
1.1124999000000002,0.960673451423645,-0.22864626348018646,9.682151794433594,2.044677734375,-6.866455078125,-3.631591796875
1.1174999,0.9229647517204285,-0.17298106849193573,9.633070945739746,4.8828125,-7.293701171875,2.0751953125
1.1224999000000002,0.9971849918365479,-0.2017114907503128,9.84495735168457,-2.99072265625,5.79833984375,-0.640869140625
1.1274999,0.9636662006378174,-0.25917232036590576,9.88625717163086,1.46484375,0.1220703125,2.349853515625
1.1324999000000002,1.0360907316207886,-0.27892449498176575,9.87967300415039,2.532958984375,-4.852294921875,-0.396728515625
1.1374999000000001,1.0636241436004639,-0.23702596127986908,9.830592155456543,-1.77001953125,-1.708984375,-5.18798828125
1.1424999000000002,1.0426748991012573,-0.22744916379451752,9.841365814208984,-2.899169921875,6.561279296875,0.6103515625
1.1474999000000001,1.1019313335418701,-0.1999158412218094,9.781511306762695,3.814697265625,-0.54931640625,6.744384765625
1.1524999000000002,1.0283095836639404,-0.1777694821357727,9.674370765686035,1.8310546875,-8.880615234375,-3.72314453125
1.1574999000000001,1.0073603391647339,-0.15322890877723694,9.732429504394531,-5.79833984375,5.950927734375,-3.90625
1.1624999,0.9959878921508789,-0.23762452602386475,9.682151794433594,0.885009765625,8.30078125,7.32421875
1.1674999000000001,0.9558850526809692,-0.2322375625371933,9.752182006835938,-1.708984375,8.97216796875,5.340576171875
1.1724999,0.9259575009346008,-0.2753331959247589,9.759963035583496,4.669189453125,-4.21142578125,3.47900390625
1.1774999000000002,0.9145850539207458,-0.243011474609375,9.813833236694336,-1.556396484375,-4.33349609375,-7.080078125
1.1824999,0.9911994934082031,-0.20350714027881622,9.906607627868652,-3.47900390625,5.645751953125,0.701904296875
1.1874999000000002,0.9355342984199524,-0.272938996553421,9.821614265441895,3.2958984375,-0.42724609375,4.547119140625
1.1924999,0.9876081943511963,-0.21128830313682556,9.835380554199219,0.885009765625,-6.622314453125,-4.39453125
1.1974999000000002,1.0229226350784302,-0.23283611238002777,9.852140426635742,-3.387451171875,2.50244140625,-2.532958984375
1.2024999,1.013944387435913,-0.20530278980731964,9.808445930480957,1.373291015625,3.11279296875,5.615234375
1.2074999000000002,1.0396820306777954,-0.22385786473751068,9.685144424438477,2.50244140625,-5.67626953125,-1.556396484375
1.2124999,1.0678139925003052,-0.17896658182144165,9.721057891845703,-3.0517578125,0.091552734375,-5.43212890625
1.2174999000000002,1.0546458959579468,-0.19213469326496124,9.739612579345703,-0.42724609375,7.293701171875,6.28662109375
1.2224999,1.0271124839782715,-0.19033902883529663,9.785101890563965,-2.471923828125,-3.72314453125,-7.38525390625
1.2274999000000002,1.0127472877502441,-0.19393034279346466,9.84256362915039,-1.007080078125,8.697509765625,5.584716796875
1.2324999,0.9786299467086792,-0.22026655077934265,9.756970405578613,3.875732421875,-2.197265625,2.105712890625
1.2374999000000002,0.9475052952766418,-0.17537526786327362,9.834781646728516,-2.471923828125,-6.072998046875,-7.781982421875
1.2424999,0.9528923034667969,-0.17417816817760468,9.852738380432129,-1.28173828125,7.8125,4.791259765625
1.2474999000000002,0.9307458996772766,-0.2106897532939911,9.716867446899414,3.662109375,-2.0751953125,2.685546875
1.2524999,0.9385270476341248,-0.18914192914962769,9.751583099365234,-2.593994140625,-6.439208984375,-7.8125
1.2574999000000002,0.9666589498519897,-0.21368250250816345,9.800664901733398,-0.9765625,7.293701171875,4.547119140625
1.2624999000000001,0.9702502489089966,-0.25258827209472656,9.653421401977539,3.5400390625,-2.685546875,2.166748046875
1.2674999000000002,0.9870096445083618,-0.2190694510936737,9.75278091430664,-2.960205078125,-5.2490234375,-7.14111328125
1.2724999000000001,1.0067617893218994,-0.2519897222518921,9.803657531738281,-0.274658203125,7.720947265625,5.126953125
1.2774999000000002,1.0330979824066162,-0.23343466222286224,9.623494148254395,3.23486328125,-3.47900390625,0.67138671875
1.2824999000000001,1.0785878896713257,-0.22685061395168304,9.79647445678711,1.007080078125,7.598876953125,5.859375
1.2874999,1.0492589473724365,-0.17836803197860718,9.654019355773926,2.532958984375,-5.31005859375,-1.739501953125
1.2924999000000001,1.0456676483154297,-0.20350714027881622,9.868300437927246,-3.47900390625,-0.274658203125,-4.425048828125
1.2974999,1.0247182846069336,-0.20769700407981873,9.704896926879883,2.166748046875,6.561279296875,6.439208984375
1.3024999000000002,0.9846154451370239,-0.2214636504650116,9.683947563171387,0.885009765625,-6.77490234375,-4.119873046875
1.3074999,0.9756371974945068,-0.21188685297966003,9.815628051757812,-3.082275390625,2.8076171875,-1.373291015625
1.3124999000000002,0.9828197956085205,-0.24839842319488525,9.725846290588379,3.2958984375,2.960205078125,5.340576171875
1.3174999,0.9301473498344421,-0.22026655077934265,9.815628051757812,-1.15966796875,-7.232666015625,-6.072998046875
1.3224999000000002,0.9923965930938721,-0.2322375625371933,9.905410766601562,-1.77001953125,5.859375,2.227783203125
1.3274999,0.9774328470230103,-0.272938996553421,9.737217903137207,3.631591796875,-1.251220703125,2.471923828125
1.3324999000000002,0.983418345451355,-0.21547815203666687,9.813234329223633,-2.8076171875,-4.974365234375,-6.011962890625
1.3374999,1.0360907316207886,-0.2513911724090576,9.81024169921875,0.274658203125,7.2021484375,5.126953125
1.3424999000000002,1.0319008827209473,-0.21787235140800476,9.666589736938477,2.716064453125,4.69970703125,5.279541015625
1.3474999,1.0319008827209473,-0.21787235140800476,9.666589736938477,2.716064453125,4.69970703125,5.279541015625
1.3524999000000002,0.9714473485946655,-0.1951274424791336,9.72165584564209,-0.457763671875,-6.77490234375,-5.401611328125
1.3574999,1.002571940422058,-0.20350714027881622,9.854534149169922,-1.708984375,5.706787109375,2.166748046875
1.3624999000000002,0.9648633003234863,-0.19452889263629913,9.86770248413086,-2.777099609375,-3.631591796875,-5.18798828125
1.3674999,0.9648633003234863,-0.19452889263629913,9.86770248413086,-2.777099609375,-3.631591796875,-5.18798828125
1.3724999000000002,1.0091559886932373,-0.2388216257095337,9.737217903137207,1.46484375,6.561279296875,5.2490234375
1.3774999,0.961870551109314,-0.21009120345115662,9.693524360656738,0.9765625,-6.2255859375,-3.631591796875
1.3824999000000002,0.9726444482803345,-0.20709845423698425,9.840767860412598,-2.655029296875,2.74658203125,-0.152587890625
1.3874999000000001,0.973242998123169,-0.284311443567276,9.689932823181152,3.35693359375,1.678466796875,3.021240234375
1.3924999000000002,0.9235633015632629,-0.21368250250816345,9.836577415466309,-2.410888671875,-5.615234375,-5.4931640625
1.3974999000000001,1.0456676483154297,-0.2759317457675934,9.706692695617676,3.35693359375,2.50244140625,3.265380859375
1.4024999000000002,1.0456676483154297,-0.2759317457675934,9.706692695617676,3.35693359375,2.50244140625,3.265380859375
1.4074999000000001,0.9929951429367065,-0.2106897532939911,9.824606895446777,-2.471923828125,-5.584716796875,-5.462646484375
1.4124999,1.0678139925003052,-0.304063618183136,9.746196746826172,0.67138671875,6.53076171875,4.638671875
1.4174999000000001,0.9941922426223755,-0.18076223134994507,9.650428771972656,1.678466796875,-4.57763671875,-3.41796875
1.4224999,1.016338586807251,-0.15442600846290588,9.817423820495605,-2.777099609375,1.89208984375,-0.152587890625
1.4274999000000002,1.0468647480010986,-0.17836803197860718,9.621099472045898,3.326416015625,1.953125,2.471923828125
1.4324999,0.982221245765686,-0.14784196019172668,9.847949981689453,-2.960205078125,-4.21142578125,-4.608154296875
1.4374999000000002,1.0606313943862915,-0.2561795711517334,9.75936508178711,1.617431640625,6.16455078125,4.913330078125
1.4424999,0.9780313968658447,-0.20350714027881622,9.730035781860352,0.48828125,-5.31005859375,-4.638671875
1.4474999000000002,0.9355342984199524,-0.26396074891090393,9.931747436523438,-3.326416015625,-2.593994140625,-2.899169921875
1.4524999,0.9355342984199524,-0.26396074891090393,9.931747436523438,-3.326416015625,-2.593994140625,-2.899169921875
1.4574999000000002,0.9768342971801758,-0.3010708689689636,9.702502250671387,2.899169921875,4.39453125,4.180908203125
1.4624999,0.884058952331543,-0.23283611238002777,9.780313491821289,-1.495361328125,-5.92041015625,-5.401611328125
1.4674999000000002,0.9804255962371826,-0.2819172441959381,9.744400978088379,-0.091552734375,5.523681640625,4.39453125
1.4724999,0.9217676520347595,-0.23104046285152435,9.692327499389648,1.64794921875,-3.90625,-3.204345703125
1.4774999000000002,0.961870551109314,-0.2388216257095337,9.894637107849121,-2.5634765625,1.556396484375,0.732421875
1.4824999,1.0247182846069336,-0.2711433470249176,9.666589736938477,3.387451171875,1.03759765625,0.946044921875
1.4874999000000002,0.9959878921508789,-0.22505496442317963,9.926959037780762,-2.960205078125,-2.99072265625,-3.47900390625
1.4924999,1.1115081310272217,-0.2687491476535797,9.674968719482422,2.50244140625,5.18798828125,4.33349609375
1.4974999000000002,1.0283095836639404,-0.20290859043598175,9.767146110534668,-1.251220703125,-5.4931640625,-5.157470703125
1.5024999,1.039083480834961,-0.2232593148946762,9.739612579345703,0.244140625,5.340576171875,4.2724609375
1.5074999000000002,0.9906009435653687,-0.17477671802043915,9.919178009033203,-2.13623046875,2.410888671875,1.64794921875
1.5124999000000001,0.9888052940368652,-0.2082955539226532,9.66539192199707,2.9296875,0.06103515625,-0.1220703125
1.5174999000000002,0.9852139949798584,-0.1999158412218094,9.988609313964844,-3.143310546875,-1.89208984375,-1.861572265625
1.5224999000000001,0.9774328470230103,-0.16759411990642548,9.676166534423828,1.434326171875,-3.448486328125,-3.570556640625
1.5274999000000002,1.025316834449768,-0.19273324310779572,9.893440246582031,-2.0751953125,1.953125,1.678466796875
1.5324999000000001,1.015141487121582,-0.2322375625371933,9.715670585632324,2.86865234375,-0.1220703125,-0.762939453125
1.5374999000000003,0.9911994934082031,-0.23762452602386475,10.000580787658691,-3.143310546875,-1.129150390625,-1.007080078125
1.5424999000000001,0.9379284977912903,-0.28311434388160706,9.925163269042969,-2.8076171875,-3.692626953125,-3.265380859375
1.5474999,1.0642226934432983,-0.314238965511322,9.570821762084961,2.655029296875,4.364013671875,3.47900390625
1.5524999000000002,0.9690531492233276,-0.24420857429504395,9.781511306762695,-2.0751953125,-4.45556640625,-4.638671875
1.5574999,1.0558429956436157,-0.22685061395168304,9.66299819946289,1.373291015625,5.0048828125,4.57763671875
1.5624999000000002,0.9576807022094727,-0.17477671802043915,9.740809440612793,-0.732421875,-4.45556640625,-4.638671875
1.5674999,1.0199298858642578,-0.20051439106464386,9.802460670471191,0.06103515625,4.08935546875,3.875732421875
1.5724999000000002,0.9445125460624695,-0.13287819921970367,9.736021041870117,0.6103515625,-3.60107421875,-3.936767578125
1.5774999,0.9977835416793823,-0.20231004059314728,9.845556259155273,-1.220703125,2.288818359375,2.685546875
1.5824999000000002,0.9624691009521484,-0.17298106849193573,9.6989107131958,1.617431640625,-1.495361328125,-2.349853515625
1.5874999,1.0247182846069336,-0.1843535304069519,9.875483512878418,-2.25830078125,0.67138671875,1.0986328125
1.5924999000000002,1.0241197347640991,-0.23283611238002777,9.68933391571045,2.655029296875,-0.1220703125,-0.946044921875
1.5974999,1.0785878896713257,-0.22266076505184174,9.962273597717285,-2.685546875,-0.762939453125,-0.335693359375
1.6024999000000002,1.0247182846069336,-0.30705636739730835,9.583391189575195,3.11279296875,2.8076171875,1.678466796875
1.6074999,0.8966285586357117,-0.2513911724090576,9.87967300415039,-2.62451171875,-3.23486328125,-2.9296875
1.6124999000000002,1.0001777410507202,-0.26994624733924866,9.470264434814453,2.8076171875,3.72314453125,2.8076171875
1.6174999,0.9367313981056213,-0.20769700407981873,9.858723640441895,-2.38037109375,-3.570556640625,-3.5400390625
1.6224999000000002,1.0606313943862915,-0.19812019169330597,9.525930404663086,2.38037109375,3.60107421875,3.2958984375
1.6274999,0.9630676507949829,-0.1711854189634323,9.906607627868652,-2.01416015625,-3.875732421875,-3.90625
1.6324999000000002,1.0576386451721191,-0.16998831927776337,9.66958236694336,1.922607421875,3.936767578125,3.35693359375
1.6374999000000001,0.9331400990486145,-0.17477671802043915,9.9000244140625,-1.52587890625,-4.058837890625,-4.21142578125
1.6424999000000002,1.0330979824066162,-0.21667525172233582,9.747992515563965,1.495361328125,3.326416015625,3.692626953125
1.6474999000000001,0.9157821536064148,-0.21368250250816345,9.844358444213867,-0.9765625,-3.631591796875,-4.08935546875
1.6524999000000002,1.0372878313064575,-0.2472013235092163,9.747393608093262,1.007080078125,3.72314453125,3.570556640625
1.6574999000000001,1.047463297843933,-0.22505496442317963,9.734225273132324,0.79345703125,3.41796875,3.35693359375
1.6624999000000003,0.9271546006202698,-0.17298106849193573,9.753378868103027,-0.396728515625,-2.777099609375,-4.058837890625
1.6674999000000001,1.0564415454864502,-0.23582886159420013,9.75637149810791,0.1220703125,3.173828125,3.47900390625
1.6724999,0.9403226971626282,-0.20530278980731964,9.728838920593262,0.030517578125,-2.8076171875,-3.570556640625
1.6774999000000002,1.0666168928146362,-0.2861070930957794,9.783905029296875,0.18310546875,2.777099609375,3.2958984375
1.6824999,0.9576807022094727,-0.21787235140800476,9.777320861816406,0.244140625,-2.532958984375,-3.387451171875
1.6874999000000002,1.0630255937576294,-0.2513911724090576,9.834183692932129,0.091552734375,2.777099609375,3.173828125
1.6924999,0.9403226971626282,-0.16340427100658417,9.774328231811523,0,-2.3193359375,-3.692626953125
1.6974999000000002,1.0504560470581055,-0.2172738015651703,9.800065994262695,-0.1220703125,2.5634765625,3.326416015625
1.7024999,0.9205705523490906,-0.15502455830574036,9.77133560180664,0.152587890625,-2.593994140625,-3.570556640625
1.7074999000000002,0.9163807034492493,-0.19213469326496124,9.783905029296875,-0.30517578125,-2.532958984375,-3.753662109375
1.7124999,1.070208191871643,-0.26156654953956604,9.734225273132324,0.244140625,2.960205078125,3.143310546875
1.7174999000000002,0.9145850539207458,-0.2472013235092163,9.77253246307373,-0.457763671875,-2.410888671875,-3.72314453125
1.7224999,1.060032844543457,-0.2777273952960968,9.715670585632324,0.701904296875,2.86865234375,3.387451171875
1.7274999000000002,0.9187749028205872,-0.2585737705230713,9.815030097961426,-0.640869140625,-2.5634765625,-3.448486328125
1.7324999,1.061229944229126,-0.26336219906806946,9.720458984375,1.0986328125,2.593994140625,3.143310546875
1.7374999000000002,0.9331400990486145,-0.23104046285152435,9.897629737854004,-0.946044921875,-2.716064453125,-3.753662109375
1.7424999,1.0564415454864502,-0.2214636504650116,9.660603523254395,1.129150390625,3.2958984375,3.11279296875
1.7474999000000002,0.9498994946479797,-0.22744916379451752,9.944915771484375,-1.15966796875,-2.960205078125,-3.41796875
1.7524999,1.061229944229126,-0.21787235140800476,9.569025993347168,1.556396484375,3.143310546875,2.50244140625
1.7574999000000002,0.9463081955909729,-0.22086510062217712,9.964069366455078,-1.678466796875,-2.655029296875,-3.11279296875
1.7624999000000001,1.0552444458007812,-0.24899697303771973,9.559449195861816,2.0751953125,2.471923828125,2.410888671875
1.7674999000000002,0.9080010056495667,-0.23942017555236816,10.002974510192871,-2.01416015625,-2.349853515625,-2.0751953125
1.7724999000000001,1.0319008827209473,-0.17836803197860718,9.639654159545898,2.44140625,1.77001953125,0.91552734375
1.7774999000000002,1.0241197347640991,-0.1885433793067932,10.027515411376953,-2.38037109375,-1.495361328125,-0.8544921875
1.7824999000000001,1.0899603366851807,-0.1322796493768692,9.713275909423828,2.13623046875,1.678466796875,0.274658203125
1.7874999000000003,1.1180921792984009,-0.1538274586200714,9.913191795349121,-1.953125,-1.190185546875,-0.244140625
1.7924999000000001,1.025316834449768,-0.20051439106464386,9.652822494506836,2.227783203125,0.640869140625,-0.823974609375
1.7974999,1.0157400369644165,-0.27892449498176575,9.784503936767578,-1.708984375,0.091552734375,0.885009765625
1.8024999000000002,0.9080010056495667,-0.2849099934101105,9.624691009521484,1.617431640625,-0.152587890625,-1.8310546875
1.8074999,0.9343371987342834,-0.3471592366695404,9.751583099365234,-1.0986328125,0.6103515625,1.678466796875
1.8124999000000002,0.8750807046890259,-0.22744916379451752,9.701904296875,1.03759765625,-1.251220703125,-2.471923828125
1.8174999,0.9780313968658447,-0.262763649225235,9.749788284301758,-0.30517578125,2.01416015625,2.532958984375
1.8224999000000002,1.0402805805206299,-0.21128830313682556,9.747393608093262,0.274658203125,2.50244140625,2.655029296875
1.8274999,0.9379284977912903,-0.18375498056411743,9.915586471557617,-0.762939453125,-2.25830078125,-3.021240234375
1.8324999000000002,1.071405291557312,-0.22625206410884857,9.621698379516602,1.220703125,2.655029296875,2.593994140625
1.8374999,0.9475052952766418,-0.20290859043598175,9.968857765197754,-1.40380859375,-2.3193359375,-2.655029296875
1.8424999000000002,1.049857497215271,-0.23104046285152435,9.557653427124023,1.953125,1.983642578125,1.708984375
1.8474999,0.9989806413650513,-0.22685061395168304,9.97065258026123,-1.922607421875,-1.983642578125,-1.46484375
1.8524999000000002,1.0372878313064575,-0.17417816817760468,9.70429801940918,2.105712890625,1.15966796875,0.396728515625
1.8574999,1.05105459690094,-0.19393034279346466,9.941324234008789,-1.8310546875,-1.190185546875,-0.396728515625
1.8624999000000002,0.9840168952941895,-0.16998831927776337,9.758167266845703,1.983642578125,0.762939453125,-0.91552734375
1.8674999,0.9768342971801758,-0.21128830313682556,9.819818496704102,-1.28173828125,0.091552734375,1.190185546875
1.8724999000000002,0.9038111567497253,-0.1933317929506302,9.6803560256958,1.129150390625,-0.579833984375,-2.13623046875
1.8774999,0.9983820915222168,-0.2603694200515747,9.732429504394531,-0.091552734375,0.701904296875,2.105712890625
1.8824999000000002,1.0660183429718018,-0.24241292476654053,9.613917350769043,0.335693359375,2.044677734375,2.50244140625
1.8874999000000001,0.9056068062782288,-0.24121582508087158,9.891045570373535,-0.946044921875,-2.105712890625,-2.685546875
1.8924999000000002,1.036689281463623,-0.2849099934101105,9.551069259643555,1.434326171875,1.77001953125,2.01416015625
1.8974999000000001,0.9678560495376587,-0.2968810200691223,10.035296440124512,-1.64794921875,-1.800537109375,-2.01416015625
1.9024999000000002,1.0336965322494507,-0.24839842319488525,9.710882186889648,1.953125,1.434326171875,0.701904296875
1.9074999000000001,1.0372878313064575,-0.23343466222286224,9.980828285217285,-1.77001953125,-0.8544921875,-0.457763671875
1.9124999000000003,1.003769040107727,-0.15981295704841614,9.75936508178711,1.5869140625,0.732421875,-0.885009765625
1.9174999000000001,1.0127472877502441,-0.17477671802043915,9.795876502990723,-1.220703125,-0.152587890625,1.40380859375
1.9224999,0.9097966551780701,-0.1454477459192276,9.66958236694336,1.03759765625,-0.79345703125,-2.593994140625
1.9274999000000002,1.0235211849212646,-0.21966800093650818,9.639056205749512,-0.18310546875,0.91552734375,2.288818359375
1.9324999,0.9080010056495667,-0.19033902883529663,9.782109260559082,-0.396728515625,-1.251220703125,-2.74658203125
1.9374999000000002,1.0552444458007812,-0.27892449498176575,9.560047149658203,0.823974609375,2.471923828125,2.166748046875
1.9424999,1.0576386451721191,-0.27712884545326233,9.677961349487305,1.556396484375,1.8310546875,0.885009765625
1.9474999000000002,1.0145429372787476,-0.22086510062217712,10.00716495513916,-1.678466796875,-1.15966796875,-0.579833984375
1.9524999,1.016338586807251,-0.13587094843387604,9.780313491821289,1.495361328125,0.946044921875,-0.67138671875
1.9574999000000002,1.0181342363357544,-0.031124621629714966,9.807847023010254,-1.068115234375,0.091552734375,0.244140625
1.9624999,0.871489405632019,0.030526071786880493,9.6803560256958,-0.67138671875,0.885009765625,-4.608154296875
1.9674999000000002,0.9253589510917664,-0.04249707981944084,9.62947940826416,-2.471923828125,1.373291015625,-0.274658203125
1.9724999,0.7829039692878723,-0.19273324310779572,9.783307075500488,-1.312255859375,-1.007080078125,-4.45556640625
1.9774999000000002,0.9133879542350769,-0.42676645517349243,9.59476375579834,1.52587890625,-1.77001953125,-0.335693359375
1.9824999,0.9391255974769592,-0.536899745464325,10.052056312561035,-0.701904296875,-2.899169921875,-3.7841796875
1.9874999000000002,1.0169371366500854,-0.48961424827575684,9.6989107131958,1.617431640625,0.030517578125,-1.28173828125
1.9924999,1.1037269830703735,-0.314238965511322,10.033500671386719,-1.495361328125,-0.8544921875,-2.471923828125
1.9974999000000002,1.1037269830703735,-0.314238965511322,10.033500671386719,-1.495361328125,-0.8544921875,-2.471923828125
2.0024999,0.45190557837486267,0.49320554733276367,9.765948295593262,-2.349853515625,1.312255859375,-23.773193359375
2.0074999,0.45190557837486267,0.49320554733276367,9.765948295593262,-2.349853515625,1.312255859375,-23.773193359375
2.0124999000000003,0.43335050344467163,0.5949591398239136,9.856928825378418,-4.2724609375,2.86865234375,-28.656005859375
2.0174999000000002,0.2825157940387726,0.49140989780426025,9.851541519165039,-5.157470703125,1.983642578125,-36.9873046875
2.0224999,0.4213795065879822,0.34177228808403015,9.759963035583496,-6.011962890625,-2.227783203125,-34.515380859375
2.0274999,0.5321113467216492,0.1777694821357727,10.05923843383789,-5.67626953125,-4.852294921875,-35.858154296875
2.0324999000000004,2.008735179901123,0.5440823435783386,9.659406661987305,5.462646484375,-9.918212890625,3.60107421875
2.0374999000000003,2.4396915435791016,0.6607996821403503,9.697115898132324,1.617431640625,-4.791259765625,17.852783203125
2.0424999,2.45285964012146,0.5321113467216492,9.627683639526367,-1.373291015625,-3.23486328125,17.974853515625
2.0474999,2.4863784313201904,0.2890998423099518,9.419387817382812,-0.91552734375,-5.06591796875,23.651123046875
2.0524999,2.1422119140625,-0.28969839215278625,9.755773544311523,-3.41796875,-5.645751953125,23.681640625
2.0574999000000003,1.954267144203186,-0.5841852426528931,9.48343276977539,6.103515625,-7.2021484375,31.280517578125
2.0624999,1.723825216293335,-0.7338228225708008,9.984419822692871,6.9580078125,-10.040283203125,31.31103515625
2.0674999,1.4832079410552979,-0.5428852438926697,9.758167266845703,7.904052734375,-10.162353515625,30.1513671875
2.0724999,1.37906014919281,-0.35254621505737305,9.945513725280762,5.218505859375,-14.068603515625,35.15625
2.0774999000000003,1.2342109680175781,-0.04908113554120064,9.883264541625977,5.0048828125,-14.251708984375,34.393310546875
2.0824999,1.3431471586227417,0.3758896589279175,9.549273490905762,4.94384765625,-13.0615234375,43.88427734375
2.0874999,1.801636815071106,1.2318167686462402,9.370306968688965,7.26318359375,-24.322509765625,60.1806640625
2.0924999,1.9267338514328003,1.6124948263168335,9.283516883850098,7.720947265625,-26.947021484375,62.80517578125
2.0974999000000003,2.1499931812286377,1.857301950454712,9.621099472045898,12.054443359375,-37.811279296875,70.12939453125
2.1024999,2.1302409172058105,2.252943754196167,9.956886291503906,9.765625,-45.10498046875,67.413330078125
2.1074999,2.367266893386841,2.850895643234253,10.149619102478027,11.04736328125,-52.642822265625,66.741943359375
2.1124999,2.431910276412964,3.1657330989837646,10.359710693359375,-3.90625,-52.337646484375,67.5048828125
2.1174999000000003,2.6024973392486572,3.6517560482025146,10.095749855041504,-1.800537109375,-50.750732421875,65.185546875
2.1224999,2.8395233154296875,3.88818359375,10.02811336517334,-14.22119140625,-47.637939453125,58.9599609375
2.1274999,2.850895643234253,3.864840030670166,9.528324127197266,-24.932861328125,-38.75732421875,49.713134765625
2.1324999,3.0388405323028564,3.360262155532837,9.386467933654785,-30.670166015625,-20.538330078125,50.1708984375
2.1374999000000003,3.0388405323028564,2.5797524452209473,9.222464561462402,-46.478271484375,6.28662109375,48.980712890625
2.1424999000000002,2.9233202934265137,0.5488707423210144,9.317035675048828,-43.487548828125,44.49462890625,51.513671875
2.1474999,2.517503023147583,-0.1472434103488922,9.279327392578125,-32.89794921875,39.48974609375,33.660888671875
2.1524999,2.205658197402954,-1.0570400953292847,9.490615844726562,-36.773681640625,29.571533203125,18.157958984375
2.1574999000000004,1.7854759693145752,-1.7531541585922241,9.59835433959961,-42.6025390625,30.426025390625,3.5400390625
2.1624999000000003,1.5077484846115112,-2.3457190990448,9.612719535827637,-28.289794921875,37.353515625,1.0986328125
2.1674999,1.2587515115737915,-2.999934673309326,9.750985145568848,-21.270751953125,41.93115234375,-2.50244140625
2.1724999,0.9391255974769592,-3.335721492767334,9.490615844726562,-8.056640625,40.557861328125,-11.53564453125
2.1774999000000004,0.656609833240509,-3.5667619705200195,9.391256332397461,0.18310546875,32.501220703125,-19.04296875
2.1824999000000003,0.24241292476654053,-3.6152446269989014,9.151836395263672,3.72314453125,25.054931640625,-31.6162109375
2.1874999,0.040701430290937424,-3.338714361190796,8.838793754577637,12.3291015625,20.1416015625,-34.271240234375
2.1924999,-0.1735796183347702,-3.1699230670928955,8.904634475708008,10.43701171875,17.08984375,-35.125732421875
2.1974999,-0.25258827209472656,-2.7533318996429443,8.699930191040039,15.106201171875,15.228271484375,-34.423828125
2.2024999000000003,-0.3477577865123749,-2.4444799423217773,10.050260543823242,6.65283203125,9.429931640625,-23.681640625
2.2074999,-0.4273650050163269,-2.3355438709259033,10.07779312133789,7.904052734375,10.223388671875,-21.820068359375
2.2124999,-0.4620809257030487,-2.366069793701172,10.425551414489746,4.974365234375,11.23046875,-15.106201171875
2.2174999,-0.6099228858947754,-2.382829189300537,10.44350814819336,0.732421875,11.993408203125,-14.434814453125
2.2224999000000003,-0.5602431893348694,-2.229600429534912,10.292074203491211,2.716064453125,11.444091796875,-7.01904296875
2.2274999,-0.6877344250679016,-2.3301568031311035,10.446500778198242,-4.0283203125,11.138916015625,-3.631591796875
2.2324999,-0.6991068720817566,-2.1529858112335205,10.046669006347656,-1.739501953125,10.162353515625,0.091552734375
2.2374999,-0.6266822814941406,-2.1541829109191895,10.108319282531738,-2.685546875,7.6904296875,6.866455078125
2.2424999000000003,-0.6500257849693298,-2.188300371170044,9.961075782775879,-5.4931640625,6.04248046875,6.34765625
2.2474999,-0.4429273009300232,-2.0398597717285156,9.730035781860352,0.67138671875,3.143310546875,10.955810546875
2.2524999,-0.15682020783424377,-1.8812439441680908,9.41639518737793,6.28662109375,-5.828857421875,6.7138671875
2.2574999,0.17417816817760468,-1.7256208658218384,9.441534042358398,9.3994140625,-8.7890625,8.148193359375
2.2624999000000003,0.4183867573738098,-1.5292962789535522,9.27453899383545,11.138916015625,-9.735107421875,4.058837890625
2.2674999000000002,0.7942764163017273,-1.1863269805908203,9.173982620239258,17.303466796875,-9.185791015625,5.218505859375
2.2724999,1.048660397529602,-0.9564836025238037,9.38167953491211,13.671875,-8.270263671875,2.899169921875
2.2774999,1.1988965272903442,-0.6123170852661133,9.272743225097656,19.34814453125,-7.01904296875,1.0986328125
2.2824999000000004,1.4101848602294922,-0.2819172441959381,9.539097785949707,19.83642578125,-6.7138671875,2.13623046875
2.2874999000000003,1.3850456476211548,-0.10295066982507706,9.694122314453125,15.869140625,-5.218505859375,-1.77001953125
2.2924999,1.4143747091293335,0.22206220030784607,9.75278091430664,20.20263671875,-5.43212890625,0
2.2974999,1.3198037147521973,0.3034650683403015,10.095151901245117,12.542724609375,-5.18798828125,-0.213623046875
2.3024999000000004,1.1408370733261108,0.46327802538871765,9.97484302520752,13.5498046875,-4.974365234375,-1.983642578125
2.3074999000000003,1.114500880241394,0.5728127360343933,10.114903450012207,12.02392578125,-4.638671875,1.46484375
2.3124999,0.9648633003234863,0.48722004890441895,9.949105262756348,9.3994140625,-5.4931640625,-0.48828125
2.3174999,1.0145429372787476,0.19153612852096558,10.202890396118164,3.41796875,-6.89697265625,-0.762939453125
2.3224999,0.872686505317688,-0.16340427100658417,9.803058624267578,-4.57763671875,-4.302978515625,0.885009765625
2.3274999000000003,0.7793126702308655,-0.5117605924606323,9.718064308166504,-2.227783203125,-6.134033203125,10.7421875
2.3324999,0.33279404044151306,-0.8463503122329712,9.123106002807617,-4.058837890625,-14.556884765625,19.073486328125
2.3374999,-0.1885433793067932,-1.3006501197814941,8.559869766235352,19.1650390625,-27.7099609375,32.928466796875
2.3424999,-0.829590916633606,-2.014122247695923,8.100781440734863,33.3251953125,-47.42431640625,33.172607421875
2.3474999000000003,-1.6603789329528809,-3.2148144245147705,7.562684535980225,28.80859375,-63.4765625,43.975830078125
2.3524999,-2.764704465866089,-5.084087371826172,7.8080902099609375,-28.656005859375,-40.313720703125,137.939453125
2.3574999,-4.244919776916504,-7.511209487915039,6.4200520515441895,30.3955078125,-21.78955078125,230.865478515625
2.3624999,-4.3424835205078125,-8.82203483581543,6.6594719886779785,43.39599609375,-50.35400390625,266.876220703125
2.3674999000000003,-3.950432777404785,-8.56645393371582,5.531803131103516,69.915771484375,35.15625,49.346923828125
2.3724999,3.797802448272705,-1.9632453918457031,5.702389717102051,177.825927734375,-52.337646484375,-200.3173828125
2.3774999,8.04272174835205,2.123656988143921,5.853823184967041,159.454345703125,-48.583984375,-259.918212890625
2.3824999,10.855310440063477,5.193023681640625,6.383540153503418,165.58837890625,-28.533935546875,-238.83056640625
2.3874999000000003,11.136030197143555,6.723516941070557,6.862380504608154,158.355712890625,-20.782470703125,-184.661865234375
2.3924999000000002,9.334992408752441,6.898293495178223,6.937798023223877,145.81298828125,-30.33447265625,-134.735107421875
2.3974999,6.320692539215088,6.301538944244385,7.1706342697143555,113.555908203125,-64.910888671875,-90.118408203125
2.4024999,3.092710018157959,5.484517574310303,7.198765754699707,82.03125,-95.977783203125,-62.80517578125
2.4074999000000004,0.3878606855869293,4.864419460296631,7.06409215927124,51.6357421875,-108.0322265625,-50.048828125
2.4124999000000003,-1.3970166444778442,4.492719650268555,7.207145690917969,30.426025390625,-103.3935546875,-43.060302734375
2.4174999,-2.126051187515259,4.325724124908447,7.020996570587158,14.801025390625,-86.7919921875,-36.529541015625
2.4224999,-1.942894697189331,4.230554580688477,7.273584842681885,4.119873046875,-66.192626953125,-23.98681640625
2.4274999000000004,-1.2084733247756958,4.0982747077941895,7.277774810791016,-6.53076171875,-28.900146484375,-1.434326171875
2.4324999000000003,0.8822633028030396,3.5948939323425293,7.191583156585693,-36.376953125,23.5595703125,30.792236328125
2.4374999,1.8387469053268433,3.3674447536468506,6.773196697235107,-66.070556640625,32.65380859375,42.999267578125
2.4424999,2.610278367996216,3.1268274784088135,6.201581001281738,-107.025146484375,38.87939453125,49.1943359375
2.4474999,3.1890766620635986,3.0119056701660156,5.595848083496094,-144.927978515625,48.858642578125,54.26025390625
2.4524999000000003,3.5296518802642822,2.8820202350616455,5.182249546051025,-177.3681640625,60.455322265625,61.431884765625
2.4574999,3.6577415466308594,2.785653591156006,4.966172695159912,-208.648681640625,73.272705078125,67.56591796875
2.4624999,3.535637378692627,2.4630351066589355,5.043984413146973,-235.382080078125,85.75439453125,72.235107421875
2.4674999,3.31118106842041,2.0590133666992188,5.477933406829834,-252.685546875,102.569580078125,70.86181640625
2.4724999000000003,3.4751837253570557,1.2096704244613647,7.362768650054932,-250,139.801025390625,63.018798828125
2.4774999,3.7696704864501953,-1.1791443824768066,9.913790702819824,-109.710693359375,219.6044921875,27.77099609375
2.4824999,3.578732967376709,-3.756502389907837,12.78503704071045,86.97509765625,146.91162109375,-38.4521484375
2.4874999,3.1034839153289795,-6.491878032684326,14.241310119628906,49.072265625,29.9072265625,-47.637939453125
2.4924999000000003,-0.06823474913835526,-7.4986395835876465,10.422558784484863,-14.801025390625,-15.19775390625,-39.1845703125
2.4974999,-1.5729905366897583,-5.817311763763428,6.904877662658691,-0.823974609375,-29.266357421875,-37.506103515625
2.5024999,-2.408566951751709,-4.071340084075928,4.316147327423096,14.678955078125,-31.768798828125,-24.90234375
2.5074999,-2.739565372467041,-2.5989060401916504,3.8133647441864014,39.764404296875,-6.77490234375,-0.91552734375
2.5124999000000003,-2.6844985485076904,-1.4778209924697876,4.3179426193237305,12.725830078125,50.201416015625,20.69091796875
2.5174999000000002,-2.3038206100463867,-0.6607996821403503,6.543353080749512,5.096435546875,29.388427734375,18.24951171875
2.5224999,-2.0147206783294678,0.14365209639072418,8.020575523376465,18.096923828125,-20.355224609375,10.833740234375
2.5274999,-1.6442179679870605,0.7511807680130005,9.461885452270508,10.223388671875,-25.45166015625,3.96728515625
2.5324999000000004,-1.2270283699035645,1.1420341730117798,9.965864181518555,-2.62451171875,-20.32470703125,2.38037109375
2.5374999000000003,-0.6631938815116882,1.2234370708465576,10.197504043579102,-13.275146484375,-19.71435546875,3.90625
2.5424999,0.07481880486011505,1.1546037197113037,10.146626472473145,-9.979248046875,-13.824462890625,1.64794921875
2.5474999,0.8619126081466675,0.8541314601898193,10.086173057556152,-2.960205078125,-14.0380859375,-3.326416015625
2.5524999000000004,2.2691047191619873,-0.33758243918418884,9.677363395690918,-1.190185546875,8.392333984375,-6.04248046875
2.5574999000000003,2.3295583724975586,-0.585382342338562,9.559449195861816,0.06103515625,11.65771484375,-8.514404296875
2.5624999,1.8812439441680908,-0.6631938815116882,9.572616577148438,0.06103515625,9.94873046875,-5.706787109375
2.5674999,1.4862006902694702,-0.5237316489219666,9.636063575744629,2.166748046875,5.67626953125,-0.3662109375
2.5724999,1.170764684677124,-0.37648820877075195,9.762357711791992,2.50244140625,1.15966796875,0.213623046875
2.5774999000000003,0.9056068062782288,-0.21607670187950134,9.838373184204102,-0.946044921875,1.0986328125,-0.6103515625
2.5824999,0.7769184708595276,-0.15562310814857483,9.819219589233398,-1.28173828125,0.396728515625,0.946044921875
2.5874999,0.7284358739852905,-0.16579847037792206,9.777320861816406,0.91552734375,-1.40380859375,0.91552734375
2.5924999,0.811634361743927,-0.19273324310779572,9.748590469360352,0.48828125,-1.46484375,-1.64794921875
2.5974999000000003,0.8529343605041504,-0.2519897222518921,9.732429504394531,-0.457763671875,0.732421875,-2.0751953125
2.6024999,1.0480618476867676,-0.2232593148946762,9.715670585632324,0.8544921875,-0.48828125,1.28173828125
2.6074999,1.0360907316207886,-0.20350714027881622,9.761758804321289,0.274658203125,-1.5869140625,-1.220703125
2.6124999,0.993593692779541,-0.24361002445220947,9.791088104248047,-0.274658203125,0.48828125,-0.274658203125
2.6174999000000003,1.0360907316207886,-0.30047231912612915,9.870096206665039,0.6103515625,-0.701904296875,1.068115234375
2.6224999,1.0360907316207886,-0.30047231912612915,9.870096206665039,0.6103515625,-0.701904296875,1.068115234375
2.6274999,1.0959458351135254,-0.28730419278144836,9.813234329223633,0.823974609375,-0.6103515625,-0.79345703125
2.6324999,1.095347285270691,-0.30226796865463257,9.82759952545166,-0.3662109375,1.556396484375,-1.5869140625
2.6374999000000003,1.1025298833847046,-0.2974795699119568,9.773131370544434,-0.396728515625,1.556396484375,-0.091552734375
2.6424999000000002,0.9929951429367065,-0.19931729137897491,9.742605209350586,0.152587890625,-1.312255859375,-1.068115234375
2.6474999,0.9929951429367065,-0.19931729137897491,9.742605209350586,0.152587890625,-1.312255859375,-1.068115234375
2.6524999,1.015141487121582,-0.2232593148946762,9.794678688049316,-0.213623046875,1.190185546875,-0.79345703125
2.6574999000000004,1.0618284940719604,-0.2735375463962555,9.846753120422363,1.190185546875,0.1220703125,0.274658203125
2.6624999000000003,1.1001356840133667,-0.23942017555236816,9.805453300476074,0.244140625,-0.54931640625,-1.8310546875
2.6674999,1.0462661981582642,-0.26755204796791077,9.836577415466309,-1.46484375,2.9296875,-2.13623046875
2.6724999,1.0396820306777954,-0.304063618183136,9.791088104248047,-0.030517578125,1.5869140625,0.213623046875
2.6774999000000004,1.0199298858642578,-0.2687491476535797,9.781511306762695,1.0986328125,-1.068115234375,0.457763671875
2.6824999000000003,0.9642647504806519,-0.2687491476535797,9.833584785461426,-0.91552734375,-0.579833984375,-0.152587890625
2.6874999,0.9540894031524658,-0.3058592677116394,9.808445930480957,0.48828125,-0.42724609375,1.64794921875
2.6924999,1.0995371341705322,-0.28371289372444153,9.707290649414062,-0.885009765625,2.838134765625,-1.312255859375
2.6974999,1.0995371341705322,-0.28371289372444153,9.707290649414062,-0.885009765625,2.838134765625,-1.312255859375
2.7024999000000003,1.1366472244262695,-0.24121582508087158,9.660603523254395,0.48828125,0.30517578125,-0.274658203125
2.7074999,1.0690110921859741,-0.14604631066322327,9.691129684448242,-0.762939453125,0.946044921875,-0.1220703125
2.7124999,1.015141487121582,-0.17298106849193573,9.754576683044434,-0.8544921875,0.335693359375,2.288818359375
2.7174999,0.9816226959228516,-0.243011474609375,9.7791166305542,1.8310546875,-2.777099609375,1.15966796875
2.7224999000000003,0.9672574996948242,-0.22086510062217712,9.803657531738281,0.91552734375,-1.251220703125,-3.082275390625
2.7274999,0.9929951429367065,-0.2902969419956207,9.803657531738281,-0.701904296875,1.922607421875,-1.617431640625
2.7324999,1.070208191871643,-0.20051439106464386,9.68274974822998,0.152587890625,1.52587890625,-1.312255859375
2.7374999,1.0462661981582642,-0.1496376097202301,9.665990829467773,-0.67138671875,2.50244140625,-1.922607421875
2.7424999000000003,1.0528502464294434,-0.1735796183347702,9.672574996948242,-2.044677734375,2.38037109375,3.173828125
2.7474999,0.9906009435653687,-0.24839842319488525,9.67077922821045,1.5869140625,-2.410888671875,2.655029296875
2.7524999,1.003769040107727,-0.35494041442871094,9.798270225524902,-0.823974609375,1.220703125,-2.716064453125
2.7574999,1.05105459690094,-0.2819172441959381,9.750386238098145,-0.06103515625,1.5869140625,-1.220703125
2.7624999000000003,1.0324994325637817,-0.17896658182144165,9.733028411865234,-0.457763671875,0.762939453125,-0.457763671875
2.7674999000000002,0.993593692779541,-0.1825578808784485,9.803058624267578,-2.13623046875,1.40380859375,3.326416015625
2.7724999,0.9696516990661621,-0.24241292476654053,9.752182006835938,1.739501953125,-2.685546875,2.197265625
2.7774999,0.9570821523666382,-0.30885201692581177,9.816825866699219,2.5634765625,-2.532958984375,-3.60107421875
2.7824999000000004,1.0247182846069336,-0.3489548861980438,9.82640266418457,-1.678466796875,2.899169921875,-3.7841796875
2.7874999000000003,1.0857704877853394,-0.3315969407558441,9.770736694335938,-0.9765625,3.0517578125,-1.190185546875
2.7924999,1.0690110921859741,-0.24660277366638184,9.795876502990723,0.396728515625,0.67138671875,0.732421875
2.7974999,1.0031704902648926,-0.29209262132644653,9.828198432922363,-0.732421875,0.06103515625,3.41796875
2.8024999000000004,1.0875661373138428,-0.24660277366638184,9.797073364257812,-3.23486328125,5.126953125,-2.50244140625
2.8074999000000003,1.0887632369995117,-0.2555810213088989,9.722254753112793,-0.030517578125,1.434326171875,2.471923828125
2.8124999,1.0875661373138428,-0.12509703636169434,9.891644477844238,0.91552734375,-1.434326171875,1.953125
2.8174999,1.0582371950149536,-0.26396074891090393,9.921571731567383,0.06103515625,-1.312255859375,-0.152587890625
2.8224999,1.070208191871643,-0.29149407148361206,9.81263542175293,2.105712890625,-2.3193359375,-3.875732421875
2.8274999000000003,1.0905588865280151,-0.25438392162323,9.807249069213867,-2.166748046875,3.448486328125,-3.41796875
2.8324999,1.0749965906143188,-0.22685061395168304,9.774328231811523,-2.105712890625,3.997802734375,4.364013671875
2.8374999,0.9864110946655273,-0.23343466222286224,9.66299819946289,3.11279296875,-3.11279296875,4.08935546875
2.8424999,0.9660604000091553,-0.24899697303771973,9.753378868103027,0.213623046875,-2.9296875,-2.960205078125
2.8474999000000003,1.002571940422058,-0.3298012912273407,9.708487510681152,-1.40380859375,1.708984375,-3.72314453125
2.8524999,1.0133458375930786,-0.2950853705406189,9.636063575744629,0.732421875,1.739501953125,-0.823974609375
2.8574999,1.0480618476867676,-0.20889410376548767,9.782708168029785,-0.91552734375,2.0751953125,3.692626953125
2.8624999,1.0079588890075684,-0.2753331959247589,9.782109260559082,1.46484375,-2.62451171875,2.960205078125
2.8674999000000003,1.0223240852355957,-0.23523031175136566,9.755773544311523,-3.47900390625,4.57763671875,-4.486083984375
2.8724999,1.0522516965866089,-0.2908954918384552,9.68574333190918,0.030517578125,2.899169921875,4.669189453125
2.8774999,1.0211269855499268,-0.21368250250816345,9.686341285705566,2.9296875,-2.960205078125,2.62451171875
2.8824999,0.99479079246521,-0.2364274114370346,9.877279281616211,-2.9296875,0.030517578125,-8.636474609375
2.8874999000000003,1.0342950820922852,-0.31364041566848755,9.82759952545166,-2.410888671875,5.584716796875,2.716064453125
2.8924999000000002,1.0295066833496094,-0.2555810213088989,9.774328231811523,4.638671875,-2.166748046875,6.134033203125
2.8974999,1.035492181777954,-0.26815059781074524,9.787496566772461,-0.091552734375,-2.777099609375,-2.3193359375
2.9024999,1.0205284357070923,-0.2717418968677521,9.654618263244629,0.91552734375,2.38037109375,0.701904296875
2.9074999000000004,1.0259153842926025,-0.25737667083740234,9.71926212310791,1.007080078125,1.40380859375,4.21142578125
2.9124999000000003,1.0307037830352783,-0.2902969419956207,9.673771858215332,1.77001953125,-4.21142578125,-2.38037109375
2.9174999,1.028908133506775,-0.18495208024978638,9.749189376831055,-2.685546875,-0.9765625,-7.476806640625
2.9224999,1.0450690984725952,-0.23942017555236816,9.871891975402832,-2.01416015625,5.4931640625,4.82177734375
2.9274999000000004,1.0905588865280151,-0.21966800093650818,9.800065994262695,4.730224609375,-2.44140625,7.50732421875
2.9324999000000003,1.006163239479065,-0.2603694200515747,9.834781646728516,-0.67138671875,-4.69970703125,-6.378173828125
2.9374999,1.0450690984725952,-0.31543606519699097,9.899425506591797,-5.37109375,5.523681640625,-4.33349609375
2.9424999,0.9373299479484558,-0.36152446269989014,9.768342971801758,3.387451171875,0.67138671875,5.615234375
2.9474999,0.9917980432510376,-0.29807811975479126,9.765350341796875,3.204345703125,-3.47900390625,-0.091552734375
2.9524999000000003,1.0115501880645752,-0.22445641458034515,9.756970405578613,-3.2958984375,0.30517578125,-5.340576171875
2.9574999,1.0133458375930786,-0.21847090125083923,9.66419506072998,-0.3662109375,2.593994140625,0.946044921875
2.9624999,1.0247182846069336,-0.1777694821357727,9.68933391571045,-2.716064453125,-3.41796875,-9.063720703125
2.9674999,1.026513934135437,-0.26994624733924866,9.831789016723633,-5.279541015625,6.4697265625,1.007080078125
2.9724999000000003,1.027711033821106,-0.2968810200691223,9.726444244384766,6.500244140625,-1.861572265625,7.598876953125
2.9774999,0.9714473485946655,-0.3597288131713867,9.759963035583496,2.105712890625,-6.103515625,-6.9580078125
2.9824999,1.0001777410507202,-0.23044191300868988,9.889249801635742,-7.9345703125,5.37109375,-2.9296875
2.9874999,1.0103530883789062,-0.32620999217033386,9.791686058044434,3.570556640625,2.044677734375,8.23974609375
2.9924999000000003,1.0283095836639404,-0.181959331035614,9.75637149810791,4.7607421875,-6.744384765625,-3.265380859375
2.9974999,1.0947487354278564,-0.12389993667602539,9.915586471557617,-7.080078125,3.570556640625,-5.2490234375
3.0024999,1.080383539199829,-0.2735375463962555,9.693524360656738,5.767822265625,-5.06591796875,-0.885009765625
3.0074999,1.0570400953292847,-0.22924481332302094,9.803657531738281,-5.767822265625,1.861572265625,-6.53076171875
3.0124999000000003,1.0348936319351196,-0.3381809890270233,9.713874816894531,0.06103515625,3.570556640625,5.2490234375
3.0174999000000002,0.9852139949798584,-0.3405751883983612,9.600749015808105,5.828857421875,-4.45556640625,0.79345703125
3.0224999,1.0043675899505615,-0.23942017555236816,9.73781681060791,-5.37109375,0.48828125,-6.40869140625
3.0274999,0.9989806413650513,-0.3208230137825012,9.695320129394531,-1.03759765625,3.96728515625,4.45556640625
3.0324999000000004,1.0115501880645752,-0.2795230448246002,9.565434455871582,6.34765625,-4.302978515625,1.556396484375
3.0374999000000003,1.0426748991012573,-0.1735796183347702,9.770736694335938,-4.8828125,0.06103515625,-6.40869140625
3.0424999,1.0504560470581055,-0.25318682193756104,9.746794700622559,-1.89208984375,4.425048828125,4.21142578125
3.0474999,1.0247182846069336,-0.2669534981250763,9.659406661987305,6.65283203125,-4.08935546875,1.251220703125
3.0524999000000004,1.0444705486297607,-0.19871874153614044,9.869498252868652,-4.39453125,-0.335693359375,-6.591796875
3.0574999000000003,1.037886381149292,-0.27234044671058655,9.84256362915039,-1.77001953125,4.5166015625,4.82177734375
3.0624999,1.0636241436004639,-0.30286651849746704,9.849745750427246,-1.03759765625,4.486083984375,5.43212890625
3.0674999,1.0426748991012573,-0.29149407148361206,9.730634689331055,5.859375,-4.150390625,-0.396728515625
3.0724999000000004,1.0618284940719604,-0.22685061395168304,9.938929557800293,-5.55419921875,0.9765625,-5.767822265625
3.0774999000000003,1.0384849309921265,-0.32381579279899597,9.835380554199219,0.67138671875,3.570556640625,6.40869140625
3.0824999,1.0031704902648926,-0.25438392162323,9.709086418151855,4.8828125,-4.608154296875,-2.25830078125
3.0874999,1.0217255353927612,-0.21667525172233582,9.88625717163086,-6.011962890625,1.953125,-4.119873046875
3.0924999,1.0217255353927612,-0.25079262256622314,9.679159164428711,2.838134765625,2.38037109375,6.7138671875
3.0974999000000003,1.0109516382217407,-0.2364274114370346,9.616311073303223,2.8076171875,-4.57763671875,-4.7607421875
3.1024999,1.0678139925003052,-0.1999158412218094,9.825204849243164,-5.92041015625,3.47900390625,-1.28173828125
3.1074999,1.0211269855499268,-0.28311434388160706,9.57201862335205,5.18798828125,0.30517578125,5.7373046875
3.1124999,1.026513934135437,-0.24839842319488525,9.701904296875,-0.213623046875,-3.875732421875,-6.683349609375
3.1174999000000003,1.0073603391647339,-0.2974795699119568,9.654019355773926,6.103515625,-1.983642578125,2.74658203125
3.1224999,1.0229226350784302,-0.2537853717803955,9.923367500305176,-3.60107421875,-2.0751953125,-6.8359375
3.1274999,1.0283095836639404,-0.3555389642715454,9.910199165344238,-0.762939453125,4.364013671875,5.615234375
3.1324999,1.0115501880645752,-0.3166331648826599,9.724648475646973,4.852294921875,-3.936767578125,-2.044677734375
3.1374999000000003,1.048660397529602,-0.2783259451389313,9.93593692779541,-5.950927734375,1.3427734375,-3.753662109375
3.1424999000000002,1.0438719987869263,-0.25079262256622314,9.580398559570312,3.448486328125,2.410888671875,6.28662109375
3.1474999,1.025316834449768,-0.1777694821357727,9.637260437011719,1.129150390625,-4.302978515625,-6.195068359375
3.1524999,1.0450690984725952,-0.15143325924873352,9.749788284301758,-4.486083984375,3.96728515625,1.739501953125
3.1574999000000004,1.006163239479065,-0.22505496442317963,9.575011253356934,5.828857421875,-1.220703125,2.9296875
3.1624999000000003,0.9989806413650513,-0.18555063009262085,9.881468772888184,-3.936767578125,-1.77001953125,-6.378173828125
3.1674999,1.0324994325637817,-0.24600422382354736,9.88625717163086,0.18310546875,4.058837890625,5.9814453125
3.1724999,0.9762357473373413,-0.25438392162323,9.742006301879883,3.84521484375,-3.96728515625,-3.387451171875
3.1774999000000004,1.0313023328781128,-0.23403321206569672,9.99100399017334,-5.67626953125,2.197265625,-1.495361328125
3.1824999000000003,0.9864110946655273,-0.31783026456832886,9.585186958312988,4.8828125,0.885009765625,4.94384765625
3.1874999,0.9929951429367065,-0.25318682193756104,9.776124000549316,-1.922607421875,-3.204345703125,-6.805419921875
3.1924999,1.0301052331924438,-0.35015198588371277,9.7605619430542,-1.708984375,4.241943359375,4.730224609375
3.1974999000000004,0.9768342971801758,-0.29807811975479126,9.621698379516602,4.547119140625,-3.021240234375,-1.739501953125
3.2024999000000003,1.0444705486297607,-0.28371289372444153,9.907206535339355,-5.4931640625,1.190185546875,-2.593994140625
3.2074999,0.9870096445083618,-0.2801215946674347,9.59835433959961,4.486083984375,1.739501953125,5.157470703125
3.2124999,0.9894038438796997,-0.20889410376548767,9.818022727966309,-1.220703125,-3.570556640625,-6.561279296875
3.2174999,1.037886381149292,-0.284311443567276,9.847949981689453,-1.861572265625,4.180908203125,4.69970703125
3.2224999000000003,0.9690531492233276,-0.25438392162323,9.719860076904297,4.638671875,-2.777099609375,-1.800537109375
3.2274999,1.061229944229126,-0.27054479718208313,10.005369186401367,-5.37109375,0.6103515625,-2.38037109375
3.2324999,1.015141487121582,-0.26994624733924866,9.695918083190918,4.57763671875,1.556396484375,4.730224609375
3.2374999,1.060032844543457,-0.2693476974964142,9.849146842956543,-0.91552734375,3.814697265625,5.06591796875
3.2424999000000003,0.9792284965515137,-0.25438392162323,9.70429801940918,3.7841796875,-3.11279296875,-3.23486328125
3.2474999,1.0438719987869263,-0.2579752206802368,9.92097282409668,-5.218505859375,1.77001953125,-0.274658203125
3.2524999,0.9965864419937134,-0.25079262256622314,9.588179588317871,5.2490234375,0.335693359375,2.99072265625
3.2574999,0.9965864419937134,-0.25079262256622314,9.588179588317871,5.2490234375,0.335693359375,2.99072265625
3.2624999000000003,1.0109516382217407,-0.20290859043598175,9.845556259155273,-3.5400390625,-1.89208984375,-5.584716796875
3.2674999000000002,1.036689281463623,-0.17896658182144165,9.64923095703125,1.46484375,3.326416015625,5.828857421875
3.2724999,1.004966139793396,-0.21428105235099792,9.732429504394531,1.28173828125,-3.448486328125,-5.4931640625
3.2774999,1.0666168928146362,-0.26096799969673157,9.837775230407715,-3.570556640625,3.265380859375,2.777099609375
3.2824999000000004,1.0115501880645752,-0.2795230448246002,9.566631317138672,5.096435546875,-1.64794921875,-0.518798828125
3.2874999000000003,1.0678139925003052,-0.3166331648826599,9.894637107849121,-4.730224609375,-0.030517578125,-2.593994140625
3.2924999,1.026513934135437,-0.2555810213088989,9.551667213439941,4.08935546875,1.8310546875,4.45556640625
3.2974999,0.9654618501663208,-0.23343466222286224,9.747992515563965,1.861572265625,-3.082275390625,-4.82177734375
3.3024999000000004,0.9654618501663208,-0.23343466222286224,9.747992515563965,1.861572265625,-3.082275390625,-4.82177734375
3.3074999000000003,1.0708067417144775,-0.31184476613998413,9.912593841552734,-3.5400390625,2.716064453125,2.288818359375
3.3124999,0.9840168952941895,-0.27234044671058655,9.647436141967773,4.5166015625,-1.3427734375,-0.457763671875
3.3174999,1.0594342947006226,-0.2998737692832947,9.973047256469727,-4.547119140625,0.06103515625,-2.288818359375
3.3224999000000004,1.0169371366500854,-0.24660277366638184,9.596558570861816,4.058837890625,1.251220703125,3.631591796875
3.3274999000000003,1.0211269855499268,-0.20769700407981873,9.869498252868652,-2.838134765625,-2.197265625,-5.279541015625
3.3324999,1.0672154426574707,-0.20111294090747833,9.655815124511719,1.312255859375,2.899169921875,5.340576171875
3.3374999,1.0031704902648926,-0.23044191300868988,9.838972091674805,0.518798828125,-3.662109375,-5.828857421875
3.3424999,1.082777738571167,-0.28371289372444153,9.82879638671875,-1.64794921875,2.5634765625,3.936767578125
3.3474999000000003,0.9816226959228516,-0.30466216802597046,9.70429801940918,3.265380859375,-2.685546875,-2.74658203125
3.3524999,1.0079588890075684,-0.37229835987091064,9.944915771484375,-3.936767578125,1.495361328125,1.15966796875
3.3574999,1.0013748407363892,-0.20889410376548767,9.864709854125977,-0.335693359375,-2.960205078125,-5.67626953125
3.3624999,1.0348936319351196,-0.31184476613998413,9.785101890563965,-0.640869140625,2.960205078125,4.69970703125
3.3674999000000003,0.9810241460800171,-0.2603694200515747,9.812037467956543,1.800537109375,-2.838134765625,-4.21142578125
3.3724999,1.062427043914795,-0.3519476354122162,9.905410766601562,-2.5634765625,1.800537109375,2.685546875
3.3774999,0.9929951429367065,-0.262763649225235,9.68574333190918,3.204345703125,-1.678466796875,-1.617431640625
3.3824999,1.0420763492584229,-0.3274070918560028,9.970054626464844,-3.753662109375,0.579833984375,-0.06103515625
3.3874999000000003,1.0181342363357544,-0.18555063009262085,9.55705451965332,3.936767578125,-0.1220703125,0.9765625
3.3924999000000002,1.0193313360214233,-0.22206220030784607,9.853337287902832,-3.662109375,-0.54931640625,-2.532958984375
3.3974999,1.05105459690094,-0.17417816817760468,9.809642791748047,-3.0517578125,-1.64794921875,-4.45556640625
3.4024999,1.0342950820922852,-0.19931729137897491,9.621099472045898,2.777099609375,2.44140625,4.486083984375
3.4074999000000004,1.0211269855499268,-0.22625206410884857,9.906607627868652,-2.197265625,-2.593994140625,-5.31005859375
3.4124999000000003,1.039083480834961,-0.36810851097106934,9.757569313049316,1.52587890625,2.8076171875,5.06591796875
3.4174999,0.9786299467086792,-0.30526071786880493,9.88506031036377,-0.762939453125,-2.960205078125,-5.340576171875
3.4224999,1.0301052331924438,-0.4495113790035248,9.683947563171387,0.3662109375,2.62451171875,4.638671875
3.4274999000000004,0.9804255962371826,-0.32680854201316833,9.775525093078613,0.48828125,-2.685546875,-4.638671875
3.4324999000000003,1.0313023328781128,-0.3705027103424072,9.660005569458008,-0.885009765625,2.50244140625,3.72314453125
3.4374999,0.9923965930938721,-0.27054479718208313,9.762357711791992,1.678466796875,-2.105712890625,-3.5400390625
3.4424999,0.9828197956085205,-0.22445641458034515,9.770736694335938,2.44140625,-1.556396484375,-2.349853515625
3.4474999000000004,1.0893617868423462,-0.3124433159828186,9.94970417022705,-2.5634765625,1.40380859375,1.251220703125
3.4524999000000003,1.1121066808700562,-0.27712884545326233,9.88625717163086,-3.326416015625,0,-0.8544921875
3.4574999,0.9953893423080444,-0.20769700407981873,9.443928718566895,3.47900390625,0.18310546875,1.007080078125
3.4624999,0.99479079246521,-0.2472013235092163,9.817423820495605,-3.47900390625,-0.213623046875,-1.739501953125
3.4674999,0.945111095905304,-0.19033902883529663,9.406219482421875,3.753662109375,0.762939453125,1.617431640625
3.4724999000000003,0.9445125460624695,-0.23523031175136566,9.851541519165039,-3.326416015625,-0.79345703125,-2.349853515625
3.4774999,0.9570821523666382,-0.166995570063591,9.503185272216797,3.204345703125,1.068115234375,2.0751953125
3.4824999,1.0007762908935547,-0.25318682193756104,9.914389610290527,-3.23486328125,-1.15966796875,-2.99072265625
3.4874999,1.0007762908935547,-0.19931729137897491,9.622895240783691,3.23486328125,1.434326171875,2.38037109375
3.4924999000000003,1.028908133506775,-0.2711433470249176,9.979032516479492,-3.23486328125,-1.373291015625,-3.0517578125
3.4974999,1.0217255353927612,-0.21787235140800476,9.677363395690918,3.387451171875,1.190185546875,2.74658203125
3.5024999,1.0324994325637817,-0.21787235140800476,9.68813705444336,3.173828125,1.52587890625,2.777099609375
3.5074999,1.0468647480010986,-0.25917232036590576,9.967061996459961,-3.0517578125,-1.251220703125,-3.326416015625
3.5124999000000003,1.027711033821106,-0.22924481332302094,9.656414031982422,3.082275390625,1.64794921875,2.838134765625
3.5174999000000002,1.0402805805206299,-0.27054479718208313,9.932944297790527,-3.021240234375,-1.495361328125,-3.23486328125
3.5224999,1.0193313360214233,-0.23343466222286224,9.602544784545898,3.021240234375,1.739501953125,2.86865234375
3.5274999,1.0324994325637817,-0.2849099934101105,9.906009674072266,-2.9296875,-1.251220703125,-3.082275390625
3.5324999000000004,1.004966139793396,-0.23942017555236816,9.583989143371582,2.960205078125,1.556396484375,2.593994140625
3.5374999000000003,1.0157400369644165,-0.3034650683403015,9.90241813659668,-2.8076171875,-1.46484375,-3.021240234375
3.5424999,0.9906009435653687,-0.2346317619085312,9.561842918395996,3.11279296875,1.3427734375,2.38037109375
3.5474999,1.0145429372787476,-0.32202014327049255,9.898826599121094,-2.899169921875,-1.312255859375,-2.838134765625
3.5524999000000004,1.0097545385360718,-0.23104046285152435,9.514557838439941,3.204345703125,1.28173828125,2.197265625
3.5574999000000003,1.0324994325637817,-0.3381809890270233,9.909601211547852,-2.9296875,-1.0986328125,-2.471923828125
3.5624999,0.9911994934082031,-0.26156654953956604,9.608530044555664,3.021240234375,0.152587890625,0.6103515625
3.5674999,1.1174936294555664,-0.3429693877696991,10.029909133911133,-2.716064453125,-0.18310546875,-0.640869140625
3.5724999000000004,1.015141487121582,-0.23942017555236816,9.686341285705566,2.838134765625,-0.091552734375,-0.274658203125
3.5774999000000003,1.173158884048462,-0.3034650683403015,10.058639526367188,-2.349853515625,0.457763671875,-0.152587890625
3.5824999,0.99479079246521,-0.1975216418504715,9.762357711791992,2.3193359375,-0.518798828125,-0.701904296875
3.5874999,1.0989385843276978,-0.26156654953956604,9.920374870300293,-2.166748046875,1.0986328125,0.79345703125
3.5924999,0.9385270476341248,-0.2106897532939911,9.756970405578613,1.708984375,-1.190185546875,-1.708984375
3.5974999000000003,1.015141487121582,-0.2825157940387726,9.725247383117676,-1.64794921875,1.312255859375,1.556396484375
3.6024999,1.0193313360214233,-0.24420857429504395,9.725247383117676,1.739501953125,2.105712890625,2.960205078125
3.6074999,1.0247182846069336,-0.243011474609375,9.939528465270996,-2.13623046875,-1.678466796875,-3.265380859375
3.6124999,0.9810241460800171,-0.2256535142660141,9.651625633239746,2.349853515625,1.739501953125,2.50244140625
3.6174999000000003,1.0313023328781128,-0.2902969419956207,9.929951667785645,-2.655029296875,-1.373291015625,-2.655029296875
3.6224999,1.0073603391647339,-0.23283611238002777,9.552865028381348,2.593994140625,1.03759765625,1.495361328125
3.6274999,1.0576386451721191,-0.3363853394985199,9.934141159057617,-2.716064453125,-0.457763671875,-1.15966796875
3.6324999,1.0067617893218994,-0.25258827209472656,9.603741645812988,2.655029296875,0.18310546875,0.244140625
3.6374999000000003,1.0133458375930786,-0.22744916379451752,9.81024169921875,1.922607421875,-0.48828125,-1.03759765625
3.6424999000000002,1.116895079612732,-0.2663549482822418,9.883264541625977,-1.190185546875,0.9765625,1.40380859375
3.6474999,0.9983820915222168,-0.2172738015651703,9.838373184204102,0.79345703125,-1.46484375,-2.3193359375
3.6524999,1.0115501880645752,-0.2669534981250763,9.635464668273926,-0.30517578125,1.922607421875,2.3193359375
3.6574999000000004,0.9582792520523071,-0.19692309200763702,9.776124000549316,-0.457763671875,-1.77001953125,-3.204345703125
3.6624999000000003,0.9900023937225342,-0.21607670187950134,9.59057331085205,1.15966796875,2.166748046875,2.99072265625
3.6674999,0.9768342971801758,-0.17477671802043915,9.845556259155273,-1.708984375,-1.983642578125,-3.204345703125
3.6724999,0.9911994934082031,-0.16220717132091522,9.627084732055664,1.922607421875,1.922607421875,2.593994140625
3.6774999000000004,0.9929951429367065,-0.1586158573627472,9.93593692779541,-2.166748046875,-1.52587890625,-3.326416015625
3.6824999000000003,0.9576807022094727,-0.11013327538967133,9.596558570861816,1.434326171875,1.220703125,-1.312255859375
3.6874999,1.004966139793396,-0.1646013706922531,9.943717956542969,-4.486083984375,-0.6103515625,-4.241943359375
3.6924999,0.8906430602073669,-0.12210428714752197,9.66539192199707,-0.152587890625,-0.30517578125,-1.922607421875
3.6974999000000004,0.9528923034667969,-0.28550854325294495,9.778518676757812,-1.800537109375,0.274658203125,-2.99072265625
3.7024999000000003,0.9319429993629456,-0.30466216802597046,9.84495735168457,-0.9765625,-0.457763671875,-8.11767578125
3.7074999,1.0073603391647339,-0.2454056739807129,9.655217170715332,-0.823974609375,0.518798828125,-1.953125
3.7124999,1.0504560470581055,-0.28311434388160706,9.804854393005371,-1.5869140625,-1.15966796875,-6.683349609375
3.7174999,1.0857704877853394,-0.18614917993545532,9.551069259643555,0.67138671875,0.54931640625,-0.79345703125
3.7224999000000003,1.113303780555725,-0.33997663855552673,9.849745750427246,-2.74658203125,-0.457763671875,-5.126953125
3.7274999,1.0576386451721191,-0.2825157940387726,9.546878814697266,1.922607421875,0.396728515625,-1.922607421875
3.7324999,1.158793568611145,-0.4118026793003082,9.985616683959961,-2.166748046875,0.030517578125,-3.35693359375
3.7374999,1.0456676483154297,-0.33339259028434753,9.77013874053955,1.617431640625,0.579833984375,-4.0283203125
3.7424999000000003,1.113303780555725,-0.3513490855693817,9.836577415466309,-1.495361328125,0.885009765625,-1.953125
3.7474999,0.9941922426223755,-0.2561795711517334,9.856928825378418,0.457763671875,-0.396728515625,-5.859375
3.7524999,0.9870096445083618,-0.1759738177061081,9.601945877075195,-0.30517578125,1.068115234375,-1.739501953125
3.7574999,0.9409212470054626,-0.1388636976480484,9.814431190490723,-1.40380859375,0.030517578125,-7.110595703125
3.7624999000000003,1.0995371341705322,-0.30047231912612915,9.95090103149414,-2.593994140625,0.06103515625,-3.082275390625
3.7674999000000002,1.0414776802062988,-0.2041056901216507,9.777320861816406,1.251220703125,0.732421875,-5.126953125
3.7724999,1.1426327228546143,-0.11372458189725876,9.859322547912598,-1.251220703125,1.251220703125,-3.7841796875
3.7774999,1.0684125423431396,-0.02214636653661728,9.851541519165039,-0.457763671875,1.922607421875,-7.598876953125
3.7824999000000004,1.0540473461151123,0.040701430290937424,9.601945877075195,-2.288818359375,1.5869140625,-2.471923828125
3.7874999000000003,1.0067617893218994,-0.03531447425484657,9.801262855529785,-2.62451171875,0.885009765625,-7.110595703125
3.7924999,0.9403226971626282,-0.11013327538967133,9.412205696105957,0.54931640625,1.3427734375,-3.875732421875
3.7974999,0.7625532150268555,-0.6961141228675842,9.585186958312988,-3.35693359375,-3.35693359375,-2.593994140625
3.8024999000000004,0.7715315222740173,-0.9217676520347595,9.375694274902344,-7.293701171875,-6.34765625,8.056640625
3.8074999000000003,0.619499683380127,-1.1546037197113037,9.431957244873047,-10.772705078125,-14.09912109375,8.97216796875
3.8124999,0.4279635548591614,-1.113303780555725,8.825027465820312,-13.336181640625,-13.824462890625,36.224365234375
3.8174999,-0.1454477459192276,-1.6484078168869019,8.666411399841309,-20.782470703125,-25.57373046875,55.755615234375
3.8224999000000004,-0.5422866940498352,-2.2451627254486084,8.751405715942383,-17.913818359375,-19.47021484375,111.968994140625
3.8274999000000003,-1.303044319152832,-3.508104085922241,8.379706382751465,15.44189453125,-16.632080078125,150.87890625
3.8324999,-2.316390037536621,-5.12000036239624,8.616133689880371,26.153564453125,-17.669677734375,156.707763671875
3.8374999,-1.9829975366592407,-5.670666694641113,8.847173690795898,23.74267578125,-14.09912109375,199.64599609375
3.8424999,-1.0851719379425049,-5.106832027435303,9.130887031555176,62.591552734375,-2.86865234375,88.226318359375
3.8474999000000003,3.3010056018829346,-0.25737667083740234,9.321824073791504,65.49072265625,51.94091796875,-221.19140625
3.8524999,3.3010056018829346,-0.25737667083740234,9.321824073791504,65.49072265625,51.94091796875,-221.19140625
3.8574999,4.784213542938232,2.145803213119507,8.78432559967041,29.96826171875,37.567138671875,-205.718994140625
3.8624999,5.251681327819824,4.151545524597168,8.078036308288574,7.6904296875,11.383056640625,-163.75732421875
3.8674999000000003,4.897339344024658,5.157110691070557,7.817068576812744,-3.448486328125,-11.993408203125,-123.138427734375
3.8724999,4.127005100250244,5.648520469665527,7.836222171783447,-7.659912109375,-25.115966796875,-90.33203125
3.8774999,3.162141799926758,5.6455278396606445,8.154052734375,-12.969970703125,-25.909423828125,-65.3076171875
3.8824999,2.2194249629974365,5.452195644378662,8.494627952575684,-14.95361328125,-15.899658203125,-48.065185546875
3.8874999000000003,1.3988122940063477,5.038597583770752,8.806472778320312,-22.705078125,-7.415771484375,-34.48486328125
3.8924999000000002,0.8595184087753296,4.454412460327148,8.98124885559082,-27.7099609375,0.030517578125,-23.5595703125
3.8974999,0.5165489912033081,3.821744441986084,8.955511093139648,-27.40478515625,8.819580078125,-11.199951171875
3.9024999,0.42197805643081665,2.9981391429901123,9.005789756774902,-35.33935546875,15.380859375,1.373291015625
3.9074999000000004,0.9696516990661621,-1.2587515115737915,10.981005668640137,-10.92529296875,-3.23486328125,8.9111328125
3.9124999000000003,1.2030863761901855,-2.31758713722229,11.75553035736084,-3.173828125,-0.579833984375,14.58740234375
3.9174999,1.3844470977783203,-2.962226152420044,12.000337600708008,-17.15087890625,0.518798828125,17.791748046875
3.9224999,1.4233529567718506,-3.0974984169006348,11.568183898925781,-32.71484375,-0.06103515625,18.00537109375
3.9274999000000004,1.2868833541870117,-2.8574798107147217,10.718840599060059,-26.824951171875,2.593994140625,15.472412109375
3.9324999000000003,1.072602391242981,-2.5049335956573486,9.894038200378418,-14.7705078125,5.462646484375,10.650634765625
3.9374999,0.7841010689735413,-2.146401882171631,9.139864921569824,-12.5732421875,8.514404296875,5.340576171875
3.9424999,0.4985924959182739,-1.9255367517471313,8.695740699768066,-1.8310546875,4.608154296875,-0.06103515625
3.9474999000000004,0.322618693113327,-1.745373010635376,8.486846923828125,9.58251953125,0.640869140625,-2.50244140625
3.9524999000000003,0.2172738015651703,-1.6148890256881714,8.356961250305176,14.0380859375,-0.1220703125,-1.373291015625
3.9574999,1.3593080043792725,-0.2645592987537384,9.568427085876465,5.79833984375,7.87353515625,4.547119140625
3.9624999,1.589151382446289,0.2603694200515747,9.78869342803955,3.23486328125,4.150390625,3.84521484375
3.9674999000000004,1.7423802614212036,0.6206967830657959,10.017938613891602,6.77490234375,2.99072265625,6.8359375
3.9724999000000003,1.6561890840530396,0.8020575642585754,10.096348762512207,2.0751953125,9.521484375,5.706787109375
3.9774999,1.325789213180542,0.7206547260284424,9.946710586547852,-1.03759765625,5.706787109375,3.387451171875
3.9824999,0.9253589510917664,0.5051765441894531,9.946710586547852,-0.213623046875,0.823974609375,1.8310546875
3.9874999,0.5859808921813965,0.08379705995321274,9.913191795349121,1.373291015625,-2.410888671875,0.946044921875
3.9924999000000003,0.4297592043876648,-0.22385786473751068,9.841964721679688,0.54931640625,-4.150390625,0
3.9974999,0.4800374507904053,-0.3411737382411957,9.731831550598145,-1.03759765625,-3.875732421875,1.15966796875
4.0024999,0.8696937561035156,-0.37469255924224854,9.604938507080078,-0.152587890625,-0.946044921875,-0.091552734375
4.0074999,1.0085574388504028,-0.4129997789859772,9.670180320739746,0.8544921875,-1.89208984375,0.1220703125
4.0124999,1.1300631761550903,-0.28969839215278625,9.750985145568848,0.701904296875,-1.28173828125,-0.67138671875
4.0174999,1.1839327812194824,-0.2017114907503128,9.810839653015137,-0.244140625,0.274658203125,-0.54931640625
4.022499900000001,1.2072762250900269,-0.10773907601833344,9.852140426635742,-0.6103515625,1.220703125,-0.42724609375
4.0274999000000005,1.1552022695541382,-0.14006079733371735,9.840767860412598,0.213623046875,0.42724609375,0.48828125
4.0324999,1.104325532913208,-0.15741875767707825,9.907805442810059,0.48828125,-1.46484375,0.42724609375
4.0374999,1.0450690984725952,-0.2519897222518921,9.84615421295166,1.007080078125,-1.434326171875,-0.885009765625
4.0424999,1.0055646896362305,-0.284311443567276,9.802460670471191,0.030517578125,0.79345703125,-1.15966796875
4.0474999,1.0223240852355957,-0.34596213698387146,9.77253246307373,-0.762939453125,1.007080078125,-0.274658203125
4.0524999,0.9876081943511963,-0.31184476613998413,9.742605209350586,0.9765625,-0.54931640625,0.9765625
4.0574999,1.0324994325637817,-0.333991140127182,9.720458984375,0.6103515625,-1.434326171875,-1.3427734375
4.062499900000001,1.071405291557312,-0.3250128924846649,9.713874816894531,-0.518798828125,2.62451171875,-1.3427734375
4.0674999000000005,1.0720038414001465,-0.38905778527259827,9.773131370544434,-0.274658203125,0.8544921875,0.274658203125
4.0724999,1.013944387435913,-0.2693476974964142,9.725247383117676,1.556396484375,-1.40380859375,0.030517578125
4.0774999,0.9630676507949829,-0.1735796183347702,9.692327499389648,-0.030517578125,-1.068115234375,-0.457763671875
4.0824999,0.9463081955909729,-0.15442600846290588,9.7605619430542,-1.40380859375,0.335693359375,0.274658203125
4.0874999,0.9750386476516724,-0.1628057211637497,9.728838920593262,0.823974609375,-0.48828125,1.190185546875
4.0924999,0.9798270463943481,-0.19812019169330597,9.818621635437012,0.6103515625,-1.251220703125,0.213623046875
4.0974999,1.0606313943862915,-0.21547815203666687,9.830592155456543,0.54931640625,-0.396728515625,-2.38037109375
4.1024999,1.0348936319351196,-0.22266076505184174,9.792284965515137,0.274658203125,2.0751953125,-0.396728515625
4.1074999000000005,1.0534487962722778,-0.25079262256622314,9.781511306762695,-0.457763671875,0.54931640625,0.457763671875
4.1124999,1.0606313943862915,-0.22685061395168304,9.696516990661621,0.732421875,-1.007080078125,-0.9765625
4.1174999,1.0444705486297607,-0.25737667083740234,9.755773544311523,-0.8544921875,0.1220703125,-1.678466796875
4.1224999,1.0103530883789062,-0.2519897222518921,9.758167266845703,-0.1220703125,-1.220703125,1.129150390625
4.1274999,1.002571940422058,-0.2687491476535797,9.756970405578613,0.213623046875,-2.197265625,-0.30517578125
4.1324999,0.9983820915222168,-0.2585737705230713,9.721057891845703,0.30517578125,-0.8544921875,-1.434326171875
4.1374999,1.037886381149292,-0.2148796021938324,9.756970405578613,-0.335693359375,1.28173828125,-0.762939453125
4.1424999,1.0223240852355957,-0.18734627962112427,9.753378868103027,-0.30517578125,0.030517578125,0.213623046875
4.147499900000001,1.0127472877502441,-0.08619125932455063,9.832986831665039,-1.922607421875,-0.1220703125,-3.0517578125
4.1524999000000005,0.9091981053352356,-0.14604631066322327,9.75637149810791,-1.190185546875,3.60107421875,-8.758544921875
4.1574999,0.8619126081466675,-0.17238251864910126,9.809642791748047,-1.373291015625,1.373291015625,-5.584716796875
4.1624999,0.970848798751831,-0.37229835987091064,9.799467086791992,-1.220703125,-3.41796875,-3.41796875
4.1674999,1.1324573755264282,-0.3800795078277588,9.768941879272461,0.152587890625,1.556396484375,-3.41796875
4.1724999,1.3311761617660522,-0.3280056416988373,9.640253067016602,-0.54931640625,5.340576171875,-7.4462890625
4.1774999,1.2958617210388184,-0.23762452602386475,9.795876502990723,-0.457763671875,6.805419921875,-5.43212890625
4.1824999,1.1737574338912964,-0.29867666959762573,9.677961349487305,-0.30517578125,-1.861572265625,3.7841796875
4.187499900000001,1.0456676483154297,-0.29807811975479126,9.703699111938477,1.46484375,-5.615234375,4.08935546875
4.1924999000000005,0.983418345451355,-0.32202014327049255,9.724648475646973,0.152587890625,-3.60107421875,-2.62451171875
4.1974999,0.9941922426223755,-0.2669534981250763,9.7605619430542,-1.03759765625,2.3193359375,-4.425048828125
4.2024999,1.0642226934432983,-0.2932897210121155,9.712079048156738,-1.03759765625,4.08935546875,-1.953125
4.2074999,1.0797849893569946,-0.2711433470249176,9.713874816894531,0.640869140625,0.946044921875,-2.62451171875
4.2124999,1.127070426940918,-0.2472013235092163,9.691728591918945,0.274658203125,-0.213623046875,0.457763671875
4.2174999,1.016338586807251,-0.3531447649002075,9.686341285705566,-0.91552734375,-1.373291015625,3.814697265625
4.2224999,1.0438719987869263,-0.33099839091300964,9.756970405578613,1.220703125,-3.662109375,0.42724609375
4.2274999,1.0402805805206299,-0.37229835987091064,9.716867446899414,1.220703125,-1.251220703125,-4.2724609375
4.2324999000000005,1.0193313360214233,-0.2537853717803955,9.731232643127441,1.77001953125,-3.326416015625,3.265380859375
4.2374999,0.9600749015808105,-0.2890998423099518,9.794678688049316,2.288818359375,-4.608154296875,1.983642578125
4.2424999,1.0199298858642578,-0.3082534670829773,9.819219589233398,-0.42724609375,0.06103515625,-1.77001953125
4.2474999,1.061229944229126,-0.3321954905986786,9.78989028930664,-0.946044921875,2.655029296875,-3.0517578125
4.2524999,1.1492167711257935,-0.3034650683403015,9.730035781860352,0.518798828125,1.678466796875,-0.9765625
4.2574999,1.1222820281982422,-0.23403321206569672,9.75278091430664,0.79345703125,2.01416015625,2.960205078125
4.2624999,1.0923545360565186,-0.17717093229293823,9.809642791748047,0.030517578125,-1.40380859375,3.96728515625
4.2674999,1.0594342947006226,-0.2783259451389313,9.852738380432129,2.227783203125,-2.532958984375,-0.48828125
4.272499900000001,1.060032844543457,-0.2059013396501541,9.822811126708984,0.885009765625,-0.152587890625,-4.0283203125
4.2774999000000005,1.080383539199829,-0.3411737382411957,9.864709854125977,-2.74658203125,6.28662109375,-3.5400390625
4.2824999,1.0732009410858154,-0.2555810213088989,9.731831550598145,1.556396484375,5.218505859375,5.615234375
4.2874999,0.9690531492233276,-0.2172738015651703,9.713275909423828,-1.495361328125,2.532958984375,0.030517578125
4.2924999,0.9624691009521484,-0.22385786473751068,9.858125686645508,2.166748046875,-1.312255859375,3.662109375
4.2974999,0.9690531492233276,-0.26575639843940735,9.91738224029541,1.068115234375,-2.655029296875,1.52587890625
4.3024999,1.0324994325637817,-0.26575639843940735,9.883264541625977,-0.030517578125,-0.762939453125,-2.8076171875
4.3074999,1.0420763492584229,-0.24121582508087158,9.727641105651855,-0.18310546875,1.28173828125,-2.349853515625
4.312499900000001,1.0809820890426636,-0.19572599232196808,9.727641105651855,-1.068115234375,3.509521484375,2.0751953125
4.3174999000000005,1.025316834449768,-0.2148796021938324,9.771934509277344,0.18310546875,0.67138671875,4.119873046875
4.3224999,1.028908133506775,-0.28131869435310364,9.77791976928711,2.5634765625,-4.69970703125,-0.9765625
4.3274999,1.0271124839782715,-0.292691171169281,9.82759952545166,-0.1220703125,-0.244140625,-5.4931640625
4.3324999,1.015141487121582,-0.2890998423099518,9.773730278015137,-3.2958984375,6.378173828125,-1.03759765625
4.3374999,1.0031704902648926,-0.24779987335205078,9.750386238098145,-4.45556640625,7.049560546875,-1.617431640625
4.3424999,1.01753568649292,-0.2651578485965729,9.755773544311523,1.129150390625,0.244140625,5.31005859375
4.3474999,1.003769040107727,-0.2867056429386139,9.792284965515137,4.119873046875,-7.080078125,1.739501953125
4.352499900000001,1.0067617893218994,-0.3172317147254944,9.818621635437012,-1.983642578125,0.18310546875,-4.57763671875
4.3574999000000005,1.0211269855499268,-0.3597288131713867,9.822212219238281,-3.35693359375,5.523681640625,-0.762939453125
4.3624999,1.0360907316207886,-0.33039984107017517,9.77013874053955,2.227783203125,-1.52587890625,4.241943359375
4.3674999,1.0307037830352783,-0.34177228808403015,9.81143856048584,2.227783203125,-4.364013671875,1.129150390625
4.3724999,1.0384849309921265,-0.29628247022628784,9.837176322937012,-1.953125,0.579833984375,-3.082275390625
4.3774999,1.0468647480010986,-0.29209262132644653,9.77253246307373,-1.0986328125,2.777099609375,-0.06103515625
4.3824999,1.0241197347640991,-0.2519897222518921,9.75517463684082,1.89208984375,-0.18310546875,3.5400390625
4.3874999,1.026513934135437,-0.2663549482822418,9.718663215637207,0.8544921875,-2.960205078125,1.007080078125
4.3924999,1.0295066833496094,-0.2795230448246002,9.719860076904297,-1.190185546875,0.274658203125,-4.21142578125
4.397499900000001,0.9828197956085205,-0.26336219906806946,9.747393608093262,-0.6103515625,3.84521484375,0
4.4024999000000005,0.9882067441940308,-0.3082534670829773,9.804255485534668,1.129150390625,-4.0283203125,-2.288818359375
4.4074999,0.9624691009521484,-0.2998737692832947,9.838972091674805,-1.89208984375,2.197265625,-4.7607421875
4.4124999,0.9989806413650513,-0.3280056416988373,9.82879638671875,-0.091552734375,3.570556640625,2.99072265625
4.4174999,1.0091559886932373,-0.3196259140968323,9.740809440612793,2.777099609375,-4.08935546875,2.838134765625
4.4224999,1.05105459690094,-0.28131869435310364,9.750386238098145,-0.640869140625,-2.50244140625,-4.69970703125
4.4274999,1.0456676483154297,-0.2561795711517334,9.741408348083496,-2.716064453125,5.31005859375,-1.739501953125
4.4324999,1.0426748991012573,-0.2669534981250763,9.764751434326172,2.166748046875,0.701904296875,5.43212890625
4.437499900000001,1.0594342947006226,-0.2454056739807129,9.707889556884766,2.38037109375,-4.8828125,-1.556396484375
4.4424999000000005,0.983418345451355,-0.28790274262428284,9.757569313049316,-0.54931640625,4.57763671875,3.631591796875
4.4474999,0.9846154451370239,-0.27712884545326233,9.678560256958008,3.5400390625,-4.0283203125,1.922607421875
4.4524999,0.9882067441940308,-0.24660277366638184,9.684545516967773,-1.251220703125,-2.471923828125,-5.9814453125
4.4574999,0.973242998123169,-0.23702596127986908,9.73542308807373,-2.685546875,5.67626953125,0.79345703125
4.4624999,1.0217255353927612,-0.24361002445220947,9.739013671875,3.0517578125,-1.5869140625,4.638671875
4.4674999,1.0271124839782715,-0.22744916379451752,9.784503936767578,0.701904296875,-5.126953125,-5.096435546875
4.4724999,1.0384849309921265,-0.19871874153614044,9.882067680358887,-3.997802734375,5.126953125,-2.777099609375
4.477499900000001,0.9971849918365479,-0.2861070930957794,9.834183692932129,1.708984375,1.068115234375,5.462646484375
4.4824999000000005,1.0157400369644165,-0.2190694510936737,9.714473724365234,2.685546875,-6.4697265625,-2.899169921875
4.4874999,0.9876081943511963,-0.2214636504650116,9.804854393005371,-4.21142578125,2.62451171875,-4.33349609375
4.4924999,0.9894038438796997,-0.24600422382354736,9.78989028930664,-0.213623046875,3.0517578125,5.18798828125
4.4974999,0.9929951429367065,-0.25737667083740234,9.691129684448242,3.7841796875,-6.744384765625,-1.5869140625
4.5024999,1.0085574388504028,-0.3321954905986786,9.847352027893066,-2.9296875,5.92041015625,2.5634765625
4.5074999,1.0402805805206299,-0.32022446393966675,9.686341285705566,4.0283203125,-5.06591796875,-0.091552734375
4.5124999,1.070208191871643,-0.27653029561042786,9.790489196777344,-1.15966796875,-1.52587890625,-7.720947265625
4.5174999,1.0773907899856567,-0.3034650683403015,9.824007987976074,-2.410888671875,6.256103515625,3.326416015625
4.522499900000001,1.1174936294555664,-0.29867666959762573,9.670180320739746,3.875732421875,-3.814697265625,0.3662109375
4.5274999000000005,1.1103110313415527,-0.23163901269435883,9.793481826782227,-1.708984375,-1.068115234375,-6.134033203125
4.5324999,1.1037269830703735,-0.28072014451026917,9.831789016723633,-1.251220703125,6.40869140625,5.55419921875
4.5374999,1.1348515748977661,-0.2585737705230713,9.651625633239746,4.638671875,-3.41796875,0.48828125
4.5424999,0.9971849918365479,-0.228047713637352,9.840168952941895,-3.326416015625,1.068115234375,-3.814697265625
4.5474999,0.9864110946655273,-0.28550854325294495,9.79527759552002,0.67138671875,5.4931640625,7.14111328125
4.5524999,1.0013748407363892,-0.2753331959247589,9.654019355773926,2.960205078125,-5.31005859375,-2.44140625
4.5574999,0.9546879529953003,-0.24600422382354736,9.86111831665039,-3.7841796875,2.471923828125,-0.946044921875
4.562499900000001,1.0330979824066162,-0.24660277366638184,9.798270225524902,-3.631591796875,4.94384765625,2.227783203125
4.5674999000000005,1.0845733880996704,-0.3106476664543152,9.720458984375,3.936767578125,0.762939453125,4.82177734375
4.5724999,1.0229226350784302,-0.26755204796791077,9.844358444213867,-0.457763671875,-3.814697265625,-4.8828125
4.5774999,1.026513934135437,-0.31842881441116333,9.944915771484375,-2.13623046875,6.195068359375,4.730224609375
4.5824999,0.9702502489089966,-0.2406172752380371,9.835979461669922,-2.685546875,-0.701904296875,-3.72314453125
4.5874999,1.016338586807251,-0.2849099934101105,9.716269493103027,0.762939453125,5.401611328125,6.622314453125
4.5924999,1.0169371366500854,-0.26096799969673157,9.616311073303223,3.082275390625,-4.913330078125,-2.838134765625
4.5974999,0.9678560495376587,-0.24181437492370605,9.848548889160156,-4.119873046875,3.509521484375,-0.030517578125
4.602499900000001,1.0564415454864502,-0.31124621629714966,9.676166534423828,3.570556640625,2.0751953125,5.889892578125
4.6074999000000005,1.0157400369644165,-0.23942017555236816,9.785101890563965,0,-4.94384765625,-4.82177734375
4.6124999,1.0384849309921265,-0.2621650993824005,9.894637107849121,-2.38037109375,6.011962890625,5.126953125
4.6174999,1.0791864395141602,-0.2645592987537384,9.671976089477539,4.608154296875,-2.471923828125,1.434326171875
4.6224999,1.01753568649292,-0.21547815203666687,9.874884605407715,-3.2958984375,-1.007080078125,-3.0517578125
4.6274999,1.0570400953292847,-0.2561795711517334,9.675567626953125,1.495361328125,4.8828125,7.904052734375
4.6324999,1.0199298858642578,-0.24600422382354736,9.670180320739746,2.13623046875,-5.859375,-3.173828125
4.6374999,0.9900023937225342,-0.2519897222518921,9.834183692932129,-3.662109375,3.997802734375,2.9296875
4.6424999,0.9516952037811279,-0.2645592987537384,9.848548889160156,-1.77001953125,-3.814697265625,-4.08935546875
4.647499900000001,0.9786299467086792,-0.2968810200691223,9.786897659301758,0.213623046875,5.43212890625,6.9580078125
4.6524999000000005,0.9762357473373413,-0.2495955228805542,9.701305389404297,2.899169921875,-5.340576171875,-2.532958984375
4.6574999,0.950498104095459,-0.228047713637352,9.930550575256348,-3.7841796875,2.197265625,1.312255859375
4.6624999,1.026513934135437,-0.2968810200691223,9.695918083190918,3.96728515625,0.30517578125,4.33349609375
4.6674999,0.9828197956085205,-0.2232593148946762,9.84615421295166,-1.922607421875,-4.791259765625,-4.33349609375
4.6724999,1.0414776802062988,-0.2519897222518921,9.809642791748047,-0.6103515625,4.7607421875,6.8359375
4.6774999,1.0301052331924438,-0.21308395266532898,9.668384552001953,2.532958984375,-5.4931640625,-2.227783203125
4.6824999,0.9995791912078857,-0.20231004059314728,9.914987564086914,-3.84521484375,1.678466796875,1.77001953125
4.687499900000001,1.0564415454864502,-0.28790274262428284,9.660005569458008,3.662109375,-0.06103515625,3.753662109375
4.6924999000000005,0.9941922426223755,-0.2406172752380371,9.864110946655273,-2.25830078125,-3.96728515625,-4.150390625
4.6974999,1.016338586807251,-0.30945056676864624,9.765350341796875,0.06103515625,3.875732421875,6.378173828125
4.7024999,0.9552865028381348,-0.22026655077934265,9.910798072814941,-3.387451171875,2.777099609375,2.838134765625
4.7074999,1.0690110921859741,-0.22924481332302094,9.627683639526367,3.5400390625,-2.197265625,1.434326171875
4.7124999,0.9816226959228516,-0.17657238245010376,9.889848709106445,-3.021240234375,-2.8076171875,-2.288818359375
4.7174999,1.1563993692398071,-0.2059013396501541,9.66958236694336,1.251220703125,2.716064453125,6.439208984375
4.7224999,1.1438298225402832,-0.1885433793067932,9.87967300415039,-2.01416015625,3.5400390625,5.767822265625
4.727499900000001,1.0690110921859741,-0.22685061395168304,9.643844604492188,3.387451171875,-4.45556640625,-0.79345703125
4.7324999000000005,1.0217255353927612,-0.2232593148946762,9.935338973999023,-2.899169921875,0.30517578125,1.0986328125
4.7374999,1.0570400953292847,-0.2908954918384552,9.594164848327637,2.960205078125,0,3.35693359375
4.7424999,0.9373299479484558,-0.26396074891090393,9.79527759552002,-1.5869140625,-3.0517578125,-3.204345703125
4.7474999,1.0570400953292847,-0.284311443567276,9.660603523254395,0.3662109375,3.47900390625,5.55419921875
4.7524999,0.9720458984375,-0.22625206410884857,9.674370765686035,1.678466796875,-4.974365234375,-4.486083984375
4.7574999,0.9858125448226929,-0.2364274114370346,9.664793968200684,3.173828125,-3.5400390625,-1.800537109375
4.7624999,0.9391255974769592,-0.23942017555236816,9.972448348999023,-3.47900390625,0.396728515625,-0.48828125
4.7674999,0.9816226959228516,-0.29388827085494995,9.635464668273926,1.983642578125,-1.03759765625,1.52587890625
4.772499900000001,0.8684966564178467,-0.3064578175544739,9.862914085388184,-2.0751953125,-2.471923828125,-4.364013671875
4.7774999000000005,1.0438719987869263,-0.3016694188117981,9.674968719482422,-0.152587890625,1.3427734375,3.997802734375
4.7824999,0.9594763517379761,-0.314238965511322,9.699509620666504,-0.1220703125,-4.180908203125,-5.43212890625
4.7874999,1.0863690376281738,-0.31364041566848755,9.802460670471191,-1.007080078125,2.960205078125,3.90625
4.7924999,1.0911574363708496,-0.31603461503982544,9.64803409576416,0.6103515625,-3.41796875,-3.387451171875
4.7974999,1.1300631761550903,-0.32202014327049255,9.940725326538086,-1.40380859375,2.349853515625,2.166748046875
4.8024999,1.1875240802764893,-0.31543606519699097,9.645041465759277,1.739501953125,-1.434326171875,-0.48828125
4.8074999,1.1013327836990356,-0.262763649225235,9.965864181518555,-1.953125,0.946044921875,-0.274658203125
4.812499900000001,1.2072762250900269,-0.24420857429504395,9.585186958312988,1.8310546875,1.64794921875,3.631591796875
4.8174999000000005,1.2072762250900269,-0.16639702022075653,9.797073364257812,-0.1220703125,2.593994140625,10.162353515625
4.8224999,1.1558008193969727,-0.17717093229293823,9.697115898132324,1.46484375,-2.838134765625,2.01416015625
4.8274999,1.1605892181396484,-0.10534487664699554,9.873687744140625,-1.251220703125,0.6103515625,9.58251953125
4.8324999,1.1414356231689453,-0.14604631066322327,9.692327499389648,2.777099609375,-1.373291015625,5.096435546875
4.8374999,1.0905588865280151,-0.06224924325942993,9.931148529052734,-1.8310546875,-1.678466796875,8.209228515625
4.8424999,1.1204863786697388,-0.10295066982507706,9.64803409576416,3.814697265625,0.335693359375,8.270263671875
4.8474999,1.0079588890075684,-0.016759412363171577,9.931747436523438,-1.28173828125,-2.5634765625,5.615234375
4.852499900000001,1.1097124814987183,-0.0347159244120121,9.589975357055664,3.2958984375,0.885009765625,9.246826171875
4.8574999000000005,0.9379284977912903,-0.018555063754320145,9.856329917907715,-0.18310546875,-3.41796875,3.570556640625
4.8624999,1.1001356840133667,0.047884032130241394,9.65222454071045,1.800537109375,0.67138671875,9.58251953125
4.8674999,1.0247182846069336,0.0586579404771328,9.678560256958008,-0.640869140625,-1.434326171875,1.434326171875
4.8724999,1.1192892789840698,0.16340427100658417,9.868300437927246,1.0986328125,-2.44140625,9.58251953125
4.8774999,1.080383539199829,0.08858546614646912,9.62828254699707,0.335693359375,-0.732421875,2.197265625
4.8824999,1.0887632369995117,0.17058686912059784,9.90361499786377,0.762939453125,-2.38037109375,7.904052734375
4.8874999,1.0558429956436157,0.12449848651885986,9.654618263244629,2.44140625,0.091552734375,3.204345703125
4.8924999,1.0462661981582642,0.20051439106464386,9.956287384033203,-0.732421875,-0.54931640625,6.683349609375
4.897499900000001,1.0935516357421875,0.20709845423698425,9.742006301879883,3.72314453125,-0.396728515625,4.119873046875
4.9024999000000005,1.0696096420288086,0.21667525172233582,9.983820915222168,-4.5166015625,0.823974609375,4.974365234375
4.9074999,1.1198878288269043,0.23104046285152435,9.77791976928711,6.500244140625,-0.3662109375,3.692626953125
4.9124999,1.0660183429718018,0.01975216343998909,9.888651847839355,-4.425048828125,1.007080078125,2.227783203125
4.9174999,1.0863690376281738,0.07900865375995636,9.712677955627441,7.110595703125,-0.54931640625,2.777099609375
4.9224999,1.113303780555725,-0.05446808785200119,9.719860076904297,4.058837890625,1.89208984375,4.364013671875
4.9274999,0.9917980432510376,-0.2717418968677521,9.821614265441895,-4.547119140625,2.044677734375,1.28173828125
4.9324999,1.1857284307479858,-0.09636662155389786,9.658807754516602,8.056640625,-0.701904296875,5.55419921875
4.937499900000001,1.080383539199829,-0.2849099934101105,9.75936508178711,-0.1220703125,1.3427734375,1.28173828125
4.9424999000000005,1.245583415031433,-0.11671733111143112,9.628880500793457,4.302978515625,3.082275390625,6.439208984375
4.9474999,1.1468225717544556,-0.3315969407558441,9.77013874053955,-3.997802734375,2.74658203125,0.8544921875
4.9524999,1.269525408744812,-0.1364694982767105,9.655217170715332,5.0048828125,-1.251220703125,8.97216796875
4.9574999,1.1324573755264282,-0.3381809890270233,9.609128952026367,-1.03759765625,0.762939453125,3.814697265625
4.9624999,1.0241197347640991,-0.25977087020874023,9.575011253356934,-2.01416015625,2.288818359375,2.166748046875
4.9674999,1.104325532913208,0.055665191262960434,9.696516990661621,5.18798828125,0.732421875,7.537841796875
4.9724999,0.8343793153762817,-0.5201402902603149,9.640851974487305,-1.15966796875,2.288818359375,-3.173828125
4.977499900000001,1.0055646896362305,-0.33937808871269226,9.73781681060791,4.2724609375,2.716064453125,2.899169921875
4.9824999000000005,0.9127894043922424,-0.6368576288223267,9.778518676757812,-1.312255859375,4.150390625,-3.753662109375
4.9874999,1.0833762884140015,-0.4076128304004669,9.77791976928711,3.875732421875,2.38037109375,2.9296875
4.9924999,0.9804255962371826,-0.596754789352417,9.9185791015625,-0.1220703125,2.44140625,-3.96728515625
4.9974999,1.1073182821273804,-0.3519476354122162,9.749788284301758,1.068115234375,5.18798828125,1.953125
5.0024999,0.9582792520523071,-0.585382342338562,9.890447616577148,-0.030517578125,3.662109375,-4.913330078125
5.0074999,1.080383539199829,-0.4513070285320282,9.662399291992188,4.486083984375,4.180908203125,1.28173828125
5.0124999,0.9516952037811279,-0.7284358739852905,9.869498252868652,1.190185546875,4.364013671875,-4.2724609375
5.0174999,0.8415619134902954,-1.0851719379425049,9.93474006652832,0.579833984375,4.69970703125,-3.72314453125
5.022499900000001,0.8930372595787048,-1.1905168294906616,9.658807754516602,2.5634765625,5.584716796875,2.410888671875
5.0274999000000005,0.6811503767967224,-1.2533645629882812,9.9586820602417,0.640869140625,4.241943359375,-2.0751953125
5.0324999,0.7410054206848145,-1.260547161102295,9.639056205749512,3.082275390625,5.55419921875,2.838134765625
5.0374999,0.578798234462738,-1.1982979774475098,10.000580787658691,0.274658203125,2.86865234375,-1.52587890625
5.0424999,0.7086837291717529,-0.9409212470054626,10.053851127624512,-0.6103515625,0.3662109375,0.152587890625
5.0474999,0.8529343605041504,-0.7463923692703247,9.685144424438477,3.326416015625,2.838134765625,4.974365234375
5.0524999,0.9546879529953003,-0.5620388388633728,10.04068374633789,-0.823974609375,-0.946044921875,2.471923828125
5.0574999,0.9983820915222168,-0.4118026793003082,9.674370765686035,3.204345703125,1.251220703125,4.638671875
5.062499900000001,0.9810241460800171,-0.2735375463962555,9.610923767089844,3.570556640625,2.288818359375,2.38037109375
5.0674999000000005,0.9624691009521484,-0.1777694821357727,9.747992515563965,-0.91552734375,1.495361328125,2.0751953125
5.0724999,0.9229647517204285,-0.26994624733924866,9.622895240783691,3.35693359375,2.8076171875,-0.152587890625
5.0774999,0.933738648891449,-0.22086510062217712,9.709685325622559,-0.946044921875,1.8310546875,2.227783203125
5.0824999,0.9038111567497253,-0.2908954918384552,9.673771858215332,2.99072265625,1.708984375,-0.274658203125
5.0874999,0.9726444482803345,-0.3208230137825012,9.758167266845703,0.091552734375,2.01416015625,3.60107421875
5.0924999,0.862511157989502,-0.4279635548591614,9.702502250671387,2.01416015625,0.732421875,-0.244140625
5.0974999,0.9289502501487732,-0.5093663930892944,9.798869132995605,-0.67138671875,1.068115234375,5.7373046875
5.102499900000001,0.7805097699165344,-0.5997475385665894,9.785101890563965,0.54931640625,-2.288818359375,0.244140625
5.1074999000000005,0.8092401623725891,-0.48961424827575684,9.786299705505371,-0.9765625,-6.04248046875,6.28662109375
5.1124999,0.7038952708244324,-0.4165911078453064,9.907805442810059,-0.335693359375,-6.16455078125,0.79345703125
5.1174999,0.7817068696022034,-0.11192893236875534,9.700108528137207,0.396728515625,-2.5634765625,5.06591796875
5.1224999,0.8984242081642151,0.3148375153541565,9.576807022094727,0.54931640625,-1.0986328125,1.77001953125
5.1274999,0.9409212470054626,0.37828385829925537,9.928754806518555,-2.227783203125,-2.227783203125,-1.861572265625
5.1324999,1.0845733880996704,0.4141969084739685,9.622895240783691,1.190185546875,0.701904296875,0.244140625
5.1374999,1.1563993692398071,0.32381579279899597,9.926959037780762,-2.227783203125,-0.274658203125,-0.244140625
5.1424999,1.1468225717544556,0.12389993667602539,9.731831550598145,1.617431640625,0.762939453125,-0.335693359375
5.147499900000001,1.1432312726974487,-0.03531447425484657,9.867103576660156,-1.5869140625,0.762939453125,1.15966796875
5.1524999000000005,1.0013748407363892,-0.24899697303771973,9.749788284301758,1.708984375,0.3662109375,-1.312255859375
5.1574999,1.0133458375930786,-0.36810851097106934,9.828198432922363,-0.335693359375,1.373291015625,2.25830078125
5.1624999,0.851138710975647,-0.3728969097137451,9.741408348083496,1.556396484375,-0.9765625,-2.25830078125
5.1674999,0.9828197956085205,-0.3357867896556854,9.739612579345703,0.79345703125,1.8310546875,2.166748046875
5.1724999,0.8667010068893433,-0.2513911724090576,9.79288387298584,-0.213623046875,-1.0986328125,-2.838134765625
5.1774999,0.9032126069068909,-0.1538274586200714,9.882067680358887,-1.28173828125,-0.396728515625,-1.983642578125
5.1824999,0.9636662006378174,-0.1041477769613266,9.5809965133667,1.556396484375,1.373291015625,1.15966796875
5.187499900000001,0.9253589510917664,-0.10175357013940811,10.00836181640625,-2.38037109375,-2.0751953125,-1.89208984375
5.1924999000000005,0.8930372595787048,-0.08619125932455063,9.72165584564209,1.434326171875,-0.885009765625,-0.091552734375
5.1974999,0.9463081955909729,-0.10354922711849213,9.961075782775879,-2.593994140625,-0.8544921875,0.213623046875
5.2024999,0.8816647529602051,-0.10295066982507706,9.712079048156738,0.457763671875,-2.3193359375,-1.190185546875
5.2074999,0.9923965930938721,-0.20290859043598175,9.807847023010254,-1.8310546875,0.396728515625,1.5869140625
5.2124999,0.9241618514060974,-0.22206220030784607,9.696516990661621,0.67138671875,-2.288818359375,-2.044677734375
5.2174999,1.1234791278839111,-0.3196259140968323,9.668384552001953,1.40380859375,2.349853515625,2.38037109375
5.2224999,1.0414776802062988,-0.3585317134857178,9.816226959228516,0.396728515625,-0.91552734375,-2.62451171875
5.227499900000001,1.1444283723831177,-0.34596213698387146,9.527127265930176,2.0751953125,4.39453125,1.8310546875
5.2324999000000005,1.0067617893218994,-0.31783026456832886,9.93593692779541,-0.91552734375,0.762939453125,-2.288818359375
5.2374999,0.9295487999916077,-0.17896658182144165,9.853337287902832,-2.105712890625,-0.091552734375,-0.30517578125
5.2424999,0.8373720645904541,-0.16101007163524628,9.695918083190918,1.251220703125,-1.312255859375,-0.48828125
5.2474999,0.9193734526634216,-0.12629413604736328,9.773730278015137,-1.800537109375,-0.30517578125,1.007080078125
5.2524999,0.7924807667732239,-0.13407529890537262,9.740211486816406,0.518798828125,-3.265380859375,-1.77001953125
5.2574999,0.961870551109314,-0.2064998894929886,9.71926212310791,-0.244140625,1.28173828125,1.953125
