# Time (seconds),Accel_X,Accel_Y,Accel_Z,Gyro_X,Gyro_Y,Gyro_Z
0.0024999,0.788889467716217,-0.5440823435783386,9.773730278015137,-1.8310546875,0.3662109375,-3.41796875
0.0074999,0.788889467716217,-0.5440823435783386,9.773730278015137,-1.8310546875,0.3662109375,-3.41796875
0.012499900000000001,0.788889467716217,-0.5440823435783386,9.773730278015137,-1.8310546875,0.3662109375,-3.41796875
0.0174999,0.7439981698989868,-0.5225345492362976,9.829395294189453,6.683349609375,-0.18310546875,0.244140625
0.0224999,0.8158242106437683,-0.46148237586021423,9.861717224121094,-5.096435546875,-0.42724609375,2.197265625
0.0274999,0.812831461429596,-0.5692214369773865,9.737217903137207,-1.77001953125,0.8544921875,-3.2958984375
0.0324999,0.7428010702133179,-0.5518634915351868,9.789292335510254,6.500244140625,-0.48828125,0.518798828125
0.0374999,0.8098387122154236,-0.5135562419891357,9.812037467956543,-4.791259765625,-0.54931640625,2.044677734375
0.0424999,0.8146271109580994,-0.6320692300796509,9.695320129394531,-1.007080078125,0.8544921875,-3.41796875
0.0474999,0.7529764175415039,-0.5823895931243896,9.749189376831055,6.378173828125,-0.457763671875,0.762939453125
0.0524999,0.8254010081291199,-0.547075092792511,9.800664901733398,-5.615234375,-0.42724609375,1.953125
0.0574999,0.8164227604866028,-0.6308721303939819,9.709685325622559,-0.885009765625,0.91552734375,-3.326416015625
0.0624999,0.7284358739852905,-0.5859808921813965,9.782109260559082,5.950927734375,-0.091552734375,1.007080078125
0.0674999,0.7972691655158997,-0.5512649416923523,9.821015357971191,-5.43212890625,-0.48828125,1.5869140625
0.0724999,0.7829039692878723,-0.6344634294509888,9.714473724365234,-0.54931640625,0.701904296875,-3.41796875
0.0774999,0.7044938206672668,-0.5728127360343933,9.77791976928711,5.401611328125,-0.244140625,1.220703125
0.0824999,0.7661445140838623,-0.5398924946784973,9.746794700622559,-5.767822265625,-0.3662109375,1.373291015625
0.0874999,0.768538773059845,-0.6159083843231201,9.68574333190918,0.335693359375,0.79345703125,-3.448486328125
0.0924999,0.7092822790145874,-0.5315127968788147,9.77791976928711,5.157470703125,-0.396728515625,1.373291015625
0.0974999,0.5997475385665894,-1.1647791862487793,9.537900924682617,-4.150390625,-0.6103515625,0.18310546875
0.1024999,0.21547815203666687,-2.6862943172454834,8.40544319152832,23.74267578125,1.40380859375,-13.85498046875
0.1074999,0.6811503767967224,-3.3518824577331543,7.975085735321045,116.424560546875,5.645751953125,-24.566650390625
0.1124999,0.8690952062606812,-4.478952884674072,7.220313549041748,117.401123046875,31.219482421875,-9.185791015625
0.1174999,1.047463297843933,-3.9665937423706055,6.664858818054199,73.516845703125,38.543701171875,6.317138671875
0.1224999,1.6843209266662598,-2.9065608978271484,7.400477409362793,95.15380859375,15.350341796875,-6.2255859375
0.1274999,0.9253589510917664,1.6298527717590332,6.8611836433410645,34.60693359375,-1.495361328125,2.899169921875
0.1324999,0.7811083197593689,4.255693435668945,6.465541839599609,23.529052734375,-19.989013671875,-7.537841796875
0.1374999,0.19871874153614044,5.231929302215576,5.852027416229248,4.974365234375,-24.871826171875,-10.101318359375
0.1424999,0.30526071786880493,5.854421615600586,5.828683853149414,21.3623046875,-14.984130859375,-14.70947265625
0.1474999,0.15143325924873352,5.482123374938965,5.873575210571289,-40.34423828125,0.213623046875,11.016845703125
0.1524999,0.49559974670410156,5.221155166625977,6.047154903411865,-90.057373046875,7.4462890625,17.63916015625
0.1574999,0.6105214357376099,5.151124954223633,6.231508255004883,-92.620849609375,8.23974609375,26.885986328125
0.1624999,0.8277952671051025,4.823718070983887,6.281188011169434,-126.983642578125,15.045166015625,42.78564453125
0.1674999,0.7613561153411865,3.8594532012939453,6.798335552215576,-138.5498046875,21.392822265625,35.0341796875
0.1724999,0.4884171485900879,2.6204538345336914,8.593388557434082,-126.861572265625,-6.7138671875,26.947021484375
0.17749990000000002,0.11432313174009323,0.08379705995321274,11.057621002197266,-85.693359375,-57.769775390625,1.708984375
0.1824999,-0.2322375625371933,-2.4678235054016113,13.458406448364258,-29.449462890625,-53.924560546875,-17.913818359375
0.1874999,0.1628057211637497,-6.493673324584961,13.028048515319824,-9.21630859375,-10.162353515625,-9.674072265625
0.1924999,0.7218518257141113,-6.706757545471191,10.134655952453613,25.299072265625,-11.474609375,-9.27734375
0.1974999,1.4413094520568848,-5.877166748046875,7.146692276000977,30.303955078125,-3.021240234375,-1.40380859375
0.2024999,1.9841946363449097,-4.9152960777282715,5.697601318359375,22.735595703125,10.986328125,-3.2958984375
0.20749990000000001,2.2146365642547607,-3.310582399368286,6.291962146759033,27.435302734375,16.05224609375,-1.0986328125
0.2124999,2.2691047191619873,-1.8267759084701538,8.228272438049316,13.85498046875,12.14599609375,2.44140625
0.2174999,1.9698294401168823,-0.45250412821769714,10.183138847351074,8.575439453125,12.420654296875,-2.99072265625
0.2224999,1.3832499980926514,0.812831461429596,11.520299911499023,16.7236328125,8.1787109375,2.716064453125
0.2274999,0.8798691034317017,1.5185223817825317,11.46882438659668,-0.79345703125,5.706787109375,4.69970703125
0.2324999,0.37469255924224854,1.558625340461731,10.700884819030762,-4.8828125,5.79833984375,-0.79345703125
0.2374999,0.016759412363171577,1.4730325937271118,9.965864181518555,-3.631591796875,1.251220703125,3.753662109375
0.2424999,0.2801215946674347,-1.0809820890426636,9.747992515563965,-8.453369140625,-9.46044921875,-0.48828125
0.2474999,0.5279214978218079,-1.4071919918060303,9.707290649414062,4.8828125,-6.072998046875,-2.227783203125
0.2524999,0.9469067454338074,-1.389235496520996,9.771934509277344,2.38037109375,-3.0517578125,3.662109375
0.2574999,1.2731167078018188,-1.3078327178955078,9.684545516967773,-3.60107421875,1.40380859375,-1.8310546875
0.2624999,1.4000093936920166,-1.0145429372787476,9.783307075500488,8.880615234375,3.936767578125,-1.8310546875
0.2674999,1.4652514457702637,-0.679354727268219,9.874286651611328,-1.3427734375,4.119873046875,2.74658203125
0.2724999,1.3060370683670044,-0.5476736426353455,9.688735961914062,-3.11279296875,5.31005859375,-3.5400390625
0.2774999,0.9882067441940308,-0.3884592354297638,9.73542308807373,7.26318359375,4.119873046875,-0.30517578125
0.2824999,0.801459014415741,-0.31364041566848755,9.700706481933594,-4.241943359375,1.556396484375,2.44140625
0.28749990000000003,0.6314706802368164,-0.4704606235027313,9.680954933166504,-1.28173828125,0.9765625,-3.326416015625
0.2924999,0.47644615173339844,-0.4321534037590027,9.767744064331055,6.256103515625,-0.885009765625,1.129150390625
0.2974999,0.5333084464073181,-0.6356605291366577,9.687539100646973,0.885009765625,-1.15966796875,-3.662109375
0.3024999,0.5823895931243896,-0.5141547918319702,9.768342971801758,4.058837890625,-1.953125,2.716064453125
0.3074999,0.7721300721168518,-0.619499683380127,9.77672290802002,-7.62939453125,-1.46484375,0.732421875
0.3124999,0.761954665184021,-0.6709750294685364,9.783307075500488,3.41796875,-0.213623046875,-3.173828125
0.3174999,0.8918401598930359,-0.5746083855628967,9.888052940368652,1.89208984375,-0.640869140625,3.0517578125
0.3224999,0.849941611289978,-0.6931213736534119,9.759963035583496,5.92041015625,1.129150390625,-2.471923828125
0.3274999,0.884058952331543,-0.6147112846374512,9.855133056640625,0.244140625,-0.152587890625,2.777099609375
0.3324999,0.8331822156906128,-0.6973112225532532,9.70549488067627,-5.126953125,1.03759765625,-2.44140625
0.3374999,0.7475894689559937,-0.6440402865409851,9.733028411865234,7.293701171875,1.068115234375,-1.15966796875
0.3424999,0.7745242714881897,-0.5410895943641663,9.75637149810791,-2.410888671875,0.06103515625,3.326416015625
0.34749990000000003,0.7601590156555176,-0.5931634902954102,9.578003883361816,-3.47900390625,0.579833984375,-3.0517578125
0.35249990000000003,0.7583633661270142,-0.4596867263317108,9.692925453186035,-5.06591796875,-1.15966796875,2.532958984375
0.3574999,0.7841010689735413,-0.5740098357200623,9.691129684448242,-1.800537109375,-0.18310546875,-3.570556640625
0.3624999,0.7308300733566284,-0.5237316489219666,9.79527759552002,6.256103515625,-1.220703125,1.068115234375
0.3674999,0.8248024582862854,-0.5333084464073181,9.816825866699219,-6.317138671875,-1.190185546875,1.617431640625
0.3724999,0.7942764163017273,-0.6871358752250671,9.733627319335938,0.701904296875,0.335693359375,-3.60107421875
0.3774999,0.7691373229026794,-0.5680243372917175,9.804854393005371,5.126953125,-0.6103515625,1.89208984375
0.3824999,0.882861852645874,-0.6643909811973572,9.801861763000488,-7.171630859375,-0.030517578125,0.396728515625
0.3874999,0.8032546639442444,-0.7128735780715942,9.776124000549316,3.143310546875,1.007080078125,-3.60107421875
0.3924999,0.8379706144332886,-0.6021417379379272,9.847352027893066,3.7841796875,0.06103515625,2.86865234375
0.3974999,0.851138710975647,-0.6829460263252258,9.792284965515137,-6.65283203125,0.8544921875,-0.457763671875
0.4024999,0.7870938181877136,-0.5895721912384033,9.655815124511719,-5.340576171875,-0.18310546875,-2.5634765625
0.4074999,0.7541735172271729,-0.5345055460929871,9.688735961914062,6.65283203125,-0.091552734375,-1.0986328125
0.41249990000000003,0.8140285611152649,-0.4686649739742279,9.717466354370117,-3.0517578125,-0.8544921875,2.899169921875
0.41749990000000003,0.8355764150619507,-0.5410895943641663,9.584588050842285,-3.326416015625,0.30517578125,-3.021240234375
0.4224999,0.7960720658302307,-0.5171475410461426,9.684545516967773,7.171630859375,0.152587890625,-0.091552734375
0.4274999,0.8577227592468262,-0.4818331003189087,9.740809440612793,-4.33349609375,-0.091552734375,2.197265625
0.4324999,0.8798691034317017,-0.595557689666748,9.73661994934082,-1.3427734375,1.129150390625,-3.753662109375
0.4374999,0.7912836670875549,-0.5345055460929871,9.839570045471191,6.40869140625,0.213623046875,1.15966796875
0.4424999,0.8433575630187988,-0.524330198764801,9.860519409179688,-5.706787109375,-0.457763671875,1.800537109375
0.4474999,0.7811083197593689,-0.6590040326118469,9.759963035583496,0.42724609375,0.396728515625,-3.60107421875
0.4524999,0.6913257241249084,-0.568622887134552,9.820416450500488,5.31005859375,-0.732421875,1.800537109375
0.4574999,0.7727286219596863,-0.6368576288223267,9.82999324798584,-6.744384765625,-1.129150390625,0.732421875
0.4624999,0.6949170231819153,-0.7026981711387634,9.774927139282227,2.25830078125,0.06103515625,-3.5400390625
0.4674999,0.7200561761856079,-0.6200982332229614,9.834183692932129,4.058837890625,-0.762939453125,2.532958984375
0.47249990000000003,0.8224082589149475,-0.6823474764823914,9.819219589233398,-6.7138671875,-0.091552734375,-0.030517578125
0.47749990000000003,0.7577648162841797,-0.7457938194274902,9.746196746826172,4.058837890625,0.701904296875,-3.23486328125
0.4824999,0.7559691667556763,-0.5722141861915588,9.740211486816406,6.34765625,0.48828125,-1.708984375
0.4874999,0.7248445749282837,-0.5422866940498352,9.695918083190918,6.744384765625,0.213623046875,-1.03759765625
0.4924999,0.7248445749282837,-0.5422866940498352,9.695918083190918,6.744384765625,0.213623046875,-1.03759765625
0.4974999,0.7709329724311829,-0.4836287498474121,9.728838920593262,-2.410888671875,-0.732421875,2.86865234375
0.5024999,0.7817068696022034,-0.5620388388633728,9.576208114624023,-3.692626953125,0.30517578125,-3.11279296875
0.5074999,0.7523778676986694,-0.5548562407493591,9.66419506072998,7.14111328125,0,-0.3662109375
0.5124999,0.8224082589149475,-0.4842272996902466,9.736021041870117,-3.84521484375,-0.640869140625,2.62451171875
0.5174999,0.8379706144332886,-0.579995334148407,9.707290649414062,-2.3193359375,0.518798828125,-3.265380859375
0.5224999,0.7763199210166931,-0.5398924946784973,9.840767860412598,6.927490234375,0.213623046875,0.6103515625
0.5274999,0.8433575630187988,-0.5003881454467773,9.892841339111328,-5.279541015625,-0.762939453125,1.953125
0.5324999,0.8403648138046265,-0.6631938815116882,9.791088104248047,-0.762939453125,0.335693359375,-3.662109375
0.5374999,0.7667431235313416,-0.5752069354057312,9.831191062927246,6.317138671875,-0.457763671875,1.251220703125
0.5424999,0.7350199222564697,-0.5668272376060486,9.773730278015137,4.94384765625,-0.640869140625,1.983642578125
0.5474999,0.7350199222564697,-0.5668272376060486,9.773730278015137,4.94384765625,-0.640869140625,1.983642578125
0.5524999,0.8200140595436096,-0.6230909824371338,9.801861763000488,-6.439208984375,-0.213623046875,0.6103515625
0.5574999,0.7637503147125244,-0.6637924313545227,9.75936508178711,2.38037109375,0.640869140625,-3.570556640625
0.5624999,0.7721300721168518,-0.5644330382347107,9.849146842956543,4.2724609375,-0.640869140625,2.410888671875
0.5674999000000001,0.8475474119186401,-0.6260837316513062,9.819219589233398,-6.866455078125,-0.091552734375,-0.030517578125
0.5724999000000001,0.7547720670700073,-0.6613982319831848,9.764751434326172,3.509521484375,0.823974609375,-3.173828125
0.5774999000000001,0.8062474131584167,-0.5716156363487244,9.815628051757812,2.62451171875,-0.335693359375,2.655029296875
0.5824999,0.8122329115867615,-0.6212953329086304,9.742605209350586,-6.927490234375,-0.06103515625,-0.640869140625
0.5874999,0.7104793787002563,-0.645237386226654,9.710882186889648,4.669189453125,0.42724609375,-2.685546875
0.5924999,0.7793126702308655,-0.5428852438926697,9.815628051757812,1.617431640625,-0.762939453125,3.0517578125
0.5974999,0.7960720658302307,-0.6248866319656372,9.768941879272461,-6.591796875,-0.06103515625,-1.220703125
0.6024999,0.767341673374176,-0.6153098344802856,9.700108528137207,6.317138671875,0.457763671875,-1.617431640625
0.6074999,0.8259995579719543,-0.5363011956214905,9.788095474243164,-1.373291015625,-0.6103515625,3.143310546875
0.6124999,0.8248024582862854,-0.5985504388809204,9.64803409576416,-4.730224609375,0.213623046875,-2.593994140625
0.6174999,0.7703344225883484,-0.5578489899635315,9.6989107131958,7.232666015625,-0.091552734375,-1.40380859375
0.6224999,0.8170213103294373,-0.49320554733276367,9.762955665588379,-2.349853515625,-0.823974609375,2.838134765625
0.6274999,0.8170213103294373,-0.5823895931243896,9.630077362060547,-3.96728515625,0.335693359375,-2.838134765625
0.6324999,0.761954665184021,-0.5644330382347107,9.694721221923828,7.01904296875,-0.1220703125,-0.518798828125
0.6374999,0.8074445128440857,-0.518943190574646,9.744400978088379,-3.47900390625,-0.6103515625,2.593994140625
0.6424999,0.7996633648872375,-0.608127236366272,9.648633003234863,-2.838134765625,0.518798828125,-3.23486328125
0.6474999,0.7457938194274902,-0.5716156363487244,9.774927139282227,6.927490234375,0.030517578125,0.030517578125
0.6524999,0.8224082589149475,-0.5997475385665894,9.773131370544434,-2.105712890625,0.640869140625,-3.41796875
0.6574999,0.7583633661270142,-0.5351040959358215,9.848548889160156,6.2255859375,0.030517578125,0.579833984375
0.6624999,0.839766263961792,-0.5129576921463013,9.862914085388184,-5.340576171875,-0.67138671875,1.89208984375
0.6674999,0.8319851160049438,-0.6572083830833435,9.755773544311523,-0.54931640625,0.244140625,-3.60107421875
0.6724999,0.7559691667556763,-0.579995334148407,9.776124000549316,6.317138671875,-0.640869140625,0.885009765625
0.6774999,0.8206126093864441,-0.606930136680603,9.75936508178711,-6.16455078125,-0.457763671875,1.373291015625
0.6824999,0.7948749661445618,-0.7032967209815979,9.676166534423828,0.274658203125,0.823974609375,-3.509521484375
0.6874999,0.727837324142456,-0.579995334148407,9.752182006835938,5.18798828125,-0.06103515625,1.800537109375
0.6924999000000001,0.8092401623725891,-0.6003460884094238,9.773730278015137,-6.317138671875,-0.457763671875,0.9765625
0.6974999000000001,0.7691373229026794,-0.6542156338691711,9.750386238098145,1.8310546875,0.42724609375,-3.448486328125
0.7024999000000001,0.74040687084198,-0.5494692921638489,9.841365814208984,5.0048828125,-0.274658203125,2.01416015625
0.7074999,0.8254010081291199,-0.585382342338562,9.844358444213867,-6.8359375,-0.06103515625,0.457763671875
0.7124999,0.7715315222740173,-0.5620388388633728,9.847352027893066,3.692626953125,-0.274658203125,2.288818359375
0.7174999,0.8277952671051025,-0.6290764808654785,9.803657531738281,-6.927490234375,0.091552734375,-0.06103515625
0.7224999,0.7475894689559937,-0.639850378036499,9.727641105651855,4.7607421875,0.3662109375,-2.838134765625
0.7274999,0.8307880163192749,-0.5123591423034668,9.819219589233398,1.556396484375,-0.48828125,2.899169921875
0.7324999,0.8337807655334473,-0.5901707410812378,9.747393608093262,-6.9580078125,0.06103515625,-1.007080078125
0.7374999,0.7613561153411865,-0.6015431880950928,9.744400978088379,5.157470703125,0.518798828125,-2.5634765625
0.7424999,0.8236053586006165,-0.5279214978218079,9.865906715393066,1.03759765625,-0.6103515625,3.021240234375
0.7474999,0.812831461429596,-0.6356605291366577,9.773131370544434,-6.072998046875,0.274658203125,-1.373291015625
0.7524999,0.7523778676986694,-0.6320692300796509,9.750386238098145,5.92041015625,0.244140625,-2.166748046875
0.7574999,0.8122329115867615,-0.6272808313369751,9.710283279418945,-5.645751953125,0.274658203125,-1.922607421875
0.7624999,0.7559691667556763,-0.596754789352417,9.712079048156738,6.4697265625,0.701904296875,-1.617431640625
0.7674999,0.8056488633155823,-0.5333084464073181,9.788095474243164,-0.885009765625,-0.8544921875,2.960205078125
0.7724999,0.8092401623725891,-0.6015431880950928,9.648633003234863,-5.035400390625,0.396728515625,-2.50244140625
0.7774999,0.751779317855835,-0.5811924338340759,9.674370765686035,6.500244140625,0.335693359375,-1.3427734375
0.7824999,0.8062474131584167,-0.5398924946784973,9.764153480529785,-2.3193359375,-0.640869140625,2.99072265625
0.7874999,0.812831461429596,-0.6039373874664307,9.679159164428711,-4.08935546875,0.42724609375,-2.50244140625
0.7924999,0.7709329724311829,-0.5943605899810791,9.731831550598145,7.2021484375,0.18310546875,-0.701904296875
0.7974999,0.8200140595436096,-0.5207388401031494,9.778518676757812,-2.593994140625,-0.823974609375,2.5634765625
0.8024999,0.8122329115867615,-0.595557689666748,9.620500564575195,-3.753662109375,0.48828125,-2.899169921875
0.8074999,0.7649474143981934,-0.5728127360343933,9.689932823181152,6.89697265625,-0.18310546875,-0.274658203125
0.8124999,0.8164227604866028,-0.5111620426177979,9.730634689331055,-3.936767578125,-0.640869140625,2.5634765625
0.8174999000000001,0.8403648138046265,-0.5081692934036255,9.862914085388184,-5.31005859375,-0.18310546875,1.8310546875
0.8224999000000001,0.8301894664764404,-0.6446388363838196,9.767146110534668,-0.946044921875,0.762939453125,-3.509521484375
0.8274999000000001,0.7493851184844971,-0.6039373874664307,9.807249069213867,6.317138671875,-0.030517578125,1.068115234375
0.8324999000000001,0.8254010081291199,-0.6021417379379272,9.78869342803955,-5.706787109375,-0.244140625,1.89208984375
0.8374999,0.8140285611152649,-0.7236474752426147,9.66958236694336,0.06103515625,0.732421875,-3.47900390625
0.8424999,0.7350199222564697,-0.6171054840087891,9.686341285705566,6.28662109375,-0.30517578125,1.068115234375
0.8474999,0.8200140595436096,-0.6003460884094238,9.701904296875,-5.828857421875,-0.30517578125,1.28173828125
0.8524999,0.7990648150444031,-0.6715735793113708,9.667187690734863,0.42724609375,0.79345703125,-3.23486328125
0.8574999,0.8194155097007751,-0.5249287486076355,9.832387924194336,-6.7138671875,-0.244140625,0.885009765625
0.8624999,0.7799112200737,-0.6087257862091064,9.788095474243164,1.007080078125,0.762939453125,-3.5400390625
0.8674999,0.7481880187988281,-0.49559974670410156,9.853935241699219,5.096435546875,-0.518798828125,2.01416015625
0.8724999,0.8158242106437683,-0.5734112858772278,9.833584785461426,-6.89697265625,-0.3662109375,0.762939453125
0.8774999,0.7499836683273315,-0.6697779297828674,9.761159896850586,2.13623046875,0.274658203125,-3.41796875
0.8824999,0.7571662664413452,-0.578798234462738,9.824007987976074,4.547119140625,-0.640869140625,2.044677734375
0.8874999,0.8289923667907715,-0.6596025824546814,9.782708168029785,-6.561279296875,-0.30517578125,0.18310546875
0.8924999,0.7571662664413452,-0.6931213736534119,9.725846290588379,2.99072265625,0.67138671875,-3.173828125
0.8974999,0.7972691655158997,-0.5925649404525757,9.782708168029785,3.72314453125,-0.274658203125,2.5634765625
0.9024999,0.8469488620758057,-0.6290764808654785,9.762955665588379,-6.622314453125,0.091552734375,-0.18310546875
0.9074999,0.7433996200561523,-0.6458359360694885,9.725846290588379,3.570556640625,0.79345703125,-3.143310546875
0.9124999,0.7894880175590515,-0.5416881442070007,9.805453300476074,2.899169921875,-0.396728515625,2.593994140625
0.9174999,0.7158663272857666,-0.6248866319656372,9.765350341796875,4.33349609375,0.457763671875,-2.777099609375
0.9224999,0.790086567401886,-0.5123591423034668,9.861717224121094,2.197265625,-0.640869140625,2.716064453125
0.9274999,0.790086567401886,-0.5823895931243896,9.773131370544434,-6.317138671875,0.244140625,-0.8544921875
0.9324999,0.718859076499939,-0.6057330369949341,9.742605209350586,5.0048828125,0.579833984375,-2.655029296875
0.9374999,0.8038532137870789,-0.5027823448181152,9.830592155456543,1.03759765625,-0.42724609375,2.899169921875
0.9424999000000001,0.8098387122154236,-0.6159083843231201,9.768941879272461,-6.866455078125,0.06103515625,-1.251220703125
0.9474999000000001,0.750582218170166,-0.6302735805511475,9.771934509277344,5.2490234375,0.579833984375,-2.288818359375
0.9524999000000001,0.8248024582862854,-0.5716156363487244,9.869498252868652,0.8544921875,-0.579833984375,3.021240234375
0.9574999000000001,0.8188169598579407,-0.6613982319831848,9.747992515563965,-6.011962890625,0.1220703125,-1.64794921875
0.9624999,0.8242039084434509,-0.5883750915527344,9.802460670471191,0.30517578125,-0.67138671875,3.082275390625
0.9674999,0.8182184100151062,-0.6380547285079956,9.661202430725098,-5.7373046875,0.30517578125,-1.739501953125
0.9724999,0.6841431260108948,-1.0115501880645752,9.106346130371094,-3.90625,0.213623046875,-3.021240234375
0.9774999,0.70090252161026,-1.3036428689956665,8.64007568359375,37.628173828125,-2.0751953125,-40.283203125
0.9824999,0.4572925269603729,-1.8716671466827393,7.708730697631836,97.320556640625,-0.42724609375,-91.73583984375
0.9874999,0.8876502513885498,-1.8399440050125122,6.825270652770996,119.964599609375,4.791259765625,-107.60498046875
0.9924999,0.750582218170166,-0.8038532137870789,5.839457988739014,52.18505859375,1.922607421875,-60.11962890625
0.9974999,1.0468647480010986,0.37828385829925537,5.609015941619873,42.633056640625,-1.068115234375,-61.09619140625
1.0024999,1.0869675874710083,2.453458309173584,4.7369279861450195,42.449951171875,2.288818359375,-49.072265625
1.0074999000000002,0.8936358094215393,4.340089321136475,5.035006046295166,24.10888671875,5.706787109375,-24.2919921875
1.0124999000000001,0.821809709072113,5.90589714050293,4.84287166595459,-21.91162109375,7.659912109375,-2.25830078125
1.0174999000000002,0.4213795065879822,7.111377716064453,5.2229509353637695,-28.564453125,7.781982421875,2.471923828125
1.0224999000000001,0.3130418658256531,7.668628215789795,5.738901615142822,-39.520263671875,9.796142578125,20.172119140625
1.0274999,-0.152031809091568,6.8611836433410645,7.460930824279785,-78.857421875,29.388427734375,31.31103515625
1.0324999000000001,-0.3250128924846649,5.856217384338379,8.844181060791016,-102.935791015625,9.674072265625,43.121337890625
1.0374999,-0.4920084476470947,3.8391025066375732,10.526107788085938,-96.6796875,-26.7333984375,29.327392578125
1.0424999000000001,-0.7296329736709595,1.7208324670791626,12.408549308776855,-61.126708984375,-56.21337890625,16.4794921875
1.0474999,-0.595557689666748,-0.9139865040779114,13.752294540405273,-52.1240234375,-49.163818359375,12.725830078125
1.0524999000000002,-0.2711433470249176,-3.22139835357666,13.838485717773438,-29.205322265625,-28.839111328125,6.77490234375
1.0574999,0.2190694510936737,-4.643554210662842,12.431892395019531,-8.880615234375,-17.4560546875,12.939453125
1.0624999000000002,0.9528923034667969,-5.450400352478027,9.943120002746582,-3.96728515625,-13.24462890625,14.22119140625
1.0674999,1.4688427448272705,-5.658695697784424,7.745841026306152,15.533447265625,-6.378173828125,5.9814453125
1.0724999000000002,1.8369512557983398,-5.040393352508545,6.57806921005249,27.099609375,1.678466796875,3.41796875
1.0774999,2.1110873222351074,-4.468178749084473,6.822876453399658,20.99609375,9.124755859375,-6.866455078125
1.0824999000000002,1.9823989868164062,-3.338714361190796,8.022371292114258,35.064697265625,14.312744140625,-12.5732421875
1.0874999,0.07781155407428741,1.1091139316558838,9.767146110534668,-17.608642578125,-6.927490234375,3.60107421875
1.0924999000000002,0.020949264988303185,0.12270283699035645,9.606135368347168,-10.772705078125,-8.392333984375,-2.960205078125
1.0974999,0.06224924325942993,-0.5309142470359802,9.620500564575195,0.213623046875,-10.345458984375,2.13623046875
1.1024999000000002,0.37229835987091064,-1.3012486696243286,9.520543098449707,-8.36181640625,-8.819580078125,1.617431640625
1.1074999,0.5907692909240723,-1.6609774827957153,9.475052833557129,4.669189453125,-6.072998046875,-3.60107421875
1.1124999000000002,0.9217676520347595,-1.577778935432434,9.527127265930176,7.26318359375,-2.13623046875,2.288818359375
1.1174999,0.9217676520347595,-1.577778935432434,9.527127265930176,7.26318359375,-2.13623046875,2.288818359375
1.1224999000000002,1.4431051015853882,-0.7308300733566284,9.981427192687988,2.532958984375,4.852294921875,3.0517578125
1.1274999,1.4431051015853882,-0.7308300733566284,9.981427192687988,2.532958984375,4.852294921875,3.0517578125
1.1324999000000002,1.338358759880066,-0.547075092792511,9.947908401489258,-5.18798828125,5.43212890625,-1.678466796875
1.1374999000000001,1.0594342947006226,-0.39564183354377747,9.996390342712402,6.439208984375,3.84521484375,-0.762939453125
1.1424999000000002,0.8667010068893433,-0.2992752194404602,9.932345390319824,-3.326416015625,1.708984375,3.5400390625
1.1474999000000001,0.6530185341835022,-0.4620809257030487,9.667786598205566,-4.425048828125,0.1220703125,-3.0517578125
1.1524999000000002,0.4471171796321869,-0.5081692934036255,9.667786598205566,6.65283203125,-2.0751953125,-0.213623046875
1.1574999000000001,0.49799394607543945,-0.5608417391777039,9.622895240783691,-4.94384765625,-3.0517578125,2.13623046875
1.1624999,0.6039373874664307,-0.7134721279144287,9.630077362060547,-0.579833984375,-3.021240234375,-3.814697265625
1.1674999000000001,0.6739677786827087,-0.6266822814941406,9.75517463684082,5.950927734375,-2.8076171875,1.556396484375
1.1724999,0.9247604012489319,-0.5883750915527344,9.79527759552002,-6.744384765625,-1.708984375,1.617431640625
1.1774999000000002,0.9516952037811279,-0.6332663297653198,9.771934509277344,1.495361328125,0.213623046875,-3.387451171875
1.1824999,0.9068039059638977,-0.6787561774253845,9.90241813659668,1.861572265625,1.129150390625,3.143310546875
1.1874999000000002,0.839766263961792,-0.788889467716217,9.820416450500488,-5.79833984375,1.3427734375,-1.52587890625
1.1924999,0.7116764783859253,-0.7541735172271729,9.803657531738281,7.080078125,0.54931640625,-1.89208984375
1.1974999000000002,0.7410054206848145,-0.6530185341835022,9.824007987976074,-0.762939453125,-0.67138671875,3.41796875
1.2024999,0.74040687084198,-0.6733692288398743,9.693524360656738,-4.82177734375,-0.8544921875,-2.5634765625
1.2074999000000002,0.6913257241249084,-0.5937620401382446,9.690531730651855,6.195068359375,-1.129150390625,-0.67138671875
1.2124999,0.7858967185020447,-0.507570743560791,9.743802070617676,-4.364013671875,-1.739501953125,2.99072265625
1.2174999000000002,0.839766263961792,-0.5710170865058899,9.657012939453125,-3.11279296875,-0.79345703125,-3.11279296875
1.2224999,0.8176198601722717,-0.5620388388633728,9.761159896850586,6.317138671875,-0.91552734375,0.396728515625
1.2274999000000002,0.9367313981056213,-0.5596446394920349,9.767146110534668,-5.584716796875,-0.48828125,1.89208984375
1.2324999,0.922366201877594,-0.6482301354408264,9.779715538024902,6.439208984375,0.06103515625,1.617431640625
1.2374999000000002,0.922366201877594,-0.6482301354408264,9.779715538024902,6.439208984375,0.06103515625,1.617431640625
1.2424999,1.0247182846069336,-0.6440402865409851,9.786299705505371,-6.2255859375,0.823974609375,0.701904296875
1.2474999000000002,0.9050082564353943,-0.6733692288398743,9.753378868103027,2.50244140625,1.007080078125,-3.662109375
1.2524999,0.8553285598754883,-0.5716156363487244,9.837775230407715,3.90625,0.42724609375,2.62451171875
1.2574999000000002,0.8846575021743774,-0.5997475385665894,9.819219589233398,-6.805419921875,0.6103515625,-0.244140625
1.2624999000000001,0.7356184720993042,-0.6655880808830261,9.79288387298584,4.45556640625,0.457763671875,-2.8076171875
1.2674999000000002,0.7823054194450378,-0.5919663906097412,9.884461402893066,1.0986328125,-0.48828125,3.204345703125
1.2724999000000001,0.7781155705451965,-0.6889315247535706,9.79527759552002,-6.683349609375,-0.518798828125,-1.495361328125
1.2774999000000002,0.7044938206672668,-0.6853402256965637,9.758766174316406,5.767822265625,-0.30517578125,-2.13623046875
1.2824999000000001,0.8487445116043091,-0.6745663285255432,9.749788284301758,0.823974609375,0.091552734375,-3.35693359375
1.2874999,0.7769184708595276,-0.595557689666748,9.81263542175293,4.82177734375,-0.79345703125,1.89208984375
1.2924999000000001,0.8816647529602051,-0.6554127335548401,9.79408073425293,-7.232666015625,-0.3662109375,0.335693359375
1.2974999,0.7948749661445618,-0.7218518257141113,9.786897659301758,2.777099609375,0,-3.326416015625
1.3024999000000002,0.828393816947937,-0.6625953316688538,9.851541519165039,3.2958984375,-0.457763671875,2.74658203125
1.3074999,0.8918401598930359,-0.7140706777572632,9.790489196777344,-6.683349609375,0.18310546875,-0.3662109375
1.3124999000000002,0.8661024570465088,-0.6799532771110535,9.837176322937012,1.983642578125,0.1220703125,2.899169921875
1.3174999,0.8661024570465088,-0.6799532771110535,9.837176322937012,1.983642578125,0.1220703125,2.899169921875
1.3224999000000002,0.8780734539031982,-0.7170634269714355,9.757569313049316,-6.072998046875,0.457763671875,-1.28173828125
1.3274999,0.7966706156730652,-0.6865373253822327,9.776124000549316,5.950927734375,0.30517578125,-2.105712890625
1.3324999000000002,0.839766263961792,-0.6189011335372925,9.833584785461426,-0.579833984375,-0.42724609375,3.143310546875
1.3374999,0.8313865661621094,-0.6434416770935059,9.728240013122559,-5.55419921875,0.30517578125,-2.3193359375
1.3424999000000002,0.7481880187988281,-0.6428431272506714,9.736021041870117,6.561279296875,0.06103515625,-1.129150390625
1.3474999,0.811634361743927,-0.5728127360343933,9.771934509277344,-2.227783203125,-0.8544921875,2.9296875
1.3524999000000002,0.821809709072113,-0.6338648796081543,9.609128952026367,-3.814697265625,0.18310546875,-2.99072265625
1.3574999,0.7852981686592102,-0.6087257862091064,9.658807754516602,7.049560546875,-0.213623046875,-0.396728515625
1.3624999000000002,0.8631097078323364,-0.5261258482933044,9.694122314453125,-4.058837890625,-0.518798828125,2.62451171875
1.3674999,0.9032126069068909,-0.6051344871520996,9.65222454071045,-2.227783203125,0.396728515625,-3.35693359375
1.3724999000000002,0.9277531504631042,-0.5165489912033081,9.80904483795166,-5.7373046875,0.091552734375,1.953125
1.3774999,0.9343371987342834,-0.6685808300971985,9.741408348083496,-0.518798828125,0.42724609375,-3.448486328125
1.3824999000000002,0.8463503122329712,-0.5877765417098999,9.791088104248047,6.011962890625,-0.274658203125,1.46484375
1.3874999000000001,0.921169102191925,-0.628477931022644,9.764153480529785,-6.317138671875,-0.396728515625,1.3427734375
1.3924999000000002,0.8415619134902954,-0.7170634269714355,9.70429801940918,1.617431640625,0.396728515625,-3.60107421875
1.3974999000000001,0.7751228213310242,-0.6386532783508301,9.79647445678711,4.45556640625,-0.335693359375,2.0751953125
1.4024999000000002,0.8702923059463501,-0.6973112225532532,9.803657531738281,-6.622314453125,0.1220703125,0.30517578125
1.4074999000000001,0.7775170207023621,-0.739209771156311,9.79647445678711,3.448486328125,0.579833984375,-3.41796875
1.4124999,0.8104372620582581,-0.6655880808830261,9.864110946655273,3.0517578125,0.1220703125,2.593994140625
1.4174999000000001,0.8547300100326538,-0.6889315247535706,9.832986831665039,-6.7138671875,0.335693359375,-0.335693359375
1.4224999,0.7475894689559937,-0.70090252161026,9.777320861816406,4.39453125,0.67138671875,-2.8076171875
1.4274999000000002,0.8194155097007751,-0.6248866319656372,9.875483512878418,1.800537109375,-0.244140625,2.838134765625
1.4324999,0.8720879554748535,-0.6655880808830261,9.733627319335938,-5.859375,0,-2.105712890625
1.4374999000000002,0.8212111592292786,-0.6649895310401917,9.737217903137207,6.28662109375,-0.18310546875,-1.678466796875
1.4424999,0.849941611289978,-0.6560112833976746,9.68813705444336,6.77490234375,0.6103515625,-0.91552734375
1.4474999000000002,0.8936358094215393,-0.5925649404525757,9.731232643127441,-2.685546875,-0.1220703125,2.593994140625
1.4524999,0.882861852645874,-0.6482301354408264,9.59835433959961,-2.9296875,0.518798828125,-3.0517578125
1.4574999000000002,0.812831461429596,-0.6206967830657959,9.691728591918945,7.14111328125,0,0
1.4624999,0.861314058303833,-0.535702645778656,9.713275909423828,-4.058837890625,-0.06103515625,2.44140625
1.4674999000000002,0.8732850551605225,-0.6063315868377686,9.699509620666504,-1.739501953125,0.6103515625,-3.387451171875
1.4724999,0.8607155084609985,-0.5201402902603149,9.84256362915039,-5.645751953125,-0.1220703125,2.01416015625
1.4774999000000002,0.8535329103469849,-0.657806932926178,9.758766174316406,-1.068115234375,0.67138671875,-3.387451171875
1.4824999,0.7745242714881897,-0.6051344871520996,9.798270225524902,5.9814453125,-0.152587890625,1.312255859375
1.4874999000000002,0.8678981065750122,-0.6021417379379272,9.768342971801758,-6.317138671875,-0.18310546875,1.434326171875
1.4924999,0.8319851160049438,-0.7266402244567871,9.693524360656738,0.8544921875,0.06103515625,-3.662109375
1.4974999000000002,0.7679402232170105,-0.6236895322799683,9.761758804321289,5.55419921875,-0.274658203125,1.708984375
1.5024999,0.8661024570465088,-0.6667851805686951,9.764153480529785,-6.89697265625,0.091552734375,0.823974609375
1.5074999000000002,0.7990648150444031,-0.7272387742996216,9.742605209350586,2.01416015625,0.457763671875,-3.2958984375
1.5124999000000001,0.7966706156730652,-0.6416460275650024,9.817423820495605,3.997802734375,-0.6103515625,2.349853515625
1.5174999000000002,0.8888474106788635,-0.6829460263252258,9.802460670471191,-6.89697265625,-0.213623046875,0
1.5224999000000001,0.7942764163017273,-0.6871358752250671,9.750985145568848,4.57763671875,0.30517578125,-2.86865234375
1.5274999000000002,0.8643068075180054,-0.6033388376235962,9.82759952545166,1.89208984375,0.213623046875,2.685546875
1.5324999000000001,0.872686505317688,-0.628477931022644,9.752182006835938,-6.65283203125,0.518798828125,-1.15966796875
1.5374999000000003,0.7876923680305481,-0.639850378036499,9.75397777557373,5.18798828125,0.457763671875,-2.166748046875
1.5424999000000001,0.8451532125473022,-0.5692214369773865,9.841365814208984,0.30517578125,-0.1220703125,3.265380859375
1.5474999,0.8451532125473022,-0.6254851818084717,9.744400978088379,-6.072998046875,0.42724609375,-1.800537109375
1.5524999000000002,0.7745242714881897,-0.6368576288223267,9.758167266845703,5.767822265625,0.42724609375,-1.861572265625
1.5574999,0.8373720645904541,-0.5776011347770691,9.819219589233398,-0.518798828125,-0.335693359375,3.23486328125
1.5624999000000002,0.861314058303833,-0.6386532783508301,9.725247383117676,-5.43212890625,0.244140625,-1.983642578125
1.5674999,0.7984662652015686,-0.6248866319656372,9.715670585632324,6.103515625,0.335693359375,-1.40380859375
1.5724999000000002,0.8738836050033569,-0.5542576909065247,9.791088104248047,-1.617431640625,-0.396728515625,2.655029296875
1.5774999,0.8708908557891846,-0.6326677799224854,9.645041465759277,-4.45556640625,0.152587890625,-2.716064453125
1.5824999000000002,0.862511157989502,-0.5494692921638489,9.701904296875,-2.9296875,-0.42724609375,2.62451171875
1.5874999,0.8667010068893433,-0.6320692300796509,9.55705451965332,-3.326416015625,0.579833984375,-2.99072265625
1.5924999000000002,0.811634361743927,-0.5889736413955688,9.655815124511719,6.988525390625,-0.152587890625,-0.244140625
1.5974999,0.8738836050033569,-0.5327098965644836,9.699509620666504,-4.180908203125,-0.42724609375,2.349853515625
1.6024999000000002,0.8816647529602051,-0.6242880821228027,9.676166534423828,-2.38037109375,0.18310546875,-3.021240234375
1.6074999,0.8092401623725891,-0.6105214357376099,9.807249069213867,6.500244140625,-0.457763671875,0.3662109375
1.6124999000000002,0.8834604024887085,-0.5883750915527344,9.855731010437012,-4.608154296875,-0.244140625,1.8310546875
1.6174999,0.8834604024887085,-0.706289529800415,9.800065994262695,-1.068115234375,0.579833984375,-3.387451171875
1.6224999000000002,0.8020575642585754,-0.679354727268219,9.855731010437012,6.53076171875,-0.335693359375,0.9765625
1.6274999,0.8780734539031982,-0.6494272351264954,9.831789016723633,-5.37109375,-0.335693359375,1.64794921875
1.6324999000000002,0.8595184087753296,-0.7326257228851318,9.712079048156738,-0.457763671875,0.396728515625,-3.72314453125
1.6374999000000001,0.7703344225883484,-0.656609833240509,9.725846290588379,5.37109375,-0.274658203125,1.28173828125
1.6424999000000002,0.8188169598579407,-0.6847416758537292,9.655815124511719,0.946044921875,0.244140625,-3.448486328125
1.6474999000000001,0.7565677165985107,-0.5943605899810791,9.739612579345703,5.0048828125,-0.091552734375,1.953125
1.6524999000000002,0.849941611289978,-0.5859808921813965,9.742605209350586,-6.2255859375,-0.152587890625,0.823974609375
1.6574999000000001,0.8134300112724304,-0.6703764796257019,9.733028411865234,1.953125,0.274658203125,-3.570556640625
1.6624999000000003,0.7966706156730652,-0.5973533391952515,9.824007987976074,4.21142578125,-0.396728515625,2.105712890625
1.6674999000000001,0.9026140570640564,-0.6350619792938232,9.837775230407715,-6.805419921875,-0.213623046875,0.579833984375
1.6724999,0.8182184100151062,-0.7092822790145874,9.813234329223633,2.685546875,0.396728515625,-3.204345703125
1.6774999000000002,0.8427590131759644,-0.6404489278793335,9.861717224121094,3.41796875,-0.30517578125,2.25830078125
1.6824999,0.8403648138046265,-0.6374561786651611,9.79288387298584,2.86865234375,-0.457763671875,2.777099609375
1.6874999000000002,0.871489405632019,-0.6655880808830261,9.747393608093262,-6.134033203125,0.091552734375,-0.54931640625
1.6924999,0.8307880163192749,-0.6470330357551575,9.713275909423828,-6.4697265625,0.030517578125,-1.068115234375
1.6974999000000002,0.7499836683273315,-0.6446388363838196,9.730035781860352,5.126953125,0,-2.44140625
1.7024999,0.8236053586006165,-0.5716156363487244,9.803657531738281,0.8544921875,-0.579833984375,2.99072265625
1.7074999000000002,0.8439561128616333,-0.6386532783508301,9.727641105651855,-5.645751953125,-0.18310546875,-1.40380859375
1.7124999,0.7930793166160583,-0.6314706802368164,9.733627319335938,5.828857421875,-0.244140625,-2.166748046875
1.7174999000000002,0.8750807046890259,-0.5859808921813965,9.827000617980957,-0.06103515625,-0.244140625,2.960205078125
1.7224999,0.889445960521698,-0.6314706802368164,9.72165584564209,-5.37109375,0.54931640625,-1.800537109375
1.7274999000000002,0.889445960521698,-0.6314706802368164,9.72165584564209,-5.37109375,0.54931640625,-1.800537109375
1.7324999,0.8200140595436096,-0.6141127347946167,9.745597839355469,6.134033203125,0.030517578125,-1.708984375
1.7374999000000002,0.8744821548461914,-0.5817909836769104,9.837775230407715,-0.8544921875,-0.244140625,2.9296875
1.7424999,0.8762778043746948,-0.6075286865234375,9.72165584564209,-5.31005859375,0.54931640625,-1.953125
1.7474999000000002,0.862511157989502,-0.6171054840087891,9.68574333190918,-4.33349609375,0.457763671875,-2.166748046875
1.7524999,0.862511157989502,-0.6171054840087891,9.68574333190918,-4.33349609375,0.457763671875,-2.166748046875
1.7574999000000002,0.4944026470184326,-1.1222820281982422,9.610923767089844,6.53076171875,0.8544921875,-3.753662109375
1.7624999000000001,0.5590460896492004,-3.2124202251434326,7.729680061340332,49.652099609375,11.199951171875,-73.30322265625
1.7674999000000002,0.9193734526634216,-4.7824177742004395,6.235698223114014,70.49560546875,16.204833984375,-133.819580078125
1.7724999000000001,1.455674648284912,-4.178480625152588,4.697423934936523,81.23779296875,10.92529296875,-164.337158203125
1.7774999000000002,1.5005658864974976,-3.293224334716797,3.9396588802337646,40.52734375,0.579833984375,-117.218017578125
1.7824999000000001,1.9740192890167236,-0.4944026470184326,4.170100688934326,9.857177734375,5.950927734375,-43.670654296875
1.7874999000000003,1.5065513849258423,1.2473790645599365,4.902127742767334,-31.43310546875,21.91162109375,-28.594970703125
1.7924999000000001,1.1354501247406006,2.761113166809082,5.691616058349609,-6.561279296875,31.92138671875,-16.571044921875
1.7974999,0.7960720658302307,2.583942174911499,6.481103897094727,-14.678955078125,25.5126953125,-0.579833984375
1.8024999000000002,-0.4985924959182739,1.2108675241470337,7.490858554840088,-3.96728515625,10.284423828125,-0.732421875
1.8074999,-0.910993754863739,0.9900023937225342,7.644686222076416,-14.22119140625,10.528564453125,-2.349853515625
1.8124999000000002,-1.0019733905792236,1.8758569955825806,7.890091896057129,9.70458984375,7.080078125,-6.561279296875
1.8174999,-0.778714120388031,1.8124107122421265,7.875127792358398,1.251220703125,-1.495361328125,9.521484375
1.8224999000000002,-0.38726213574409485,3.112462282180786,8.234258651733398,7.843017578125,-0.67138671875,2.288818359375
1.8274999,-0.21308395266532898,2.5109190940856934,8.313865661621094,3.11279296875,-7.87353515625,11.810302734375
1.8324999000000002,-0.06224924325942993,2.9299042224884033,8.526948928833008,-3.387451171875,-12.054443359375,0.48828125
1.8374999,-0.2867056429386139,2.8413188457489014,8.418611526489258,7.904052734375,-6.04248046875,3.41796875
1.8424999000000002,-0.3992331326007843,2.8832173347473145,7.978078842163086,-19.744873046875,-8.72802734375,15.80810546875
1.8474999,-0.39863458275794983,3.6332011222839355,7.891887187957764,-18.035888671875,-13.763427734375,7.354736328125
1.8524999000000002,-0.34596213698387146,3.4961330890655518,7.710526466369629,-15.2587890625,-12.908935546875,21.026611328125
1.8574999,-0.05147533491253853,2.868852138519287,7.684788703918457,-39.00146484375,-16.2353515625,10.528564453125
1.8624999000000002,1.3425486087799072,-0.06763619929552078,8.987235069274902,-13.702392578125,-9.124755859375,1.678466796875
1.8674999,1.3617022037506104,-0.40521863102912903,9.159018516540527,8.941650390625,-5.37109375,8.148193359375
1.8724999000000002,1.382651448249817,-0.2148796021938324,9.231443405151367,-22.186279296875,-3.41796875,24.322509765625
1.8774999,1.2096704244613647,-0.14604631066322327,9.297284126281738,-25.787353515625,-2.99072265625,19.622802734375
1.8824999000000002,1.0720038414001465,0.2795230448246002,9.667786598205566,-16.998291015625,-7.965087890625,23.284912109375
1.8874999000000001,1.0217255353927612,-0.2908954918384552,9.806051254272461,-27.16064453125,-9.27734375,14.0380859375
1.8924999000000002,0.7829039692878723,-0.6847416758537292,10.000580787658691,-6.195068359375,-7.965087890625,7.080078125
1.8974999000000001,0.8080430626869202,-1.2623428106307983,9.987412452697754,-12.725830078125,-5.615234375,10.3759765625
1.9024999000000002,0.767341673374176,-2.029684543609619,9.834183692932129,-3.082275390625,-3.41796875,1.8310546875
1.9074999000000001,0.9343371987342834,-2.3552958965301514,9.35893440246582,-3.265380859375,-0.18310546875,3.204345703125
1.9124999000000003,0.8936358094215393,-2.0398597717285156,9.297284126281738,15.411376953125,0.9765625,-0.1220703125
1.9174999000000001,1.0043675899505615,-1.646013617515564,9.41400146484375,2.13623046875,2.44140625,3.509521484375
1.9224999,0.960673451423645,-1.2826935052871704,9.529520988464355,4.8828125,2.655029296875,-5.37109375
1.9274999000000002,0.899621307849884,-0.6392518281936646,9.837176322937012,9.735107421875,2.25830078125,2.655029296875
1.9324999,0.9307458996772766,-0.3968389332294464,9.904812812805176,-7.415771484375,1.3427734375,-0.42724609375
1.9374999000000002,0.7870938181877136,-0.1107318252325058,9.997588157653809,7.659912109375,0.091552734375,-0.06103515625
1.9424999,0.8158242106437683,0.016160860657691956,10.035296440124512,-7.293701171875,-0.732421875,5.18798828125
1.9474999000000002,0.7541735172271729,-0.2124854028224945,9.88506031036377,-4.241943359375,-1.40380859375,-3.143310546875
1.9524999,0.7140706777572632,-0.1951274424791336,9.90241813659668,2.5634765625,-2.166748046875,3.814697265625
1.9574999000000002,0.8319851160049438,-0.557250440120697,9.739612579345703,-10.345458984375,-2.044677734375,-0.091552734375
1.9624999,0.7864952683448792,-0.7469909191131592,9.698312759399414,7.87353515625,-1.922607421875,-1.190185546875
1.9674999000000002,0.9738415479660034,-1.0516531467437744,9.604938507080078,-0.3662109375,-0.244140625,-3.448486328125
1.9724999,0.9510966539382935,-0.8517372608184814,9.72165584564209,7.720947265625,0.335693359375,3.2958984375
1.9774999000000002,1.072602391242981,-0.8906430602073669,9.683947563171387,-7.843017578125,0.885009765625,0.030517578125
1.9824999,0.945111095905304,-0.7703344225883484,9.740211486816406,8.331298828125,0.9765625,-2.166748046875
1.9874999000000002,0.9588778018951416,-0.6087257862091064,9.841365814208984,-3.204345703125,0.946044921875,4.150390625
1.9924999,0.945111095905304,-0.6871358752250671,9.762357711791992,-3.173828125,0.48828125,-3.631591796875
1.9974999000000002,0.7954735159873962,-0.4991910457611084,9.859322547912598,7.049560546875,0,2.593994140625
2.0024999,0.8661024570465088,-0.706289529800415,9.667187690734863,4.7607421875,0.091552734375,-3.387451171875
2.0074999,0.9074024558067322,-0.5746083855628967,9.82879638671875,1.28173828125,-0.06103515625,4.425048828125
2.0124999000000003,0.9247604012489319,-0.7320271730422974,9.702502250671387,-6.53076171875,-0.091552734375,-2.25830078125
2.0174999000000002,0.8271966576576233,-0.6530185341835022,9.834183692932129,8.453369140625,-0.18310546875,0.335693359375
2.0224999,0.9133879542350769,-0.5913678407669067,9.73542308807373,-7.171630859375,-0.152587890625,2.9296875
2.0274999,0.839766263961792,-0.6961141228675842,9.6989107131958,1.800537109375,-0.091552734375,-3.72314453125
2.0324999000000004,0.8349778652191162,-0.5428852438926697,9.785101890563965,3.936767578125,-0.30517578125,3.90625
2.0374999000000003,0.9038111567497253,-0.7260416746139526,9.730634689331055,-8.087158203125,0,-1.007080078125
2.0424999,0.8367735147476196,-0.7254431247711182,9.783307075500488,8.270263671875,-0.30517578125,-1.0986328125
2.0474999,0.9229647517204285,-0.6763619780540466,9.824007987976074,-4.119873046875,-0.1220703125,3.936767578125
2.0524999,0.9475052952766418,-0.801459014415741,9.709086418151855,-1.373291015625,-0.244140625,-3.84521484375
2.0574999000000003,0.8738836050033569,-0.6027402877807617,9.81143856048584,6.988525390625,-0.213623046875,2.655029296875
2.0624999,0.8577227592468262,-0.679354727268219,9.739612579345703,6.072998046875,-0.18310546875,-2.838134765625
2.0674999,0.9026140570640564,-0.5901707410812378,9.834781646728516,-0.518798828125,-0.18310546875,3.997802734375
2.0724999,0.9169792532920837,-0.7140706777572632,9.666589736938477,-5.126953125,0.091552734375,-2.99072265625
2.0774999000000003,0.8409633636474609,-0.6189011335372925,9.786897659301758,8.209228515625,-0.06103515625,0.8544921875
2.0824999,0.9313444495201111,-0.5542576909065247,9.698312759399414,-7.26318359375,0,2.44140625
2.0874999,0.8475474119186401,-0.6631938815116882,9.710882186889648,2.5634765625,-0.06103515625,-3.875732421875
2.0924999,0.8463503122329712,-0.5339069962501526,9.841964721679688,3.509521484375,-0.18310546875,3.753662109375
2.0974999000000003,0.900818407535553,-0.7194576263427734,9.79647445678711,-7.75146484375,-0.1220703125,-1.40380859375
2.1024999,0.8349778652191162,-0.7344213724136353,9.841964721679688,8.026123046875,-0.152587890625,-1.220703125
2.1074999,0.9026140570640564,-0.6799532771110535,9.86231517791748,-4.08935546875,-0.152587890625,3.875732421875
2.1124999,0.9498994946479797,-0.7918822169303894,9.714473724365234,-2.105712890625,-0.244140625,-3.7841796875
2.1174999000000003,0.8403648138046265,-0.6177040338516235,9.768342971801758,6.8359375,-0.30517578125,2.288818359375
2.1224999,0.9911994934082031,-0.6625953316688538,9.702502250671387,-8.026123046875,0,0.946044921875
2.1274999,0.8170213103294373,-0.7326257228851318,9.6803560256958,5.37109375,-0.06103515625,-3.173828125
2.1324999,0.8523358106613159,-0.6506243348121643,9.827000617980957,0.79345703125,-0.1220703125,4.08935546875
2.1374999000000003,0.8541314601898193,-0.7966706156730652,9.692925453186035,-6.16455078125,-0.06103515625,-2.349853515625
2.1424999000000002,0.7858967185020447,-0.7170634269714355,9.780313491821289,8.331298828125,-0.06103515625,-0.244140625
2.1474999,0.884058952331543,-0.6171054840087891,9.715071678161621,-5.79833984375,-0.06103515625,3.143310546875
2.1524999,0.8864531517028809,-0.7003039717674255,9.633070945739746,-0.06103515625,-0.335693359375,-3.84521484375
2.1574999000000004,0.8553285598754883,-0.5315127968788147,9.744999885559082,6.011962890625,-0.213623046875,2.838134765625
2.1624999000000003,0.9816226959228516,-0.6524199843406677,9.722254753112793,-8.36181640625,0.091552734375,0.091552734375
2.1674999,0.8655039072036743,-0.6931213736534119,9.75278091430664,6.2255859375,-0.396728515625,-2.716064453125
2.1724999,0.9253589510917664,-0.639850378036499,9.868300437927246,-0.732421875,-0.244140625,3.814697265625
2.1774999000000004,0.9355342984199524,-0.7374141216278076,9.706093788146973,-5.340576171875,0.152587890625,-2.899169921875
2.1824999000000003,0.8403648138046265,-0.6500257849693298,9.791088104248047,8.056640625,-0.091552734375,0.335693359375
2.1874999,0.801459014415741,-0.5452794432640076,9.742605209350586,4.94384765625,-0.091552734375,3.173828125
2.1924999,0.9062053561210632,-0.7050924301147461,9.737217903137207,-8.23974609375,-0.030517578125,-0.18310546875
2.1974999,0.8020575642585754,-0.7703344225883484,9.762955665588379,6.7138671875,-0.1220703125,-2.532958984375
2.2024999000000003,0.8906430602073669,-0.707486629486084,9.864110946655273,-0.946044921875,-0.30517578125,3.814697265625
2.2074999,0.9103952050209045,-0.8074445128440857,9.677961349487305,-4.730224609375,-0.152587890625,-2.899169921875
2.2124999,0.8343793153762817,-0.6913257241249084,9.771934509277344,8.23974609375,-0.30517578125,0.42724609375
2.2174999,0.922366201877594,-0.5889736413955688,9.6618013381958,-6.2255859375,-0.030517578125,2.38037109375
2.2224999000000003,0.8768763542175293,-0.6685808300971985,9.6618013381958,1.190185546875,0.091552734375,-3.875732421875
2.2274999,0.8481459617614746,-0.5327098965644836,9.762955665588379,4.852294921875,-0.335693359375,3.021240234375
2.2324999,0.9636662006378174,-0.6524199843406677,9.775525093078613,-7.9345703125,-0.030517578125,-0.06103515625
2.2374999,0.9385270476341248,-0.6548141837120056,9.913191795349121,-0.762939453125,-0.18310546875,3.662109375
2.2424999000000003,0.9026140570640564,-0.6751648783683777,9.663596153259277,0.030517578125,0.030517578125,-3.814697265625
2.2474999,0.838569164276123,-0.547075092792511,9.782708168029785,5.645751953125,0.030517578125,2.593994140625
2.2524999,0.9528923034667969,-0.6661866307258606,9.750386238098145,-7.965087890625,0.30517578125,0.1220703125
2.2574999,0.8134300112724304,-0.7541735172271729,9.77133560180664,5.43212890625,0.091552734375,-3.082275390625
2.2624999000000003,0.8696937561035156,-0.689530074596405,9.891045570373535,0.54931640625,0,3.7841796875
2.2674999000000002,0.8744821548461914,-0.8068459630012512,9.736021041870117,-6.16455078125,-0.1220703125,-2.227783203125
2.2724999,0.8200140595436096,-0.7272387742996216,9.801861763000488,7.99560546875,0.030517578125,-0.823974609375
2.2774999,0.8978256583213806,-0.6027402877807617,9.765948295593262,-4.5166015625,0.274658203125,2.99072265625
2.2824999000000004,0.8583213090896606,-0.5171475410461426,9.747992515563965,6.89697265625,-0.274658203125,1.708984375
2.2874999000000003,0.9977835416793823,-0.5752069354057312,9.722254753112793,-7.598876953125,-0.091552734375,1.15966796875
2.2924999,0.8301894664764404,-0.67815762758255,9.70310115814209,3.509521484375,0.152587890625,-3.570556640625
2.2974999,0.8445546627044678,-0.6147112846374512,9.810839653015137,2.685546875,-0.30517578125,3.35693359375
2.3024999000000004,0.8810662031173706,-0.7721300721168518,9.756970405578613,-7.293701171875,-0.1220703125,-1.3427734375
2.3074999000000003,0.8122329115867615,-0.7846996188163757,9.767146110534668,7.32421875,0.091552734375,-1.861572265625
2.3124999,0.8990227580070496,-0.6919242739677429,9.79408073425293,-2.166748046875,0.091552734375,3.570556640625
2.3174999,0.9295487999916077,-0.7356184720993042,9.62828254699707,-3.753662109375,0.06103515625,-3.23486328125
2.3224999,0.8074445128440857,-0.7823054194450378,9.793481826782227,5.340576171875,0.1220703125,-2.960205078125
2.3274999000000003,0.8768763542175293,-0.7140706777572632,9.9185791015625,1.129150390625,0.1220703125,3.5400390625
2.3324999,0.8876502513885498,-0.8236053586006165,9.762357711791992,-6.317138671875,0.30517578125,-2.105712890625
2.3374999,0.8373720645904541,-0.7422025203704834,9.806051254272461,7.62939453125,0.1220703125,-1.251220703125
2.3424999,0.8990227580070496,-0.6206967830657959,9.767744064331055,-3.47900390625,0.091552734375,3.265380859375
2.3474999000000003,0.9481038451194763,-0.6494272351264954,9.652822494506836,-2.62451171875,0.06103515625,-3.35693359375
2.3524999,0.9481038451194763,-0.6494272351264954,9.652822494506836,-2.62451171875,0.06103515625,-3.35693359375
2.3574999,0.8559271097183228,-0.5488707423210144,9.731831550598145,7.080078125,-0.244140625,0.946044921875
2.3624999,0.9427168965339661,-0.5129576921463013,9.699509620666504,-6.8359375,-0.213623046875,1.739501953125
2.3674999000000003,0.861314058303833,-0.6488286852836609,9.693524360656738,1.77001953125,-0.06103515625,-3.875732421875
2.3724999,0.8110358119010925,-0.5823895931243896,9.792284965515137,4.638671875,-0.274658203125,2.410888671875
2.3774999,0.9193734526634216,-0.7122750282287598,9.774927139282227,-7.659912109375,0,-0.30517578125
2.3824999,0.9115923047065735,-0.5847837924957275,9.770736694335938,-3.5400390625,0.18310546875,3.265380859375
2.3874999000000003,0.9582792520523071,-0.6374561786651611,9.651625633239746,-2.8076171875,0.18310546875,-3.448486328125
2.3924999000000002,0.8631097078323364,-0.52552729845047,9.724050521850586,6.988525390625,0.06103515625,0.885009765625
2.3974999,0.9546879529953003,-0.507570743560791,9.675567626953125,-6.622314453125,0.244140625,1.77001953125
2.4024999,0.8224082589149475,-0.5734112858772278,9.770736694335938,4.547119140625,-0.091552734375,2.685546875
2.4074999000000004,0.8224082589149475,-0.5734112858772278,9.770736694335938,4.547119140625,-0.091552734375,2.685546875
2.4124999000000003,0.9235633015632629,-0.7092822790145874,9.78989028930664,-7.598876953125,0.06103515625,0.06103515625
2.4174999,0.8056488633155823,-0.7966706156730652,9.798869132995605,5.18798828125,-0.091552734375,-3.0517578125
2.4224999,0.8876502513885498,-0.7098808288574219,9.93474006652832,1.40380859375,-0.3662109375,3.204345703125
2.4274999000000004,0.9062053561210632,-0.6440402865409851,9.774328231811523,-2.74658203125,-0.06103515625,3.265380859375
2.4324999000000003,0.9062053561210632,-0.6440402865409851,9.774328231811523,-2.74658203125,-0.06103515625,3.265380859375
2.4374999,0.9367313981056213,-0.6763619780540466,9.608530044555664,-3.7841796875,-0.091552734375,-3.082275390625
2.4424999,0.8481459617614746,-0.6087257862091064,9.695320129394531,7.38525390625,-0.06103515625,0.244140625
2.4474999,0.9373299479484558,-0.5428852438926697,9.671976089477539,-5.828857421875,0,2.0751953125
2.4524999000000003,0.9235633015632629,-0.7104793787002563,9.670180320739746,-0.091552734375,0.152587890625,-3.753662109375
2.4574999,0.8505401611328125,-0.606930136680603,9.79527759552002,5.889892578125,0,1.922607421875
2.4624999,0.9780313968658447,-0.7104793787002563,9.804255485534668,-7.415771484375,0.152587890625,0.640869140625
2.4674999,0.8349778652191162,-0.800261914730072,9.831191062927246,3.60107421875,0.06103515625,-3.387451171875
2.4724999000000003,0.8535329103469849,-0.6817489266395569,9.906607627868652,2.960205078125,0.030517578125,2.899169921875
2.4774999,0.889445960521698,-0.7930793166160583,9.834781646728516,-7.2021484375,0.244140625,-1.007080078125
2.4824999,1.912368655204773,3.2094273567199707,5.9735331535339355,-7.293701171875,27.16064453125,10.345458984375
2.4874999,1.357512354850769,4.81593656539917,6.292560577392578,24.169921875,24.688720703125,1.373291015625
2.4924999000000003,1.0007762908935547,3.8726212978363037,6.35301399230957,10.498046875,12.3291015625,-33.538818359375
2.4974999,0.47824180126190186,3.557185173034668,6.04775333404541,37.139892578125,0.06103515625,-65.7958984375
2.5024999,0.4207809567451477,2.251746654510498,6.291962146759033,23.590087890625,-6.378173828125,-35.2783203125
2.5074999,0.718859076499939,2.2212207317352295,5.987299919128418,-16.17431640625,-3.997802734375,-18.829345703125
2.5124999000000003,0.801459014415741,2.5462334156036377,5.943006992340088,-4.33349609375,-10.68115234375,-12.359619140625
2.5174999000000002,0.34356793761253357,3.7654807567596436,6.2404866218566895,-13.73291015625,9.033203125,26.18408203125
2.5224999,0.23582886159420013,3.602076530456543,6.926425457000732,11.199951171875,-2.38037109375,-0.06103515625
2.5274999,0.12928688526153564,3.3177649974823,7.117961883544922,0.8544921875,-8.97216796875,4.302978515625
2.5324999000000004,0.18375498056411743,2.05123233795166,7.205948352813721,-38.848876953125,-17.486572265625,15.777587890625
2.5374999000000003,0.36990416049957275,2.3080103397369385,7.156269073486328,-3.90625,-20.01953125,0.1220703125
2.5424999,0.8469488620758057,1.1617863178253174,7.075464725494385,-5.859375,-17.974853515625,2.86865234375
2.5474999,1.173158884048462,1.1581950187683105,6.9258270263671875,-4.7607421875,-9.429931640625,-10.101318359375
2.5524999000000004,1.599326729774475,0.5859808921813965,7.493851184844971,-12.51220703125,-10.3759765625,9.979248046875
2.5574999000000003,1.8794482946395874,0.5117605924606323,7.0772600173950195,-32.867431640625,-6.8359375,18.1884765625
2.5624999,1.669357180595398,1.0247182846069336,7.091026782989502,2.38037109375,-5.06591796875,9.6435546875
2.5674999,1.4778209924697876,0.6967126727104187,7.124545574188232,-6.28662109375,-3.082275390625,-5.218505859375
2.5724999,0.9804255962371826,1.5418659448623657,7.360973358154297,-21.331787109375,-3.204345703125,8.97216796875
2.5774999000000003,0.8667010068893433,1.5394717454910278,7.441777229309082,-36.62109375,0.48828125,10.19287109375
2.5824999,0.8062474131584167,1.7046716213226318,8.552088737487793,-27.435302734375,1.89208984375,13.458251953125
2.5874999,0.778714120388031,1.3036428689956665,8.842385292053223,-43.45703125,-3.082275390625,16.7236328125
2.5924999,0.46567222476005554,0.07481880486011505,9.492411613464355,-12.054443359375,-6.8359375,-1.556396484375
2.5974999000000003,0.5165489912033081,-0.6979097723960876,9.86231517791748,-3.7841796875,-3.143310546875,-13.0615234375
2.6024999,0.3932476341724396,-1.5442601442337036,9.911396026611328,-2.25830078125,-3.23486328125,14.801025390625
2.6074999,0.6775590777397156,-1.8034324645996094,9.983222961425781,-15.869140625,-8.453369140625,19.500732421875
2.6124999,0.8421604633331299,-1.622071623802185,9.799467086791992,-5.37109375,-2.349853515625,7.171630859375
2.6174999000000003,0.9911994934082031,-1.1665748357772827,9.724648475646973,-1.068115234375,1.312255859375,11.16943359375
2.6224999,1.0660183429718018,-1.2539631128311157,9.53849983215332,-15.2587890625,-0.640869140625,0.518798828125
2.6274999,0.9810241460800171,-1.1743559837341309,9.540295600891113,7.598876953125,-1.495361328125,0.762939453125
2.6324999,0.9941922426223755,-1.1294646263122559,9.663596153259277,1.434326171875,-0.274658203125,5.79833984375
2.6374999000000003,0.9780313968658447,-1.1749545335769653,9.580398559570312,0.67138671875,0.335693359375,-4.119873046875
2.6424999000000002,0.9427168965339661,-0.3489548861980438,9.86889934539795,-2.227783203125,-0.152587890625,5.706787109375
2.6474999,0.945111095905304,-0.639850378036499,9.706093788146973,-5.828857421875,-0.579833984375,-3.753662109375
2.6524999,0.8254010081291199,-0.629675030708313,9.82879638671875,7.720947265625,-0.640869140625,3.448486328125
2.6574999000000004,0.9570821523666382,-0.8122329115867615,9.712079048156738,-10.07080078125,-0.762939453125,0.335693359375
2.6624999000000003,0.9145850539207458,-0.7547720670700073,9.718663215637207,-5.92041015625,-0.3662109375,3.875732421875
2.6674999,0.8762778043746948,-0.8487445116043091,9.64923095703125,1.8310546875,-0.244140625,-4.94384765625
2.6724999,0.900818407535553,-0.6488286852836609,9.830592155456543,3.72314453125,0.48828125,4.547119140625
2.6774999000000004,1.0067617893218994,-0.7338228225708008,9.6989107131958,-7.904052734375,0.213623046875,-2.655029296875
2.6824999000000003,0.9475052952766418,-0.619499683380127,9.838373184204102,10.223388671875,0.30517578125,0.946044921875
2.6874999,1.0809820890426636,-0.6027402877807617,9.751583099365234,-9.429931640625,0.3662109375,2.197265625
2.6924999,0.9534908533096313,-0.6721721291542053,9.693524360656738,5.859375,-0.213623046875,-3.72314453125
2.6974999,0.9666589498519897,-0.557250440120697,9.800065994262695,-1.434326171875,0.091552734375,4.791259765625
2.7024999000000003,0.9690531492233276,-0.729034423828125,9.684545516967773,-4.119873046875,-0.18310546875,-4.21142578125
2.7074999,0.8619126081466675,-0.5943605899810791,9.836577415466309,7.9345703125,-0.030517578125,2.8076171875
2.7124999,1.003769040107727,-0.6697779297828674,9.743204116821289,-10.101318359375,-0.152587890625,0.091552734375
2.7174999,0.882861852645874,-0.6572083830833435,9.765350341796875,8.758544921875,-0.18310546875,-2.197265625
2.7224999000000003,0.8631097078323364,-0.646434485912323,9.75637149810791,9.552001953125,0.18310546875,-0.579833984375
2.7274999,0.9493009448051453,-0.619499683380127,9.730035781860352,-7.26318359375,0.091552734375,3.448486328125
2.7324999,0.8834604024887085,-0.7547720670700073,9.675567626953125,2.13623046875,-0.18310546875,-4.33349609375
2.7374999,0.8882488012313843,-0.6272808313369751,9.824007987976074,2.9296875,-0.030517578125,4.45556640625
2.7424999000000003,0.9528923034667969,-0.7817068696022034,9.700706481933594,-7.87353515625,-0.396728515625,-2.5634765625
2.7474999,0.8852560520172119,-0.727837324142456,9.844358444213867,9.70458984375,-0.1220703125,0.244140625
2.7524999,1.0199298858642578,-0.6991068720817566,9.765948295593262,-8.4228515625,-0.091552734375,2.227783203125
2.7574999,0.9361328482627869,-0.7595604658126831,9.706692695617676,4.302978515625,-0.213623046875,-4.180908203125
2.7624999000000003,0.9666589498519897,-0.619499683380127,9.837176322937012,1.068115234375,0.335693359375,4.547119140625
2.7674999000000002,0.9259575009346008,-0.6482301354408264,9.803657531738281,9.46044921875,0.213623046875,0.9765625
2.7724999,1.0606313943862915,-0.619499683380127,9.712677955627441,-8.819580078125,0.06103515625,1.77001953125
2.7774999,0.9319429993629456,-0.679354727268219,9.670180320739746,5.2490234375,0.030517578125,-3.96728515625
2.7824999000000004,0.9540894031524658,-0.5710170865058899,9.82640266418457,0.1220703125,0.3662109375,4.33349609375
2.7874999000000003,0.9768342971801758,-0.7200561761856079,9.673771858215332,-5.828857421875,-0.152587890625,-3.5400390625
2.7924999,0.8798691034317017,-0.6290764808654785,9.807249069213867,8.9111328125,0.30517578125,1.3427734375
2.7974999,1.0235211849212646,-0.6260837316513062,9.738415718078613,-9.21630859375,0.396728515625,1.495361328125
2.8024999000000004,0.8852560520172119,-0.6991068720817566,9.695918083190918,5.218505859375,0.030517578125,-3.72314453125
2.8074999000000003,0.9151836037635803,-0.6165069341659546,9.847352027893066,-0.244140625,0.244140625,4.364013671875
2.8124999,0.933738648891449,-0.7858967185020447,9.683947563171387,-5.67626953125,-0.030517578125,-3.509521484375
2.8174999,0.8457517623901367,-0.6931213736534119,9.807847023010254,8.6669921875,0.274658203125,1.28173828125
2.8224999,1.0031704902648926,-0.6715735793113708,9.723451614379883,-8.60595703125,-0.1220703125,1.52587890625
2.8274999000000003,0.9289502501487732,-0.6099228858947754,9.84256362915039,0.67138671875,0.152587890625,4.180908203125
2.8324999,0.961870551109314,-0.7428010702133179,9.685144424438477,-6.103515625,-0.30517578125,-3.265380859375
2.8374999,0.8864531517028809,-0.6524199843406677,9.823410034179688,8.85009765625,-0.18310546875,0.885009765625
2.8424999,1.0336965322494507,-0.5991489887237549,9.736021041870117,-8.270263671875,-0.1220703125,1.89208984375
2.8474999000000003,0.9373299479484558,-0.679354727268219,9.697713851928711,4.364013671875,-0.213623046875,-4.0283203125
2.8524999,0.9648633003234863,-0.5614402890205383,9.850942611694336,1.739501953125,-0.1220703125,4.302978515625
2.8574999,0.9929951429367065,-0.7206547260284424,9.695320129394531,-6.744384765625,-0.213623046875,-2.960205078125
2.8624999,0.9002198576927185,-0.6721721291542053,9.823410034179688,9.246826171875,0.06103515625,0
2.8674999000000003,0.9989806413650513,-0.6039373874664307,9.716867446899414,-7.659912109375,0.152587890625,2.38037109375
2.8724999,0.912190854549408,-0.7026981711387634,9.68694019317627,2.62451171875,0.06103515625,-4.241943359375
2.8774999,0.9199720025062561,-0.5536591410636902,9.827000617980957,3.41796875,0.274658203125,3.875732421875
2.8824999,0.9600749015808105,-0.7242460250854492,9.744400978088379,-7.99560546875,-0.06103515625,-2.227783203125
2.8874999000000003,0.961870551109314,-0.6596025824546814,9.78989028930664,-5.7373046875,0.030517578125,3.204345703125
2.8924999000000002,0.910993754863739,-0.7314286231994629,9.657610893249512,0.732421875,-0.030517578125,-4.2724609375
2.8974999,0.8852560520172119,-0.5781996846199036,9.762955665588379,5.37109375,0,3.173828125
2.9024999,0.9690531492233276,-0.6709750294685364,9.692327499389648,-8.819580078125,0.030517578125,-1.15966796875
2.9074999000000004,0.8864531517028809,-0.6967126727104187,9.770736694335938,7.99560546875,0.18310546875,-1.953125
2.9124999000000003,0.9672574996948242,-0.6368576288223267,9.854534149169922,-3.814697265625,0,3.814697265625
2.9174999,1.0019733905792236,-0.7679402232170105,9.726444244384766,-2.471923828125,-0.152587890625,-4.058837890625
2.9224999,0.910993754863739,-0.608127236366272,9.822811126708984,7.26318359375,0,2.227783203125
2.9274999000000004,1.0504560470581055,-0.6560112833976746,9.72165584564209,-8.72802734375,0,0.152587890625
2.9324999000000003,0.9014169573783875,-0.6979097723960876,9.695320129394531,6.28662109375,0.152587890625,-3.11279296875
2.9374999,0.950498104095459,-0.6302735805511475,9.807847023010254,-0.701904296875,-0.030517578125,4.08935546875
2.9424999,0.9702502489089966,-0.7493851184844971,9.619902610778809,-5.18798828125,-0.030517578125,-3.448486328125
2.9474999,1.0007762908935547,-0.5949591398239136,9.67077922821045,-7.87353515625,0.1220703125,2.01416015625
2.9524999000000003,0.8984242081642151,-0.6865373253822327,9.672574996948242,3.0517578125,0.18310546875,-3.814697265625
2.9574999,0.9002198576927185,-0.5811924338340759,9.840767860412598,3.0517578125,0.18310546875,3.875732421875
2.9624999,0.93254154920578,-0.7451952695846558,9.761159896850586,-7.659912109375,0.1220703125,-2.0751953125
2.9674999,0.93254154920578,-0.7451952695846558,9.761159896850586,-7.659912109375,0.1220703125,-2.0751953125
2.9724999000000003,0.8678981065750122,-0.7565677165985107,9.835380554199219,8.392333984375,0.152587890625,-1.190185546875
2.9774999,0.9469067454338074,-0.6925228238105774,9.82759952545166,-4.913330078125,-0.1220703125,3.204345703125
2.9824999,0.9588778018951416,-0.7811083197593689,9.674968719482422,-0.823974609375,-0.18310546875,-4.21142578125
2.9874999,0.899621307849884,-0.6153098344802856,9.7791166305542,6.34765625,-0.1220703125,2.532958984375
2.9924999000000003,1.0187327861785889,-0.6631938815116882,9.702502250671387,-8.72802734375,-0.152587890625,-0.091552734375
2.9974999,0.9020155072212219,-0.7015010714530945,9.730634689331055,6.34765625,-0.18310546875,-2.99072265625
3.0024999,0.9570821523666382,-0.6380547285079956,9.84495735168457,-0.762939453125,-0.1220703125,3.936767578125
3.0074999,0.9151836037635803,-0.6643909811973572,9.782109260559082,8.270263671875,0.091552734375,0.6103515625
3.0124999000000003,1.0235211849212646,-0.5764040350914001,9.683348655700684,-7.293701171875,-0.1220703125,1.983642578125
3.0174999000000002,0.9373299479484558,-0.6596025824546814,9.656414031982422,2.471923828125,-0.06103515625,-3.96728515625
3.0224999,0.9283517003059387,-0.5500678420066833,9.77791976928711,3.814697265625,0.030517578125,3.570556640625
3.0274999,0.9828197956085205,-0.689530074596405,9.743802070617676,-8.026123046875,0.1220703125,-1.40380859375
3.0324999000000004,0.9020155072212219,-0.7493851184844971,9.806650161743164,7.843017578125,0.213623046875,-1.922607421875
3.0374999000000003,0.9660604000091553,-0.6769605278968811,9.849745750427246,-3.265380859375,0.1220703125,3.41796875
3.0424999,0.9020155072212219,-0.586579442024231,9.841365814208984,2.25830078125,0.06103515625,3.72314453125
3.0474999,0.9277531504631042,-0.6350619792938232,9.77672290802002,-4.5166015625,-0.1220703125,3.11279296875
3.0524999000000004,0.983418345451355,-0.7140706777572632,9.658807754516602,-1.52587890625,-0.1220703125,-4.119873046875
3.0574999000000003,0.9157821536064148,-0.557250440120697,9.7791166305542,6.744384765625,-0.1220703125,1.89208984375
3.0624999,1.0720038414001465,-0.6141127347946167,9.741408348083496,-8.1787109375,-0.18310546875,0.48828125
3.0674999,0.9127894043922424,-0.689530074596405,9.733627319335938,5.0048828125,-0.152587890625,-3.448486328125
3.0724999000000004,0.9487023949623108,-0.6320692300796509,9.885659217834473,1.007080078125,-0.091552734375,3.753662109375
3.0774999000000003,0.9433154463768005,-0.7547720670700073,9.727641105651855,-6.378173828125,0.030517578125,-2.25830078125
3.0824999,0.8678981065750122,-0.7266402244567871,9.798270225524902,8.148193359375,0.152587890625,-0.54931640625
3.0874999,0.9415197968482971,-0.6266822814941406,9.761159896850586,-5.06591796875,0.1220703125,3.021240234375
3.0924999,0.9768342971801758,-0.7098808288574219,9.635464668273926,-1.129150390625,0.335693359375,-4.180908203125
3.0974999000000003,0.9103952050209045,-0.6404489278793335,9.858125686645508,1.3427734375,-0.1220703125,3.631591796875
3.1024999,0.8972271084785461,-0.7829039692878723,9.728838920593262,-6.622314453125,-0.30517578125,-2.349853515625
3.1074999,0.8373720645904541,-0.7230489253997803,9.804255485534668,8.148193359375,0.1220703125,-1.007080078125
3.1124999,0.9133879542350769,-0.6248866319656372,9.773131370544434,-4.669189453125,-0.244140625,3.082275390625
3.1174999000000003,0.9816226959228516,-0.6985083222389221,9.655217170715332,-1.434326171875,-0.274658203125,-3.753662109375
3.1224999,0.9020155072212219,-0.5434837937355042,9.749788284301758,6.866455078125,0.18310546875,1.8310546875
3.1274999,1.058835744857788,-0.579995334148407,9.723451614379883,-8.026123046875,0,0.885009765625
3.1324999,0.9074024558067322,-0.6488286852836609,9.719860076904297,3.875732421875,0,-3.509521484375
3.1374999000000003,0.9379284977912903,-0.5913678407669067,9.857526779174805,2.227783203125,0,3.35693359375
3.1424999000000002,0.9576807022094727,-0.7320271730422974,9.776124000549316,-7.2021484375,0.213623046875,-1.922607421875
3.1474999,1.002571940422058,-0.7523778676986694,9.651026725769043,-3.143310546875,-0.06103515625,-3.662109375
3.1524999,1.002571940422058,-0.7523778676986694,9.651026725769043,-3.143310546875,-0.06103515625,-3.662109375
3.1574999000000004,0.9091981053352356,-0.6093243360519409,9.712677955627441,7.99560546875,0.152587890625,1.03759765625
3.1624999000000003,1.006163239479065,-0.578798234462738,9.6618013381958,-7.4462890625,0.335693359375,1.678466796875
3.1674999,0.49380409717559814,-0.8409633636474609,9.405022621154785,2.197265625,-0.213623046875,-3.96728515625
3.1724999,0.3232172429561615,-1.6124948263168335,9.186552047729492,48.797607421875,-2.5634765625,-25.634765625
3.1774999000000004,0.1215057373046875,-2.007538080215454,9.090784072875977,134.09423828125,7.781982421875,-61.5234375
3.1824999000000003,0.4034229815006256,-1.7687164545059204,8.69095230102539,112.1826171875,20.416259765625,-32.71484375
3.1874999,0.9882067441940308,-0.8882488012313843,8.149862289428711,69.76318359375,10.19287109375,-7.87353515625
3.1924999,1.525106430053711,1.5089455842971802,7.4998369216918945,102.630615234375,2.471923828125,-22.88818359375
3.1974999000000004,1.7860745191574097,3.203441858291626,6.674435615539551,92.34619140625,-0.579833984375,-7.659912109375
3.2024999000000003,-0.3561375141143799,3.1142578125,5.380369663238525,67.108154296875,-19.134521484375,-8.48388671875
3.2074999,-0.22206220030784607,2.4025814533233643,4.757278919219971,56.915283203125,-15.31982421875,-21.240234375
3.2124999,0.6123170852661133,3.621230125427246,4.823119163513184,90.02685546875,-11.871337890625,-5.67626953125
3.2174999,1.2114660739898682,2.765302896499634,4.4723687171936035,39.73388671875,-10.92529296875,17.02880859375
3.2224999000000003,1.3593080043792725,3.5727474689483643,4.811148166656494,66.986083984375,-6.28662109375,0.518798828125
3.2274999,1.6298527717590332,2.409165382385254,4.57232666015625,54.0771484375,-9.979248046875,8.270263671875
3.2324999,1.7357962131500244,1.946485996246338,4.978143692016602,60.333251953125,-1.007080078125,2.3193359375
3.2374999,1.5634137392044067,1.3084312677383423,5.044582843780518,26.85546875,-6.866455078125,23.284912109375
3.2424999000000003,1.4155718088150024,0.6212953329086304,4.886565685272217,31.1279296875,-11.1083984375,-6.591796875
3.2474999,1.5933412313461304,1.193509578704834,5.972934722900391,31.005859375,-12.054443359375,5.79833984375
3.2524999,1.238999366760254,3.5254619121551514,6.047154903411865,-26.7333984375,-3.5400390625,21.331787109375
3.2574999,1.7423802614212036,4.027047157287598,5.8442463874816895,-28.472900390625,1.220703125,1.129150390625
3.2624999000000003,1.8956091403961182,4.073135852813721,5.158905982971191,-39.00146484375,0.42724609375,29.4189453125
3.2674999000000002,1.875258445739746,4.338891983032227,4.846462726593018,-71.868896484375,11.688232421875,13.3056640625
3.2724999,1.646013617515564,4.045602321624756,5.12000036239624,-70.80078125,10.406494140625,34.66796875
3.2774999,1.0079588890075684,3.64577054977417,4.978742599487305,-116.241455078125,17.27294921875,26.336669921875
3.2824999000000004,0.46986207365989685,3.090914487838745,5.398326396942139,-78.826904296875,12.6953125,18.035888671875
3.2874999000000003,0.26815059781074524,2.454655408859253,5.987898349761963,-82.45849609375,8.7890625,-4.5166015625
3.2924999,-0.15801730751991272,2.189497470855713,5.433042049407959,-111.572265625,11.71875,42.205810546875
3.2974999,-0.436343252658844,1.6184803247451782,4.976946830749512,-83.31298828125,18.768310546875,26.42822265625
3.3024999000000004,-0.1777694821357727,1.0073603391647339,5.1565117835998535,-102.142333984375,14.09912109375,1.5869140625
3.3074999000000003,-0.5404910445213318,1.05105459690094,4.462791919708252,-107.086181640625,19.927978515625,31.585693359375
3.3124999,-0.10953472554683685,0.5410895943641663,5.123591423034668,-106.87255859375,14.678955078125,-4.08935546875
3.3174999,0.0694318488240242,0.44831427931785583,5.329493045806885,-93.75,20.20263671875,17.578125
3.3224999000000004,0.24600422382354736,0.03770867735147476,6.824671745300293,-89.2333984375,12.0849609375,-9.063720703125
3.3274999000000003,0.7272387742996216,-1.4628572463989258,8.677783966064453,-27.4658203125,5.279541015625,-7.99560546875
3.3324999,0.669179379940033,-2.0440497398376465,10.521918296813965,-6.16455078125,12.51220703125,-5.92041015625
3.3374999,0.7224503755569458,-3.1435868740081787,11.428123474121094,7.26318359375,-4.5166015625,31.585693359375
3.3424999,0.5153518915176392,-3.113659381866455,11.247361183166504,-10.92529296875,-8.23974609375,6.072998046875
3.3474999000000003,0.21428105235099792,-2.53725528717041,10.112509727478027,15.869140625,-0.091552734375,11.23046875
3.3524999,0.1041477769613266,-1.9165585041046143,8.953716278076172,-11.688232421875,-1.434326171875,6.622314453125
3.3574999,0.4124012291431427,-1.0582371950149536,8.727463722229004,-15.31982421875,-3.96728515625,-6.072998046875
3.3624999,0.6248866319656372,-0.7559691667556763,9.41639518737793,16.05224609375,-5.218505859375,-1.739501953125
3.3674999000000003,1.0085574388504028,-0.6386532783508301,9.923966407775879,-13.153076171875,-3.96728515625,1.28173828125
3.3724999,1.1019313335418701,-0.4884171485900879,10.189722061157227,18.49365234375,-3.7841796875,3.5400390625
3.3774999,1.2910733222961426,-0.3824737071990967,10.038289070129395,-14.83154296875,-1.007080078125,2.716064453125
3.3824999,1.2270283699035645,-0.37169981002807617,9.901819229125977,12.26806640625,0.762939453125,0.579833984375
3.3874999000000003,1.3305776119232178,-0.3423708379268646,9.725247383117676,-16.510009765625,2.9296875,0.457763671875
3.3924999000000002,1.1749545335769653,-0.5057750940322876,9.727043151855469,13.275146484375,1.64794921875,-1.007080078125
3.3974999,1.1635819673538208,-0.5249287486076355,9.656414031982422,-15.167236328125,2.227783203125,2.044677734375
3.4024999,0.9235633015632629,-0.7733271718025208,9.730035781860352,14.312744140625,-0.579833984375,-1.556396484375
3.4074999000000004,0.8750807046890259,-0.7194576263427734,9.646238327026367,-12.75634765625,0.244140625,2.74658203125
3.4124999000000003,0.7200561761856079,-0.8846575021743774,9.725247383117676,13.214111328125,-1.129150390625,-2.5634765625
3.4174999,0.7841010689735413,-0.7745242714881897,9.761758804321289,11.29150390625,-0.946044921875,-3.5400390625
3.4224999,0.8960300087928772,-0.5117605924606323,9.774927139282227,-10.8642578125,-0.06103515625,5.096435546875
3.4274999000000004,0.9181763529777527,-0.6733692288398743,9.730634689331055,7.75146484375,-1.007080078125,-5.06591796875
3.4324999000000003,0.9660604000091553,-0.49799394607543945,9.805453300476074,-8.270263671875,-0.213623046875,5.7373046875
3.4374999,0.9744400978088379,-0.706289529800415,9.677363395690918,4.7607421875,-1.068115234375,-5.401611328125
3.4424999,1.002571940422058,-0.7835025191307068,9.64803409576416,2.25830078125,-0.030517578125,-6.256103515625
3.4474999000000004,0.9636662006378174,-0.7469909191131592,9.903017044067383,0.152587890625,0.48828125,6.622314453125
3.4524999000000003,1.0097545385360718,-0.8080430626869202,9.612719535827637,-2.01416015625,0.54931640625,-6.805419921875
3.4574999,0.9355342984199524,-0.7200561761856079,9.962273597717285,4.5166015625,0.48828125,6.195068359375
3.4624999,0.9744400978088379,-0.7212532758712769,9.594164848327637,-6.256103515625,0.701904296875,-5.950927734375
3.4674999,0.900818407535553,-0.578798234462738,9.924564361572266,8.60595703125,-0.152587890625,5.767822265625
3.4724999000000003,0.8780734539031982,-0.4818331003189087,9.82759952545166,11.505126953125,-0.9765625,4.08935546875
3.4774999,0.9487023949623108,-0.5919663906097412,9.63067626953125,-13.3056640625,-0.030517578125,-3.265380859375
3.4824999,0.912190854549408,-0.5566518902778625,9.77672290802002,13.0615234375,-0.885009765625,1.800537109375
3.4874999,1.0426748991012573,-0.6811503767967224,9.696516990661621,-14.312744140625,0.274658203125,-0.67138671875
3.4924999000000003,0.960673451423645,-0.7433996200561523,9.765350341796875,13.580322265625,-0.67138671875,-0.335693359375
3.4974999,1.0438719987869263,-0.6937199234962463,9.70549488067627,-13.12255859375,0.3662109375,2.01416015625
3.5024999,0.9397241473197937,-0.8265981078147888,9.697115898132324,11.5966796875,-0.6103515625,-3.11279296875
3.5074999,0.9696516990661621,-0.6218938827514648,9.704896926879883,-9.82666015625,0.30517578125,4.302978515625
3.5124999000000003,0.9205705523490906,-0.7709329724311829,9.625887870788574,6.77490234375,-0.3662109375,-5.126953125
3.5174999000000002,0.9187749028205872,-0.6045359373092651,9.783307075500488,-4.0283203125,-0.030517578125,5.67626953125
3.5224999,0.943913996219635,-0.7170634269714355,9.592967987060547,0.885009765625,-0.30517578125,-6.195068359375
3.5274999,0.900818407535553,-0.6470330357551575,9.909601211547852,2.288818359375,-0.213623046875,6.195068359375
3.5324999000000004,0.9762357473373413,-0.6667851805686951,9.637260437011719,-10.650634765625,0.18310546875,-4.180908203125
3.5374999000000003,0.933738648891449,-0.579995334148407,9.845556259155273,12.298583984375,-0.579833984375,2.5634765625
3.5424999,1.0342950820922852,-0.6673837304115295,9.713874816894531,-13.275146484375,0.274658203125,-1.15966796875
3.5474999,0.9469067454338074,-0.6925228238105774,9.799467086791992,12.969970703125,-0.42724609375,-0.518798828125
3.5524999000000004,1.0330979824066162,-0.6153098344802856,9.768941879272461,-11.993408203125,0.42724609375,2.105712890625
3.5574999000000003,0.9349357485771179,-0.7703344225883484,9.765350341796875,9.8876953125,-0.18310546875,-3.84521484375
3.5624999,0.9696516990661621,-0.5548562407493591,9.780912399291992,-7.26318359375,0.42724609375,4.730224609375
3.5674999,0.9391255974769592,-0.7212532758712769,9.657012939453125,3.35693359375,-0.091552734375,-5.828857421875
3.5724999000000004,0.912190854549408,-0.6051344871520996,9.88506031036377,0.42724609375,0.1220703125,5.645751953125
3.5774999000000003,0.9283517003059387,-0.6727706789970398,9.600749015808105,-4.364013671875,0.091552734375,-5.767822265625
3.5824999,0.8756792545318604,-0.606930136680603,9.917980194091797,7.843017578125,-0.396728515625,4.852294921875
3.5874999,0.8960300087928772,-0.6003460884094238,9.82640266418457,12.237548828125,-0.518798828125,1.739501953125
3.5924999,1.015141487121582,-0.6488286852836609,9.677363395690918,-12.664794921875,0.213623046875,-0.30517578125
3.5974999000000003,0.93254154920578,-0.729034423828125,9.770736694335938,11.810302734375,-0.518798828125,-1.800537109375
3.6024999,0.93254154920578,-0.729034423828125,9.770736694335938,11.810302734375,-0.518798828125,-1.800537109375
3.6074999,1.0097545385360718,-0.595557689666748,9.744999885559082,-9.58251953125,0.1220703125,3.448486328125
3.6124999,0.945111095905304,-0.788889467716217,9.698312759399414,6.256103515625,-0.274658203125,-5.18798828125
3.6174999000000003,0.9433154463768005,-0.6536170840263367,9.888651847839355,-2.105712890625,0,5.523681640625
3.6224999,0.9510966539382935,-0.7326257228851318,9.610923767089844,-2.25830078125,-0.06103515625,-5.645751953125
3.6274999,0.9056068062782288,-0.6536170840263367,9.916184425354004,6.195068359375,-0.335693359375,4.8828125
3.6324999,0.9792284965515137,-0.7003039717674255,9.61331844329834,-9.490966796875,0.18310546875,-3.875732421875
3.6374999000000003,0.9115923047065735,-0.6111199855804443,9.816825866699219,11.53564453125,-0.396728515625,1.89208984375
3.6424999000000002,1.0217255353927612,-0.6302735805511475,9.688735961914062,-12.0849609375,0.213623046875,0.030517578125
3.6474999,0.9941922426223755,-0.5530605912208557,9.754576683044434,-8.1787109375,0.1220703125,3.753662109375
3.6524999,0.9409212470054626,-0.7463923692703247,9.656414031982422,4.425048828125,-0.1220703125,-5.37109375
3.6574999000000004,0.9229647517204285,-0.6230909824371338,9.86231517791748,0,0.06103515625,5.462646484375
3.6624999000000003,0.945111095905304,-0.7026981711387634,9.631275177001953,-4.852294921875,0.06103515625,-5.2490234375
3.6674999,0.889445960521698,-0.6344634294509888,9.889848709106445,8.30078125,-0.274658203125,3.84521484375
3.6724999,0.9876081943511963,-0.6889315247535706,9.746196746826172,-11.16943359375,0.3662109375,-2.25830078125
3.6774999000000004,0.9097966551780701,-0.6799532771110535,9.808445930480957,11.688232421875,-0.457763671875,-0.244140625
3.6824999000000003,0.9648633003234863,-0.7320271730422974,9.600150108337402,-1.5869140625,0,-5.4931640625
3.6874999,0.9199720025062561,-0.6446388363838196,9.865307807922363,6.378173828125,-0.1220703125,4.425048828125
3.6924999,0.9379284977912903,-0.6500257849693298,9.746794700622559,11.41357421875,-0.244140625,0.6103515625
3.6974999000000004,1.0420763492584229,-0.6236895322799683,9.689932823181152,-10.894775390625,0.152587890625,1.556396484375
3.7024999000000003,0.9738415479660034,-0.739209771156311,9.68274974822998,8.11767578125,-0.335693359375,-3.662109375
3.7074999,0.970848798751831,-0.596754789352417,9.817423820495605,-4.119873046875,0.06103515625,4.791259765625
3.7124999,0.9349357485771179,-0.718859076499939,9.631275177001953,-1.03759765625,0,-5.584716796875
3.7174999,0.884058952331543,-0.628477931022644,9.896432876586914,6.256103515625,-0.152587890625,4.425048828125
3.7224999000000003,0.9528923034667969,-0.6949170231819153,9.66419506072998,-9.46044921875,0.213623046875,-3.11279296875
3.7274999,0.899621307849884,-0.6673837304115295,9.79288387298584,11.260986328125,-0.30517578125,0.42724609375
3.7324999,1.026513934135437,-0.6260837316513062,9.748590469360352,-10.19287109375,0.18310546875,1.8310546875
3.7374999,0.9636662006378174,-0.7655459642410278,9.694122314453125,6.988525390625,0.030517578125,-4.0283203125
3.7424999000000003,0.982221245765686,-0.6093243360519409,9.838972091674805,-2.5634765625,-0.030517578125,4.7607421875
3.7474999,0.9642647504806519,-0.7254431247711182,9.630077362060547,-2.99072265625,0.274658203125,-5.218505859375
3.7524999,0.9744400978088379,-0.6272808313369751,9.657012939453125,-10.1318359375,0.06103515625,-2.105712890625
3.7574999,0.9044097065925598,-0.6584054827690125,9.759963035583496,11.04736328125,-0.244140625,-0.762939453125
3.7624999000000003,0.9421183466911316,-0.7493851184844971,9.693524360656738,4.2724609375,0.06103515625,-4.7607421875
3.7674999000000002,0.9373299479484558,-0.5985504388809204,9.888651847839355,1.007080078125,0,4.852294921875
3.7724999,0.9923965930938721,-0.7140706777572632,9.676166534423828,-6.16455078125,0.091552734375,-4.33349609375
3.7774999,0.9062053561210632,-0.6416460275650024,9.877877235412598,9.70458984375,-0.335693359375,2.197265625
3.7824999000000004,1.027711033821106,-0.6332663297653198,9.746196746826172,-10.8642578125,0.1220703125,0.06103515625
3.7874999000000003,0.9331400990486145,-0.718859076499939,9.742605209350586,8.6669921875,0.030517578125,-2.838134765625
3.7924999,0.9612720012664795,-0.6117185354232788,9.822811126708984,-4.913330078125,0.06103515625,4.119873046875
3.7974999,0.9163807034492493,-0.7817068696022034,9.618106842041016,-0.91552734375,0.152587890625,-5.096435546875
3.8024999000000004,0.8786720037460327,-0.6230909824371338,9.830592155456543,5.950927734375,-0.335693359375,3.997802734375
3.8074999000000003,0.8888474106788635,-0.6877344250679016,9.767146110534668,10.55908203125,-0.091552734375,-0.42724609375
3.8124999,0.9858125448226929,-0.5889736413955688,9.75397777557373,-8.270263671875,0.18310546875,2.62451171875
3.8174999,0.9421183466911316,-0.768538773059845,9.673771858215332,3.936767578125,0.06103515625,-4.638671875
3.8224999000000004,0.9361328482627869,-0.5949591398239136,9.853935241699219,1.739501953125,-0.1220703125,4.5166015625
3.8274999000000003,1.006163239479065,-0.7577648162841797,9.643844604492188,-6.8359375,0.244140625,-3.997802734375
3.8324999,0.9295487999916077,-0.6332663297653198,9.82759952545166,10.009765625,-0.244140625,1.373291015625
3.8374999,1.0444705486297607,-0.628477931022644,9.730634689331055,-10.1318359375,0.152587890625,1.068115234375
3.8424999,0.9564836025238037,-0.6697779297828674,9.702502250671387,6.927490234375,-0.213623046875,-3.72314453125
3.8474999000000003,0.9696516990661621,-0.5566518902778625,9.864709854125977,-1.8310546875,-0.18310546875,4.45556640625
3.8524999,0.9858125448226929,-0.7433996200561523,9.6989107131958,-3.997802734375,0.1220703125,-4.608154296875
3.8574999,0.9002198576927185,-0.6117185354232788,9.894637107849121,8.331298828125,-0.457763671875,2.5634765625
3.8624999,1.0031704902648926,-0.7194576263427734,9.73661994934082,-10.31494140625,0.274658203125,-0.396728515625
3.8674999000000003,0.9020155072212219,-0.6602011322975159,9.727641105651855,9.6435546875,-0.213623046875,-1.678466796875
3.8724999,0.9690531492233276,-0.6554127335548401,9.782109260559082,-5.79833984375,-0.091552734375,3.41796875
3.8774999,0.9415197968482971,-0.7463923692703247,9.653421401977539,0.396728515625,0,-4.974365234375
3.8824999,0.9157821536064148,-0.6027402877807617,9.845556259155273,5.615234375,-0.3662109375,3.662109375
3.8874999000000003,0.9917980432510376,-0.6661866307258606,9.670180320739746,-8.85009765625,0.1220703125,-1.953125
3.8924999000000002,0.9385270476341248,-0.639850378036499,9.774328231811523,9.552001953125,-0.1220703125,-1.220703125
3.8974999,1.0133458375930786,-0.6051344871520996,9.798869132995605,-6.591796875,0.1220703125,3.173828125
3.9024999,0.9750386476516724,-0.7044938206672668,9.660603523254395,1.0986328125,0.244140625,-4.669189453125
3.9074999000000004,0.9983820915222168,-0.6847416758537292,9.67077922821045,-8.758544921875,0.030517578125,-2.227783203125
3.9124999000000003,0.9313444495201111,-0.6524199843406677,9.788095474243164,9.918212890625,-0.152587890625,-1.03759765625
3.9174999,0.9971849918365479,-0.6572083830833435,9.807249069213867,-6.561279296875,-0.06103515625,3.082275390625
3.9224999,0.9199720025062561,-0.6141127347946167,9.788095474243164,4.669189453125,-0.274658203125,3.814697265625
3.9274999000000004,0.13108254969120026,-1.468244194984436,8.554482460021973,-32.196044921875,-5.67626953125,18.951416015625
3.9324999000000003,-0.0933738648891449,-1.7076643705368042,8.154052734375,102.630615234375,-13.397216796875,57.098388671875
3.9374999,-0.5339069962501526,-2.2613234519958496,6.187814235687256,27.191162109375,-2.716064453125,104.522705078125
3.9424999,-0.8433575630187988,-2.5995044708251953,5.307945251464844,111.81640625,19.1650390625,89.141845703125
3.9474999000000004,-0.6218938827514648,-2.0416555404663086,4.5190558433532715,62.469482421875,27.64892578125,119.049072265625
3.9524999000000003,-0.9864110946655273,-1.647210717201233,4.2329487800598145,144.775390625,24.383544921875,103.546142578125
3.9574999,-0.6428431272506714,-0.32202014327049255,4.78660774230957,134.979248046875,15.380859375,104.98046875
3.9624999,-0.1322796493768692,2.82515811920166,6.619369029998779,107.757568359375,-35.675048828125,78.55224609375
3.9674999000000004,-0.2214636504650116,3.377619981765747,6.92881965637207,114.593505859375,-63.29345703125,35.003662109375
3.9724999000000003,0.07960720360279083,5.089474201202393,7.812878608703613,103.3935546875,-87.40234375,31.585693359375
3.9774999,-0.11971008777618408,5.172074317932129,7.228095054626465,111.572265625,-80.62744140625,16.90673828125
3.9824999,1.0594342947006226,5.452794551849365,7.528567314147949,102.72216796875,-72.418212890625,23.25439453125
3.9874999,1.382651448249817,4.768052577972412,7.2801690101623535,139.2822265625,-49.835205078125,21.42333984375
3.9924999000000003,2.517503023147583,4.411316394805908,7.153275966644287,67.901611328125,-41.046142578125,65.216064453125
3.9974999,2.7054479122161865,4.028244495391846,6.709750175476074,115.081787109375,-31.005859375,30.731201171875
4.0024999,2.8191723823547363,3.5194764137268066,6.8372416496276855,105.1025390625,-25.390625,54.779052734375
4.0074999,2.669534921646118,3.9234981536865234,6.593631267547607,101.25732421875,-8.880615234375,29.1748046875
4.0124999,2.7886464595794678,3.1968579292297363,7.023989200592041,72.509765625,-11.322021484375,52.79541015625
4.0174999,1.999756932258606,4.309563159942627,6.555922985076904,25.45166015625,-2.01416015625,-24.84130859375
4.022499900000001,1.4191631078720093,3.819350242614746,5.738302707672119,-5.584716796875,-7.32421875,11.322021484375
4.0274999000000005,1.4802151918411255,4.3406877517700195,5.10264253616333,-38.909912109375,9.552001953125,-4.0283203125
4.0324999,0.9522937536239624,3.8564603328704834,4.730343818664551,-36.19384765625,9.8876953125,3.448486328125
4.0374999,1.0402805805206299,4.30058479309082,4.601057052612305,-60.760498046875,18.12744140625,-13.427734375
4.0424999,0.9295487999916077,3.2758665084838867,4.610035419464111,-78.033447265625,10.894775390625,-3.35693359375
4.0474999,1.4538789987564087,3.8379054069519043,5.297171115875244,-57.037353515625,17.181396484375,-45.5322265625
4.0524999,1.6573861837387085,3.2842462062835693,5.683835029602051,-98.236083984375,10.07080078125,-15.533447265625
4.0574999,2.1338322162628174,4.109048843383789,6.508637428283691,-92.010498046875,22.674560546875,-33.0810546875
4.062499900000001,1.9470845460891724,3.531447410583496,7.157465934753418,-53.22265625,32.928466796875,-48.76708984375
4.0674999000000005,1.4700398445129395,2.4809916019439697,6.979696273803711,-112.4267578125,19.683837890625,-23.01025390625
4.0724999,1.6095020771026611,2.603694438934326,7.629123687744141,-75.653076171875,28.717041015625,-39.337158203125
4.0774999,1.4245500564575195,2.070984363555908,7.50582218170166,-110.77880859375,25.970458984375,-24.566650390625
4.0824999,1.6160861253738403,2.742558002471924,7.429207801818848,-51.513671875,35.186767578125,-44.342041015625
4.0874999,1.1324573755264282,2.4899697303771973,6.539163589477539,-131.04248046875,24.017333984375,-2.288818359375
4.0924999,1.1569979190826416,2.62823486328125,6.491878032684326,-60.05859375,29.876708984375,-26.42822265625
4.0974999,0.47824180126190186,1.7501614093780518,5.746084213256836,-113.128662109375,30.731201171875,-9.33837890625
4.1024999,0.5488707423210144,2.3133974075317383,6.503250598907471,-45.59326171875,35.70556640625,-23.468017578125
4.1074999000000005,0.0975637212395668,1.416170358657837,5.752069473266602,-99.700927734375,29.205322265625,-4.302978515625
4.1124999,0.13407529890537262,3.0849289894104004,6.899490833282471,-58.013916015625,21.881103515625,-7.843017578125
4.1174999,-0.15263035893440247,2.388814687728882,6.139331817626953,-64.361572265625,21.240234375,-7.32421875
4.1224999,-0.5201402902603149,3.2411506175994873,6.936002254486084,-55.84716796875,12.51220703125,-14.83154296875
4.1274999,0.04668693244457245,2.7102363109588623,7.618948459625244,-71.502685546875,3.997802734375,11.8408203125
4.1324999,-0.06464344263076782,2.2679076194763184,7.82185697555542,-4.852294921875,16.387939453125,-7.965087890625
4.1374999,0.1867477297782898,1.2006921768188477,7.724293231964111,-83.6181640625,-7.720947265625,34.454345703125
4.1424999,0.6392518281936646,0.646434485912323,8.11634349822998,54.107666015625,-9.429931640625,-0.67138671875
4.147499900000001,0.6805518269538879,-0.10534487664699554,7.382521152496338,-47.698974609375,-13.916015625,35.736083984375
4.1524999000000005,0.9654618501663208,0.37828385829925537,7.637503623962402,46.356201171875,-23.5595703125,8.60595703125
4.1574999,1.1139023303985596,0.03770867735147476,6.9491705894470215,-12.39013671875,-22.3388671875,3.631591796875
4.1624999,1.0983400344848633,1.2551602125167847,6.982689380645752,-9.58251953125,3.84521484375,-2.471923828125
4.1674999,1.4119805097579956,-0.30945056676864624,6.828861713409424,76.568603515625,0.1220703125,0.457763671875
4.1724999,1.301847219467163,-1.0414776802062988,6.254851818084717,-30.914306640625,1.068115234375,26.18408203125
4.1774999,1.5179238319396973,-0.5590460896492004,6.22731876373291,14.892578125,-11.322021484375,12.8173828125
4.1824999,1.0899603366851807,0.4082113802433014,6.086060523986816,4.82177734375,-5.645751953125,-23.3154296875
4.187499900000001,1.062427043914795,0.2669534981250763,6.5954270362854,-7.87353515625,-5.096435546875,2.838134765625
4.1924999000000005,0.7864952683448792,1.9865888357162476,6.813898086547852,17.547607421875,8.209228515625,-12.176513671875
4.1974999,0.9068039059638977,1.6711528301239014,6.819883346557617,-60.05859375,3.35693359375,13.458251953125
4.2024999,1.1761516332626343,2.0177135467529297,7.517194747924805,8.72802734375,6.28662109375,-0.091552734375
4.2074999,1.2838906049728394,1.50355863571167,7.6746134757995605,-35.491943359375,12.908935546875,-3.875732421875
4.2124999,1.468244194984436,0.669179379940033,8.432976722717285,19.683837890625,5.401611328125,4.2724609375
4.2174999,1.3174095153808594,-0.5506663918495178,8.780136108398438,-18.890380859375,5.615234375,-3.448486328125
4.2224999,1.2701239585876465,-1.136048674583435,9.17817211151123,-28.62548828125,-4.913330078125,12.20703125
4.2274999,0.5482721924781799,-1.5119383335113525,9.751583099365234,13.092041015625,-2.62451171875,0.8544921875
4.2324999000000005,0.5482721924781799,-1.5119383335113525,9.751583099365234,13.092041015625,-2.62451171875,0.8544921875
4.2374999,0.6272808313369751,-1.5520412921905518,9.539097785949707,-24.96337890625,-3.204345703125,-1.28173828125
4.2424999,1.2360066175460815,-0.345363587141037,9.806650161743164,-13.580322265625,2.197265625,5.523681640625
4.2474999,1.2360066175460815,-0.345363587141037,9.806650161743164,-13.580322265625,2.197265625,5.523681640625
4.2524999,1.1061211824417114,-0.35494041442871094,9.803657531738281,17.730712890625,-0.30517578125,-2.044677734375
4.2574999,1.0618284940719604,-0.4291606545448303,9.699509620666504,-21.8505859375,1.64794921875,-2.25830078125
4.2624999,0.912190854549408,-0.6703764796257019,9.910798072814941,18.98193359375,-1.40380859375,4.180908203125
4.2674999,0.9301473498344421,-0.7972691655158997,9.61451530456543,-3.692626953125,-0.274658203125,-9.21630859375
4.272499900000001,0.9187749028205872,-0.6889315247535706,9.906009674072266,-3.60107421875,1.0986328125,7.6904296875
4.2774999000000005,0.9427168965339661,-0.7338228225708008,9.736021041870117,9.521484375,-1.373291015625,-6.8359375
4.2824999,1.0223240852355957,-0.5512649416923523,9.786299705505371,-15.13671875,1.739501953125,4.425048828125
4.2874999,0.9379284977912903,-0.7003039717674255,9.793481826782227,17.486572265625,-1.800537109375,-2.3193359375
4.2924999,1.05105459690094,-0.5734112858772278,9.685144424438477,-20.263671875,1.8310546875,-0.6103515625
4.2974999,0.9534908533096313,-0.6919242739677429,9.840168952941895,19.287109375,-1.3427734375,2.86865234375
4.3024999,1.0181342363357544,-0.7206547260284424,9.59835433959961,-18.1884765625,1.068115234375,-5.06591796875
4.3074999,0.9516952037811279,-0.6943184733390808,9.882067680358887,14.95361328125,-0.640869140625,6.561279296875
4.312499900000001,0.9941922426223755,-0.7769184708595276,9.533112525939941,-11.53564453125,0,-8.23974609375
4.3174999000000005,0.9516952037811279,-0.6637924313545227,9.872490882873535,6.500244140625,0.3662109375,8.056640625
4.3224999,1.0438719987869263,-0.7428010702133179,9.667786598205566,6.65283203125,-1.251220703125,-7.2021484375
4.3274999,1.0438719987869263,-0.7428010702133179,9.667786598205566,6.65283203125,-1.251220703125,-7.2021484375
4.3324999,1.0845733880996704,-0.5267243981361389,9.775525093078613,-10.955810546875,1.373291015625,5.615234375
4.3374999,1.0007762908935547,-0.7493851184844971,9.730035781860352,13.519287109375,-1.52587890625,-4.7607421875
4.3424999,1.0743980407714844,-0.5129576921463013,9.700108528137207,-16.204833984375,1.312255859375,2.838134765625
4.3474999,0.9558850526809692,-0.7170634269714355,9.804854393005371,17.730712890625,-1.312255859375,-1.64794921875
4.352499900000001,1.0642226934432983,-0.6111199855804443,9.746794700622559,-18.890380859375,1.434326171875,-0.30517578125
4.3574999000000005,0.9307458996772766,-0.6979097723960876,9.883264541625977,18.73779296875,-0.9765625,1.3427734375
4.3624999,0.9971849918365479,-0.7332242727279663,9.694721221923828,-18.61572265625,1.15966796875,-3.11279296875
4.3674999,0.910993754863739,-0.6572083830833435,9.900622367858887,17.486572265625,-0.9765625,3.60107421875
4.3724999,0.9463081955909729,-0.7577648162841797,9.565434455871582,-16.448974609375,0.762939453125,-5.126953125
4.3774999,0.9271546006202698,-0.5901707410812378,9.88506031036377,14.5263671875,-0.823974609375,5.645751953125
4.3824999,1.0043675899505615,-0.5740098357200623,9.886856079101562,10.650634765625,-0.457763671875,6.7138671875
4.3874999,1.070208191871643,-0.6901286244392395,9.533711433410645,-9.033203125,-0.030517578125,-7.50732421875
4.3924999,1.0552444458007812,-0.6009446382522583,9.95748519897461,6.561279296875,-0.030517578125,7.476806640625
4.397499900000001,1.1079168319702148,-0.7056909799575806,9.59835433959961,-5.126953125,-0.030517578125,-7.965087890625
4.4024999000000005,1.0342950820922852,-0.6524199843406677,9.982624053955078,2.960205078125,0.42724609375,7.38525390625
4.4074999,1.0791864395141602,-0.74040687084198,9.636063575744629,-1.46484375,-0.3662109375,-7.9345703125
4.4124999,0.9923965930938721,-0.6607996821403503,9.881468772888184,-0.30517578125,0.762939453125,7.476806640625
4.4174999,1.0271124839782715,-0.7511807680130005,9.604938507080078,1.64794921875,-0.396728515625,-7.659912109375
4.4224999,0.9977835416793823,-0.6075286865234375,9.795876502990723,-2.8076171875,0.701904296875,7.01904296875
4.4274999,1.0181342363357544,-0.7080851793289185,9.588777542114258,3.84521484375,-0.67138671875,-7.38525390625
4.4324999,1.035492181777954,-0.586579442024231,9.775525093078613,-4.94384765625,0.823974609375,6.805419921875
4.437499900000001,1.0169371366500854,-0.6787561774253845,9.618705749511719,6.04248046875,-0.885009765625,-7.110595703125
4.4424999000000005,0.9169792532920837,-0.6889315247535706,9.761159896850586,7.62939453125,-0.946044921875,-6.4697265625
4.4474999,0.9343371987342834,-0.5668272376060486,9.877279281616211,-8.11767578125,0.8544921875,6.072998046875
4.4524999,0.93254154920578,-0.6853402256965637,9.761159896850586,7.843017578125,-1.251220703125,-6.40869140625
4.4574999,0.9654618501663208,-0.5877765417098999,9.853935241699219,-7.87353515625,0.762939453125,5.859375
4.4624999,0.9744400978088379,-0.7092822790145874,9.724648475646973,7.293701171875,-1.129150390625,-6.16455078125
4.4674999,0.9977835416793823,-0.5973533391952515,9.825803756713867,-7.38525390625,0.91552734375,6.072998046875
4.4724999,0.9983820915222168,-0.7236474752426147,9.683947563171387,6.927490234375,-1.007080078125,-6.500244140625
4.477499900000001,1.0007762908935547,-0.6189011335372925,9.81024169921875,-6.77490234375,0.885009765625,5.859375
4.4824999000000005,0.9894038438796997,-0.7272387742996216,9.655217170715332,5.92041015625,-0.885009765625,-6.4697265625
4.4874999,0.9906009435653687,-0.6500257849693298,9.806650161743164,-5.0048828125,0.9765625,6.4697265625
4.4924999,0.9858125448226929,-0.6763619780540466,9.810839653015137,-3.570556640625,0.8544921875,6.256103515625
4.4974999,0.9977835416793823,-0.7679402232170105,9.625288963317871,2.62451171875,-0.48828125,-7.14111328125
4.5024999,0.9678560495376587,-0.6805518269538879,9.856928825378418,-1.5869140625,0.946044921875,6.77490234375
4.5074999,1.0199298858642578,-0.7284358739852905,9.640253067016602,0.518798828125,-0.42724609375,-6.988525390625
4.5124999,0.9546879529953003,-0.6667851805686951,9.939528465270996,0.885009765625,0.579833984375,6.744384765625
4.5174999,1.0187327861785889,-0.6997054219245911,9.643245697021484,-2.44140625,-0.274658203125,-7.049560546875
4.522499900000001,0.9660604000091553,-0.6518214344978333,9.99339771270752,3.72314453125,0.3662109375,6.683349609375
4.5274999000000005,1.0324994325637817,-0.6931213736534119,9.611522674560547,-5.37109375,-0.42724609375,-6.65283203125
4.5324999,0.9630676507949829,-0.6266822814941406,9.947309494018555,6.40869140625,0.1220703125,6.2255859375
4.5374999,1.0127472877502441,-0.707486629486084,9.547477722167969,-8.36181640625,0.06103515625,-6.256103515625
4.5424999,0.9493009448051453,-0.6051344871520996,9.870695114135742,9.429931640625,-0.244140625,5.4931640625
4.5474999,0.9726444482803345,-0.7050924301147461,9.531915664672852,-11.16943359375,0.091552734375,-5.2490234375
4.5524999,0.9983820915222168,-0.7158663272857666,9.536704063415527,-13.12255859375,0.213623046875,-3.753662109375
4.5574999,0.9852139949798584,-0.618302583694458,9.79408073425293,14.129638671875,-0.732421875,2.532958984375
4.562499900000001,1.091755986213684,-0.7966706156730652,9.660603523254395,-14.46533203125,0.640869140625,-2.0751953125
4.5674999000000005,1.003769040107727,-0.6943184733390808,9.850942611694336,14.678955078125,-0.823974609375,0.6103515625
4.5724999,1.1091139316558838,-0.7272387742996216,9.78989028930664,-14.34326171875,0.54931640625,0.091552734375
4.5774999,0.9636662006378174,-0.7092822790145874,9.853935241699219,13.7939453125,-0.885009765625,-1.617431640625
4.5824999,1.0193313360214233,-0.5883750915527344,9.747992515563965,-12.847900390625,1.007080078125,2.288818359375
4.5874999,0.9367313981056213,-0.7038952708244324,9.7791166305542,11.260986328125,-1.03759765625,-3.692626953125
4.5924999,0.9965864419937134,-0.5434837937355042,9.743204116821289,-9.307861328125,0.67138671875,4.21142578125
4.5974999,0.9989806413650513,-0.6817489266395569,9.6618013381958,6.8359375,-0.823974609375,-5.462646484375
4.602499900000001,1.0217255353927612,-0.5734112858772278,9.765350341796875,-4.39453125,0.79345703125,5.55419921875
4.6074999000000005,1.0540473461151123,-0.6835445761680603,9.557653427124023,1.373291015625,-0.579833984375,-6.2255859375
4.6124999,1.01753568649292,-0.7242460250854492,9.55825138092041,-10.040283203125,0.091552734375,-4.94384765625
4.6174999,0.9720458984375,-0.6003460884094238,9.803058624267578,11.627197265625,-0.18310546875,3.41796875
4.6224999,1.0594342947006226,-0.7194576263427734,9.639654159545898,-12.969970703125,0.457763671875,-2.410888671875
4.6274999,0.99479079246521,-0.6153098344802856,9.767744064331055,13.458251953125,-0.6103515625,0.640869140625
4.6324999,1.1019313335418701,-0.7050924301147461,9.71926212310791,-13.48876953125,0.67138671875,0.457763671875
4.6374999,0.9876081943511963,-0.7236474752426147,9.804854393005371,12.420654296875,-0.885009765625,-2.349853515625
4.6424999,1.0426748991012573,-0.7416039705276489,9.665990829467773,-11.77978515625,0.30517578125,-3.021240234375
4.647499900000001,0.9828197956085205,-0.6009446382522583,9.780313491821289,12.664794921875,-0.3662109375,0.91552734375
4.6524999000000005,1.081580638885498,-0.6913257241249084,9.697713851928711,-12.939453125,0.67138671875,0.42724609375
4.6574999,0.9959878921508789,-0.7110779285430908,9.765948295593262,11.505126953125,-0.54931640625,-2.655029296875
4.6624999,1.0199298858642578,-0.5835866928100586,9.710882186889648,-9.063720703125,0.701904296875,3.7841796875
4.6674999,0.9780313968658447,-0.7380126714706421,9.680954933166504,5.43212890625,-0.579833984375,-5.340576171875
4.6724999,0.9678560495376587,-0.6272808313369751,9.84256362915039,-1.495361328125,0.48828125,5.2490234375
4.6774999,0.9917980432510376,-0.7386112213134766,9.593565940856934,-2.62451171875,-0.274658203125,-5.767822265625
4.6824999,0.9546879529953003,-0.6602011322975159,9.912593841552734,6.40869140625,0.1220703125,4.82177734375
4.687499900000001,1.0348936319351196,-0.767341673374176,9.63187313079834,-9.674072265625,0.06103515625,-3.90625
4.6924999000000005,1.0001777410507202,-0.6847416758537292,9.792284965515137,11.5966796875,-0.518798828125,-2.3193359375
4.6974999,1.05105459690094,-0.5770025849342346,9.727043151855469,-9.002685546875,0.640869140625,3.662109375
4.7024999,0.9989806413650513,-0.7236474752426147,9.679757118225098,5.55419921875,-0.518798828125,-4.974365234375
4.7074999,0.9738415479660034,-0.6171054840087891,9.829395294189453,-0.8544921875,0.42724609375,5.18798828125
4.7124999,0.9774328470230103,-0.7134721279144287,9.582193374633789,-3.509521484375,-0.152587890625,-5.55419921875
4.7174999,0.9289502501487732,-0.6290764808654785,9.855133056640625,7.50732421875,0.1220703125,3.96728515625
4.7224999,1.0307037830352783,-0.7625532150268555,9.6618013381958,-10.406494140625,0.030517578125,-2.960205078125
4.727499900000001,0.8475474119186401,-0.9367313981056213,9.208099365234375,9.918212890625,-0.396728515625,1.251220703125
4.7324999000000005,0.628477931022644,-2.1278467178344727,8.484452247619629,-61.492919921875,-17.547607421875,77.423095703125
4.7374999,0.3274070918560028,-2.363675594329834,7.3436150550842285,105.46875,-35.33935546875,194.03076171875
4.7424999,-0.3866635859012604,-3.0358476638793945,6.763619899749756,85.205078125,-7.99560546875,160.614013671875
4.7474999,-0.21547815203666687,-2.653373956680298,5.220556735992432,0.67138671875,-25.5126953125,144.287109375
4.7524999,1.138442873954773,-2.405574083328247,5.353435039520264,125.6103515625,-49.713134765625,148.773193359375
4.7574999,1.7938556671142578,-1.470638394355774,4.171896457672119,206.60400390625,-13.519287109375,124.847412109375
4.7624999,2.5103204250335693,-1.4832079410552979,4.662707805633545,85.906982421875,-9.70458984375,139.22119140625
4.7674999,2.7305870056152344,0.7775170207023621,5.326500415802002,137.75634765625,-37.04833984375,110.382080078125
4.772499900000001,2.3020248413085938,1.6496049165725708,5.96874475479126,176.08642578125,-68.54248046875,75.714111328125
4.7774999000000005,1.790264368057251,2.448669672012329,6.408679485321045,45.196533203125,-84.503173828125,84.9609375
4.7824999,2.014122247695923,3.955221176147461,6.66785192489624,150.299072265625,-73.944091796875,44.43359375
4.7874999,1.9722236394882202,4.217984676361084,6.096834659576416,96.954345703125,-54.534912109375,42.877197265625
4.7924999,2.011728048324585,4.6956281661987305,5.612607479095459,33.416748046875,-41.961669921875,64.75830078125
4.7974999,2.898181200027466,4.72495698928833,5.84843635559082,104.30908203125,-26.824951171875,32.440185546875
4.8024999,3.1429882049560547,3.5212721824645996,5.7526679039001465,22.552490234375,-15.19775390625,46.5087890625
4.8074999,3.773860454559326,2.365471363067627,6.183624267578125,150.299072265625,8.575439453125,-32.379150390625
4.812499900000001,3.358466386795044,2.542642116546631,5.061941146850586,52.398681640625,3.72314453125,2.9296875
4.8174999000000005,2.937086820602417,1.556231141090393,4.6255974769592285,-53.955078125,-2.50244140625,44.49462890625
4.8224999,2.45285964012146,2.427121877670288,3.599083662033081,43.64013671875,4.5166015625,-38.787841796875
4.8274999,1.7585411071777344,3.180696964263916,3.1651346683502197,18.218994140625,3.021240234375,-42.8466796875
4.8324999,1.1893197298049927,3.3045969009399414,3.840898036956787,-0.274658203125,3.662109375,-24.200439453125
4.8374999,1.4718354940414429,4.536413669586182,5.024232387542725,-31.951904296875,10.284423828125,-54.229736328125
4.8424999,1.3563152551651,4.207211017608643,5.628169536590576,-105.77392578125,5.31005859375,-34.393310546875
4.8474999,1.1354501247406006,3.644573450088501,6.427833080291748,-51.7578125,8.636474609375,-38.9404296875
4.852499900000001,1.3832499980926514,3.4805707931518555,5.790975570678711,43.0908203125,27.008056640625,-91.156005859375
4.8574999000000005,0.5219359993934631,2.165555477142334,4.766256809234619,-107.2998046875,23.223876953125,-21.575927734375
4.8624999,0.3776853084564209,2.1535844802856445,3.661332845687866,-86.24267578125,19.989013671875,-46.9970703125
4.8674999,0.8493430614471436,2.456450939178467,4.448426723480225,-75.958251953125,17.730712890625,-40.58837890625
4.8724999,0.899621307849884,3.383605480194092,5.107430934906006,-57.159423828125,20.44677734375,-67.657470703125
4.8774999,0.6093243360519409,3.179499864578247,5.491700172424316,-127.8076171875,16.4794921875,-37.933349609375
4.8824999,0.7481880187988281,3.094505786895752,5.768828868865967,21.026611328125,43.792724609375,-59.600830078125
4.8874999,0.7481880187988281,3.094505786895752,5.768828868865967,21.026611328125,43.792724609375,-59.600830078125
4.8924999,0.3860650360584259,1.6160861253738403,5.5772929191589355,-118.46923828125,47.42431640625,25.634765625
4.897499900000001,0.6302735805511475,0.6967126727104187,5.098452568054199,-147.491455078125,18.280029296875,40.618896484375
4.9024999000000005,0.6200982332229614,-0.5776011347770691,5.160701751708984,82.58056640625,7.232666015625,-12.542724609375
4.9074999,0.4537012279033661,-0.7463923692703247,5.093664169311523,6.103515625,41.961669921875,-3.265380859375
4.9124999,0.5297171473503113,2.93888258934021,4.5423994064331055,-39.12353515625,-19.927978515625,-32.440185546875
4.9174999,0.5297171473503113,2.93888258934021,4.5423994064331055,-39.12353515625,-19.927978515625,-32.440185546875
4.9224999,0.629675030708313,3.532644510269165,4.809951305389404,-103.82080078125,8.36181640625,-23.101806640625
4.9274999,0.15322890877723694,4.294000625610352,5.494692802429199,-127.38037109375,16.90673828125,4.791259765625
4.9324999,0.8026561141014099,4.1192240715026855,6.208165168762207,14.16015625,28.1982421875,3.814697265625
4.937499900000001,0.2663549482822418,3.3728315830230713,6.511630058288574,-53.89404296875,24.505615234375,43.27392578125
4.9424999000000005,0.3860650360584259,1.8770540952682495,5.926846504211426,-89.691162109375,-16.876220703125,45.7763671875
4.9474999,0.0035913025494664907,0.8786720037460327,6.145317077636719,67.901611328125,-29.78515625,7.4462890625
4.9524999,-0.16101007163524628,-0.061052143573760986,5.456385612487793,120.4833984375,6.622314453125,2.288818359375
4.9574999,-0.10953472554683685,0.37409400939941406,4.930259704589844,-53.924560546875,6.77490234375,14.007568359375
4.9624999,1.3934253454208374,-2.6360161304473877,12.181099891662598,-25.2685546875,4.486083984375,-5.67626953125
4.9674999,0.8433575630187988,-2.849698543548584,11.108497619628906,-2.685546875,4.39453125,5.828857421875
4.9724999,0.43275195360183716,-2.668337821960449,9.846753120422363,25.848388671875,-1.129150390625,2.960205078125
4.977499900000001,0.284311443567276,-2.2254104614257812,8.922591209411621,3.72314453125,2.410888671875,-13.427734375
4.9824999000000005,0.4100070297718048,-1.7741034030914307,8.762778282165527,-6.988525390625,4.180908203125,-6.378173828125
4.9874999,0.6021417379379272,-1.2689268589019775,9.151237487792969,24.4140625,-4.8828125,10.1318359375
4.9924999,0.8104372620582581,-0.6853402256965637,9.578003883361816,13.0615234375,-4.852294921875,0.91552734375
4.9974999,0.9798270463943481,-0.2148796021938324,9.841365814208984,-17.7001953125,1.52587890625,-14.495849609375
5.0024999,1.0869675874710083,0.16101007163524628,9.950302124023438,16.021728515625,-2.5634765625,14.251708984375
5.0074999,1.0887632369995117,0.08140286058187485,9.88745403289795,-14.007568359375,-0.396728515625,-5.18798828125
5.0124999,1.139639973640442,-0.26575639843940735,9.941922187805176,-18.98193359375,2.685546875,-8.97216796875
5.0174999,1.0672154426574707,-0.6260837316513062,9.894038200378418,14.892578125,-1.89208984375,10.68115234375
5.022499900000001,0.993593692779541,-0.899621307849884,9.73542308807373,7.14111328125,-4.08935546875,4.180908203125
5.0274999000000005,1.0342950820922852,-1.1079168319702148,9.549872398376465,-19.59228515625,3.2958984375,-12.26806640625
5.0324999,0.9900023937225342,-1.2318167686462402,9.565434455871582,6.866455078125,1.953125,2.410888671875
5.0374999,1.006163239479065,-1.0779893398284912,9.576208114624023,21.392822265625,-3.90625,9.185791015625
5.0424999,1.0283095836639404,-0.8960300087928772,9.63187313079834,-15.5029296875,1.89208984375,-10.162353515625
5.0474999,1.0468647480010986,-0.7553706169128418,9.805453300476074,-8.4228515625,3.021240234375,-4.119873046875
5.0524999,1.0372878313064575,-0.6141127347946167,9.911994934082031,23.590087890625,-3.082275390625,11.53564453125
5.0574999,0.9858125448226929,-0.4165911078453064,9.806650161743164,-7.965087890625,-0.54931640625,-4.2724609375
5.062499900000001,1.0133458375930786,-0.8732850551605225,9.804854393005371,16.326904296875,-0.640869140625,7.232666015625
5.0674999000000005,0.9864110946655273,-0.7541735172271729,9.68574333190918,14.617919921875,-1.495361328125,1.434326171875
5.0724999,1.0271124839782715,-0.7577648162841797,9.609128952026367,-27.679443359375,3.265380859375,-9.735107421875
5.0774999,1.0480618476867676,-0.7745242714881897,9.7605619430542,10.7421875,-0.1220703125,6.378173828125
5.0824999,0.9858125448226929,-0.6751648783683777,9.73661994934082,20.721435546875,-1.678466796875,2.50244140625
5.0874999,1.0426748991012573,-0.5835866928100586,9.644442558288574,-28.4423828125,2.8076171875,-9.82666015625
5.0924999,1.0468647480010986,-0.6673837304115295,9.840168952941895,5.645751953125,-0.457763671875,6.103515625
5.0974999,0.9696516990661621,-0.618302583694458,9.779715538024902,23.25439453125,-1.617431640625,2.685546875
5.102499900000001,1.0307037830352783,-0.545877993106842,9.635464668273926,-28.74755859375,2.8076171875,-9.27734375
5.1074999000000005,0.9588778018951416,-0.679354727268219,9.746196746826172,23.895263671875,-1.495361328125,1.556396484375
5.1124999,1.0145429372787476,-0.6745663285255432,9.66419506072998,-29.205322265625,3.082275390625,-8.819580078125
5.1174999,0.9983820915222168,-0.8277952671051025,9.840168952941895,7.080078125,-1.800537109375,8.026123046875
5.1224999,1.062427043914795,-0.7026981711387634,9.65222454071045,-31.036376953125,3.662109375,-5.0048828125
5.1274999,1.004966139793396,-0.7583633661270142,9.82759952545166,21.087646484375,-3.90625,9.70458984375
5.1324999,0.983418345451355,-0.6823474764823914,9.654618263244629,5.31005859375,1.007080078125,-7.598876953125
5.1374999,0.9780313968658447,-0.7230489253997803,9.646238327026367,-27.069091796875,3.0517578125,-0.6103515625
5.1424999,0.9780313968658447,-0.7805097699165344,9.871891975402832,28.564453125,-5.18798828125,7.720947265625
5.147499900000001,1.0516531467437744,-0.6697779297828674,9.751583099365234,-15.869140625,1.312255859375,4.608154296875
5.1524999000000005,0.970848798751831,-0.6883329749107361,9.84256362915039,29.84619140625,-5.06591796875,2.777099609375
5.1574999,1.092953085899353,-0.536899745464325,9.622296333312988,-23.49853515625,4.94384765625,-9.185791015625
5.1624999,1.0241197347640991,-0.7433996200561523,9.88506031036377,2.13623046875,-1.77001953125,9.033203125
5.1674999,1.0181342363357544,-0.667982280254364,9.794678688049316,19.866943359375,-2.74658203125,-4.364013671875
5.1724999,1.0301052331924438,-0.7050924301147461,9.677363395690918,-29.72412109375,5.706787109375,-3.84521484375
5.1774999,0.9810241460800171,-0.7763199210166931,9.86351203918457,21.1181640625,-5.096435546875,8.9111328125
5.1824999,0.9894038438796997,-0.6985083222389221,9.604340553283691,-0.823974609375,1.373291015625,-9.765625
5.187499900000001,1.0666168928146362,-0.7003039717674255,9.644442558288574,-19.775390625,3.60107421875,4.150390625
5.1924999000000005,0.9870096445083618,-0.7781155705451965,9.781511306762695,28.717041015625,-6.103515625,2.410888671875
5.1974999,1.0887632369995117,-0.6524199843406677,9.515754699707031,-22.15576171875,5.31005859375,-8.6669921875
5.2024999,1.0019733905792236,-0.690727174282074,9.791088104248047,20.32470703125,-4.913330078125,-4.638671875
5.2074999,1.0456676483154297,-0.6470330357551575,9.617507934570312,-27.03857421875,6.53076171875,-2.288818359375
5.2124999,1.003769040107727,-0.750582218170166,9.893440246582031,22.4609375,-5.279541015625,6.988525390625
5.2174999,1.0426748991012573,-0.6625953316688538,9.609128952026367,-9.521484375,1.953125,-10.07080078125
5.2224999,1.0372878313064575,-0.7224503755569458,9.818022727966309,-6.744384765625,2.44140625,8.4228515625
5.227499900000001,1.0181342363357544,-0.7056909799575806,9.789292335510254,19.83642578125,-5.584716796875,-4.669189453125
5.2324999000000005,1.0414776802062988,-0.6673837304115295,9.59476375579834,-25.909423828125,6.40869140625,-1.495361328125
5.2374999,0.961870551109314,-0.7697358727455139,9.86351203918457,22.94921875,-5.43212890625,6.103515625
5.2424999,1.004966139793396,-0.7583633661270142,9.86889934539795,24.59716796875,-5.828857421875,2.899169921875
5.2474999,1.082777738571167,-0.7344213724136353,9.531915664672852,-19.287109375,3.7841796875,-7.4462890625
5.2524999,1.0115501880645752,-0.7876923680305481,9.868300437927246,9.33837890625,-0.518798828125,9.063720703125
5.2574999,1.0079588890075684,-0.7422025203704834,9.656414031982422,2.9296875,-2.44140625,-9.33837890625
5.2624999,1.0564415454864502,-0.7559691667556763,9.790489196777344,-14.0380859375,5.035400390625,6.195068359375
5.2674999,0.9624691009521484,-0.7535749673843384,9.877279281616211,21.42333984375,-5.79833984375,-2.960205078125
5.272499900000001,1.015141487121582,-0.6889315247535706,9.672574996948242,-24.017333984375,5.55419921875,-2.044677734375
5.2774999000000005,0.9475052952766418,-0.7487865686416626,9.946710586547852,21.05712890625,-3.875732421875,5.401611328125
