# Time (seconds),Accel_X,Accel_Y,Accel_Z,Gyro_X,Gyro_Y,Gyro_Z
0.0024999,1.4544775485992432,-0.38905778527259827,10.38724422454834,-9.002685546875,35.21728515625,-45.867919921875
0.0074999,0.8182184100151062,-0.7422025203704834,9.9586820602417,-5.767822265625,24.017333984375,-57.12890625
0.012499900000000001,-0.13347674906253815,-0.2064998894929886,10.13405704498291,-0.885009765625,5.615234375,-47.607421875
0.0174999,-1.1994950771331787,0.7667431235313416,10.87566089630127,-43.853759765625,-35.614013671875,22.216796875
0.0224999,-0.4752490520477295,0.5776011347770691,10.620678901672363,-58.624267578125,-38.238525390625,55.389404296875
0.0274999,0.4321534037590027,0.02214636653661728,10.337564468383789,-50.29296875,-57.7392578125,97.22900390625
0.0324999,1.1959037780761719,-0.8481459617614746,9.367314338684082,-3.875732421875,-59.051513671875,143.73779296875
0.0374999,1.5514427423477173,-1.5759832859039307,7.735665798187256,45.135498046875,-36.56005859375,189.239501953125
0.0424999,1.5406688451766968,-1.9207483530044556,6.424840450286865,89.996337890625,-10.43701171875,181.94580078125
0.0474999,1.5131354331970215,-1.9943699836730957,6.682217121124268,100.2197265625,26.30615234375,130.67626953125
0.0524999,1.2832920551300049,-2.1380221843719482,7.937376976013184,48.004150390625,38.63525390625,59.967041015625
0.0574999,1.548449993133545,-1.8638859987258911,9.116521835327148,8.7890625,28.533935546875,-17.15087890625
0.0624999,1.734000563621521,-1.3437457084655762,10.733804702758789,-0.54931640625,39.947509765625,-57.464599609375
0.0674999,1.5981296300888062,-0.9612720012664795,11.07378101348877,-4.5166015625,58.349609375,-61.767578125
0.0724999,-0.15921440720558167,0.5303156971931458,10.945093154907227,-3.11279296875,29.815673828125,-83.953857421875
0.0774999,-1.338358759880066,0.7475894689559937,10.245985984802246,2.9296875,17.08984375,-97.686767578125
0.0824999,-2.053027868270874,-0.0802057534456253,9.961075782775879,-13.458251953125,-4.364013671875,-74.371337890625
0.0874999,-1.8142063617706299,0.08978256583213806,9.145252227783203,-16.265869140625,-7.293701171875,-31.402587890625
0.0924999,-1.204882025718689,-0.6530185341835022,9.73661994934082,-15.472412109375,-27.923583984375,21.270751953125
0.0974999,-0.06404489278793335,-0.6763619780540466,9.66419506072998,-30.33447265625,-37.261962890625,47.9736328125
0.1024999,0.829590916633606,-1.4197616577148438,9.732429504394531,-13.97705078125,-28.472900390625,50.9033203125
0.1074999,1.3832499980926514,-2.2888567447662354,9.27034854888916,21.759033203125,-21.697998046875,58.197021484375
0.1124999,1.599326729774475,-2.256535053253174,9.07641887664795,39.581298828125,-16.754150390625,55.572509765625
0.1174999,1.3084312677383423,-2.0422539710998535,9.045293807983398,25.93994140625,-1.800537109375,36.43798828125
0.1224999,0.900818407535553,-0.6332663297653198,9.481039047241211,11.444091796875,5.67626953125,27.28271484375
0.1274999,0.8038532137870789,0.5919663906097412,10.204686164855957,-0.67138671875,-2.5634765625,2.777099609375
0.1324999,1.2030863761901855,-0.669179379940033,9.856928825378418,1.52587890625,32.806396484375,-37.90283203125
0.1374999,0.26575639843940735,-0.25019407272338867,9.805453300476074,-2.9296875,24.871826171875,-53.131103515625
0.1424999,-0.8403648138046265,-0.31543606519699097,9.606734275817871,-4.33349609375,9.3994140625,-62.1337890625
0.1474999,-1.544858694076538,-0.3603273630142212,9.697115898132324,-0.244140625,-8.6669921875,-46.173095703125
0.1524999,-1.9303251504898071,-0.718859076499939,9.071630477905273,-14.739990234375,-19.317626953125,-2.716064453125
0.1574999,-1.7884687185287476,-0.14604631066322327,9.625887870788574,-13.5498046875,-21.97265625,17.9443359375
0.1624999,1.8387469053268433,-1.567603588104248,9.173982620239258,22.64404296875,-4.69970703125,53.253173828125
0.1674999,1.7854759693145752,-1.601720929145813,9.160215377807617,26.18408203125,6.561279296875,45.013427734375
0.1724999,1.5143325328826904,-1.0851719379425049,9.442132949829102,14.22119140625,8.97216796875,17.547607421875
0.17749990000000002,1.2946646213531494,-0.39564183354377747,9.785700798034668,-1.434326171875,6.744384765625,-15.045166015625
0.1824999,1.3078327178955078,-0.46327802538871765,9.894637107849121,5.340576171875,23.834228515625,-30.09033203125
0.1874999,1.5951368808746338,-0.4926069974899292,9.906607627868652,26.336669921875,41.748046875,-36.041259765625
0.1924999,1.4969745874404907,-0.5997475385665894,9.948506355285645,12.420654296875,40.191650390625,-38.360595703125
0.1974999,1.036689281463623,-0.5213374495506287,9.961075782775879,7.049560546875,35.003662109375,-31.55517578125
0.2024999,0.2513911724090576,-0.026336219161748886,9.917980194091797,-1.861572265625,22.705078125,-46.44775390625
0.20749990000000001,-0.5841852426528931,0.3298012912273407,9.766547203063965,-5.92041015625,3.84521484375,-69.82421875
0.2124999,-1.5179238319396973,0.7212532758712769,9.962871551513672,-25.054931640625,-14.2822265625,-57.342529296875
0.2174999,-2.0937294960021973,0.5201402902603149,9.41639518737793,-46.38671875,-13.00048828125,-27.191162109375
0.2224999,-1.6825252771377563,-0.24660277366638184,9.492411613464355,-24.96337890625,-46.630859375,36.92626953125
0.2274999,-0.3770867586135864,-1.260547161102295,9.015965461730957,-21.484375,-33.355712890625,50.4150390625
0.2324999,0.9277531504631042,-2.479794502258301,8.835203170776367,3.509521484375,-22.186279296875,54.656982421875
0.2374999,1.8872294425964355,-3.2561142444610596,8.373122215270996,37.109375,-14.190673828125,61.676025390625
0.2424999,2.005143880844116,-3.269881010055542,8.546102523803711,59.722900390625,-5.2490234375,60.333251953125
0.2474999,1.6490063667297363,-2.1505916118621826,9.015965461730957,38.055419921875,11.474609375,37.41455078125
0.2524999,1.217451572418213,-0.48243165016174316,9.824007987976074,2.777099609375,8.30078125,0.274658203125
0.2574999,1.0923545360565186,0.2902969419956207,10.4542818069458,1.312255859375,9.33837890625,-24.2919921875
0.2624999,1.5867571830749512,0.5500678420066833,10.49677848815918,23.162841796875,34.912109375,-32.1044921875
0.2674999,1.9907786846160889,0.20231004059314728,10.301053047180176,21.78955078125,49.4384765625,-36.31591796875
0.2724999,1.9847931861877441,0.2106897532939911,10.268731117248535,10.833740234375,46.56982421875,-33.294677734375
0.2774999,1.392826795578003,0.7960720658302307,10.15560531616211,-5.4931640625,31.18896484375,-71.6552734375
0.2824999,-1.2689268589019775,1.1408370733261108,9.916184425354004,-16.357421875,-9.21630859375,-83.31298828125
0.28749990000000003,-2.542043685913086,0.25318682193756104,9.525331497192383,-34.515380859375,-26.947021484375,-43.914794921875
0.2924999,-2.9269115924835205,-0.23942017555236816,9.101557731628418,-20.69091796875,-19.622802734375,-7.537841796875
0.2974999,-2.9077579975128174,-0.871489405632019,9.548674583435059,-9.1552734375,-44.281005859375,33.416748046875
0.3024999,-1.6484078168869019,-1.3323732614517212,9.152434349060059,-23.712158203125,-42.90771484375,44.25048828125
0.3074999,-0.2944868206977844,-1.7483657598495483,9.422979354858398,-2.8076171875,-31.18896484375,50.10986328125
0.3124999,1.1121066808700562,-2.315791606903076,9.384073257446289,25.421142578125,-10.833740234375,46.44775390625
0.3174999,1.9003976583480835,-2.2188265323638916,9.345168113708496,29.60205078125,-0.18310546875,38.299560546875
0.3224999,1.026513934135437,0.5722141861915588,9.84495735168457,-3.35693359375,27.923583984375,-53.77197265625
0.3274999,-0.18734627962112427,0.4908113479614258,9.810839653015137,-10.19287109375,6.439208984375,-75.01220703125
0.3324999,-1.3180080652236938,0.7116764783859253,9.567828178405762,-6.7138671875,-11.016845703125,-61.279296875
0.3374999,-2.4025814533233643,-0.2885012924671173,9.511565208435059,-27.03857421875,-24.383544921875,-22.613525390625
0.3424999,-2.628833532333374,-0.026336219161748886,9.14345645904541,-21.087646484375,-22.705078125,5.523681640625
0.34749990000000003,-2.7060465812683105,-0.42616790533065796,9.86351203918457,-7.87353515625,-40.313720703125,32.989501953125
0.35249990000000003,-1.7633295059204102,-0.7481880187988281,9.6803560256958,-20.751953125,-39.642333984375,30.914306640625
0.3574999,-0.608127236366272,-1.0438719987869263,9.815030097961426,-6.622314453125,-26.763916015625,36.529541015625
0.3624999,0.6380547285079956,-1.6478092670440674,9.869498252868652,19.71435546875,-14.70947265625,43.02978515625
0.3674999,2.1254525184631348,-0.5620388388633728,9.90241813659668,3.082275390625,5.37109375,2.105712890625
0.3724999,2.3098061084747314,-0.12090718746185303,9.967659950256348,-3.082275390625,11.04736328125,-18.768310546875
0.3774999,2.588730573654175,-0.4465186297893524,9.860519409179688,17.333984375,32.77587890625,-18.951416015625
0.3824999,2.716221809387207,-0.36152446269989014,9.767146110534668,25.0244140625,44.708251953125,-32.867431640625
0.3874999,2.102707624435425,-0.517746090888977,9.871891975402832,4.608154296875,41.595458984375,-39.703369140625
0.3924999,1.1312602758407593,0.12210428714752197,9.756970405578613,-3.41796875,26.031494140625,-43.182373046875
0.3974999,-0.19692309200763702,0.32381579279899597,9.771934509277344,-10.406494140625,5.096435546875,-68.511962890625
0.4024999,-2.491166830062866,-0.22445641458034515,9.57441234588623,-27.496337890625,-21.240234375,-19.317626953125
0.4074999,-2.491166830062866,-0.22445641458034515,9.57441234588623,-27.496337890625,-21.240234375,-19.317626953125
0.41249990000000003,-2.6013002395629883,-0.23582886159420013,9.382277488708496,-18.85986328125,-19.561767578125,6.500244140625
0.41749990000000003,-2.4384944438934326,-0.5141547918319702,9.891045570373535,-7.32421875,-36.041259765625,30.364990234375
0.4224999,1.40180504322052,-1.6352397203445435,9.524134635925293,19.287109375,-6.988525390625,29.4189453125
0.4274999,1.40180504322052,-1.6352397203445435,9.524134635925293,19.287109375,-6.988525390625,29.4189453125
0.4324999,1.7621324062347412,-1.2551602125167847,9.542689323425293,16.571044921875,2.838134765625,18.096923828125
0.4374999,1.9931728839874268,-0.6931213736534119,9.782109260559082,3.90625,4.8828125,-4.150390625
0.4424999,2.1146786212921143,-0.06224924325942993,9.921571731567383,-0.91552734375,12.237548828125,-14.373779296875
0.4474999,2.211045265197754,-0.3908534348011017,9.86231517791748,10.25390625,25.726318359375,-13.519287109375
0.4524999,2.321178436279297,-0.44412440061569214,9.824606895446777,23.468017578125,37.933349609375,-34.088134765625
0.4574999,1.8908207416534424,-0.4794389009475708,9.816825866699219,10.955810546875,40.0390625,-43.76220703125
0.4624999,1.0821791887283325,-0.12270283699035645,9.882067680358887,-2.777099609375,28.50341796875,-28.839111328125
0.4674999,-0.004788403399288654,0.22206220030784607,9.750386238098145,-10.498046875,10.772705078125,-50.750732421875
0.47249990000000003,-1.2180501222610474,0.7422025203704834,9.830592155456543,-9.124755859375,-9.09423828125,-51.57470703125
0.47749990000000003,-2.3989901542663574,-0.004788403399288654,9.342175483703613,-21.1181640625,-19.805908203125,9.674072265625
0.4824999,-1.3706804513931274,-0.8020575642585754,9.684545516967773,-16.9677734375,-32.40966796875,32.196044921875
0.4874999,-1.3706804513931274,-0.8020575642585754,9.684545516967773,-16.9677734375,-32.40966796875,32.196044921875
0.4924999,-0.33997663855552673,-1.1097124814987183,9.73661994934082,-9.002685546875,-25.93994140625,36.773681640625
0.4974999,0.6063315868377686,-1.569997787475586,9.750386238098145,16.90673828125,-19.134521484375,42.54150390625
0.5024999,1.2312182188034058,-1.7154455184936523,9.501988410949707,20.294189453125,-5.31005859375,38.6962890625
0.5074999,1.514931082725525,-1.2419921159744263,9.566033363342285,17.822265625,4.45556640625,30.8837890625
0.5124999,1.777694821357727,-0.6512228846549988,9.794678688049316,5.279541015625,4.45556640625,4.57763671875
0.5174999,2.014122247695923,-0.01496376097202301,9.939528465270996,-2.74658203125,7.6904296875,-15.045166015625
0.5224999,2.30022931098938,-0.3585317134857178,9.872490882873535,10.009765625,26.031494140625,-17.059326171875
0.5274999,2.541445016860962,-0.4255693554878235,9.815030097961426,24.658203125,40.802001953125,-32.89794921875
0.5324999,2.1511902809143066,-0.4991910457611084,9.810839653015137,10.25390625,41.44287109375,-42.41943359375
0.5374999,-0.020949264988303185,0.2932897210121155,9.749788284301758,-12.054443359375,8.819580078125,-54.351806640625
0.5424999,-1.325789213180542,0.8062474131584167,9.801861763000488,-9.70458984375,-10.528564453125,-55.11474609375
0.5474999,-2.406172752380371,-0.04668693244457245,9.690531730651855,-25.604248046875,-21.087646484375,-13.73291015625
0.5524999,-2.4642322063446045,-0.0077811554074287415,9.337387084960938,-23.345947265625,-21.636962890625,12.298583984375
0.5574999,-2.236783027648926,-0.6075286865234375,9.930550575256348,-7.9345703125,-32.806396484375,27.008056640625
0.5624999,-1.2551602125167847,-0.943913996219635,9.716867446899414,-17.364501953125,-30.975341796875,34.454345703125
0.5674999000000001,-0.17896658182144165,-1.315613865852356,9.698312759399414,-9.3994140625,-26.85546875,43.02978515625
0.5724999000000001,0.7086837291717529,-1.7369933128356934,9.68694019317627,20.56884765625,-21.087646484375,53.314208984375
0.5774999000000001,1.2216414213180542,-1.8501193523406982,9.409213066101074,24.10888671875,-4.150390625,51.483154296875
0.5824999,1.3670891523361206,-1.2635399103164673,9.496002197265625,18.890380859375,7.50732421875,42.755126953125
0.5874999,1.5747861862182617,-0.5793967843055725,9.793481826782227,6.16455078125,4.669189453125,12.3291015625
0.5924999,1.8579005002975464,-0.023942016065120697,9.988011360168457,-3.326416015625,4.364013671875,-14.068603515625
0.5974999,2.7527334690093994,-0.42377370595932007,9.849745750427246,26.3671875,45.10498046875,-34.3017578125
0.6024999,2.406172752380371,-0.5404910445213318,9.875483512878418,8.6669921875,44.37255859375,-40.008544921875
0.6074999,1.427542805671692,-0.05267243832349777,9.849146842956543,-1.800537109375,30.82275390625,-37.2314453125
0.6124999,0.061052143573760986,0.3519476354122162,9.813833236694336,-11.566162109375,7.537841796875,-64.3310546875
0.6174999,-1.324592113494873,0.801459014415741,9.700706481933594,-8.97216796875,-11.5966796875,-61.34033203125
0.6224999,-2.4355015754699707,-0.15143325924873352,9.57201862335205,-25.909423828125,-21.3623046875,-17.608642578125
0.6274999,-2.5276784896850586,-0.08978256583213806,9.130887031555176,-21.240234375,-20.538330078125,11.04736328125
0.6324999,-2.3732523918151855,-0.7003039717674255,9.718663215637207,-5.859375,-32.440185546875,28.045654296875
0.6374999,-1.4185645580291748,-0.9995791912078857,9.552266120910645,-16.05224609375,-31.646728515625,32.073974609375
0.6424999,-0.3513490855693817,-1.323395013809204,9.621698379516602,-7.904052734375,-24.10888671875,36.92626953125
0.6474999,0.5728127360343933,-1.6968904733657837,9.73781681060791,20.08056640625,-19.500732421875,46.56982421875
0.6524999,1.1623848676681519,-1.8136078119277954,9.516353607177734,20.355224609375,-4.45556640625,41.07666015625
0.6574999,1.7286136150360107,-0.5404910445213318,9.864709854125977,4.8828125,3.326416015625,7.843017578125
0.6624999,2.070984363555908,0.030526071786880493,10.006566047668457,-2.349853515625,6.866455078125,-13.946533203125
0.6674999,2.5109190940856934,-0.3621230125427246,9.879075050354004,12.75634765625,28.74755859375,-19.6533203125
0.6724999,2.7982232570648193,-0.38546648621559143,9.824606895446777,25.787353515625,43.64013671875,-31.707763671875
0.6774999,2.3517045974731445,-0.4818331003189087,9.79527759552002,8.6669921875,42.266845703125,-39.398193359375
0.6824999,1.3299790620803833,0.053270988166332245,9.804255485534668,-3.84521484375,27.4658203125,-37.384033203125
0.6874999,-0.015562310814857483,0.3758896589279175,9.730035781860352,-12.939453125,5.55419921875,-61.8896484375
0.6924999000000001,-1.3425486087799072,0.8164227604866028,9.611522674560547,-9.21630859375,-10.07080078125,-58.135986328125
0.6974999000000001,-2.43011474609375,-0.21787235140800476,9.504382133483887,-24.627685546875,-21.3623046875,-14.495849609375
0.7024999000000001,-2.5145103931427,-0.20709845423698425,9.07222843170166,-19.95849609375,-20.81298828125,12.14599609375
0.7074999,-2.3798365592956543,-0.7954735159873962,9.667187690734863,-5.950927734375,-32.04345703125,27.862548828125
0.7124999,1.0755951404571533,-1.7399860620498657,9.564835548400879,19.317626953125,-4.57763671875,42.05322265625
0.7174999,1.3886369466781616,-1.1743559837341309,9.66539192199707,16.998291015625,5.767822265625,36.895751953125
0.7224999,1.7369933128356934,-0.5871779918670654,9.825803756713867,5.55419921875,3.936767578125,11.16943359375
0.7274999,2.12485408782959,-0.0077811554074287415,9.941324234008789,-2.38037109375,6.195068359375,-12.786865234375
0.7324999,2.561197280883789,-0.40701428055763245,9.858125686645508,11.53564453125,27.069091796875,-19.683837890625
0.7374999,2.8658595085144043,-0.42616790533065796,9.78989028930664,25.45166015625,42.449951171875,-29.571533203125
0.7424999,2.433107376098633,-0.5291185975074768,9.786299705505371,9.46044921875,42.694091796875,-39.581298828125
0.7474999,1.416170358657837,0.014365210197865963,9.84376049041748,-3.692626953125,28.167724609375,-36.590576171875
0.7524999,0.06224924325942993,0.33997663855552673,9.745597839355469,-12.39013671875,6.53076171875,-57.647705078125
0.7574999,-1.236605167388916,0.9205705523490906,9.657012939453125,-8.575439453125,-9.21630859375,-57.9833984375
0.7624999,-2.4636335372924805,-0.1388636976480484,9.17936897277832,-18.49365234375,-19.6533203125,11.688232421875
0.7674999,-2.382230758666992,-0.8810662031173706,9.813234329223633,-5.096435546875,-30.303955078125,26.824951171875
0.7724999,-1.5646108388900757,-0.9983820915222168,9.695320129394531,-13.12255859375,-30.57861328125,32.135009765625
0.7774999,-0.5829881429672241,-1.3036428689956665,9.834183692932129,-7.720947265625,-26.153564453125,35.09521484375
0.7824999,0.2950853705406189,-1.4969745874404907,9.895833969116211,15.533447265625,-20.32470703125,42.816162109375
0.7874999,0.943913996219635,-1.7058687210083008,9.665990829467773,17.608642578125,-4.638671875,41.748046875
0.7924999,1.2892776727676392,-1.1671733856201172,9.714473724365234,17.059326171875,6.072998046875,42.54150390625
0.7974999,1.690904974937439,-0.5949591398239136,9.81263542175293,6.805419921875,5.462646484375,19.8974609375
0.8024999,3.050212860107422,-0.414795458316803,9.758167266845703,26.702880859375,43.76220703125,-26.3671875
0.8074999,2.6868927478790283,-0.4644751250743866,9.768342971801758,9.552001953125,45.0439453125,-37.384033203125
0.8124999,0.2783259451389313,0.41718965768814087,9.732429504394531,-11.474609375,7.598876953125,-58.28857421875
0.8174999000000001,-1.1300631761550903,0.4668693244457245,9.59057331085205,-7.904052734375,-8.1787109375,-57.830810546875
0.8224999000000001,-2.3092074394226074,-0.30885201692581177,9.730634689331055,-19.10400390625,-19.47021484375,-17.9443359375
0.8274999000000001,-2.608482837677002,-0.4165911078453064,9.191938400268555,-18.37158203125,-19.10400390625,7.904052734375
0.8324999000000001,-2.5899276733398438,-0.788889467716217,9.876082420349121,-7.049560546875,-29.693603515625,23.8037109375
0.8374999,-1.9051860570907593,-0.4686649739742279,9.774328231811523,-12.0849609375,-33.355712890625,33.8134765625
0.8424999,-0.8529343605041504,-0.9941922426223755,9.841365814208984,-11.474609375,-26.123046875,29.23583984375
0.8474999,0.10055647045373917,-1.0187327861785889,9.935338973999023,11.962890625,-20.93505859375,39.55078125
0.8524999,0.9014169573783875,-1.592742681503296,9.729436874389648,15.228271484375,-6.65283203125,39.093017578125
0.8574999,1.2503718137741089,-1.2360066175460815,9.713874816894531,15.167236328125,3.753662109375,41.839599609375
0.8624999,1.6573861837387085,-0.7338228225708008,9.801262855529785,9.246826171875,5.06591796875,27.099609375
0.8674999,2.072181463241577,-0.15322890877723694,9.849146842956543,-1.678466796875,3.997802734375,-4.7607421875
0.8724999,1.9045875072479248,-0.3100491166114807,9.837775230407715,-1.8310546875,33.294677734375,-39.36767578125
0.8774999,0.6290764808654785,0.2753331959247589,9.712677955627441,-9.70458984375,12.3291015625,-51.025390625
0.8824999,-0.7924807667732239,0.07781155407428741,9.750386238098145,-9.21630859375,-5.157470703125,-59.9365234375
0.8874999,-1.987187385559082,0.06344634294509888,9.78869342803955,-12.420654296875,-15.80810546875,-26.641845703125
0.8924999,-2.5468320846557617,-0.7487865686416626,9.394847869873047,-18.85986328125,-17.822265625,2.655029296875
0.8974999,-2.5121161937713623,-0.5614402890205383,9.728240013122559,-9.246826171875,-24.90234375,17.76123046875
0.9024999,-2.1152772903442383,-0.3519476354122162,9.700706481933594,-9.1552734375,-31.890869140625,32.806396484375
0.9074999,-1.0875661373138428,-0.8595184087753296,9.780313491821289,-11.993408203125,-28.106689453125,29.266357421875
0.9124999,-0.16220717132091522,-0.7661445140838623,9.82640266418457,2.44140625,-21.54541015625,31.524658203125
0.9174999,0.7547720670700073,-1.3730746507644653,9.819219589233398,14.251708984375,-10.223388671875,32.77587890625
0.9224999,1.6166846752166748,-0.821809709072113,9.800065994262695,11.810302734375,4.180908203125,27.89306640625
0.9274999,1.9626468420028687,-0.35673606395721436,9.838373184204102,0.6103515625,4.608154296875,1.5869140625
0.9324999,2.3050177097320557,-0.10295066982507706,9.899425506591797,-1.15966796875,13.61083984375,-18.24951171875
0.9374999,2.5941176414489746,-0.6129156351089478,9.75278091430664,16.876220703125,31.402587890625,-16.2353515625
0.9424999000000001,2.667739152908325,-0.6428431272506714,9.716867446899414,22.15576171875,40.58837890625,-32.958984375
0.9474999000000001,1.968033790588379,-0.5500678420066833,9.765948295593262,4.45556640625,36.224365234375,-39.459228515625
0.9524999000000001,0.9253589510917664,0.035913024097681046,9.75397777557373,-7.75146484375,19.622802734375,-35.980224609375
0.9574999000000001,-0.3519476354122162,0.26575639843940735,9.679757118225098,-10.894775390625,0.762939453125,-53.253173828125
0.9624999,-1.5741876363754272,0.5009866952896118,9.659406661987305,-6.256103515625,-12.908935546875,-37.994384765625
0.9674999,-2.3792378902435303,-0.38905778527259827,9.517550468444824,-19.927978515625,-19.22607421875,-0.8544921875
0.9724999,-2.364274263381958,-0.38307225704193115,9.410409927368164,-15.838623046875,-21.8505859375,13.214111328125
0.9774999,-2.2014684677124023,-0.7721300721168518,9.765948295593262,-7.32421875,-29.052734375,25.634765625
0.9824999,-0.4704606235027313,-1.127070426940918,9.80904483795166,-6.744384765625,-26.092529296875,32.40966796875
0.9874999,0.40521863102912903,-1.2210428714752197,9.948506355285645,13.458251953125,-16.17431640625,35.247802734375
0.9924999,0.9558850526809692,-1.423951506614685,9.709086418151855,11.1083984375,-3.326416015625,35.125732421875
0.9974999,1.2958617210388184,-0.9187749028205872,9.786299705505371,14.22119140625,2.960205078125,39.215087890625
1.0024999,1.679532527923584,-0.4854243993759155,9.823410034179688,5.9814453125,5.157470703125,19.989013671875
1.0074999000000002,2.0901381969451904,-0.04369417950510979,9.822811126708984,-2.74658203125,5.18798828125,-10.467529296875
1.0124999000000001,2.5061306953430176,-0.2561795711517334,9.837775230407715,5.706787109375,22.247314453125,-19.012451171875
1.0174999000000002,2.8185739517211914,-0.6751648783683777,9.657610893249512,23.284912109375,38.6962890625,-23.01025390625
1.0224999000000001,2.540846586227417,-0.6224924325942993,9.706093788146973,14.556884765625,41.50390625,-41.8701171875
1.0274999,1.5592238903045654,-0.3423708379268646,9.789292335510254,-2.044677734375,29.876708984375,-32.5927734375
1.0324999000000001,0.3172317147254944,0.10833762586116791,9.702502250671387,-9.6435546875,10.19287109375,-41.9921875
1.0374999,-2.072181463241577,-0.07242459803819656,9.885659217834473,-14.0380859375,-17.27294921875,-16.815185546875
1.0424999000000001,-2.3774423599243164,-0.6967126727104187,9.494206428527832,-17.63916015625,-16.29638671875,7.8125
1.0474999,-2.232593059539795,-0.6530185341835022,9.946710586547852,-9.1552734375,-24.96337890625,17.333984375
1.0524999000000002,-1.7142484188079834,-0.3172317147254944,9.860519409179688,-7.293701171875,-27.9541015625,32.379150390625
1.0574999,-0.7835025191307068,-0.8888474106788635,9.830592155456543,-10.986328125,-26.9775390625,29.754638671875
1.0624999000000002,0.008978256024420261,-0.6859387755393982,9.835380554199219,4.974365234375,-20.721435546875,31.158447265625
1.0674999,0.7428010702133179,-1.3126211166381836,9.719860076904297,12.75634765625,-9.979248046875,32.1044921875
1.0724999000000002,1.07379949092865,-1.1605892181396484,9.670180320739746,11.3525390625,-0.732421875,34.85107421875
1.0774999,1.4646528959274292,-0.730231523513794,9.750985145568848,11.23046875,4.8828125,30.364990234375
1.0824999000000002,1.833359956741333,-0.32860419154167175,9.80904483795166,-0.42724609375,4.058837890625,1.708984375
1.0874999,2.2685060501098633,-0.09397241473197937,9.882067680358887,-1.312255859375,13.153076171875,-18.49365234375
1.0924999000000002,2.0057425498962402,-0.6123170852661133,9.77253246307373,4.57763671875,36.0107421875,-38.818359375
1.0974999,2.0057425498962402,-0.6123170852661133,9.77253246307373,4.57763671875,36.0107421875,-38.818359375
1.1024999000000002,0.9169792532920837,0.015562310814857483,9.762955665588379,-7.2021484375,19.989013671875,-34.0576171875
1.1074999,-0.3800795078277588,0.24779987335205078,9.697713851928711,-10.80322265625,-0.274658203125,-50.994873046875
1.1124999000000002,-1.5454572439193726,0.5734112858772278,9.567230224609375,-5.43212890625,-13.3056640625,-36.43798828125
1.1174999,-2.3361423015594482,-0.40282443165779114,9.545083999633789,-18.798828125,-17.7001953125,0
1.1224999000000002,-2.0614075660705566,-0.8487445116043091,9.818022727966309,-6.378173828125,-26.79443359375,24.2919921875
1.1274999,-2.0614075660705566,-0.8487445116043091,9.818022727966309,-6.378173828125,-26.79443359375,24.2919921875
1.1324999000000002,-1.2623428106307983,-0.9876081943511963,9.856928825378418,-8.97216796875,-28.38134765625,35.369873046875
1.1374999000000001,-0.4405331015586853,-1.193509578704834,9.874884605407715,-6.561279296875,-25.360107421875,29.449462890625
1.1424999000000002,0.35733461380004883,-1.278503656387329,10.002376556396484,13.61083984375,-15.472412109375,34.454345703125
1.1474999000000001,0.8870517015457153,-1.40180504322052,9.767146110534668,10.009765625,-3.84521484375,34.027099609375
1.1524999000000002,2.0620062351226807,-0.028131870552897453,9.824606895446777,-2.044677734375,5.43212890625,-9.8876953125
1.1574999000000001,2.5121161937713623,-0.2172738015651703,9.834183692932129,6.77490234375,22.5830078125,-19.34814453125
1.1624999,2.8598740100860596,-0.6590040326118469,9.671976089477539,23.4375,40.008544921875,-23.49853515625
1.1674999000000001,2.5965118408203125,-0.5997475385665894,9.706093788146973,14.892578125,42.29736328125,-41.015625
1.1724999,1.6316484212875366,-0.4106055796146393,9.766547203063965,-0.8544921875,30.3955078125,-33.50830078125
1.1774999000000002,0.39803603291511536,0.08798690885305405,9.678560256958008,-8.087158203125,10.101318359375,-43.701171875
1.1824999,-0.9648633003234863,-0.10055647045373917,9.685144424438477,-7.659912109375,-8.7890625,-52.032470703125
1.1874999000000002,-2.010530948638916,0.03770867735147476,9.820416450500488,-7.6904296875,-13.885498046875,-17.9443359375
1.1924999,-2.4917654991149902,-0.7026981711387634,9.542689323425293,-18.1884765625,-16.876220703125,6.561279296875
1.1974999000000002,-2.343923568725586,-0.48722004890441895,9.889249801635742,-12.5732421875,-25.482177734375,15.655517578125
1.2024999,-1.920149803161621,-0.04908113554120064,9.920374870300293,-6.011962890625,-28.99169921875,30.57861328125
1.2074999000000002,1.1216834783554077,-1.2288240194320679,9.768342971801758,7.659912109375,-1.251220703125,29.266357421875
1.2124999,1.4742296934127808,-0.8271966576576233,9.759963035583496,9.46044921875,2.86865234375,27.618408203125
1.2174999000000002,1.777694821357727,-0.4926069974899292,9.801262855529785,2.105712890625,4.547119140625,8.48388671875
1.2224999,2.1936872005462646,-0.09397241473197937,9.801861763000488,-0.457763671875,9.46044921875,-15.0146484375
1.2274999000000002,2.474407434463501,-0.497395396232605,9.750985145568848,10.31494140625,26.9775390625,-19.500732421875
1.2324999,2.650381326675415,-0.71766197681427,9.678560256958008,20.172119140625,39.00146484375,-29.72412109375
1.2374999000000002,2.122459888458252,-0.5770025849342346,9.733627319335938,9.918212890625,37.872314453125,-38.2080078125
1.2424999,1.0642226934432983,-0.2932897210121155,9.780912399291992,-3.47900390625,24.10888671875,-27.34375
1.2474999000000002,-0.16101007163524628,0.04967968538403511,9.671378135681152,-9.82666015625,2.5634765625,-44.49462890625
1.2524999,-1.3317747116088867,0.14664486050605774,9.612719535827637,-5.767822265625,-12.420654296875,-41.778564453125
1.2574999000000002,-2.229001760482788,-0.46806642413139343,9.440337181091309,-18.035888671875,-18.06640625,10.43701171875
1.2624999000000001,-1.9937714338302612,-0.8038532137870789,10.013150215148926,-9.3994140625,-25.634765625,16.66259765625
1.2674999000000002,-1.404199242591858,-0.24241292476654053,9.922768592834473,-7.14111328125,-27.28271484375,34.5458984375
1.2724999000000001,-0.5285200476646423,-0.9074024558067322,9.8970308303833,-10.6201171875,-26.0009765625,26.85546875
1.2774999000000002,0.22924481332302094,-0.6458359360694885,9.989208221435547,7.26318359375,-18.646240234375,30.487060546875
1.2824999000000001,0.8337807655334473,-1.2641384601593018,9.786299705505371,9.429931640625,-8.941650390625,30.45654296875
1.2874999,1.1150994300842285,-1.0672154426574707,9.75637149810791,10.8642578125,-0.091552734375,33.63037109375
1.2924999000000001,1.470638394355774,-0.718859076499939,9.780313491821289,9.918212890625,6.103515625,27.2216796875
1.2974999,1.7842788696289062,-0.4225766062736511,9.783307075500488,-0.885009765625,3.875732421875,0.213623046875
1.3024999000000002,2.254140853881836,-0.12749123573303223,9.822212219238281,0.274658203125,13.7939453125,-18.585205078125
1.3074999,2.5073277950286865,-0.7260416746139526,9.734225273132324,14.6484375,31.036376953125,-17.76123046875
1.3124999000000002,2.608482837677002,-0.7829039692878723,9.707889556884766,20.416259765625,39.337158203125,-32.928466796875
1.3174999,0.8463503122329712,-0.1843535304069519,9.797672271728516,-6.011962890625,19.989013671875,-31.036376953125
1.3224999000000002,-0.3770867586135864,0.07960720360279083,9.654618263244629,-9.490966796875,-0.701904296875,-46.9970703125
1.3274999,-1.5418659448623657,0.4387374520301819,9.624691009521484,-5.096435546875,-13.397216796875,-34.24072265625
1.3324999000000002,-2.299630641937256,-0.3968389332294464,9.560047149658203,-17.39501953125,-17.63916015625,1.89208984375
1.3374999,-2.1571757793426514,-0.3172317147254944,9.494206428527832,-15.7470703125,-20.08056640625,11.04736328125
1.3424999000000002,-1.9722236394882202,-0.8152256608009338,9.8599214553833,-7.38525390625,-24.993896484375,23.25439453125
1.3474999,-1.1558008193969727,-0.7206547260284424,9.95090103149414,-9.002685546875,-27.984619140625,35.186767578125
1.3524999000000002,-0.38905778527259827,-1.1162965297698975,9.897629737854004,-6.866455078125,-25.146484375,28.839111328125
1.3574999,0.36990416049957275,-1.026513934135437,9.999981880187988,10.68115234375,-15.80810546875,29.47998046875
1.3624999000000002,1.5867571830749512,-0.4818331003189087,9.7605619430542,1.03759765625,31.55517578125,-36.224365234375
1.3674999,0.4878185987472534,0.004189853090792894,9.736021041870117,-8.148193359375,13.671875,-34.515380859375
1.3724999000000002,-0.7499836683273315,-0.048482585698366165,9.677961349487305,-8.331298828125,-5.06591796875,-47.943115234375
1.3774999,-1.8584990501403809,0.1562216579914093,9.834781646728516,-9.765625,-15.44189453125,-21.42333984375
1.3824999000000002,-2.3499090671539307,-0.6350619792938232,9.46487808227539,-16.510009765625,-16.387939453125,7.537841796875
1.3874999000000001,-2.1140801906585693,-0.4010287821292877,9.804255485534668,-11.3525390625,-22.52197265625,14.007568359375
1.3924999000000002,-1.7597382068634033,-0.5919663906097412,9.754576683044434,-9.185791015625,-26.153564453125,29.23583984375
1.3974999000000001,-0.8469488620758057,-0.8966285586357117,9.897629737854004,-8.209228515625,-28.3203125,35.552978515625
1.4024999000000002,-0.11192893236875534,-0.9750386476516724,9.795876502990723,0.030517578125,-22.52197265625,30.2734375
1.4074999000000001,1.3772644996643066,-0.6853402256965637,9.761758804321289,13.336181640625,5.859375,32.379150390625
1.4124999,1.7178397178649902,-0.3076549172401428,9.84495735168457,2.593994140625,4.82177734375,10.162353515625
1.4174999000000001,2.1356279850006104,-0.03411737456917763,9.790489196777344,-2.410888671875,8.331298828125,-16.876220703125
1.4224999,2.410362482070923,-0.2561795711517334,9.88386344909668,8.209228515625,25.970458984375,-17.486572265625
1.4274999000000002,2.564788579940796,-0.7386112213134766,9.64923095703125,20.965576171875,36.834716796875,-23.101806640625
1.4324999,2.2224178314208984,-0.6105214357376099,9.729436874389648,12.26806640625,37.41455078125,-44.49462890625
1.4374999000000002,1.1976994276046753,-0.38546648621559143,9.73661994934082,-2.5634765625,25.665283203125,-33.294677734375
1.4424999,-2.1475989818573,-0.353743314743042,9.777320861816406,-13.885498046875,-17.669677734375,-6.317138671875
1.4474999000000002,-2.324171304702759,-0.32022446393966675,9.375694274902344,-15.594482421875,-17.9443359375,10.040283203125
1.4524999,-0.6685808300971985,-0.8194155097007751,9.99100399017334,-6.927490234375,-27.52685546875,32.196044921875
1.4574999000000002,0.12749123573303223,-0.6290764808654785,10.046669006347656,8.026123046875,-18.585205078125,30.548095703125
1.4624999,0.7882909178733826,-1.1959037780761719,9.835979461669922,7.62939453125,-7.354736328125,29.388427734375
1.4674999000000002,1.1420341730117798,-0.9953893423080444,9.803058624267578,11.16943359375,1.708984375,36.041259765625
1.4724999,1.5083470344543457,-0.6715735793113708,9.797672271728516,9.58251953125,6.256103515625,28.289794921875
1.4774999000000002,1.8417396545410156,-0.3687070608139038,9.786897659301758,-0.823974609375,3.2958984375,0.67138671875
1.4824999,2.2607250213623047,-0.13706804811954498,9.780313491821289,-0.396728515625,13.5498046875,-19.866943359375
1.4874999000000002,2.4630351066589355,-0.6500257849693298,9.725846290588379,14.22119140625,29.96826171875,-15.68603515625
1.4924999,2.5695769786834717,-0.7858967185020447,9.649829864501953,19.622802734375,38.0859375,-30.975341796875
1.4974999000000002,1.932719349861145,-0.6344634294509888,9.757569313049316,5.706787109375,34.820556640625,-43.02978515625
1.5024999,-0.31842881441116333,-0.015562310814857483,9.671378135681152,-8.4228515625,0.67138671875,-44.3115234375
1.5074999000000002,-1.5173252820968628,0.3363853394985199,9.61571216583252,-4.8828125,-12.908935546875,-31.585693359375
1.5124999000000001,-2.27209734916687,-0.284311443567276,9.588777542114258,-15.716552734375,-18.12744140625,3.021240234375
1.5174999000000002,-2.206855535507202,-0.15263035893440247,9.553462982177734,-16.082763671875,-20.782470703125,10.7421875
1.5224999000000001,-2.0213048458099365,-0.579995334148407,9.911396026611328,-10.3759765625,-25.665283203125,23.5595703125
1.5274999000000002,-1.237802267074585,-0.6218938827514648,9.999382972717285,-10.223388671875,-29.266357421875,34.1796875
1.5324999000000001,-0.47644615173339844,-0.9923965930938721,9.946710586547852,-3.448486328125,-26.336669921875,32.684326171875
1.5374999000000003,0.32441434264183044,-1.0414776802062988,9.99459457397461,9.8876953125,-15.655517578125,32.16552734375
1.5424999000000001,0.8870517015457153,-1.1408370733261108,9.768941879272461,7.537841796875,-3.753662109375,31.43310546875
1.5474999,1.2485761642456055,-0.767341673374176,9.794678688049316,12.75634765625,4.2724609375,37.567138671875
1.5524999000000002,1.5693992376327515,-0.4118026793003082,9.834781646728516,6.561279296875,5.7373046875,22.613525390625
1.5574999,1.920149803161621,-0.21428105235099792,9.768941879272461,-2.777099609375,3.387451171875,-7.232666015625
1.5624999000000002,2.5145103931427,-0.8254010081291199,9.670180320739746,18.157958984375,32.71484375,-16.021728515625
1.5674999,2.499546527862549,-0.8289923667907715,9.68933391571045,16.7236328125,38.51318359375,-37.7197265625
1.5724999000000002,1.7298107147216797,-0.6141127347946167,9.764153480529785,1.678466796875,32.928466796875,-40.52734375
1.5774999,0.6488286852836609,-0.21368250250816345,9.689932823181152,-6.256103515625,15.777587890625,-33.203125
1.5824999000000002,-0.6057330369949341,-0.17657238245010376,9.667786598205566,-6.561279296875,-3.570556640625,-43.51806640625
1.5874999,-1.7998411655426025,0.11851298063993454,9.84615421295166,-8.1787109375,-15.289306640625,-19.83642578125
1.5924999000000002,-2.2900538444519043,-0.3016694188117981,9.607931137084961,-14.404296875,-16.4794921875,5.79833984375
1.5974999,-2.2463598251342773,0.04189852997660637,9.944915771484375,-13.61083984375,-23.01025390625,14.129638671875
1.6024999000000002,-1.8471266031265259,-0.07541735470294952,9.983222961425781,-12.481689453125,-28.228759765625,29.693603515625
1.6074999,-1.0001777410507202,-0.5057750940322876,10.012551307678223,-9.58251953125,-29.96826171875,33.38623046875
1.6124999000000002,-0.22625206410884857,-0.8170213103294373,9.915586471557617,3.204345703125,-23.345947265625,33.5693359375
1.6174999,0.6063315868377686,-1.2767080068588257,9.847949981689453,9.735107421875,-10.589599609375,28.900146484375
1.6224999000000002,1.4772224426269531,-0.7050924301147461,9.722254753112793,11.932373046875,6.134033203125,30.914306640625
1.6274999,1.7573440074920654,-0.3519476354122162,9.77672290802002,2.777099609375,4.39453125,9.368896484375
1.6324999000000002,1.7573440074920654,-0.3519476354122162,9.77672290802002,2.777099609375,4.39453125,9.368896484375
1.6374999000000001,2.0829553604125977,-0.18315643072128296,9.750386238098145,-2.3193359375,7.354736328125,-15.838623046875
1.6424999000000002,2.2918496131896973,-0.29149407148361206,9.849745750427246,7.537841796875,23.284912109375,-16.6015625
1.6474999000000001,2.4163479804992676,-0.8110358119010925,9.633070945739746,19.1650390625,34.24072265625,-21.05712890625
1.6524999000000002,2.188300371170044,-0.6416460275650024,9.738415718078613,11.90185546875,37.384033203125,-47.271728515625
1.6574999000000001,1.2994530200958252,-0.45669397711753845,9.754576683044434,-1.46484375,26.9775390625,-36.468505859375
1.6624999000000003,0.2717418968677521,-0.19153612852096558,9.66419506072998,-6.8359375,9.765625,-36.0107421875
1.6674999000000001,-0.9307458996772766,0.14664486050605774,9.546280860900879,-4.94384765625,-8.148193359375,-38.726806640625
1.6724999,-1.9764134883880615,-0.25498247146606445,9.825803756713867,-13.031005859375,-16.9677734375,-9.765625
1.6774999000000002,-2.2643163204193115,-0.03172317147254944,9.457097053527832,-13.641357421875,-16.876220703125,9.033203125
1.6824999,-1.6478092670440674,-0.0065840547904372215,10.070012092590332,-14.129638671875,-30.517578125,31.036376953125
1.6874999000000002,-0.8212111592292786,-0.4644751250743866,10.105925559997559,-5.523681640625,-29.60205078125,34.027099609375
1.6924999,0.05386953800916672,-0.7080851793289185,10.095151901245117,7.415771484375,-18.9208984375,30.731201171875
1.6974999000000002,0.8343793153762817,-1.2096704244613647,9.849745750427246,8.30078125,-6.103515625,28.228759765625
1.7024999,1.246780514717102,-1.1426327228546143,9.789292335510254,11.41357421875,2.74658203125,35.614013671875
1.7074999000000002,1.6095020771026611,-0.8062474131584167,9.767744064331055,10.009765625,6.805419921875,26.519775390625
1.7124999,1.8543092012405396,-0.4854243993759155,9.752182006835938,-0.030517578125,3.692626953125,0.30517578125
1.7174999000000002,2.1799206733703613,-0.2322375625371933,9.79647445678711,-0.1220703125,12.14599609375,-18.402099609375
1.7224999,2.3253684043884277,-0.5488707423210144,9.758766174316406,11.871337890625,27.4658203125,-14.58740234375
1.7274999000000002,2.432508945465088,-0.7870938181877136,9.684545516967773,18.4326171875,36.68212890625,-31.79931640625
1.7324999,1.9249382019042969,-0.5877765417098999,9.782708168029785,7.14111328125,35.491943359375,-47.36328125
1.7374999000000002,0.9666589498519897,-0.3998316824436188,9.75397777557373,-3.753662109375,21.6064453125,-30.792236328125
1.7424999,-1.3628993034362793,0.1933317929506302,9.765350341796875,-5.126953125,-12.359619140625,-29.754638671875
1.7474999000000002,-2.142810583114624,-0.06763619929552078,9.660005569458008,-15.0146484375,-15.899658203125,-1.007080078125
1.7524999,-2.2828712463378906,0.17238251864910126,9.789292335510254,-14.312744140625,-20.294189453125,12.63427734375
1.7574999000000002,-2.139219284057617,-0.025737667456269264,10.01075553894043,-11.65771484375,-27.4658203125,25.238037109375
1.7624999000000001,1.92134690284729,-0.21009120345115662,9.737217903137207,-1.5869140625,3.60107421875,-4.730224609375
1.7674999000000002,2.2828712463378906,0.008379706181585789,9.823410034179688,2.38037109375,15.350341796875,-18.524169921875
1.7724999000000001,-0.4279635548591614,-0.5249287486076355,9.646238327026367,-5.126953125,-1.77001953125,-38.75732421875
1.7774999000000002,-1.6442179679870605,0.026336219161748886,9.853337287902832,-10.589599609375,-14.617919921875,-21.17919921875
1.7824999000000001,-2.2595279216766357,-0.15143325924873352,9.654618263244629,-15.19775390625,-15.716552734375,1.3427734375
1.7874999000000003,-2.32297420501709,0.3531447649002075,9.979631423950195,-13.671875,-23.86474609375,15.44189453125
1.7924999000000001,-1.9913772344589233,0.1346738487482071,9.960477828979492,-13.580322265625,-28.4423828125,26.9775390625
1.7974999,-1.1318588256835938,-0.22266076505184174,10.011953353881836,-9.765625,-29.96826171875,32.135009765625
1.8024999000000002,-0.27413609623908997,-0.6949170231819153,9.86650562286377,-1.312255859375,-23.25439453125,27.801513671875
1.8074999,0.6171054840087891,-1.206079125404358,9.853337287902832,8.758544921875,-12.39013671875,25.08544921875
1.8124999000000002,1.1534066200256348,-1.2300211191177368,9.63187313079834,9.429931640625,-2.655029296875,30.120849609375
1.8174999,2.013523578643799,-0.3130418658256531,9.730634689331055,-1.739501953125,6.439208984375,-12.359619140625
1.8224999000000002,2.230198860168457,-0.043095629662275314,9.854534149169922,5.584716796875,20.81298828125,-16.41845703125
1.8274999,2.279878616333008,-0.5333084464073181,9.727641105651855,10.589599609375,30.792236328125,-19.744873046875
1.8324999000000002,2.118269920349121,-0.6404489278793335,9.77672290802002,14.617919921875,38.116455078125,-45.654296875
1.8374999,1.446696400642395,-0.579995334148407,9.739013671875,7.080078125,30.2734375,-44.464111328125
1.8424999000000002,-0.5213374495506287,-0.30226796865463257,9.607333183288574,-5.035400390625,-3.72314453125,-36.07177734375
1.8474999,-1.6765397787094116,-0.2064998894929886,9.876082420349121,-13.12255859375,-14.801025390625,-16.387939453125
1.8524999000000002,-2.184709072113037,0.07661445438861847,9.580398559570312,-12.939453125,-15.380859375,4.2724609375
1.8574999,-2.337339401245117,0.11971008777618408,10.065223693847656,-10.955810546875,-24.566650390625,19.378662109375
1.8624999000000002,-1.1007342338562012,-0.20290859043598175,10.02691650390625,-8.30078125,-30.548095703125,31.463623046875
1.8674999,-0.19812019169330597,-0.5578489899635315,9.970054626464844,2.86865234375,-21.05712890625,26.336669921875
1.8724999000000002,0.6667851805686951,-1.1887211799621582,9.856928825378418,8.148193359375,-9.94873046875,25.909423828125
1.8774999,1.1629834175109863,-1.1982979774475098,9.746794700622559,9.674072265625,-0.579833984375,34.027099609375
1.8824999000000002,1.5275006294250488,-0.9151836037635803,9.746794700622559,11.871337890625,6.805419921875,31.43310546875
1.8874999000000001,1.7363947629928589,-0.5500678420066833,9.765350341796875,2.655029296875,4.608154296875,9.552001953125
1.8924999000000002,2.0213048458099365,-0.23702596127986908,9.75936508178711,-1.617431640625,6.2255859375,-13.85498046875
1.8974999000000001,2.2146365642547607,-0.016759412363171577,9.813234329223633,6.256103515625,21.514892578125,-16.05224609375
1.9024999000000002,2.2577321529388428,-0.5991489887237549,9.66539192199707,10.43701171875,31.25,-23.0712890625
1.9074999000000001,2.0841526985168457,-0.5446808934211731,9.764153480529785,12.908935546875,37.53662109375,-47.210693359375
1.9124999000000003,1.3006501197814941,-0.6093243360519409,9.695918083190918,5.340576171875,27.89306640625,-36.31591796875
1.9174999000000001,0.3974374830722809,-0.6111199855804443,9.697713851928711,-3.570556640625,10.711669921875,-29.296875
1.9224999,1.2336124181747437,-1.1438298225402832,9.775525093078613,10.467529296875,-0.335693359375,29.6630859375
1.9274999000000002,1.5658079385757446,-0.8451532125473022,9.754576683044434,11.5966796875,7.476806640625,25.299072265625
1.9324999,1.7387889623641968,-0.5099649429321289,9.731232643127441,1.556396484375,4.119873046875,3.173828125
1.9374999000000002,1.9620482921600342,-0.1801636815071106,9.755773544311523,-1.007080078125,8.36181640625,-15.625
1.9424999,2.0638017654418945,0.01975216343998909,9.803058624267578,6.4697265625,21.820068359375,-14.739990234375
1.9474999000000002,1.8399440050125122,-0.45908817648887634,9.782708168029785,11.444091796875,35.858154296875,-48.187255859375
1.9524999,1.0564415454864502,-0.608127236366272,9.685144424438477,4.08935546875,25.390625,-33.447265625
1.9574999000000002,0.23702596127986908,-0.6386532783508301,9.716269493103027,-3.90625,7.9345703125,-27.03857421875
1.9624999,-0.8242039084434509,0.020949264988303185,9.765350341796875,-6.89697265625,-7.2021484375,-27.313232421875
1.9674999000000002,-1.7423802614212036,-0.12868833541870117,9.797672271728516,-15.07568359375,-13.48876953125,-6.500244140625
1.9724999,-1.9961656332015991,0.3076549172401428,9.807847023010254,-12.176513671875,-17.39501953125,8.941650390625
1.9774999000000002,-2.0147206783294678,0.004788403399288654,10.035296440124512,-10.3759765625,-24.23095703125,24.2919921875
1.9824999,-1.4113819599151611,0.06524199992418289,9.985017776489258,-14.312744140625,-29.571533203125,31.31103515625
1.9874999000000002,-0.6865373253822327,-0.5153518915176392,9.999981880187988,-3.35693359375,-27.740478515625,31.67724609375
1.9924999,0.14365209639072418,-0.7320271730422974,9.901819229125977,4.730224609375,-16.54052734375,21.697998046875
1.9974999000000002,0.8349778652191162,-1.2216414213180542,9.742006301879883,9.21630859375,-7.598876953125,26.3671875
2.0024999,1.2515689134597778,-1.1767501831054688,9.684545516967773,13.397216796875,3.41796875,33.38623046875
2.0074999,1.7693150043487549,-0.49799394607543945,9.738415718078613,-0.244140625,3.2958984375,-2.0751953125
2.0124999000000003,2.056619167327881,-0.11671733111143112,9.844358444213867,0.48828125,11.993408203125,-17.242431640625
2.0174999000000002,2.211045265197754,-0.23283611238002777,9.867103576660156,7.965087890625,25.81787109375,-16.082763671875
2.0224999,2.188898801803589,-0.657806932926178,9.718064308166504,13.946533203125,34.1796875,-32.135009765625
2.0274999,1.866280198097229,-0.5333084464073181,9.82759952545166,10.955810546875,36.102294921875,-49.25537109375
2.0324999000000004,0.9169792532920837,-0.6254851818084717,9.686341285705566,0,20.538330078125,-30.792236328125
2.0374999000000003,-0.008978256024420261,-0.5309142470359802,9.643245697021484,-5.523681640625,3.47900390625,-34.637451171875
2.0424999,-1.2168530225753784,0.0077811554074287415,9.809642791748047,-7.01904296875,-9.94873046875,-25.909423828125
2.0474999,-2.0183119773864746,-0.07781155407428741,9.652822494506836,-14.404296875,-14.495849609375,-0.946044921875
2.0524999,-2.2260091304779053,0.30526071786880493,9.909601211547852,-12.26806640625,-20.538330078125,11.749267578125
2.0574999000000003,-2.1368250846862793,0.06703764945268631,9.929352760314941,-12.298583984375,-26.4892578125,26.55029296875
2.0624999,-1.367687702178955,-0.020949264988303185,10.047865867614746,-11.71875,-30.975341796875,32.958984375
2.0674999,1.0019733905792236,-1.1037269830703735,9.764153480529785,7.38525390625,-4.150390625,29.72412109375
2.0724999,1.4131776094436646,-0.9056068062782288,9.762357711791992,12.908935546875,5.157470703125,34.423828125
2.0774999000000003,1.6687586307525635,-0.6117185354232788,9.793481826782227,6.591796875,6.439208984375,17.88330078125
2.0824999,1.8830395936965942,-0.33937808871269226,9.741408348083496,-1.556396484375,2.9296875,-7.01904296875
2.0874999,2.145803213119507,-0.06524199992418289,9.822811126708984,2.9296875,15.5029296875,-17.852783203125
2.0924999,2.2379801273345947,-0.4578910768032074,9.746794700622559,8.9111328125,27.89306640625,-18.096923828125
2.0974999000000003,2.1745336055755615,-0.7086837291717529,9.699509620666504,14.068603515625,35.736083984375,-38.39111328125
2.1024999,1.6310498714447021,-0.6027402877807617,9.751583099365234,8.392333984375,33.233642578125,-44.921875
2.1074999,0.6512228846549988,-0.6542156338691711,9.677961349487305,-2.288818359375,15.960693359375,-27.16064453125
2.1124999,-0.33039984107017517,-0.535702645778656,9.609128952026367,-5.706787109375,-0.885009765625,-34.912109375
2.1174999000000003,-1.4814122915267944,0.002992752008140087,9.88386344909668,-10.162353515625,-12.298583984375,-19.378662109375
2.1224999,-2.1481974124908447,0.292691171169281,10.022727012634277,-10.772705078125,-21.17919921875,14.373779296875
2.1274999,-1.9141643047332764,0.0071826050989329815,9.913790702819824,-13.73291015625,-27.191162109375,29.47998046875
2.1324999,-1.1294646263122559,-0.20231004059314728,10.008959770202637,-9.246826171875,-30.181884765625,32.196044921875
2.1374999000000003,-0.35673606395721436,-0.7236474752426147,9.876082420349121,-0.152587890625,-22.369384765625,25.909423828125
2.1424999000000002,0.49799394607543945,-1.1079168319702148,9.852738380432129,7.8125,-11.962890625,23.529052734375
2.1474999,1.070208191871643,-1.1198878288269043,9.691728591918945,8.697509765625,-2.960205078125,30.029296875
2.1524999,1.4538789987564087,-0.8637082576751709,9.724050521850586,13.580322265625,7.110595703125,31.280517578125
2.1574999000000004,1.6825252771377563,-0.5117605924606323,9.749189376831055,4.486083984375,5.18798828125,12.481689453125
2.1624999000000003,2.0823569297790527,-0.5793967843055725,9.77133560180664,13.61083984375,36.834716796875,-44.281005859375
2.1674999,-1.6388310194015503,-0.27054479718208313,9.819818496704102,-14.70947265625,-13.946533203125,-14.251708984375
2.1724999,-2.0248961448669434,0.1173158809542656,9.440936088562012,-12.664794921875,-14.007568359375,3.814697265625
2.1774999000000004,-2.16495680809021,-0.10654197633266449,10.109517097473145,-9.002685546875,-22.0947265625,21.484375
2.1824999000000003,-1.7489643096923828,-0.2711433470249176,10.00955867767334,-16.05224609375,-29.1748046875,30.029296875
2.1874999,-0.9798270463943481,-0.33279404044151306,10.202890396118164,-5.18798828125,-29.47998046875,32.318115234375
2.1924999,-0.14844051003456116,-0.8942343592643738,10.031704902648926,0.3662109375,-19.744873046875,22.03369140625
2.1974999,0.7003039717674255,-1.0869675874710083,9.91738224029541,7.8125,-10.55908203125,21.514892578125
2.2024999000000003,1.2539631128311157,-1.161187767982483,9.724050521850586,12.3291015625,-0.42724609375,29.693603515625
2.2074999,1.591545581817627,-0.884058952331543,9.726444244384766,13.18359375,8.60595703125,25.482177734375
2.2124999,2.0404584407806396,-0.46746787428855896,9.70429801940918,9.21630859375,28.900146484375,-22.674560546875
2.2174999,2.0404584407806396,-0.46746787428855896,9.70429801940918,9.21630859375,28.900146484375,-22.674560546875
2.2224999000000003,1.8620903491973877,-0.4495113790035248,9.82759952545166,11.962890625,36.7431640625,-50.59814453125
2.2274999,1.113303780555725,-0.6302735805511475,9.68813705444336,3.96728515625,25.146484375,-38.909912109375
2.2324999,0.3148375153541565,-0.6913257241249084,9.676764488220215,-3.90625,8.148193359375,-28.839111328125
2.2374999,-0.7978677153587341,-0.09397241473197937,9.798270225524902,-7.6904296875,-5.67626953125,-28.228759765625
2.2424999000000003,-1.5095441341400146,0.076015904545784,9.925163269042969,-16.143798828125,-30.914306640625,30.426025390625
2.2474999,0.9229647517204285,-1.1761516332626343,9.713874816894531,10.07080078125,-7.99560546875,28.38134765625
2.2524999,0.9229647517204285,-1.1761516332626343,9.713874816894531,10.07080078125,-7.99560546875,28.38134765625
2.2574999,1.3652935028076172,-1.236605167388916,9.640851974487305,14.862060546875,4.638671875,34.271240234375
2.2624999000000003,1.6059107780456543,-0.8984242081642151,9.684545516967773,11.627197265625,8.514404296875,23.529052734375
2.2674999000000002,1.7920600175857544,-0.5147533416748047,9.733627319335938,0.48828125,3.2958984375,-1.220703125
2.2724999,2.0147206783294678,-0.16220717132091522,9.822811126708984,-1.03759765625,10.711669921875,-18.524169921875
2.2774999,2.161365509033203,-0.058059390634298325,9.889249801635742,6.744384765625,24.078369140625,-14.95361328125
2.2824999000000004,2.081159830093384,-0.5554547905921936,9.709685325622559,10.07080078125,31.79931640625,-30.303955078125
2.2874999000000003,1.79146146774292,-0.4818331003189087,9.8599214553833,9.8876953125,36.80419921875,-54.595947265625
2.2924999,0.9522937536239624,-0.6817489266395569,9.633070945739746,1.5869140625,19.1650390625,-37.41455078125
2.2974999,0.1256955862045288,-0.23044191300868988,9.566033363342285,-4.730224609375,3.997802734375,-31.982421875
2.3024999000000004,-1.072602391242981,-0.152031809091568,9.909601211547852,-17.02880859375,-8.7890625,-23.86474609375
2.3074999000000003,-2.1314380168914795,-0.23343466222286224,9.979032516479492,-15.533447265625,-30.853271484375,31.79931640625
2.3124999,-2.1314380168914795,-0.23343466222286224,9.979032516479492,-15.533447265625,-30.853271484375,31.79931640625
2.3174999,-1.3425486087799072,-0.152031809091568,10.025120735168457,-11.41357421875,-30.242919921875,32.012939453125
2.3224999,0.5805938839912415,-1.039083480834961,9.769539833068848,5.67626953125,-12.664794921875,23.193359375
2.3274999000000003,1.2449848651885986,-1.3581109046936035,9.651625633239746,16.937255859375,-3.936767578125,30.57861328125
2.3324999,1.5550340414047241,-1.2587515115737915,9.618106842041016,17.15087890625,8.97216796875,27.83203125
2.3374999,1.6849194765090942,-0.7344213724136353,9.715071678161621,8.453369140625,8.30078125,12.115478515625
2.3424999,1.8171991109848022,-0.30466216802597046,9.783307075500488,-1.3427734375,5.92041015625,-12.908935546875
2.3474999000000003,1.9171570539474487,0.16220717132091522,9.929352760314941,2.197265625,17.974853515625,-16.876220703125
2.3524999,1.9818004369735718,-0.15143325924873352,9.825204849243164,7.537841796875,26.611328125,-17.547607421875
2.3574999,1.877652645111084,-0.3669114112854004,9.821614265441895,12.664794921875,36.19384765625,-47.027587890625
2.3624999,-1.5155296325683594,-0.1412578970193863,9.763554573059082,-17.486572265625,-12.39013671875,-15.045166015625
2.3674999000000003,-1.5155296325683594,-0.1412578970193863,9.763554573059082,-17.486572265625,-12.39013671875,-15.045166015625
2.3724999,-2.03507137298584,0.2867056429386139,9.673771858215332,-11.65771484375,-14.6484375,1.953125
2.3774999,-2.3511061668395996,0.1867477297782898,9.998785018920898,-9.185791015625,-26.702880859375,27.4658203125
2.3824999,-1.8369512557983398,-0.11791443079710007,9.853337287902832,-16.17431640625,-30.70068359375,28.961181640625
2.3874999000000003,-1.0271124839782715,-0.2861070930957794,10.055646896362305,-2.716064453125,-29.388427734375,34.5458984375
2.3924999000000002,-0.048482585698366165,-0.871489405632019,9.88386344909668,0.30517578125,-18.73779296875,23.040771484375
2.3974999,0.828393816947937,-1.1109095811843872,9.841365814208984,10.31494140625,-8.880615234375,25.177001953125
2.4024999,-0.9900023937225342,-0.02992752194404602,9.895236015319824,-11.810302734375,-8.60595703125,-27.28271484375
2.4074999000000004,-0.9900023937225342,-0.02992752194404602,9.895236015319824,-11.810302734375,-8.60595703125,-27.28271484375
2.4124999000000003,-1.8644845485687256,-0.27413609623908997,9.712677955627441,-16.17431640625,-12.359619140625,-6.561279296875
2.4174999,-2.1296424865722656,0.21787235140800476,9.944915771484375,-10.009765625,-18.310546875,10.6201171875
2.4224999,-2.11946702003479,-0.2082955539226532,9.905410766601562,-10.7421875,-27.313232421875,29.632568359375
2.4274999000000004,-1.3862427473068237,-0.04728548228740692,9.909002304077148,-11.444091796875,-29.083251953125,30.242919921875
2.4324999000000003,-0.5991489887237549,-0.6613982319831848,9.913790702819824,-0.335693359375,-26.123046875,32.012939453125
2.4374999,0.3076549172401428,-0.828393816947937,9.807249069213867,2.62451171875,-15.350341796875,19.378662109375
2.4424999,1.3946224451065063,-1.1869255304336548,9.679159164428711,15.07568359375,5.7373046875,32.196044921875
2.4474999,1.6484078168869019,-0.7894880175590515,9.73542308807373,9.3994140625,7.87353515625,19.989013671875
2.4524999000000003,1.8794482946395874,-0.4106055796146393,9.7605619430542,-0.946044921875,4.119873046875,-7.14111328125
2.4574999,2.072780132293701,0.03711012750864029,9.874884605407715,1.28173828125,14.556884765625,-16.937255859375
2.4624999,2.1799206733703613,-0.30047231912612915,9.774927139282227,7.50732421875,25.93994140625,-14.7705078125
2.4674999,2.162562608718872,-0.5195417404174805,9.761758804321289,14.373779296875,34.454345703125,-39.73388671875
2.4724999000000003,1.5975310802459717,-0.48901569843292236,9.755773544311523,7.843017578125,31.951904296875,-44.0673828125
2.4774999,0.7003039717674255,-0.5512649416923523,9.709685325622559,-3.509521484375,16.021728515625,-25.482177734375
2.4824999,-1.1115081310272217,-0.014365210197865963,10.026318550109863,-6.134033203125,-28.839111328125,34.515380859375
2.4874999,-0.3513490855693817,-0.7122750282287598,9.880271911621094,-1.8310546875,-23.13232421875,26.153564453125
2.4924999000000003,0.47644615173339844,-0.8445546627044678,9.885659217834473,7.659912109375,-12.3291015625,20.93505859375
2.4974999,1.0456676483154297,-1.1019313335418701,9.70429801940918,11.932373046875,-1.861572265625,31.524658203125
2.5024999,1.4185645580291748,-0.9259575009346008,9.742605209350586,13.61083984375,6.988525390625,31.79931640625
2.5074999,1.7070658206939697,-0.5961562395095825,9.75397777557373,4.302978515625,5.218505859375,11.627197265625
2.5124999000000003,1.9991583824157715,-0.24600422382354736,9.781511306762695,-2.197265625,5.4931640625,-14.16015625
2.5174999000000002,2.185906171798706,0.016759412363171577,9.855133056640625,4.69970703125,20.01953125,-15.106201171875
2.5224999,2.2625205516815186,-0.6063315868377686,9.653421401977539,11.199951171875,29.937744140625,-20.904541015625
2.5274999,2.1086931228637695,-0.46806642413139343,9.767146110534668,13.824462890625,35.980224609375,-47.30224609375
2.5324999000000004,1.2713210582733154,-0.5740098357200623,9.688735961914062,2.685546875,26.30615234375,-34.48486328125
2.5374999000000003,-0.6889315247535706,0.2908954918384552,9.543288230895996,-6.103515625,-6.16455078125,-35.247802734375
2.5424999,-1.7699135541915894,-0.23822307586669922,9.761159896850586,-16.998291015625,-14.556884765625,-10.406494140625
2.5474999,-1.988384485244751,0.10594342648983002,9.459490776062012,-14.22119140625,-14.251708984375,6.500244140625
2.5524999000000004,-2.0679917335510254,-0.4800374507904053,9.976638793945312,-6.866455078125,-22.125244140625,22.491455078125
2.5574999000000003,-1.5197194814682007,-0.4908113479614258,9.907805442810059,-12.39013671875,-26.85546875,30.548095703125
2.5624999,1.136048674583435,-1.1402385234832764,9.728838920593262,13.946533203125,1.678466796875,34.271240234375
2.5674999,1.5167267322540283,-0.7960720658302307,9.747393608093262,11.65771484375,8.209228515625,26.458740234375
2.5724999,1.8040310144424438,-0.41718965768814087,9.767146110534668,0.3662109375,4.45556640625,-0.091552734375
2.5774999000000003,2.123058319091797,-0.013168109580874443,9.851541519165039,-0.396728515625,11.444091796875,-17.364501953125
2.5824999,2.293645143508911,-0.6123170852661133,9.721057891845703,15.44189453125,34.210205078125,-32.1044921875
2.5874999,1.900996208190918,-0.45489832758903503,9.797672271728516,9.94873046875,34.60693359375,-48.76708984375
2.5924999,0.9133879542350769,-0.4710591733455658,9.707889556884766,-3.0517578125,19.47021484375,-29.78515625
2.5974999000000003,-0.06643909960985184,-0.304063618183136,9.642048835754395,-7.50732421875,3.41796875,-37.65869140625
2.6024999,-1.258152961730957,0.17537526786327362,9.901819229125977,-10.68115234375,-11.627197265625,-29.78515625
2.6074999,-2.0392613410949707,-0.2579752206802368,9.678560256958008,-16.937255859375,-13.641357421875,-2.25830078125
2.6124999,-2.1110873222351074,0.017956512048840523,9.875483512878418,-11.138916015625,-18.73779296875,12.481689453125
2.6174999000000003,-2.0033483505249023,-0.5027823448181152,9.856329917907715,-9.70458984375,-25.115966796875,27.587890625
2.6224999,-1.20368492603302,-0.2861070930957794,9.882665634155273,-10.223388671875,-28.717041015625,34.698486328125
2.6274999,-0.48901569843292236,-0.9367313981056213,9.81263542175293,-2.593994140625,-25.726318359375,32.562255859375
2.6324999,0.3345896899700165,-0.9882067441940308,9.820416450500488,7.38525390625,-14.46533203125,22.4609375
2.6374999000000003,0.910993754863739,-1.2856862545013428,9.667187690734863,12.542724609375,-4.94384765625,30.242919921875
2.6424999000000002,2.227206230163574,0.07182604819536209,9.903017044067383,3.082275390625,17.608642578125,-16.998291015625
2.6474999,2.3582887649536133,-0.535702645778656,9.708487510681152,12.969970703125,30.517578125,-18.829345703125
2.6524999,2.3122003078460693,-0.5135562419891357,9.77791976928711,15.960693359375,37.261962890625,-43.548583984375
2.6574999000000004,1.5418659448623657,-0.5183446407318115,9.733627319335938,3.47900390625,29.47998046875,-39.1845703125
2.6624999000000003,0.5614402890205383,-0.38307225704193115,9.728838920593262,-6.500244140625,12.969970703125,-31.6162109375
2.6674999,-0.5267243981361389,-0.26755204796791077,9.641449928283691,-7.171630859375,-4.45556640625,-42.54150390625
2.6724999,-1.7082629203796387,-0.10654197633266449,9.951498985290527,-13.427734375,-14.5263671875,-17.059326171875
2.6774999000000004,-2.1284453868865967,-0.3321954905986786,9.496002197265625,-14.617919921875,-14.0380859375,5.828857421875
2.6824999000000003,-2.1751322746276855,-0.23942017555236816,10.033500671386719,-7.537841796875,-22.0947265625,17.9443359375
2.6874999,-1.7836803197860718,-0.07661445438861847,9.800065994262695,-11.566162109375,-27.130126953125,32.379150390625
2.6924999,-0.23403321206569672,-0.6212953329086304,9.875483512878418,2.13623046875,-21.453857421875,27.28271484375
2.6974999,0.5225345492362976,-1.1294646263122559,9.829395294189453,10.223388671875,-10.589599609375,28.3203125
2.7024999000000003,0.9582792520523071,-1.0552444458007812,9.730634689331055,11.77978515625,0.06103515625,39.520263671875
2.7074999,1.3772644996643066,-0.7457938194274902,9.77013874053955,12.847900390625,7.87353515625,37.078857421875
2.7124999,1.7004817724227905,-0.40462008118629456,9.797073364257812,1.312255859375,4.45556640625,10.92529296875
2.7174999,2.145803213119507,-0.02693476900458336,9.821015357971191,-1.983642578125,6.195068359375,-14.739990234375
2.7224999000000003,2.2164323329925537,-0.6003460884094238,9.696516990661621,10.07080078125,36.468505859375,-42.1142578125
2.7274999,1.157596468925476,-0.4572925269603729,9.716269493103027,-2.777099609375,23.284912109375,-28.62548828125
2.7324999,0.011372458189725876,-0.1586158573627472,9.63187313079834,-8.11767578125,3.72314453125,-41.50390625
2.7374999,-1.1713632345199585,0.4010287821292877,9.480440139770508,-5.706787109375,-11.627197265625,-38.818359375
2.7424999000000003,-0.5979518890380859,-0.9774328470230103,9.999382972717285,-8.148193359375,-26.214599609375,27.28271484375
2.7474999,0.15682020783424377,-0.8690952062606812,10.098742485046387,8.60595703125,-17.2119140625,25.81787109375
2.7524999,0.7535749673843384,-1.3126211166381836,9.816226959228516,8.636474609375,-8.026123046875,28.076171875
2.7574999,1.1294646263122559,-0.9989806413650513,9.80904483795166,13.5498046875,2.50244140625,36.468505859375
2.7624999000000003,1.5424644947052002,-0.669179379940033,9.791088104248047,8.60595703125,7.904052734375,24.4140625
2.7674999000000002,1.8734627962112427,-0.32860419154167175,9.745597839355469,-2.25830078125,3.326416015625,-5.43212890625
2.7724999,2.2691047191619873,-0.012569558806717396,9.782109260559082,1.52587890625,15.31982421875,-18.12744140625
2.7774999,2.428318977355957,-0.6099228858947754,9.66539192199707,13.031005859375,29.205322265625,-16.11328125
2.7824999000000004,2.428318977355957,-0.6476315855979919,9.67077922821045,17.15087890625,35.858154296875,-37.261962890625
2.7874999000000003,-0.4100070297718048,-0.15442600846290588,9.683348655700684,-7.75146484375,-2.777099609375,-43.701171875
2.7924999,-1.5388731956481934,0.1999158412218094,9.895833969116211,-10.772705078125,-13.18359375,-25.57373046875
2.7974999,-2.1122844219207764,-0.41359832882881165,9.52473258972168,-15.80810546875,-12.603759765625,1.678466796875
2.8024999000000004,-2.1122844219207764,-0.41359832882881165,9.52473258972168,-15.80810546875,-12.603759765625,1.678466796875
2.8074999000000003,-2.0248961448669434,-0.10773907601833344,9.84495735168457,-8.819580078125,-18.524169921875,13.671875
2.8124999,-1.867477297782898,-0.5859808921813965,9.684545516967773,-10.25390625,-25.238037109375,30.853271484375
2.8174999,-1.060032844543457,-0.3902548849582672,9.86650562286377,-8.11767578125,-29.6630859375,34.912109375
2.8224999,-0.38546648621559143,-0.9552865028381348,9.767744064331055,-1.068115234375,-23.651123046875,26.611328125
2.8274999000000003,0.41778820753097534,-1.047463297843933,9.831191062927246,8.056640625,-13.427734375,20.660400390625
2.8324999,0.9864110946655273,-1.2066776752471924,9.688735961914062,11.871337890625,-4.150390625,30.975341796875
2.8374999,1.4095861911773682,-0.9349357485771179,9.749788284301758,15.0146484375,8.392333984375,34.393310546875
2.8424999,2.0673930644989014,-0.1604115068912506,9.783307075500488,-2.5634765625,5.401611328125,-14.34326171875
2.8474999000000003,2.2858641147613525,-0.2364274114370346,9.852140426635742,5.828857421875,21.331787109375,-16.754150390625
2.8524999,2.4343044757843018,-0.6661866307258606,9.656414031982422,18.585205078125,33.38623046875,-22.064208984375
2.8574999,2.203263998031616,-0.4944026470184326,9.75936508178711,11.993408203125,35.125732421875,-42.266845703125
2.8624999,1.2826935052871704,-0.3800795078277588,9.75637149810791,-2.716064453125,26.42822265625,-32.073974609375
2.8674999000000003,0.25677812099456787,-0.0586579404771328,9.696516990661621,-8.270263671875,8.270263671875,-38.726806640625
2.8724999,-0.8529343605041504,0.27054479718208313,9.477447509765625,-6.16455078125,-8.1787109375,-43.701171875
2.8774999,-1.9003976583480835,-0.3770867586135864,9.712677955627441,-16.021728515625,-14.556884765625,-12.237548828125
2.8824999,1.5478514432907104,-0.7984662652015686,9.816825866699219,11.8408203125,9.185791015625,25.08544921875
2.8874999000000003,1.5478514432907104,-0.7984662652015686,9.816825866699219,11.8408203125,9.185791015625,25.08544921875
2.8924999000000002,1.8387469053268433,-0.4213795065879822,9.780313491821289,-0.030517578125,4.21142578125,-0.244140625
2.8974999,2.1529858112335205,-0.04429273307323456,9.803058624267578,-0.701904296875,11.1083984375,-18.00537109375
2.9024999,2.2888567447662354,-0.545877993106842,9.723451614379883,11.322021484375,25.69580078125,-14.678955078125
2.9074999000000004,2.3696610927581787,-0.6153098344802856,9.667187690734863,18.218994140625,33.87451171875,-31.524658203125
2.9124999000000003,1.7980455160140991,-0.49619829654693604,9.732429504394531,5.340576171875,32.3486328125,-37.261962890625
2.9174999,0.8439561128616333,-0.22685061395168304,9.79288387298584,-6.8359375,19.805908203125,-28.13720703125
2.9224999,-0.22505496442317963,0.002394201699644327,9.687539100646973,-9.033203125,1.007080078125,-44.00634765625
2.9274999000000004,-1.389235496520996,0.22385786473751068,9.941922187805176,-7.75146484375,-10.833740234375,-28.717041015625
2.9324999000000003,-1.8908207416534424,-0.8409633636474609,9.71926212310791,-6.9580078125,-24.139404296875,30.82275390625
2.9374999,-1.1204863786697388,-0.6913257241249084,9.724050521850586,-9.3994140625,-28.472900390625,33.75244140625
2.9424999,-0.4513070285320282,-1.013944387435913,9.770736694335938,1.220703125,-24.169921875,30.33447265625
2.9474999,0.314238965511322,-1.091755986213684,9.775525093078613,5.950927734375,-14.434814453125,19.83642578125
2.9524999000000003,0.9062053561210632,-1.1174936294555664,9.724648475646973,11.5966796875,-6.2255859375,26.763916015625
2.9574999,1.3539210557937622,-0.8690952062606812,9.774328231811523,15.19775390625,6.28662109375,31.890869140625
2.9624999,2.278681516647339,-0.39803603291511536,9.847949981689453,6.622314453125,20.44677734375,-16.66259765625
2.9674999,2.495955228805542,-0.595557689666748,9.687539100646973,20.56884765625,33.38623046875,-20.69091796875
2.9724999000000003,2.167351007461548,-0.5147533416748047,9.720458984375,9.796142578125,34.759521484375,-36.956787109375
2.9774999,-1.9949685335159302,-0.5662286877632141,9.275136947631836,-16.754150390625,-13.763427734375,5.31005859375
2.9824999,-1.9949685335159302,-0.5662286877632141,9.275136947631836,-16.754150390625,-13.763427734375,5.31005859375
2.9874999,-1.9853917360305786,-0.8810662031173706,9.909002304077148,-5.523681640625,-21.636962890625,21.209716796875
2.9924999000000003,-1.5394717454910278,-0.8224082589149475,9.68155288696289,-11.566162109375,-27.83203125,33.99658203125
2.9974999,-0.7817068696022034,-0.7942764163017273,9.897629737854004,-3.11279296875,-27.587890625,34.423828125
3.0024999,-0.046088382601737976,-1.0199298858642578,9.861717224121094,4.241943359375,-18.646240234375,23.74267578125
3.0074999,0.6554127335548401,-1.1749545335769653,9.797073364257812,8.880615234375,-10.223388671875,21.087646484375
3.0124999000000003,1.1737574338912964,-1.0450690984725952,9.747992515563965,14.678955078125,1.3427734375,31.341552734375
3.0174999000000002,1.5711948871612549,-0.6877344250679016,9.812037467956543,10.7421875,8.636474609375,24.017333984375
3.0224999,1.941697597503662,-0.322618693113327,9.792284965515137,-1.03759765625,4.0283203125,-4.08935546875
3.0274999,2.4606409072875977,-0.6518214344978333,9.687539100646973,18.1884765625,29.754638671875,-14.95361328125
3.0324999000000004,2.429516077041626,-0.5692214369773865,9.709685325622559,16.326904296875,35.7666015625,-33.8134765625
3.0374999000000003,1.6645687818527222,-0.3842693865299225,9.77253246307373,-0.152587890625,31.402587890625,-32.257080078125
3.0424999,0.6733692288398743,0.0867898091673851,9.734225273132324,-8.97216796875,15.2587890625,-33.87451171875
3.0474999,-0.48602294921875,0.07541735470294952,9.729436874389648,-8.23974609375,-2.38037109375,-48.15673828125
3.0524999000000004,-1.5328876972198486,0.1364694982767105,9.883264541625977,-9.246826171875,-11.3525390625,-23.345947265625
3.0574999000000003,-2.0655975341796875,-0.7625532150268555,9.499593734741211,-17.547607421875,-12.115478515625,0.946044921875
3.0624999,-2.0009541511535645,-0.5159504413604736,9.773730278015137,-9.1552734375,-18.280029296875,13.73291015625
3.0674999,-1.8842366933822632,-1.0247182846069336,9.70310115814209,-8.697509765625,-26.91650390625,33.172607421875
3.0724999000000004,-1.0630255937576294,-0.7769184708595276,9.736021041870117,-8.514404296875,-28.717041015625,32.867431640625
3.0774999000000003,-0.35434186458587646,-1.1186907291412354,9.770736694335938,2.3193359375,-22.064208984375,28.411865234375
3.0824999,0.4950011968612671,-1.149815320968628,9.755773544311523,6.8359375,-12.0849609375,18.798828125
3.0874999,1.523909330368042,-0.8026561141014099,9.775525093078613,14.16015625,7.080078125,26.153564453125
3.0924999,1.8261773586273193,-0.4106055796146393,9.80904483795166,3.11279296875,6.011962890625,6.16455078125
3.0974999000000003,2.1338322162628174,-0.06524199992418289,9.833584785461426,-2.38037109375,8.60595703125,-16.998291015625
3.1024999,2.296638011932373,-0.4728548228740692,9.795876502990723,10.19287109375,23.681640625,-14.22119140625
3.1074999,2.449268341064453,-0.5380968451499939,9.70549488067627,19.83642578125,34.0576171875,-26.947021484375
3.1124999,1.953070044517517,-0.4818331003189087,9.761758804321289,6.16455078125,34.149169921875,-38.39111328125
3.1174999000000003,1.0169371366500854,-0.1388636976480484,9.830592155456543,-6.40869140625,22.705078125,-27.89306640625
3.1224999,-0.058059390634298325,0.1149216815829277,9.698312759399414,-9.82666015625,3.35693359375,-43.64013671875
3.1274999,-1.202487826347351,0.4141969084739685,9.743204116821289,-5.37109375,-10.345458984375,-34.698486328125
3.1324999,-2.034472942352295,-0.4620809257030487,9.609128952026367,-18.49365234375,-14.617919921875,-2.50244140625
3.1374999000000003,-1.997362732887268,-0.4602852761745453,9.481637001037598,-14.404296875,-16.265869140625,8.819580078125
3.1424999000000002,-1.9865888357162476,-0.9115923047065735,9.81263542175293,-5.859375,-24.627685546875,28.533935546875
3.1474999,-0.5380968451499939,-1.0157400369644165,9.86231517791748,-0.244140625,-26.123046875,33.935546875
3.1524999,0.25498247146606445,-1.1174936294555664,9.801262855529785,5.035400390625,-15.106201171875,22.0947265625
3.1574999000000004,0.8888474106788635,-1.1959037780761719,9.715670585632324,10.8642578125,-6.53076171875,25.2685546875
3.1624999000000003,1.3120225667953491,-0.9798270463943481,9.718064308166504,15.350341796875,4.150390625,32.012939453125
3.1674999,1.6484078168869019,-0.578798234462738,9.768342971801758,7.415771484375,7.32421875,17.88330078125
3.1724999,1.9776105880737305,-0.23343466222286224,9.778518676757812,-2.899169921875,4.5166015625,-10.8642578125
3.1774999000000004,2.2260091304779053,-0.18734627962112427,9.870695114135742,2.50244140625,17.730712890625,-17.02880859375
3.1824999000000003,2.42472767829895,-0.6206967830657959,9.653421401977539,18.310546875,31.18896484375,-18.1884765625
3.1874999,2.278681516647339,-0.5147533416748047,9.761758804321289,13.00048828125,35.736083984375,-41.07666015625
3.1924999,1.3934253454208374,-0.33698388934135437,9.791686058044434,-1.556396484375,29.052734375,-29.60205078125
3.1974999000000004,0.3824737071990967,-0.04429273307323456,9.729436874389648,-9.246826171875,11.474609375,-34.454345703125
3.2024999000000003,-1.5310919284820557,-0.8158242106437683,9.749189376831055,-11.505126953125,-27.83203125,33.203125
3.2074999,-0.7541735172271729,-0.7218518257141113,10.001777648925781,-3.692626953125,-28.656005859375,37.017822265625
3.2124999,0.008379706181585789,-1.0462661981582642,9.920374870300293,2.838134765625,-18.951416015625,25.909423828125
3.2174999,0.7128735780715942,-1.169567584991455,9.8599214553833,9.674072265625,-9.124755859375,22.27783203125
3.2224999000000003,1.1659762859344482,-1.0965443849563599,9.75397777557373,15.045166015625,0.946044921875,31.158447265625
3.2274999,1.5304933786392212,-0.7260416746139526,9.803657531738281,11.77978515625,7.8125,24.932861328125
3.2324999,1.8297686576843262,-0.3794809579849243,9.803657531738281,-0.579833984375,4.180908203125,-2.197265625
3.2374999,2.1422119140625,-0.023942016065120697,9.873687744140625,-1.190185546875,12.054443359375,-18.341064453125
3.2424999000000003,2.3331496715545654,-0.5428852438926697,9.732429504394531,12.664794921875,26.763916015625,-14.068603515625
3.2474999,-0.37888240814208984,-0.06524199992418289,9.698312759399414,-8.30078125,-1.03759765625,-43.914794921875
3.2524999,-1.525106430053711,0.2322375625371933,9.9371337890625,-11.383056640625,-14.0380859375,-23.8037109375
3.2574999,-2.1039047241210938,-0.5261258482933044,9.537302017211914,-16.54052734375,-12.63427734375,2.44140625
3.2624999000000003,-2.015319347381592,-0.2693476974964142,9.805453300476074,-9.552001953125,-18.646240234375,15.13671875
3.2674999000000002,-1.824381709098816,-0.8038532137870789,9.710283279418945,-8.48388671875,-25.665283203125,31.06689453125
3.2724999,-0.9929951429367065,-0.5991489887237549,9.762955665588379,-7.904052734375,-28.9306640625,35.5224609375
3.2774999,-0.2849099934101105,-1.0271124839782715,9.761758804321289,0.518798828125,-23.040771484375,30.09033203125
3.2824999000000004,1.4514847993850708,-0.8439561128616333,9.757569313049316,14.83154296875,6.65283203125,28.4423828125
3.2874999000000003,2.0691888332366943,-0.10295066982507706,9.837176322937012,-2.8076171875,7.843017578125,-16.815185546875
3.2924999,2.229001760482788,-0.2555810213088989,9.857526779174805,6.988525390625,22.430419921875,-13.580322265625
3.2974999,2.387019157409668,-0.6278793811798096,9.688735961914062,18.402099609375,33.355712890625,-26.885986328125
3.3024999000000004,1.9865888357162476,-0.46088382601737976,9.77133560180664,9.613037109375,34.576416015625,-43.88427734375
3.3074999000000003,1.072602391242981,-0.33758243918418884,9.777320861816406,-3.875732421875,23.834228515625,-26.702880859375
3.3124999,0.05686229094862938,-0.07003039866685867,9.686341285705566,-8.941650390625,5.706787109375,-39.6728515625
3.3174999,-1.1061211824417114,0.3908534348011017,9.813234329223633,-6.927490234375,-10.589599609375,-35.369873046875
3.3224999000000004,-1.9716250896453857,-0.25318682193756104,9.713874816894531,-17.7001953125,-14.007568359375,-4.5166015625
3.3274999000000003,-1.98958158493042,-0.19871874153614044,9.609726905822754,-14.129638671875,-15.472412109375,10.498046875
3.3324999,-1.9393033981323242,-0.5979518890380859,9.903017044067383,-5.706787109375,-23.345947265625,26.55029296875
3.3374999,-1.2575544118881226,-0.646434485912323,9.783905029296875,-10.894775390625,-28.25927734375,33.3251953125
3.3424999,-0.5380968451499939,-0.8589198589324951,9.888052940368652,-1.678466796875,-26.67236328125,33.966064453125
3.3474999000000003,1.2551602125167847,-1.0324994325637817,9.714473724365234,15.228271484375,3.2958984375,31.036376953125
3.3524999,1.6023194789886475,-0.6428431272506714,9.774328231811523,8.056640625,7.659912109375,17.9443359375
3.3574999,1.9075802564620972,-0.3058592677116394,9.787496566772461,-2.838134765625,4.08935546875,-10.284423828125
3.3624999,2.144606113433838,-0.10235211998224258,9.90122127532959,1.89208984375,16.448974609375,-15.80810546875
3.3674999000000003,2.3307554721832275,-0.6123170852661133,9.66299819946289,15.594482421875,29.11376953125,-17.9443359375
3.3724999,2.236783027648926,-0.5363011956214905,9.779715538024902,13.885498046875,34.97314453125,-42.083740234375
3.3774999,1.4389152526855469,-0.39863458275794983,9.751583099365234,0.67138671875,29.23583984375,-30.21240234375
3.3824999,0.4507084786891937,-0.1562216579914093,9.734824180603027,-8.331298828125,12.969970703125,-30.059814453125
3.3874999000000003,-0.669179379940033,0.25258827209472656,9.631275177001953,-7.354736328125,-6.378173828125,-40.71044921875
3.3924999000000002,-1.7274165153503418,-0.12868833541870117,9.913191795349121,-15.411376953125,-15.533447265625,-12.87841796875
3.3974999,-2.01232647895813,-0.2777273952960968,9.383475303649902,-16.937255859375,-13.275146484375,6.9580078125
3.4024999,-1.5490485429763794,-0.7284358739852905,9.739612579345703,-9.246826171875,-26.702880859375,33.99658203125
3.4074999000000004,-0.7894880175590515,-0.6560112833976746,9.897629737854004,-4.45556640625,-29.022216796875,36.376953125
3.4124999000000003,-0.10175357013940811,-1.0169371366500854,9.837176322937012,3.570556640625,-19.683837890625,27.008056640625
3.4174999,0.596754789352417,-1.1103110313415527,9.789292335510254,9.735107421875,-9.735107421875,23.651123046875
3.4224999,1.07379949092865,-1.0169371366500854,9.707889556884766,14.16015625,0.30517578125,32.40966796875
3.4274999000000004,1.07379949092865,-1.0169371366500854,9.707889556884766,14.16015625,0.30517578125,32.40966796875
3.4324999000000003,1.502361536026001,-0.6685808300971985,9.794678688049316,12.14599609375,8.331298828125,25.81787109375
3.4374999,1.843535304069519,-0.38486793637275696,9.789292335510254,-0.335693359375,3.997802734375,-1.678466796875
3.4424999,2.452261209487915,-0.6967126727104187,9.710882186889648,17.02880859375,28.778076171875,-14.801025390625
3.4474999000000004,2.452261209487915,-0.6967126727104187,9.710882186889648,17.02880859375,28.778076171875,-14.801025390625
3.4524999000000003,2.4869771003723145,-0.6314706802368164,9.721057891845703,17.547607421875,36.68212890625,-35.003662109375
3.4574999,1.824381709098816,-0.456095427274704,9.761159896850586,0.91552734375,32.684326171875,-35.5224609375
3.4624999,-1.5119383335113525,0.14185644686222076,9.8970308303833,-7.904052734375,-12.26806640625,-24.383544921875
3.4674999,-1.5119383335113525,0.14185644686222076,9.8970308303833,-7.904052734375,-12.26806640625,-24.383544921875
3.4724999000000003,-2.1368250846862793,-0.5578489899635315,9.525930404663086,-15.0146484375,-12.420654296875,3.84521484375
3.4774999,-2.052429437637329,-0.3585317134857178,9.770736694335938,-10.68115234375,-19.4091796875,13.48876953125
3.4824999,-1.974617838859558,-0.7182605266571045,9.709086418151855,-8.30078125,-25.909423828125,30.33447265625
3.4874999,-1.1725603342056274,-0.5398924946784973,9.79408073425293,-7.904052734375,-30.853271484375,36.2548828125
3.4924999000000003,-0.444722980260849,-0.9187749028205872,9.77672290802002,-0.42724609375,-23.651123046875,28.4423828125
3.4974999,0.4124012291431427,-0.9983820915222168,9.849146842956543,7.568359375,-12.237548828125,22.247314453125
3.5024999,1.049857497215271,-1.0408791303634644,9.73542308807373,10.589599609375,-2.50244140625,30.426025390625
3.5074999,1.5059528350830078,-0.7272387742996216,9.79527759552002,13.5498046875,7.049560546875,32.623291015625
3.5124999000000003,1.8249802589416504,-0.4728548228740692,9.809642791748047,2.44140625,5.0048828125,9.063720703125
3.5174999000000002,2.1547815799713135,-0.18734627962112427,9.764751434326172,-2.8076171875,5.79833984375,-15.56396484375
3.5224999,-1.9853917360305786,-0.44831427931785583,9.610325813293457,-13.48876953125,-14.801025390625,9.3994140625
3.5274999,-1.9853917360305786,-0.44831427931785583,9.610325813293457,-13.48876953125,-14.801025390625,9.3994140625
3.5324999000000004,-1.9764134883880615,-0.7589619159698486,9.965864181518555,-5.889892578125,-23.040771484375,26.519775390625
3.5374999000000003,-1.3425486087799072,-0.8415619134902954,9.850942611694336,-11.29150390625,-29.693603515625,34.24072265625
3.5424999,-0.6350619792938232,-0.8571242094039917,9.959280967712402,-1.77001953125,-25.57373046875,27.435302734375
3.5474999,0.1586158573627472,-1.0540473461151123,9.870096206665039,5.859375,-15.533447265625,20.44677734375
3.5524999000000004,0.849941611289978,-1.1366472244262695,9.761758804321289,9.765625,-8.544921875,23.956298828125
3.5574999000000003,1.7142484188079834,-0.5973533391952515,9.767146110534668,6.988525390625,7.171630859375,13.763427734375
3.5624999,2.011129379272461,-0.3082534670829773,9.75278091430664,-2.197265625,4.5166015625,-10.80322265625
3.5674999,2.213439464569092,-0.32680854201316833,9.814431190490723,3.631591796875,17.547607421875,-15.167236328125
3.5724999000000004,2.3552958965301514,-0.7146692276000977,9.640253067016602,18.1884765625,30.120849609375,-19.256591796875
3.5774999000000003,2.185906171798706,-0.5506663918495178,9.721057891845703,11.566162109375,34.027099609375,-38.848876953125
3.5824999,1.3335703611373901,-0.32860419154167175,9.785101890563965,-2.227783203125,29.022216796875,-27.191162109375
3.5874999,0.34656068682670593,0.009576806798577309,9.740211486816406,-8.941650390625,10.68115234375,-33.02001953125
3.5924999,-0.7667431235313416,0.4165911078453064,9.482834815979004,-6.591796875,-6.683349609375,-40.283203125
3.5974999000000003,-1.7525556087493896,-0.3082534670829773,9.785700798034668,-15.56396484375,-13.12255859375,-11.566162109375
3.6024999,-1.945288896560669,-0.39863458275794983,9.188347816467285,-16.082763671875,-11.993408203125,7.62939453125
3.6074999,-1.9093759059906006,-0.8319851160049438,9.882067680358887,-6.04248046875,-20.294189453125,20.8740234375
3.6124999,-1.5155296325683594,-0.970848798751831,9.806051254272461,-9.82666015625,-28.86962890625,36.865234375
3.6174999000000003,1.5496470928192139,-0.5734112858772278,9.820416450500488,10.07080078125,7.476806640625,22.674560546875
3.6224999,1.9147628545761108,-0.26575639843940735,9.788095474243164,-1.312255859375,2.8076171875,-4.2724609375
3.6274999,2.2637176513671875,-0.2801215946674347,9.833584785461426,0.9765625,13.519287109375,-17.364501953125
3.6324999,2.5091233253479004,-0.7146692276000977,9.66958236694336,18.402099609375,30.21240234375,-16.9677734375
3.6374999000000003,2.473210334777832,-0.5835866928100586,9.683947563171387,15.289306640625,36.31591796875,-35.33935546875
3.6424999000000002,1.6825252771377563,-0.38905778527259827,9.780912399291992,-1.0986328125,31.829833984375,-31.18896484375
3.6474999,0.6129156351089478,0.10175357013940811,9.761159896850586,-9.1552734375,14.46533203125,-32.77587890625
3.6524999,-0.5835866928100586,0.028730420395731926,9.755773544311523,-8.209228515625,-4.33349609375,-45.47119140625
3.6574999000000004,-1.7381904125213623,-0.9983820915222168,9.800664901733398,-7.87353515625,-27.03857421875,35.736083984375
3.6624999000000003,-0.9103952050209045,-0.8254010081291199,9.803058624267578,-7.4462890625,-28.961181640625,34.97314453125
3.6674999,-0.26156654953956604,-1.1276689767837524,9.77672290802002,4.730224609375,-21.270751953125,30.975341796875
3.6724999,0.4991910457611084,-1.1510124206542969,9.73542308807373,9.979248046875,-11.23046875,26.092529296875
3.6774999000000004,1.0073603391647339,-0.9828197956085205,9.65222454071045,12.5732421875,-0.1220703125,31.829833984375
3.6824999000000003,1.4748282432556152,-0.5859808921813965,9.780912399291992,12.298583984375,7.293701171875,26.611328125
3.6874999,1.8441338539123535,-0.26575639843940735,9.794678688049316,0.30517578125,3.021240234375,0.091552734375
3.6924999,2.206855535507202,-0.20709845423698425,9.884461402893066,-1.129150390625,10.986328125,-18.24951171875
3.6974999000000004,2.471414804458618,-0.6799532771110535,9.734824180603027,16.29638671875,28.38134765625,-15.44189453125
3.7024999000000003,2.5252842903137207,-0.5895721912384033,9.724648475646973,18.524169921875,36.19384765625,-32.135009765625
3.7074999,0.7936778664588928,0.11372458189725876,9.77672290802002,-9.124755859375,17.333984375,-31.829833984375
3.7124999,-0.4213795065879822,0.17238251864910126,9.723451614379883,-9.857177734375,-1.861572265625,-46.783447265625
3.7174999,-1.5269020795822144,0.2693476974964142,9.855133056640625,-8.514404296875,-11.688232421875,-27.4658203125
3.7224999000000003,-2.145204782485962,-0.5614402890205383,9.369110107421875,-18.341064453125,-13.36669921875,2.593994140625
3.7274999,-1.9560627937316895,-0.46806642413139343,9.494805335998535,-11.566162109375,-17.669677734375,12.298583984375
3.7324999,-1.8351556062698364,-0.8744821548461914,9.469666481018066,-6.134033203125,-25.726318359375,33.75244140625
3.7374999,-1.0169371366500854,-0.8271966576576233,9.4636812210083,-9.94873046875,-29.296875,34.576416015625
3.7424999000000003,-0.3944447338581085,-1.0983400344848633,9.651026725769043,3.448486328125,-23.590087890625,33.63037109375
3.7474999,0.35075053572654724,-1.1785458326339722,9.713275909423828,9.674072265625,-14.0380859375,27.984619140625
3.7524999,0.8876502513885498,-1.062427043914795,9.704896926879883,11.8408203125,-2.44140625,32.562255859375
3.7574999,1.3581109046936035,-0.6763619780540466,9.841365814208984,13.427734375,6.53076171875,31.55517578125
3.7624999000000003,2.6222493648529053,-0.5704185366630554,9.700706481933594,19.775390625,36.07177734375,-28.076171875
3.7674999000000002,2.0201077461242676,-0.5303156971931458,9.733028411865234,2.74658203125,34.393310546875,-34.881591796875
3.7724999,0.9923965930938721,0.06524199992418289,9.79288387298584,-7.75146484375,20.843505859375,-29.72412109375
3.7774999,-0.22685061395168304,0.20290859043598175,9.739612579345703,-10.467529296875,1.3427734375,-44.98291015625
3.7824999000000004,-1.3958195447921753,0.3423708379268646,9.824007987976074,-6.561279296875,-10.009765625,-32.958984375
3.7874999000000003,-2.0877439975738525,-0.4578910768032074,9.499593734741211,-19.195556640625,-13.763427734375,-0.91552734375
3.7924999,-1.9548656940460205,-0.5452794432640076,9.403825759887695,-14.068603515625,-15.7470703125,9.796142578125
3.7974999,-1.8225860595703125,-0.8337807655334473,9.582193374633789,-5.0048828125,-24.47509765625,31.463623046875
3.8024999000000004,-1.0546458959579468,-0.970848798751831,9.440936088562012,-12.054443359375,-29.1748046875,34.48486328125
3.8074999000000003,-0.4207809567451477,-1.0887632369995117,9.641449928283691,2.62451171875,-25.054931640625,34.66796875
3.8124999,0.2890998423099518,-1.2934675216674805,9.666589736938477,10.711669921875,-16.143798828125,29.052734375
3.8174999,2.160168409347534,-0.1885433793067932,9.901819229125977,-2.716064453125,7.110595703125,-15.533447265625
3.8224999000000004,2.4618380069732666,-0.6404489278793335,9.771934509277344,12.481689453125,24.383544921875,-16.326904296875
3.8274999000000003,2.6443958282470703,-0.5488707423210144,9.727641105651855,21.240234375,36.407470703125,-26.55029296875
3.8324999,2.123058319091797,-0.5548562407493591,9.747393608093262,4.302978515625,35.46142578125,-36.07177734375
3.8374999,1.1677719354629517,0.06883329898118973,9.816825866699219,-7.14111328125,22.674560546875,-32.16552734375
3.8424999,0.004788403399288654,0.2561795711517334,9.761758804321289,-10.467529296875,3.0517578125,-47.760009765625
3.8474999000000003,-1.1288660764694214,0.4991910457611084,9.733627319335938,-5.645751953125,-8.087158203125,-39.703369140625
3.8524999,-1.9560627937316895,-0.4638765752315521,9.57860279083252,-18.73779296875,-12.87841796875,-6.103515625
3.8574999,-1.9794062376022339,-0.49978959560394287,9.333196640014648,-13.763427734375,-13.85498046875,9.94873046875
3.8624999,-2.0147206783294678,-0.8744821548461914,9.68933391571045,-4.669189453125,-25.08544921875,30.70068359375
3.8674999000000003,0.8152256608009338,-1.2144588232040405,9.675567626953125,12.298583984375,-4.69970703125,29.84619140625
3.8724999,1.3102269172668457,-0.8834604024887085,9.75278091430664,15.350341796875,5.401611328125,31.646728515625
3.8774999,1.7411831617355347,-0.4638765752315521,9.843161582946777,5.31005859375,5.92041015625,11.810302734375
3.8824999,2.1164743900299072,-0.11013327538967133,9.814431190490723,-2.960205078125,5.859375,-13.916015625
3.8874999000000003,2.4025814533233643,-0.524330198764801,9.816226959228516,8.880615234375,21.42333984375,-16.082763671875
3.8924999000000002,2.632424831390381,-0.5434837937355042,9.660603523254395,22.15576171875,35.58349609375,-24.993896484375
3.8974999,2.211045265197754,-0.5620388388633728,9.731232643127441,6.65283203125,36.041259765625,-39.12353515625
3.9024999,1.2611457109451294,-0.10654197633266449,9.818621635437012,-6.89697265625,24.749755859375,-31.1279296875
3.9074999000000004,0.10354922711849213,0.18315643072128296,9.725846290588379,-10.772705078125,5.096435546875,-45.71533203125
3.9124999000000003,-1.0456676483154297,0.6206967830657959,9.704896926879883,-5.92041015625,-8.819580078125,-42.510986328125
3.9174999,-2.0488381385803223,-0.9247604012489319,9.903017044067383,-4.302978515625,-24.169921875,27.89306640625
3.9224999,0.06703764945268631,-1.1982979774475098,9.855133056640625,9.033203125,-17.08984375,31.158447265625
3.9274999000000004,0.7613561153411865,-1.2300211191177368,9.754576683044434,11.5966796875,-5.31005859375,30.548095703125
3.9324999000000003,1.2611457109451294,-0.8690952062606812,9.764751434326172,15.07568359375,4.5166015625,34.60693359375
3.9374999,1.7268179655075073,-0.46148237586021423,9.835380554199219,6.103515625,6.591796875,15.56396484375
3.9424999,2.1332337856292725,-0.12689268589019775,9.79647445678711,-2.960205078125,5.2490234375,-12.420654296875
3.9474999000000004,2.431311845779419,-0.4578910768032074,9.81143856048584,7.32421875,20.355224609375,-16.29638671875
3.9524999000000003,2.6844985485076904,-0.5847837924957275,9.653421401977539,22.247314453125,35.369873046875,-23.0712890625
3.9574999,2.3062148094177246,-0.5722141861915588,9.717466354370117,8.544921875,36.346435546875,-39.97802734375
3.9624999,1.3670891523361206,-0.15263035893440247,9.812037467956543,-6.011962890625,26.123046875,-31.494140625
3.9674999000000004,0.20290859043598175,0.16101007163524628,9.72285270690918,-10.711669921875,6.77490234375,-44.464111328125
3.9724999000000003,-0.9684545993804932,0.619499683380127,9.560646057128906,-6.134033203125,-8.453369140625,-45.745849609375
3.9774999,-1.9596540927886963,-0.47225627303123474,9.678560256958008,-17.51708984375,-14.312744140625,-11.688232421875
3.9824999,-2.0380642414093018,-0.414795458316803,9.160215377807617,-15.31982421875,-12.26806640625,8.270263671875
3.9874999,-2.055422067642212,-0.9612720012664795,9.841964721679688,-4.150390625,-22.796630859375,25.7568359375
3.9924999000000003,-1.4891934394836426,-1.0492589473724365,9.679757118225098,-12.603759765625,-29.23583984375,32.958984375
3.9974999,-0.7589619159698486,-0.9720458984375,9.954492568969727,-2.593994140625,-27.679443359375,34.332275390625
4.0024999,0.023942016065120697,-1.1905168294906616,9.922170639038086,7.87353515625,-17.547607421875,28.6865234375
4.0074999,0.7481880187988281,-1.2713210582733154,9.81263542175293,11.138916015625,-8.11767578125,25.93994140625
4.0124999,1.2533645629882812,-0.9720458984375,9.788095474243164,14.984130859375,2.777099609375,30.8837890625
4.0174999,1.7058687210083008,-0.5518634915351868,9.825803756713867,7.62939453125,7.232666015625,15.7470703125
4.022499900000001,2.2691047191619873,-0.5440823435783386,9.695320129394531,10.80322265625,35.7666015625,-38.970947265625
4.0274999000000005,1.4173674583435059,-0.1825578808784485,9.794678688049316,-4.82177734375,27.923583984375,-29.510498046875
4.0324999,0.3315969407558441,0.20949265360832214,9.723451614379883,-10.955810546875,8.941650390625,-40.802001953125
4.0374999,-0.823006808757782,0.3992331326007843,9.52473258972168,-7.049560546875,-6.9580078125,-47.088623046875
4.0424999,-0.823006808757782,0.3992331326007843,9.52473258972168,-7.049560546875,-6.9580078125,-47.088623046875
4.0474999,-1.8100165128707886,-0.3998316824436188,9.763554573059082,-15.899658203125,-13.702392578125,-13.763427734375
4.0524999,-2.0254945755004883,-0.6099228858947754,9.09497356414795,-16.17431640625,-11.871337890625,7.9345703125
4.0574999,-2.01232647895813,-0.9295487999916077,9.855133056640625,-4.791259765625,-22.064208984375,22.8271484375
4.062499900000001,-1.589151382446289,-0.9666589498519897,9.634865760803223,-11.688232421875,-29.510498046875,34.393310546875
4.0674999000000005,-0.8565256595611572,-0.8667010068893433,9.909002304077148,-4.45556640625,-29.022216796875,35.797119140625
4.0724999,0.6278793811798096,-1.2282254695892334,9.815030097961426,11.23046875,-8.697509765625,28.564453125
4.0774999,1.1306617259979248,-0.9624691009521484,9.799467086791992,15.19775390625,1.64794921875,35.491943359375
4.0824999,2.6186580657958984,-0.618302583694458,9.655217170715332,20.904541015625,31.951904296875,-19.59228515625
4.0874999,2.4151508808135986,-0.557250440120697,9.683348655700684,12.237548828125,36.43798828125,-37.200927734375
4.0924999,1.5861586332321167,-0.2717418968677521,9.78989028930664,-3.60107421875,29.60205078125,-29.388427734375
4.0974999,0.46327802538871765,0.1909375786781311,9.732429504394531,-10.284423828125,11.260986328125,-37.7197265625
4.1024999,-0.690727174282074,0.05626374110579491,9.743204116821289,-7.62939453125,-6.256103515625,-47.515869140625
4.1074999000000005,-1.7447744607925415,-0.26815059781074524,9.904213905334473,-13.7939453125,-13.12255859375,-16.29638671875
4.1124999,-2.0195090770721436,-0.8864531517028809,9.364919662475586,-16.754150390625,-11.77978515625,5.859375
4.1174999,-1.6502034664154053,-0.9103952050209045,9.598953247070312,-10.467529296875,-28.13720703125,34.576416015625
4.1224999,-0.8948329091072083,-0.7338228225708008,9.733028411865234,-6.53076171875,-29.266357421875,35.2783203125
4.1274999,-0.19692309200763702,-1.0169371366500854,9.740809440612793,6.927490234375,-20.6298828125,31.3720703125
4.1324999,0.5524620413780212,-1.1516109704971313,9.676166534423828,10.467529296875,-10.406494140625,26.153564453125
4.1374999,1.0797849893569946,-0.9427168965339661,9.688735961914062,14.34326171875,0.335693359375,32.53173828125
4.1424999,1.5951368808746338,-0.5764040350914001,9.783307075500488,10.345458984375,7.14111328125,21.54541015625
4.147499900000001,1.9806033372879028,-0.27413609623908997,9.793481826782227,-1.495361328125,4.2724609375,-5.950927734375
4.1524999000000005,2.315192937850952,-0.38307225704193115,9.849745750427246,2.197265625,14.5263671875,-16.17431640625
4.1574999,2.586935043334961,-0.7003039717674255,9.670180320739746,20.93505859375,31.06689453125,-18.5546875
4.1624999,0.5746083855628967,0.29867666959762573,9.765350341796875,-10.55908203125,13.36669921875,-37.445068359375
4.1674999,-1.6603789329528809,-0.0520738884806633,9.909601211547852,-13.519287109375,-12.298583984375,-21.331787109375
4.1724999,-2.050035238265991,-0.8170213103294373,9.396642684936523,-17.4560546875,-10.7421875,4.33349609375
4.1774999,-2.0236990451812744,-0.7104793787002563,9.757569313049316,-7.415771484375,-19.287109375,18.00537109375
4.1824999,-1.7663222551345825,-0.9756371974945068,9.57201862335205,-9.58251953125,-29.23583984375,36.834716796875
4.187499900000001,-1.0091559886932373,-0.8104372620582581,9.624092102050781,-8.60595703125,-30.792236328125,35.858154296875
4.1924999000000005,-0.2932897210121155,-1.1174936294555664,9.720458984375,7.354736328125,-21.8505859375,32.40966796875
4.1974999,0.5015852451324463,-1.1929110288619995,9.654618263244629,11.29150390625,-11.3525390625,28.533935546875
4.2024999,1.0582371950149536,-0.9876081943511963,9.683348655700684,15.045166015625,-0.274658203125,35.64453125
4.2074999,1.5735890865325928,-0.5931634902954102,9.794678688049316,11.474609375,7.965087890625,24.993896484375
4.2124999,1.9488801956176758,-0.25438392162323,9.824007987976074,-0.823974609375,3.814697265625,-2.349853515625
4.2174999,2.29484224319458,-0.406415730714798,9.828198432922363,1.495361328125,12.298583984375,-16.357421875
4.2224999,2.612074136734009,-0.6727706789970398,9.677961349487305,21.514892578125,30.517578125,-19.59228515625
4.2274999,1.7579425573349,-0.28371289372444153,9.787496566772461,-3.814697265625,31.92138671875,-31.25
4.2324999000000005,0.6625953316688538,0.36332011222839355,9.768342971801758,-10.498046875,14.7705078125,-38.330078125
4.2374999,-0.5374982953071594,0.15741875767707825,9.788095474243164,-9.246826171875,-3.84521484375,-49.591064453125
4.2424999,-2.0679917335510254,-0.8744821548461914,9.386467933654785,-17.791748046875,-11.29150390625,4.0283203125
4.2474999,-2.0679917335510254,-0.8744821548461914,9.386467933654785,-17.791748046875,-11.29150390625,4.0283203125
4.2524999,-2.030282974243164,-0.7691373229026794,9.712079048156738,-7.720947265625,-19.71435546875,17.333984375
4.2574999,-1.7986440658569336,-1.0648212432861328,9.550470352172852,-8.9111328125,-29.693603515625,37.628173828125
4.2624999,-1.0193313360214233,-0.9139865040779114,9.557653427124023,-8.97216796875,-31.3720703125,37.384033203125
4.2674999,-0.304063618183136,-1.1701661348342896,9.68933391571045,8.23974609375,-22.369384765625,34.1796875
4.272499900000001,0.5093663930892944,-1.2336124181747437,9.637859344482422,12.0849609375,-11.1083984375,29.72412109375
4.2774999000000005,1.0558429956436157,-0.9660604000091553,9.671976089477539,15.13671875,0.701904296875,35.5224609375
4.2824999,1.5945383310317993,-0.5566518902778625,9.81263542175293,11.3525390625,8.30078125,24.444580078125
4.2874999,2.6635494232177734,-0.6386532783508301,9.747393608093262,22.918701171875,31.18896484375,-20.751953125
4.2924999,2.537853717803955,-0.5249287486076355,9.6803560256958,12.725830078125,38.116455078125,-34.576416015625
4.2974999,1.7932571172714233,-0.22625206410884857,9.838373184204102,-5.06591796875,32.379150390625,-32.5927734375
4.3024999,0.6715735793113708,0.4315548539161682,9.767146110534668,-11.23046875,14.09912109375,-41.56494140625
4.3074999,-0.5548562407493591,0.19452889263629913,9.784503936767578,-9.3994140625,-4.33349609375,-52.093505859375
4.312499900000001,-1.6980875730514526,-0.047884032130241394,9.932944297790527,-14.862060546875,-12.63427734375,-24.139404296875
4.3174999000000005,-2.1278467178344727,-0.7990648150444031,9.345168113708496,-18.6767578125,-11.5966796875,3.692626953125
4.3224999,-2.1350293159484863,-0.7080851793289185,9.759963035583496,-7.6904296875,-20.81298828125,19.195556640625
4.3274999,-1.8213889598846436,-0.9277531504631042,9.555258750915527,-10.528564453125,-30.82275390625,38.421630859375
4.3324999,-1.0043675899505615,-0.8469488620758057,9.563039779663086,-9.490966796875,-31.280517578125,37.53662109375
4.3374999,-0.2190694510936737,-1.1677719354629517,9.687539100646973,10.25390625,-21.78955078125,35.58349609375
4.3424999,1.6867151260375977,-0.6045359373092651,9.79647445678711,10.80322265625,8.9111328125,21.270751953125
4.3474999,2.0236990451812744,-0.17537526786327362,9.834183692932129,-1.129150390625,3.936767578125,-5.0048828125
4.352499900000001,2.3277626037597656,-0.4908113479614258,9.84376049041748,4.364013671875,15.0146484375,-17.486572265625
4.3574999000000005,2.60548996925354,-0.5219359993934631,9.71926212310791,23.0712890625,32.1044921875,-21.78955078125
4.3624999,2.4181437492370605,-0.4944026470184326,9.692925453186035,10.650634765625,37.261962890625,-35.2783203125
4.3674999,1.657984733581543,-0.13048399984836578,9.859322547912598,-5.645751953125,31.43310546875,-33.050537109375
4.3724999,0.5464765429496765,0.4225766062736511,9.790489196777344,-11.444091796875,12.420654296875,-43.701171875
4.3774999,-0.5997475385665894,0.35733461380004883,9.82999324798584,-8.7890625,-4.608154296875,-52.398681640625
4.3824999,-1.7393875122070312,-0.262763649225235,9.90122127532959,-16.6015625,-13.519287109375,-21.942138671875
4.3874999,-2.053027868270874,-0.6973112225532532,9.27334213256836,-17.9443359375,-12.02392578125,5.18798828125
4.3924999,-0.1933317929506302,-1.2114660739898682,9.666589736938477,11.8408203125,-20.660400390625,37.506103515625
4.397499900000001,0.629675030708313,-1.282094955444336,9.576208114624023,13.18359375,-8.270263671875,33.935546875
4.4024999000000005,1.6915035247802734,-0.5081692934036255,9.82999324798584,8.880615234375,8.575439453125,19.95849609375
4.4074999,2.073378562927246,-0.13766659796237946,9.864110946655273,-1.983642578125,3.570556640625,-7.75146484375
4.4124999,2.4193408489227295,-0.5758054852485657,9.847352027893066,7.537841796875,17.578125,-18.12744140625
4.4174999,2.721010208129883,-0.536899745464325,9.726444244384766,24.5361328125,34.576416015625,-23.529052734375
4.4224999,2.476801633834839,-0.547075092792511,9.709685325622559,8.148193359375,38.57421875,-36.651611328125
4.4274999,1.6184803247451782,-0.010175357572734356,9.867103576660156,-7.568359375,30.242919921875,-36.163330078125
4.4324999,0.4207809567451477,0.48243165016174316,9.758167266845703,-12.451171875,9.46044921875,-48.553466796875
4.437499900000001,-1.6418237686157227,-1.103128433227539,9.537302017211914,-13.5498046875,-33.75244140625,41.1376953125
4.4424999000000005,-0.8200140595436096,-1.103128433227539,9.750985145568848,-4.150390625,-30.94482421875,42.694091796875
4.4474999,0.012569558806717396,-1.3563152551651,9.82879638671875,13.3056640625,-19.561767578125,40.313720703125
4.4524999,0.7661445140838623,-1.338358759880066,9.674370765686035,14.0380859375,-5.218505859375,37.445068359375
4.4574999,1.2713210582733154,-0.970848798751831,9.75397777557373,17.181396484375,6.988525390625,38.330078125
4.4624999,1.698686122894287,-0.45669397711753845,9.873088836669922,7.32421875,7.598876953125,18.12744140625
4.4674999,2.0673930644989014,-0.14844051003456116,9.899425506591797,-2.471923828125,3.936767578125,-9.674072265625
4.4724999,2.42472767829895,-0.5925649404525757,9.86111831665039,9.70458984375,19.622802734375,-19.378662109375
4.477499900000001,2.7234044075012207,-0.5398924946784973,9.700706481933594,24.7802734375,36.43798828125,-25.87890625
4.4824999000000005,1.5257049798965454,0.048482585698366165,9.810839653015137,-8.11767578125,29.022216796875,-37.506103515625
4.4874999,0.2861070930957794,0.4405331015586853,9.714473724365234,-12.298583984375,7.781982421875,-51.33056640625
4.4924999,-0.9516952037811279,0.8990227580070496,9.682151794433594,-7.62939453125,-7.26318359375,-52.3681640625
4.4974999,-2.0847511291503906,-0.3208230137825012,9.6618013381958,-21.30126953125,-16.937255859375,-15.68603515625
4.5024999,-2.1589713096618652,-0.3016694188117981,9.184157371520996,-16.693115234375,-14.2822265625,8.6669921875
4.5074999,-2.211045265197754,-1.0181342363357544,9.780912399291992,-4.39453125,-25.81787109375,30.731201171875
4.5124999,-1.5047557353973389,-1.1815385818481445,9.552865028381348,-14.46533203125,-33.26416015625,40.10009765625
4.5174999,-0.7170634269714355,-1.2078747749328613,9.754576683044434,-0.91552734375,-29.876708984375,43.243408203125
4.522499900000001,0.12270283699035645,-1.4443022012710571,9.77672290802002,14.7705078125,-17.76123046875,39.36767578125
4.5274999000000005,0.8104372620582581,-1.3682862520217896,9.661202430725098,14.862060546875,-3.509521484375,35.980224609375
4.5324999,1.3072341680526733,-0.9403226971626282,9.753378868103027,16.510009765625,7.080078125,34.271240234375
4.5374999,1.7345991134643555,-0.39624038338661194,9.882067680358887,5.31005859375,6.011962890625,12.63427734375
4.5424999,2.691082715988159,-0.46806642413139343,9.66419506072998,23.101806640625,36.865234375,-28.472900390625
4.5474999,2.296039342880249,-0.4710591733455658,9.740809440612793,1.190185546875,37.506103515625,-38.63525390625
4.5524999,1.358709454536438,0.2819172441959381,9.77791976928711,-9.27734375,25.146484375,-38.421630859375
4.5574999,0.10115502029657364,0.5069721937179565,9.736021041870117,-12.5732421875,4.730224609375,-54.3212890625
4.562499900000001,-1.1773487329483032,0.6787561774253845,9.844358444213867,-8.819580078125,-8.72802734375,-48.4619140625
4.5674999000000005,-2.1805191040039062,-0.3621230125427246,9.661202430725098,-23.468017578125,-16.4794921875,-11.04736328125
4.5724999,-2.212242364883423,-0.48063600063323975,9.424775123596191,-16.387939453125,-15.56396484375,10.25390625
4.5774999,-2.1733365058898926,-0.9894038438796997,9.847352027893066,-5.645751953125,-28.900146484375,34.0576171875
4.5824999,-1.3311761617660522,-1.1665748357772827,9.534908294677734,-15.68603515625,-33.599853515625,41.07666015625
4.5874999,-0.5321113467216492,-1.2677297592163086,9.665990829467773,2.685546875,-30.029296875,46.9970703125
4.5924999,0.3250128924846649,-1.5550340414047241,9.633668899536133,17.913818359375,-15.93017578125,43.5791015625
4.5974999,1.3425486087799072,-0.9139865040779114,9.711481094360352,16.78466796875,9.124755859375,36.7431640625
4.602499900000001,1.7202339172363281,-0.3148375153541565,9.870695114135742,4.0283203125,5.096435546875,11.5966796875
4.6074999000000005,2.0632033348083496,-0.31603461503982544,9.9000244140625,-1.434326171875,5.401611328125,-14.007568359375
4.6124999,2.563591480255127,-0.5692214369773865,9.831789016723633,20.8740234375,25.0244140625,-21.240234375
4.6174999,2.7742812633514404,-0.39145198464393616,9.63187313079834,20.111083984375,40.1611328125,-31.55517578125
4.6224999,2.3331496715545654,-0.3519476354122162,9.852738380432129,-3.631591796875,38.543701171875,-39.642333984375
4.6274999,1.3227964639663696,0.5386953949928284,9.764751434326172,-9.918212890625,23.284912109375,-42.66357421875
4.6324999,-0.04369417950510979,0.5542576909065247,9.827000617980957,-12.20703125,2.960205078125,-59.844970703125
4.6374999,-1.400607943534851,0.5009866952896118,9.961674690246582,-10.284423828125,-10.7421875,-45.59326171875
4.6424999,-2.3032219409942627,-0.4465186297893524,9.543886184692383,-24.017333984375,-16.4794921875,-7.2021484375
4.647499900000001,-2.3529016971588135,-0.5608417391777039,9.511565208435059,-14.404296875,-18.463134765625,13.214111328125
4.6524999000000005,-2.228403329849243,-1.0091559886932373,9.73542308807373,-6.072998046875,-31.097412109375,35.64453125
4.6574999,1.4736311435699463,-0.7793126702308655,9.751583099365234,14.95361328125,8.30078125,33.63037109375
4.6624999,1.8411411046981812,-0.16340427100658417,9.841365814208984,1.953125,4.302978515625,7.4462890625
4.6674999,2.184709072113037,-0.35434186458587646,9.877877235412598,2.38037109375,6.89697265625,-15.472412109375
4.6724999,2.184709072113037,-0.35434186458587646,9.877877235412598,2.38037109375,6.89697265625,-15.472412109375
4.6774999,2.7234044075012207,-0.365115761756897,9.761159896850586,23.8037109375,28.1982421875,-23.101806640625
4.6824999,2.803011655807495,-0.36332011222839355,9.624691009521484,14.5263671875,42.05322265625,-34.912109375
4.687499900000001,2.2475569248199463,-0.18315643072128296,9.891644477844238,-6.34765625,37.689208984375,-39.12353515625
4.6924999000000005,1.1180921792984009,0.6572083830833435,9.75397777557373,-10.467529296875,19.4091796875,-44.921875
4.6974999,-0.3256114423274994,0.43694180250167847,9.876082420349121,-12.02392578125,-0.06103515625,-62.3779296875
4.7024999,-2.342726469039917,-0.5985504388809204,9.687539100646973,-12.115478515625,-20.8740234375,16.4794921875
4.7074999,-2.342726469039917,-0.5985504388809204,9.687539100646973,-12.115478515625,-20.8740234375,16.4794921875
4.7124999,-2.0661959648132324,-1.104325532913208,9.778518676757812,-7.843017578125,-31.6162109375,36.651611328125
4.7174999,-1.1115081310272217,-1.1917139291763306,9.52114200592041,-12.939453125,-32.867431640625,42.8466796875
4.7224999,0.6003460884094238,-1.7196353673934937,9.545681953430176,19.83642578125,-9.21630859375,40.313720703125
4.727499900000001,0.6003460884094238,-1.7196353673934937,9.545681953430176,19.83642578125,-9.21630859375,40.313720703125
4.7324999000000005,1.1061211824417114,-1.3670891523361206,9.577404975891113,17.51708984375,4.058837890625,39.520263671875
4.7374999,1.5257049798965454,-0.7194576263427734,9.791088104248047,13.092041015625,7.9345703125,29.78515625
4.7424999,1.8417396545410156,-0.1825578808784485,9.962273597717285,0,3.5400390625,2.3193359375
4.7474999,2.2457611560821533,-0.4531026780605316,9.899425506591797,7.537841796875,9.613037109375,-16.937255859375
4.7524999,2.756923198699951,-0.30286651849746704,9.834183692932129,24.871826171875,31.982421875,-24.7802734375
4.7574999,-0.5680243372917175,0.3968389332294464,9.849146842956543,-10.955810546875,-3.662109375,-62.347412109375
4.7624999,-0.5680243372917175,0.3968389332294464,9.849146842956543,-10.955810546875,-3.662109375,-62.347412109375
4.7674999,-1.875258445739746,0.023942016065120697,9.968857765197754,-17.9443359375,-15.899658203125,-34.332275390625
4.772499900000001,-2.451063871383667,-0.8649053573608398,9.445125579833984,-22.979736328125,-14.556884765625,1.5869140625
4.7774999000000005,-2.411559581756592,-0.8607155084609985,9.804255485534668,-10.009765625,-24.383544921875,20.538330078125
4.7824999,-1.9698294401168823,-1.2342109680175781,9.623494148254395,-10.284423828125,-32.40966796875,38.2080078125
4.7874999,-0.9894038438796997,-1.224035620689392,9.424176216125488,-10.284423828125,-33.26416015625,45.623779296875
4.7924999,-0.10354922711849213,-1.5705963373184204,9.569025993347168,16.29638671875,-24.47509765625,49.8046875
4.7974999,0.7457938194274902,-1.6962919235229492,9.408015251159668,20.5078125,-5.55419921875,42.41943359375
4.8024999,1.592742681503296,-0.5704185366630554,9.77133560180664,10.955810546875,7.904052734375,27.4658203125
4.8074999,2.0380642414093018,0.3411737382411957,9.79527759552002,-10.040283203125,34.912109375,-41.961669921875
4.812499900000001,0.6847416758537292,0.8254010081291199,9.724648475646973,-12.39013671875,12.786865234375,-51.513671875
4.8174999000000005,-0.7631517648696899,0.578798234462738,9.821015357971191,-9.185791015625,-6.40869140625,-62.3779296875
4.8224999,-2.096123695373535,-0.2495955228805542,9.889249801635742,-21.148681640625,-17.791748046875,-28.167724609375
4.8274999,-2.473809003829956,-0.6703764796257019,9.260771751403809,-22.552490234375,-15.228271484375,5.92041015625
4.8324999,-2.4582467079162598,-1.0043675899505615,9.821614265441895,-6.89697265625,-26.7333984375,24.505615234375
4.8374999,-1.857301950454712,-1.194706678390503,9.451709747314453,-12.02392578125,-32.5927734375,38.787841796875
4.8424999,-0.8822633028030396,-1.2767080068588257,9.451709747314453,-6.683349609375,-31.982421875,46.2646484375
4.8474999,0.03651157766580582,-1.6466121673583984,9.594164848327637,20.44677734375,-20.721435546875,49.072265625
4.852499900000001,1.2258312702178955,-1.1408370733261108,9.660603523254395,17.15087890625,6.195068359375,38.970947265625
4.8574999000000005,1.623268723487854,-0.4644751250743866,9.847949981689453,8.026123046875,6.256103515625,21.42333984375
4.8624999,1.8806453943252563,-0.26575639843940735,10.021530151367188,-0.91552734375,1.312255859375,-4.241943359375
4.8674999,2.4612393379211426,-0.3944447338581085,9.907805442810059,17.242431640625,15.44189453125,-18.98193359375
4.8724999,2.850895643234253,-0.26755204796791077,9.691728591918945,22.796630859375,38.26904296875,-29.96826171875
4.8774999,2.7694928646087646,-0.17537526786327362,9.808445930480957,-1.617431640625,43.243408203125,-42.572021484375
4.8824999,1.8680758476257324,0.5805938839912415,9.731232643127441,-12.0849609375,32.318115234375,-43.51806640625
4.8874999,0.4537012279033661,0.7870938181877136,9.77013874053955,-13.3056640625,8.819580078125,-53.253173828125
4.8924999,-1.0330979824066162,0.8978256583213806,9.585186958312988,-7.2021484375,-8.9111328125,-56.82373046875
4.897499900000001,-2.3295583724975586,-0.5081692934036255,9.73542308807373,-23.74267578125,-18.798828125,-19.622802734375
4.9024999000000005,-2.5462334156036377,-0.47165772318840027,9.036913871765137,-22.125244140625,-17.08984375,9.552001953125
4.9074999,-2.429516077041626,-1.2360066175460815,9.903017044067383,-4.94384765625,-28.106689453125,28.106689453125
4.9124999,-0.6416460275650024,-1.5514427423477173,9.749189376831055,-1.8310546875,-30.21240234375,46.844482421875
4.9174999,0.28550854325294495,-1.8638859987258911,9.84256362915039,23.895263671875,-17.730712890625,48.126220703125
4.9224999,0.9487023949623108,-1.7794904708862305,9.658807754516602,18.280029296875,0.1220703125,39.9169921875
4.9274999,1.3036428689956665,-1.036689281463623,9.813833236694336,15.93017578125,7.293701171875,37.41455078125
4.9324999,1.6657658815383911,-0.3292027413845062,9.965266227722168,5.035400390625,3.997802734375,16.326904296875
4.937499900000001,1.913565754890442,-0.2801215946674347,9.946112632751465,2.01416015625,0.91552734375,-7.14111328125
4.9424999000000005,2.538452386856079,-0.38486793637275696,9.856329917907715,20.477294921875,19.378662109375,-20.599365234375
4.9474999,2.8341362476348877,-0.21188685297966003,9.543288230895996,20.050048828125,40.252685546875,-31.005859375
4.9524999,2.7060465812683105,-0.0035913025494664907,9.801861763000488,-5.126953125,43.060302734375,-43.88427734375
4.9574999,1.7016788721084595,0.8080430626869202,9.708487510681152,-15.106201171875,30.181884765625,-48.095703125
4.9624999,0.2495955228805542,0.7769184708595276,9.783307075500488,-13.580322265625,6.072998046875,-56.5185546875
4.9674999,-1.2713210582733154,0.689530074596405,9.81263542175293,-6.2255859375,-10.92529296875,-49.1943359375
4.9724999,-2.5737667083740234,-0.6602011322975159,9.30386734008789,-19.8974609375,-19.53125,12.51220703125
4.977499900000001,-2.40736985206604,-1.1887211799621582,9.834183692932129,-5.06591796875,-30.1513671875,32.928466796875
4.9824999000000005,-1.3772644996643066,-1.460463047027588,9.437344551086426,-15.228271484375,-32.745361328125,40.679931640625
4.9874999,-0.43275195360183716,-1.5783774852752686,9.546878814697266,4.791259765625,-28.045654296875,47.454833984375
4.9924999,0.5261258482933044,-1.9105730056762695,9.565434455871582,26.2451171875,-14.16015625,46.295166015625
4.9974999,1.0821791887283325,-1.678335428237915,9.442132949829102,17.608642578125,3.0517578125,38.482666015625
5.0024999,1.4203602075576782,-0.9193734526634216,9.6989107131958,14.7705078125,8.209228515625,33.87451171875
5.0074999,1.6903064250946045,-0.21607670187950134,9.961075782775879,2.25830078125,2.38037109375,11.016845703125
5.0124999,1.9818004369735718,-0.2693476974964142,9.876680374145508,6.40869140625,2.777099609375,-10.406494140625
5.0174999,2.6126725673675537,-0.27892449498176575,9.898228645324707,21.91162109375,24.10888671875,-23.040771484375
5.022499900000001,2.8592753410339355,-0.0999579206109047,9.582193374633789,14.739990234375,42.66357421875,-34.0576171875
5.0274999000000005,2.589329242706299,0.1586158573627472,9.9000244140625,-8.60595703125,42.6025390625,-45.074462890625
5.0324999,-0.13287819921970367,0.5985504388809204,9.851541519165039,-12.481689453125,1.708984375,-58.89892578125
5.0374999,-1.656787633895874,0.2908954918384552,9.923966407775879,-9.429931640625,-13.85498046875,-41.80908203125
5.0424999,-2.671330451965332,-0.8421604633331299,9.376891136169434,-24.688720703125,-18.646240234375,-3.265380859375
5.0474999,-2.5917234420776367,-0.8684966564178467,9.41100788116455,-15.594482421875,-22.552490234375,16.815185546875
5.0524999,-2.229600429534912,-1.2210428714752197,9.546878814697266,-7.2021484375,-31.219482421875,36.468505859375
5.0574999,-1.1037269830703735,-1.4754267930984497,9.291297912597656,-14.34326171875,-31.55517578125,40.679931640625
5.062499900000001,-0.18555063009262085,-1.7070658206939697,9.531316757202148,13.61083984375,-25.848388671875,48.919677734375
5.0674999000000005,0.7254431247711182,-2.0015525817871094,9.497797966003418,24.7802734375,-9.765625,43.060302734375
5.0724999,1.1701661348342896,-1.5502456426620483,9.543288230895996,17.15087890625,5.4931640625,37.567138671875
5.0774999,1.479616641998291,-0.8098387122154236,9.79647445678711,12.3291015625,7.080078125,29.449462890625
5.0824999,1.7004817724227905,-0.2944868206977844,10.099940299987793,0.67138671875,0.579833984375,6.4697265625
5.0874999,2.121262788772583,-0.35494041442871094,9.906607627868652,12.420654296875,6.317138671875,-13.12255859375
5.0924999,2.9299042224884033,-0.0011971008498221636,9.594164848327637,8.575439453125,45.196533203125,-38.2080078125
5.0974999,2.4157495498657227,0.4507084786891937,9.821614265441895,-11.474609375,40.802001953125,-46.56982421875
5.102499900000001,1.1354501247406006,1.0983400344848633,9.70429801940918,-16.845703125,18.707275390625,-51.08642578125
5.1074999000000005,-0.47644615173339844,0.547075092792511,9.822212219238281,-10.406494140625,-2.44140625,-59.87548828125
5.1124999,-2.0225019454956055,-0.0736217051744461,9.897629737854004,-13.885498046875,-17.669677734375,-32.77587890625
5.1174999,-2.7269957065582275,-1.1264718770980835,9.269750595092773,-24.2919921875,-18.798828125,3.631591796875
5.1224999,-2.6443958282470703,-1.1330559253692627,9.576807022094727,-10.711669921875,-25.7568359375,21.453857421875
5.1274999,-2.0416555404663086,-1.37906014919281,9.458293914794922,-10.55908203125,-32.073974609375,38.543701171875
5.1324999,-0.9313444495201111,-1.4760253429412842,9.270947456359863,-10.589599609375,-30.45654296875,41.961669921875
5.1374999,0.009576806798577309,-1.677138328552246,9.498994827270508,20.5078125,-23.5595703125,50.29296875
5.1424999,0.8607155084609985,-1.8614917993545532,9.351752281188965,21.484375,-4.486083984375,40.95458984375
5.147499900000001,2.3074119091033936,-0.3585317134857178,9.959878921508789,15.869140625,10.25390625,-16.448974609375
5.1524999000000005,2.849100112915039,-0.3998316824436188,9.78869342803955,20.6298828125,35.2783203125,-31.18896484375
5.1574999,3.007715940475464,0.020949264988303185,9.721057891845703,3.387451171875,47.8515625,-40.0390625
5.1624999,2.2631192207336426,0.5303156971931458,9.804255485534668,-12.908935546875,37.384033203125,-45.34912109375
5.1674999,0.7924807667732239,0.9941922426223755,9.687539100646973,-16.54052734375,13.092041015625,-54.779052734375
5.1724999,-0.8379706144332886,0.8050503134727478,9.549872398376465,-7.537841796875,-6.53076171875,-59.38720703125
