# Time (seconds),Accel_X,Accel_Y,Accel_Z,Gyro_X,Gyro_Y,Gyro_Z
0.0024999,0.8553285598754883,-0.9169792532920837,9.747393608093262,-5.615234375,0.640869140625,1.922607421875
0.0074999,0.8553285598754883,-0.9169792532920837,9.747393608093262,-5.615234375,0.640869140625,1.922607421875
0.012499900000000001,0.8553285598754883,-0.9169792532920837,9.747393608093262,-5.615234375,0.640869140625,1.922607421875
0.0174999,0.8702923059463501,-0.882861852645874,9.625288963317871,3.11279296875,-0.6103515625,-3.173828125
0.0224999,0.812831461429596,-0.8026561141014099,9.835380554199219,0.396728515625,0.42724609375,2.99072265625
0.0274999,0.8259995579719543,-0.8906430602073669,9.633668899536133,-3.448486328125,0,-3.60107421875
0.0324999,0.7841010689735413,-0.7350199222564697,9.840168952941895,6.622314453125,-0.274658203125,2.86865234375
0.0374999,0.889445960521698,-0.9361328482627869,9.694122314453125,-8.087158203125,0.06103515625,-2.593994140625
0.0424999,0.829590916633606,-0.9253589510917664,9.767146110534668,6.103515625,-0.48828125,-1.861572265625
0.0474999,0.790086567401886,-0.8678981065750122,9.82879638671875,-3.0517578125,0.42724609375,2.25830078125
0.0524999,0.8050503134727478,-0.9127894043922424,9.655217170715332,-0.18310546875,-0.48828125,-3.387451171875
0.0574999,0.7942764163017273,-0.7308300733566284,9.874884605407715,4.08935546875,0.30517578125,3.11279296875
0.0624999,0.829590916633606,-0.9265560507774353,9.650428771972656,-6.683349609375,0.091552734375,-3.021240234375
0.0674999,0.7493851184844971,-0.7978677153587341,9.849745750427246,8.36181640625,0.06103515625,1.373291015625
0.0724999,0.8224082589149475,-0.9385270476341248,9.655217170715332,-8.636474609375,0.640869140625,-0.48828125
0.0774999,0.7984662652015686,-0.8888474106788635,9.747393608093262,7.32421875,-0.579833984375,-1.28173828125
0.0824999,0.8601169586181641,-0.8834604024887085,9.747992515563965,-4.57763671875,0.244140625,2.166748046875
0.0874999,0.8702923059463501,-0.9062053561210632,9.61451530456543,1.15966796875,-0.30517578125,-3.2958984375
0.0924999,0.8595184087753296,-0.7912836670875549,9.850942611694336,2.899169921875,0.18310546875,2.471923828125
0.0974999,0.7894880175590515,-0.8092401623725891,9.867103576660156,7.9345703125,0.030517578125,1.190185546875
0.1024999,0.8661024570465088,-0.9085995554924011,9.678560256958008,-8.087158203125,0.8544921875,-0.8544921875
0.1074999,0.838569164276123,-0.8882488012313843,9.768941879272461,6.866455078125,0.06103515625,-1.52587890625
0.1124999,0.8960300087928772,-0.838569164276123,9.779715538024902,-3.692626953125,0.67138671875,1.77001953125
0.1174999,0.8834604024887085,-0.9151836037635803,9.619303703308105,0.18310546875,-0.1220703125,-3.509521484375
0.1224999,0.8810662031173706,-0.7697358727455139,9.853935241699219,3.47900390625,0.3662109375,2.25830078125
0.1274999,0.9157821536064148,-0.9421183466911316,9.61571216583252,-7.32421875,0.885009765625,-3.11279296875
0.1324999,0.9385270476341248,-1.002571940422058,9.75936508178711,5.035400390625,2.62451171875,-0.79345703125
0.1374999,1.4071919918060303,-1.7292121648788452,9.19552993774414,-21.820068359375,11.138916015625,-5.035400390625
0.1424999,2.0410568714141846,-2.6575639247894287,8.130110740661621,-15.9912109375,41.68701171875,-13.85498046875
0.1474999,2.257133722305298,-3.360262155532837,6.517615795135498,-68.29833984375,91.12548828125,-41.046142578125
0.1524999,2.367266893386841,-3.9618053436279297,4.487332344055176,96.405029296875,76.84326171875,-70.98388671875
0.1574999,0.7374141216278076,-1.4395138025283813,3.025672435760498,113.95263671875,91.156005859375,-12.542724609375
0.1624999,-0.50876784324646,-0.0867898091673851,3.58292293548584,83.49609375,76.629638671875,-45.34912109375
0.1674999,-1.1851298809051514,1.754351258277893,4.356249809265137,-11.444091796875,21.30126953125,-54.74853515625
0.1724999,-1.9177556037902832,3.117250680923462,5.122394561767578,-33.50830078125,-34.332275390625,-54.046630859375
0.17749990000000002,-2.4408886432647705,4.0863037109375,4.992508888244629,-48.15673828125,-53.192138671875,-73.66943359375
0.1824999,-2.6168625354766846,4.447229862213135,5.261856555938721,-73.8525390625,-42.755126953125,-60.943603515625
0.1874999,-2.8862102031707764,4.826112270355225,6.3081231117248535,-40.8935546875,-29.266357421875,-18.00537109375
0.1924999,-2.874239206314087,3.533243179321289,8.237251281738281,11.65771484375,-24.566650390625,0.18310546875
0.1974999,-2.654571056365967,2.9071593284606934,9.692327499389648,-28.350830078125,-37.109375,15.625
0.2024999,-2.3307554721832275,2.1481974124908447,11.066598892211914,-41.3818359375,-67.81005859375,39.703369140625
0.20749990000000001,-1.566406488418579,1.1552022695541382,10.98040771484375,2.593994140625,-71.685791015625,20.172119140625
0.2124999,-0.7015010714530945,0.9127894043922424,10.237606048583984,-1.40380859375,-58.135986328125,-7.080078125
0.2174999,1.4802151918411255,-0.6877344250679016,9.005789756774902,-9.246826171875,-45.684814453125,20.843505859375
0.2224999,2.492962598800659,-1.194706678390503,8.871115684509277,11.810302734375,-14.0380859375,2.197265625
0.2274999,3.2752678394317627,-1.5322890281677246,8.898649215698242,-20.294189453125,-6.89697265625,-9.674072265625
0.2324999,3.6080620288848877,-1.391629695892334,9.036913871765137,-22.4609375,-7.32421875,-5.18798828125
0.2374999,3.555988073348999,-1.6011223793029785,9.116521835327148,2.25830078125,2.74658203125,-6.103515625
0.2424999,3.2794578075408936,-1.7483657598495483,9.16201114654541,-1.3427734375,21.026611328125,-13.7939453125
0.2474999,2.7509377002716064,-2.0009541511535645,9.202713012695312,-12.298583984375,25.726318359375,-7.14111328125
0.2524999,2.1140801906585693,-2.166153907775879,9.32421875,11.871337890625,19.34814453125,6.65283203125
0.2574999,1.3976151943206787,-2.079364061355591,9.476848602294922,16.387939453125,16.082763671875,1.5869140625
0.2624999,0.7350199222564697,-1.8177976608276367,9.561244010925293,-4.5166015625,16.17431640625,-5.18798828125
0.2674999,0.09636662155389786,-1.3910311460494995,9.805453300476074,8.056640625,8.209228515625,4.7607421875
0.2724999,-0.5051765441894531,-0.41718965768814087,10.029311180114746,-9.8876953125,-2.777099609375,-11.077880859375
0.2774999,-0.44771572947502136,-0.23762452602386475,10.093954086303711,-7.26318359375,-7.87353515625,-2.62451171875
0.2824999,-0.14365209639072418,-0.15562310814857483,10.049062728881836,8.636474609375,-13.0615234375,10.07080078125
0.28749990000000003,0.2663549482822418,-0.2256535142660141,9.895833969116211,-8.48388671875,-9.979248046875,-1.3427734375
0.2924999,0.7649474143981934,-0.524330198764801,9.768941879272461,-14.312744140625,-4.82177734375,-6.072998046875
0.2974999,1.1593921184539795,-0.8816647529602051,9.726444244384766,9.552001953125,-4.82177734375,6.500244140625
0.3024999,1.3994108438491821,-1.1103110313415527,9.605537414550781,3.082275390625,-0.762939453125,1.495361328125
0.3074999,1.5783774852752686,-1.3305776119232178,9.545681953430176,-12.176513671875,5.523681640625,-7.537841796875
0.3124999,1.4658499956130981,-1.3868412971496582,9.602544784545898,10.80322265625,4.302978515625,3.631591796875
0.3174999,1.3012486696243286,-1.2210428714752197,9.557653427124023,10.31494140625,2.99072265625,2.838134765625
0.3224999,1.1139023303985596,-1.0229226350784302,9.598953247070312,-12.5732421875,7.904052734375,-8.48388671875
0.3274999,0.8858546018600464,-0.910993754863739,9.763554573059082,5.92041015625,3.692626953125,1.5869140625
0.3324999,0.49799394607543945,-0.6685808300971985,9.894637107849121,0.640869140625,-1.983642578125,1.373291015625
0.3374999,0.48303020000457764,-0.7182605266571045,9.864110946655273,12.0849609375,-5.859375,6.195068359375
0.3424999,0.5895721912384033,-0.7649474143981934,9.733627319335938,-15.106201171875,-1.15966796875,-6.34765625
0.34749990000000003,0.7481880187988281,-0.9498994946479797,9.752182006835938,-0.823974609375,-1.007080078125,0
0.35249990000000003,0.8595184087753296,-0.9852139949798584,9.736021041870117,15.655517578125,-3.5400390625,4.82177734375
0.3574999,0.9840168952941895,-0.950498104095459,9.633668899536133,-14.190673828125,2.62451171875,-6.378173828125
0.3624999,1.0684125423431396,-1.0103530883789062,9.713275909423828,-0.67138671875,2.13623046875,0.885009765625
0.3674999,1.0211269855499268,-0.9277531504631042,9.730035781860352,17.242431640625,-1.068115234375,4.241943359375
0.3724999,1.0097545385360718,-0.8277952671051025,9.651625633239746,-15.533447265625,4.57763671875,-6.378173828125
0.3774999,0.9187749028205872,-0.882861852645874,9.767744064331055,0.30517578125,1.40380859375,2.01416015625
0.3824999,0.7960720658302307,-0.8337807655334473,9.775525093078613,16.29638671875,-2.044677734375,3.0517578125
0.3874999,0.74040687084198,-0.9151836037635803,9.821614265441895,3.72314453125,-1.800537109375,3.692626953125
0.3924999,0.7200561761856079,-0.8595184087753296,9.778518676757812,14.190673828125,-3.173828125,1.28173828125
0.3974999,0.8355764150619507,-0.8768763542175293,9.707290649414062,-20.294189453125,2.25830078125,-5.828857421875
0.4024999,0.8086416125297546,-0.9588778018951416,9.841365814208984,9.368896484375,-2.410888671875,4.974365234375
0.4074999,0.8762778043746948,-0.8690952062606812,9.744999885559082,9.09423828125,-0.79345703125,-1.89208984375
0.41249990000000003,0.9151836037635803,-0.8708908557891846,9.653421401977539,-20.050048828125,3.47900390625,-3.875732421875
0.41749990000000003,0.889445960521698,-0.943913996219635,9.829395294189453,16.510009765625,-2.471923828125,5.706787109375
0.4224999,0.8978256583213806,-0.8475474119186401,9.667187690734863,0.244140625,1.64794921875,-4.669189453125
0.4274999,0.8684966564178467,-0.9103952050209045,9.710882186889648,-15.350341796875,2.960205078125,-0.518798828125
0.4324999,0.8313865661621094,-0.9026140570640564,9.834183692932129,20.751953125,-3.23486328125,4.241943359375
0.4374999,0.8254010081291199,-0.8062474131584167,9.645041465759277,-11.383056640625,3.021240234375,-6.195068359375
0.4424999,0.851138710975647,-0.8816647529602051,9.788095474243164,-4.730224609375,-0.06103515625,3.47900390625
0.4474999,0.8906430602073669,-0.8337807655334473,9.645041465759277,-19.683837890625,3.509521484375,-4.974365234375
0.4524999,0.8206126093864441,-0.9349357485771179,9.821614265441895,9.765625,-3.173828125,5.462646484375
0.4574999,0.8493430614471436,-0.849941611289978,9.679757118225098,5.92041015625,-0.6103515625,-4.058837890625
0.4624999,0.8349778652191162,-0.8672995567321777,9.651625633239746,-17.4560546875,2.838134765625,-0.67138671875
0.4674999,0.7984662652015686,-0.9014169573783875,9.789292335510254,19.775390625,-4.119873046875,3.875732421875
0.47249990000000003,0.8541314601898193,-0.8092401623725891,9.588777542114258,-11.077880859375,3.2958984375,-6.256103515625
0.47749990000000003,0.8487445116043091,-0.8678981065750122,9.725846290588379,-2.471923828125,0.54931640625,4.150390625
0.4824999,0.8667010068893433,-0.8373720645904541,9.654618263244629,-18.707275390625,3.96728515625,-3.662109375
0.4874999,0.8379706144332886,-0.9229647517204285,9.908403396606445,13.031005859375,-3.509521484375,5.157470703125
0.4924999,0.8559271097183228,-0.8487445116043091,9.66958236694336,-1.983642578125,0.579833984375,-5.615234375
0.4974999,0.8948329091072083,-0.8744821548461914,9.761159896850586,-8.941650390625,1.953125,3.204345703125
0.5024999,0.8529343605041504,-0.8888474106788635,9.792284965515137,16.998291015625,-3.875732421875,-0.54931640625
0.5074999,0.8822633028030396,-0.8236053586006165,9.568427085876465,-18.280029296875,4.8828125,-2.960205078125
0.5124999,0.8487445116043091,-0.9062053561210632,9.852140426635742,14.16015625,-3.0517578125,4.5166015625
0.5174999,0.8337807655334473,-0.8361749649047852,9.603142738342285,-5.06591796875,1.434326171875,-5.828857421875
0.5224999,0.8517372608184814,-0.8762778043746948,9.783905029296875,-4.82177734375,1.46484375,4.08935546875
0.5274999,0.7972691655158997,-0.8661024570465088,9.773730278015137,13.671875,-3.2958984375,-2.44140625
0.5324999,0.8152256608009338,-0.8313865661621094,9.657610893249512,-17.852783203125,4.547119140625,-1.007080078125
0.5374999,0.7380126714706421,-0.8936358094215393,9.880271911621094,17.181396484375,-4.302978515625,3.11279296875
0.5424999,0.7864952683448792,-0.9181763529777527,9.892841339111328,3.448486328125,-0.48828125,5.2490234375
0.5474999,0.8696937561035156,-0.9133879542350769,9.75517463684082,5.645751953125,-1.8310546875,-4.852294921875
0.5524999,0.8924387097358704,-0.8882488012313843,9.780912399291992,-12.6953125,3.41796875,2.349853515625
0.5574999,0.8577227592468262,-0.9103952050209045,9.893440246582031,17.2119140625,-4.425048828125,-0.335693359375
0.5624999,0.8936358094215393,-0.829590916633606,9.608530044555664,-17.39501953125,4.486083984375,-2.62451171875
0.5674999000000001,0.8152256608009338,-0.8583213090896606,9.86111831665039,14.0380859375,-2.899169921875,4.180908203125
0.5724999000000001,0.849941611289978,-0.8110358119010925,9.564835548400879,-7.781982421875,1.46484375,-5.706787109375
0.5774999000000001,0.8158242106437683,-0.8595184087753296,9.822212219238281,0.18310546875,0.8544921875,5.126953125
0.5824999,0.8475474119186401,-0.8810662031173706,9.743204116821289,7.354736328125,-2.288818359375,-4.913330078125
0.5874999,0.8858546018600464,-0.8589198589324951,9.742605209350586,-12.908935546875,3.7841796875,2.38037109375
0.5924999,0.8337807655334473,-0.9169792532920837,9.882665634155273,16.510009765625,-4.119873046875,-0.79345703125
0.5974999,0.8595184087753296,-0.8319851160049438,9.630077362060547,-16.845703125,4.150390625,-1.8310546875
0.6024999,0.8349778652191162,-0.8379706144332886,9.5809965133667,-10.43701171875,1.77001953125,-5.157470703125
0.6074999,0.8098387122154236,-0.899621307849884,9.879075050354004,4.913330078125,0,5.31005859375
0.6124999,0.8529343605041504,-0.9038111567497253,9.658209800720215,1.434326171875,-1.28173828125,-5.859375
0.6174999,0.8421604633331299,-0.8756792545318604,9.75517463684082,-6.988525390625,2.716064453125,4.39453125
0.6224999,0.8164227604866028,-0.9217676520347595,9.797672271728516,11.8408203125,-3.60107421875,-3.509521484375
0.6274999,0.8732850551605225,-0.838569164276123,9.67077922821045,-14.617919921875,3.753662109375,1.495361328125
0.6324999,0.8164227604866028,-0.899621307849884,9.895236015319824,16.357421875,-4.0283203125,-0.274658203125
0.6374999,0.872686505317688,-0.8391677141189575,9.654618263244629,-15.594482421875,3.35693359375,-2.197265625
0.6424999,0.7948749661445618,-0.8756792545318604,9.894038200378418,13.671875,-2.532958984375,3.265380859375
0.6474999,0.838569164276123,-0.8409633636474609,9.573814392089844,-10.467529296875,1.800537109375,-4.69970703125
0.6524999,0.8020575642585754,-0.8780734539031982,9.841365814208984,6.805419921875,-0.30517578125,5.035400390625
0.6574999,0.8571242094039917,-0.9313444495201111,9.725247383117676,6.103515625,-2.227783203125,-5.0048828125
0.6624999,0.8571242094039917,-0.9313444495201111,9.725247383117676,6.103515625,-2.227783203125,-5.0048828125
0.6674999,0.8637082576751709,-0.8678981065750122,9.756970405578613,-9.063720703125,2.86865234375,3.72314453125
0.6724999,0.8248024582862854,-0.9331400990486145,9.837775230407715,12.14599609375,-3.326416015625,-3.204345703125
0.6774999,0.8529343605041504,-0.8242039084434509,9.6618013381958,-13.519287109375,3.72314453125,1.434326171875
0.6824999,0.788889467716217,-0.8816647529602051,9.873687744140625,14.58740234375,-3.387451171875,-0.8544921875
0.6874999,0.8481459617614746,-0.8158242106437683,9.63187313079834,-14.617919921875,3.35693359375,-0.79345703125
0.6924999000000001,0.8086416125297546,-0.8744821548461914,9.871294021606445,14.251708984375,-2.838134765625,1.3427734375
0.6974999000000001,0.8224082589149475,-0.8349778652191162,9.587580680847168,-12.8173828125,2.0751953125,-2.62451171875
0.7024999000000001,0.8265981078147888,-0.8942343592643738,9.857526779174805,11.3525390625,-1.64794921875,3.23486328125
0.7074999,0.8637082576751709,-0.8834604024887085,9.576208114624023,-9.27734375,0.762939453125,-4.5166015625
0.7124999,0.8367735147476196,-0.9163807034492493,9.873088836669922,7.232666015625,-0.06103515625,4.669189453125
0.7174999,0.8756792545318604,-0.9056068062782288,9.869498252868652,2.471923828125,1.220703125,5.645751953125
0.7224999,0.912190854549408,-0.9145850539207458,9.642647743225098,0.213623046875,-1.373291015625,-6.2255859375
0.7274999,0.8912416100502014,-0.8678981065750122,9.8599214553833,-1.983642578125,2.50244140625,5.401611328125
0.7324999,0.8690952062606812,-0.910993754863739,9.708487510681152,4.058837890625,-2.25830078125,-5.828857421875
0.7374999,0.812831461429596,-0.8289923667907715,9.814431190490723,-5.67626953125,2.86865234375,5.096435546875
0.7424999,0.8146271109580994,-0.9133879542350769,9.767744064331055,7.26318359375,-2.838134765625,-4.974365234375
0.7474999,0.7272387742996216,-0.801459014415741,9.700108528137207,-8.4228515625,2.74658203125,4.08935546875
0.7524999,0.8050503134727478,-0.9193734526634216,9.768941879272461,9.765625,-2.9296875,-4.33349609375
0.7574999,0.7499836683273315,-0.800261914730072,9.636661529541016,-10.345458984375,2.74658203125,3.173828125
0.7624999,0.8469488620758057,-0.9199720025062561,9.823410034179688,11.077880859375,-2.899169921875,-3.11279296875
0.7674999,0.8224082589149475,-0.801459014415741,9.632472038269043,-11.444091796875,2.777099609375,2.197265625
0.7724999,0.8774749040603638,-0.9199720025062561,9.882665634155273,11.962890625,-2.716064453125,-2.227783203125
0.7774999,0.8852560520172119,-0.9175778031349182,9.865307807922363,12.603759765625,-2.3193359375,-1.434326171875
0.7824999,0.9044097065925598,-0.8152256608009338,9.63187313079834,-12.39013671875,2.349853515625,0.579833984375
0.7874999,0.8559271097183228,-0.8846575021743774,9.855133056640625,12.542724609375,-2.227783203125,-0.9765625
0.7924999,0.9301473498344421,-0.8086416125297546,9.671378135681152,-12.5732421875,2.3193359375,0.030517578125
0.7974999,0.8164227604866028,-0.8750807046890259,9.870695114135742,12.481689453125,-1.64794921875,-0.244140625
0.8024999,0.768538773059845,-0.9181763529777527,9.818022727966309,12.176513671875,-1.678466796875,0.213623046875
0.8074999,0.9056068062782288,-0.8643068075180054,9.64803409576416,-11.749267578125,1.556396484375,-0.457763671875
0.8124999,0.9068039059638977,-0.8421604633331299,9.643844604492188,-11.5966796875,1.5869140625,-0.48828125
0.8174999000000001,0.8050503134727478,-0.8876502513885498,9.813833236694336,11.505126953125,-1.251220703125,-0.3662109375
0.8224999000000001,0.8948329091072083,-0.8265981078147888,9.625887870788574,-11.383056640625,1.678466796875,0
0.8274999000000001,0.8301894664764404,-0.889445960521698,9.813833236694336,11.260986328125,-1.8310546875,-0.67138671875
0.8324999000000001,0.8732850551605225,-0.8062474131584167,9.599552154541016,-10.986328125,2.0751953125,0.67138671875
0.8374999,0.829590916633606,-0.8906430602073669,9.816825866699219,10.894775390625,-1.434326171875,-1.129150390625
0.8424999,0.8259995579719543,-0.8032546639442444,9.621698379516602,-10.528564453125,1.8310546875,1.007080078125
0.8474999,0.8289923667907715,-0.9091981053352356,9.812037467956543,10.528564453125,-1.861572265625,-1.922607421875
0.8524999,0.7769184708595276,-0.8649053573608398,9.670180320739746,-9.857177734375,1.800537109375,1.861572265625
0.8574999,0.8481459617614746,-0.9403226971626282,9.806051254272461,9.521484375,-1.922607421875,-2.50244140625
0.8624999,0.7697358727455139,-0.9552865028381348,9.704896926879883,-8.941650390625,1.861572265625,2.50244140625
0.8674999,0.862511157989502,-0.9498994946479797,9.804255485534668,8.575439453125,-2.01416015625,-3.47900390625
0.8724999,0.8732850551605225,-0.9145850539207458,9.768342971801758,6.4697265625,-2.01416015625,-4.21142578125
0.8774999,0.8361749649047852,-0.8092401623725891,9.834183692932129,-5.096435546875,1.495361328125,3.997802734375
0.8824999,0.8978256583213806,-0.8619126081466675,9.698312759399414,3.631591796875,-1.556396484375,-4.638671875
0.8874999,0.8768763542175293,-0.690727174282074,9.829395294189453,-2.197265625,1.251220703125,4.302978515625
0.8924999,0.8924387097358704,-0.8774749040603638,9.64803409576416,0.67138671875,-1.373291015625,-4.852294921875
0.8974999,0.8152256608009338,-0.7266402244567871,9.790489196777344,0.885009765625,1.28173828125,4.425048828125
0.9024999,0.861314058303833,-0.9630676507949829,9.616311073303223,-1.983642578125,-0.9765625,-4.94384765625
0.9074999,0.7649474143981934,-0.8188169598579407,9.815030097961426,4.21142578125,1.068115234375,4.180908203125
0.9124999,0.8349778652191162,-1.013944387435913,9.608530044555664,-5.340576171875,-0.48828125,-4.302978515625
0.9174999,0.8325836658477783,-0.8738836050033569,9.867103576660156,6.683349609375,0.42724609375,3.631591796875
0.9224999,0.8271966576576233,-1.0007762908935547,9.654019355773926,-8.148193359375,0.18310546875,-3.448486328125
0.9274999,0.889445960521698,-1.004966139793396,9.702502250671387,-9.765625,0.67138671875,-1.861572265625
0.9324999,0.8182184100151062,-0.8858546018600464,9.895833969116211,10.406494140625,-0.762939453125,0.67138671875
0.9374999,0.8804676532745361,-0.9690531492233276,9.64803409576416,-9.979248046875,0.9765625,-0.335693359375
0.9424999000000001,0.8176198601722717,-0.8744821548461914,9.816226959228516,10.101318359375,-1.220703125,-1.190185546875
0.9474999000000001,0.7924807667732239,-0.9133879542350769,9.62947940826416,-8.941650390625,1.40380859375,1.64794921875
0.9524999000000001,0.8367735147476196,-0.8702923059463501,9.77133560180664,7.965087890625,-1.251220703125,-2.960205078125
0.9574999000000001,0.8092401623725891,-0.8756792545318604,9.781511306762695,-6.072998046875,1.46484375,2.86865234375
0.9624999,0.8696937561035156,-0.8816647529602051,9.73781681060791,4.33349609375,-1.495361328125,-3.7841796875
0.9674999,0.8409633636474609,-0.7631517648696899,9.841964721679688,-1.739501953125,1.28173828125,3.936767578125
0.9724999,0.8762778043746948,-0.8912416100502014,9.64923095703125,-0.48828125,-1.15966796875,-4.302978515625
0.9774999,0.812831461429596,-0.7254431247711182,9.812037467956543,2.74658203125,0.823974609375,3.814697265625
0.9824999,0.8337807655334473,-0.9433154463768005,9.603741645812988,-4.913330078125,-0.457763671875,-4.0283203125
0.9874999,0.9056068062782288,-1.0295066833496094,9.640253067016602,-8.4228515625,-0.030517578125,-2.62451171875
0.9924999,0.8571242094039917,-0.9038111567497253,9.873687744140625,9.46044921875,-0.18310546875,1.129150390625
0.9974999,0.9085995554924011,-0.9792284965515137,9.627683639526367,-9.46044921875,0.91552734375,-0.518798828125
1.0024999,0.8337807655334473,-0.8493430614471436,9.812037467956543,9.063720703125,-0.79345703125,-1.068115234375
1.0074999000000002,0.7882909178733826,-0.839766263961792,9.679159164428711,-7.8125,1.068115234375,1.64794921875
1.0124999000000001,0.8271966576576233,-0.8134300112724304,9.750985145568848,6.134033203125,-1.220703125,-2.99072265625
1.0174999000000002,0.8062474131584167,-0.7595604658126831,9.851541519165039,-3.692626953125,1.40380859375,3.021240234375
1.0224999000000001,0.8367735147476196,-0.8696937561035156,9.70429801940918,0.9765625,-0.91552734375,-4.180908203125
1.0274999,0.8110358119010925,-0.7523778676986694,9.883264541625977,1.922607421875,0.91552734375,3.448486328125
1.0324999000000001,0.8254010081291199,-0.9469067454338074,9.63187313079834,-4.2724609375,-0.457763671875,-3.692626953125
1.0374999,0.8212111592292786,-0.8403648138046265,9.845556259155273,6.77490234375,0.244140625,2.685546875
1.0424999000000001,0.8984242081642151,-0.9917980432510376,9.648633003234863,-8.4228515625,0.54931640625,-2.0751953125
1.0474999,0.8738836050033569,-0.9642647504806519,9.676166534423828,-8.97216796875,1.03759765625,0.244140625
1.0524999000000002,0.8379706144332886,-0.8762778043746948,9.783307075500488,7.6904296875,-0.79345703125,-2.01416015625
1.0574999,0.8062474131584167,-0.8481459617614746,9.75397777557373,-5.37109375,1.129150390625,2.25830078125
1.0624999000000002,0.8451532125473022,-0.862511157989502,9.6803560256958,3.11279296875,-1.0986328125,-3.570556640625
1.0674999,0.8020575642585754,-0.7422025203704834,9.828198432922363,0.3662109375,0.91552734375,3.5400390625
1.0724999000000002,0.8254010081291199,-0.8978256583213806,9.623494148254395,-3.11279296875,-0.6103515625,-3.60107421875
1.0774999,0.800261914730072,-0.7906851172447205,9.820416450500488,5.859375,0.091552734375,2.62451171875
1.0824999000000002,0.8864531517028809,-0.9552865028381348,9.655217170715332,-7.62939453125,0.1220703125,-2.227783203125
1.0874999,0.8738836050033569,-0.8762778043746948,9.849745750427246,8.544921875,-0.3662109375,0.518798828125
1.0924999000000002,0.900818407535553,-0.9630676507949829,9.70429801940918,-8.4228515625,0.732421875,0.518798828125
1.0974999,0.871489405632019,-0.9038111567497253,9.786897659301758,6.89697265625,-0.701904296875,-2.166748046875
1.1024999000000002,0.8415619134902954,-0.8523358106613159,9.80904483795166,-4.241943359375,1.15966796875,2.44140625
1.1074999,0.8313865661621094,-0.7422025203704834,9.86889934539795,2.01416015625,0.885009765625,3.173828125
1.1124999000000002,0.829590916633606,-0.9056068062782288,9.65222454071045,-5.126953125,0.06103515625,-3.082275390625
1.1174999,0.7823054194450378,-0.8050503134727478,9.851541519165039,7.415771484375,0.1220703125,1.739501953125
1.1224999000000002,0.8421604633331299,-0.9349357485771179,9.592369079589844,-8.514404296875,0.732421875,-0.885009765625
1.1274999,0.8409633636474609,-0.8906430602073669,9.761758804321289,8.209228515625,-0.457763671875,-0.946044921875
1.1324999000000002,0.8786720037460327,-0.9313444495201111,9.652822494506836,-6.53076171875,0.518798828125,1.77001953125
1.1374999000000001,0.9002198576927185,-0.9229647517204285,9.657012939453125,3.90625,-0.885009765625,-3.082275390625
1.1424999000000002,0.8236053586006165,-0.8469488620758057,9.823410034179688,-0.30517578125,0.946044921875,2.899169921875
1.1474999000000001,0.8361749649047852,-0.943913996219635,9.671378135681152,-3.143310546875,-0.6103515625,-3.2958984375
1.1524999000000002,0.7763199210166931,-0.821809709072113,9.880271911621094,6.256103515625,0.030517578125,2.227783203125
1.1574999000000001,0.8056488633155823,-0.933738648891449,9.634267807006836,-7.720947265625,0.274658203125,-1.312255859375
1.1624999,0.8176198601722717,-0.8523358106613159,9.815030097961426,8.087158203125,-0.30517578125,-0.518798828125
1.1674999000000001,0.8577227592468262,-0.849941611289978,9.709685325622559,4.302978515625,-0.701904296875,-2.74658203125
1.1724999,0.7912836670875549,-0.7643488645553589,9.841964721679688,-0.42724609375,0.762939453125,2.8076171875
1.1774999000000002,0.8337807655334473,-0.8888474106788635,9.6803560256958,-2.86865234375,-0.48828125,-3.265380859375
1.1824999,0.7858967185020447,-0.7835025191307068,9.874286651611328,6.16455078125,0.18310546875,1.983642578125
1.1874999000000002,0.8343793153762817,-0.9151836037635803,9.607931137084961,-7.75146484375,0.1220703125,-1.28173828125
1.1924999,0.8457517623901367,-0.8547300100326538,9.784503936767578,7.9345703125,-0.396728515625,-0.762939453125
1.1974999000000002,0.8756792545318604,-0.889445960521698,9.694721221923828,-6.011962890625,0.54931640625,1.556396484375
1.2024999,0.871489405632019,-0.8942343592643738,9.678560256958008,3.35693359375,-1.007080078125,-3.021240234375
1.2074999000000002,0.8319851160049438,-0.8182184100151062,9.841365814208984,0.79345703125,0.396728515625,2.777099609375
1.2124999,0.8505401611328125,-0.9487023949623108,9.696516990661621,-4.150390625,-0.152587890625,-2.8076171875
1.2174999000000002,0.7817068696022034,-0.8367735147476196,9.8784761428833,6.8359375,-0.06103515625,1.251220703125
1.2224999,0.8182184100151062,-0.9391255974769592,9.670180320739746,-7.781982421875,0.3662109375,-0.701904296875
1.2274999000000002,0.862511157989502,-0.8254010081291199,9.752182006835938,-3.997802734375,0.701904296875,2.197265625
1.2324999,0.9014169573783875,-0.8882488012313843,9.66419506072998,0.6103515625,-0.396728515625,-3.2958984375
1.2374999000000002,0.8966285586357117,-0.7775170207023621,9.850942611694336,3.5400390625,0.152587890625,2.38037109375
1.2424999,0.9487023949623108,-0.9313444495201111,9.64683723449707,-6.28662109375,0.030517578125,-2.0751953125
1.2474999000000002,0.8535329103469849,-0.8589198589324951,9.807847023010254,7.9345703125,-0.518798828125,0.06103515625
1.2524999,0.8906430602073669,-0.9050082564353943,9.711481094360352,-6.89697265625,0.152587890625,0.885009765625
1.2574999000000002,0.8349778652191162,-0.8930372595787048,9.709086418151855,4.608154296875,-0.79345703125,-2.655029296875
1.2624999000000001,0.7577648162841797,-0.7924807667732239,9.782708168029785,-0.701904296875,0.3662109375,2.5634765625
1.2674999000000002,0.8074445128440857,-0.9103952050209045,9.650428771972656,-2.838134765625,-0.518798828125,-2.86865234375
1.2724999000000001,0.7439981698989868,-0.8122329115867615,9.84495735168457,6.103515625,0.335693359375,1.52587890625
1.2774999000000002,0.7846996188163757,-0.9301473498344421,9.650428771972656,-7.50732421875,0.457763671875,-0.640869140625
1.2824999000000001,0.8780734539031982,-0.9361328482627869,9.658209800720215,-6.591796875,0.244140625,-1.495361328125
1.2874999,0.8720879554748535,-0.8667010068893433,9.785700798034668,7.32421875,-0.396728515625,-0.518798828125
1.2924999000000001,0.8900445103645325,-0.8786720037460327,9.740211486816406,-5.37109375,0.42724609375,1.617431640625
1.2974999,0.8457517623901367,-0.9133879542350769,9.653421401977539,2.288818359375,-0.579833984375,-2.716064453125
1.3024999000000002,0.8523358106613159,-0.8056488633155823,9.835979461669922,2.044677734375,0.396728515625,2.3193359375
1.3074999,0.8972271084785461,-0.950498104095459,9.645041465759277,-5.43212890625,-0.030517578125,-2.288818359375
1.3124999000000002,0.8068459630012512,-0.8379706144332886,9.807249069213867,7.354736328125,-0.18310546875,0.152587890625
1.3174999,0.8571242094039917,-0.9044097065925598,9.739612579345703,-6.34765625,0.396728515625,0.91552734375
1.3224999000000002,0.7948749661445618,-0.882861852645874,9.716269493103027,3.72314453125,-0.457763671875,-2.5634765625
1.3274999,0.7954735159873962,-0.8224082589149475,9.781511306762695,6.622314453125,-0.18310546875,0.732421875
1.3324999000000002,0.8804676532745361,-0.943913996219635,9.668384552001953,-6.561279296875,0.152587890625,0.518798828125
1.3374999,0.8535329103469849,-0.9229647517204285,9.716269493103027,4.608154296875,-0.274658203125,-2.227783203125
1.3424999000000002,0.8110358119010925,-0.8134300112724304,9.7605619430542,-0.518798828125,0.42724609375,2.349853515625
1.3474999,0.8667010068893433,-0.9522937536239624,9.673172950744629,-3.35693359375,0.030517578125,-2.471923828125
1.3524999000000002,0.788889467716217,-0.8152256608009338,9.850942611694336,6.53076171875,0.1220703125,0.701904296875
1.3574999,0.8409633636474609,-0.9385270476341248,9.723451614379883,-6.744384765625,0.42724609375,0.42724609375
1.3624999000000002,0.871489405632019,-0.9062053561210632,9.673771858215332,-3.23486328125,0.030517578125,-2.410888671875
1.3674999,0.8056488633155823,-0.7841010689735413,9.841964721679688,6.2255859375,0.1220703125,0.946044921875
1.3724999000000002,0.8619126081466675,-0.9032126069068909,9.747992515563965,4.8828125,-0.48828125,-2.01416015625
1.3774999,0.8619126081466675,-0.9032126069068909,9.747992515563965,4.8828125,-0.48828125,-2.01416015625
1.3824999000000002,0.8194155097007751,-0.8164227604866028,9.754576683044434,-1.068115234375,0.457763671875,2.3193359375
1.3874999000000001,0.8810662031173706,-0.9373299479484558,9.674968719482422,-3.021240234375,0.030517578125,-2.38037109375
1.3924999000000002,0.812831461429596,-0.7996633648872375,9.840767860412598,6.317138671875,-0.152587890625,0.823974609375
1.3974999000000001,0.871489405632019,-0.9277531504631042,9.730634689331055,-6.439208984375,0.213623046875,0.396728515625
1.4024999000000002,0.8774749040603638,-0.8960300087928772,9.750386238098145,4.39453125,-0.335693359375,-2.13623046875
1.4074999000000001,0.8547300100326538,-0.8038532137870789,9.755773544311523,-0.396728515625,0.579833984375,2.25830078125
1.4124999,0.9277531504631042,-0.9445125460624695,9.646238327026367,-3.47900390625,-0.213623046875,-2.5634765625
1.4174999000000001,0.8182184100151062,-0.8044517636299133,9.825803756713867,6.4697265625,-0.335693359375,0.518798828125
1.4224999,0.8565256595611572,-0.9313444495201111,9.758766174316406,-6.134033203125,0.030517578125,0.640869140625
1.4274999000000002,0.8092401623725891,-0.8978256583213806,9.75517463684082,3.631591796875,-0.579833984375,-2.349853515625
1.4324999,0.8110358119010925,-0.7829039692878723,9.785101890563965,0.762939453125,0.213623046875,2.25830078125
1.4374999000000002,0.8098387122154236,-0.8535329103469849,9.832387924194336,2.3193359375,0.48828125,2.044677734375
1.4424999,0.8098387122154236,-0.8535329103469849,9.832387924194336,2.3193359375,0.48828125,2.044677734375
1.4474999000000002,0.7954735159873962,-0.9277531504631042,9.634267807006836,-5.4931640625,0.244140625,-1.28173828125
1.4524999,0.7841010689735413,-0.8164227604866028,9.782109260559082,6.317138671875,-0.3662109375,-0.579833984375
1.4574999000000002,0.8104372620582581,-0.8038532137870789,9.818621635437012,-4.08935546875,0.396728515625,1.556396484375
1.4624999,0.7894880175590515,-0.871489405632019,9.753378868103027,0.42724609375,-0.457763671875,-2.5634765625
1.4674999000000002,0.8242039084434509,-0.8032546639442444,9.949105262756348,3.96728515625,-0.274658203125,1.64794921875
1.4724999,0.8110358119010925,-0.9068039059638977,9.671378135681152,-6.011962890625,0.06103515625,-0.885009765625
1.4774999000000002,0.8667010068893433,-0.8601169586181641,9.748590469360352,5.79833984375,-0.48828125,-1.708984375
1.4824999,0.8756792545318604,-0.8170213103294373,9.678560256958008,-2.166748046875,0.3662109375,1.953125
1.4874999000000002,0.9229647517204285,-0.9044097065925598,9.633070945739746,-1.983642578125,0.091552734375,-2.38037109375
1.4924999,0.8882488012313843,-0.8469488620758057,9.807249069213867,5.2490234375,0,0.885009765625
1.4974999000000002,0.9056068062782288,-0.9594763517379761,9.68694019317627,-6.072998046875,0.152587890625,0.30517578125
1.5024999,0.872686505317688,-0.9564836025238037,9.70549488067627,3.936767578125,-0.396728515625,-2.105712890625
1.5074999000000002,0.8738836050033569,-0.8505401611328125,9.701904296875,0.335693359375,0.152587890625,2.105712890625
1.5124999000000001,0.9385270476341248,-0.9624691009521484,9.611522674560547,-4.180908203125,0,-1.861572265625
1.5174999000000002,0.862511157989502,-0.8319851160049438,9.727641105651855,6.34765625,-0.1220703125,-0.1220703125
1.5224999000000001,0.9313444495201111,-0.921169102191925,9.7791166305542,-5.096435546875,0.640869140625,1.15966796875
1.5274999000000002,0.8277952671051025,-0.9660604000091553,9.721057891845703,1.434326171875,-0.1220703125,-2.74658203125
1.5324999000000001,0.8277952671051025,-0.8852560520172119,9.888052940368652,2.960205078125,0.274658203125,1.861572265625
1.5374999000000003,0.7972691655158997,-0.950498104095459,9.622296333312988,-5.767822265625,0.18310546875,-1.007080078125
1.5424999000000001,0.7894880175590515,-0.889445960521698,9.761758804321289,5.615234375,-0.244140625,-1.373291015625
1.5474999,0.7811083197593689,-0.8451532125473022,9.68933391571045,-2.3193359375,0.396728515625,1.77001953125
1.5524999000000002,0.7864952683448792,-0.9385270476341248,9.682151794433594,-1.5869140625,-0.091552734375,-2.38037109375
1.5574999,0.7709329724311829,-0.8870517015457153,9.847949981689453,5.2490234375,-0.274658203125,0.8544921875
1.5624999000000002,0.8236053586006165,-0.9852139949798584,9.731831550598145,-5.859375,0.18310546875,0.18310546875
1.5674999,0.8421604633331299,-0.9654618501663208,9.723451614379883,3.631591796875,-0.18310546875,-2.044677734375
1.5724999000000002,0.8984242081642151,-0.8487445116043091,9.701305389404297,0.91552734375,0.030517578125,2.410888671875
1.5774999,0.9445125460624695,-0.8972271084785461,9.607931137084961,-4.57763671875,0,-1.678466796875
1.5824999000000002,0.9433154463768005,-0.7894880175590515,9.678560256958008,5.9814453125,-0.1220703125,-0.457763671875
1.5874999,0.9582792520523071,-0.828393816947937,9.800065994262695,-4.0283203125,0.396728515625,1.556396484375
1.5924999000000002,0.8906430602073669,-0.912190854549408,9.716269493103027,0.244140625,-0.335693359375,-2.62451171875
1.5974999,0.8487445116043091,-0.8457517623901367,9.934141159057617,4.302978515625,-0.030517578125,1.40380859375
1.6024999000000002,0.7870938181877136,-0.93254154920578,9.725846290588379,-5.67626953125,0.3662109375,-0.30517578125
1.6074999,0.8044517636299133,-0.8720879554748535,9.750386238098145,4.57763671875,-0.213623046875,-1.89208984375
1.6124999000000002,0.8188169598579407,-0.8864531517028809,9.888651847839355,3.448486328125,-0.30517578125,1.861572265625
1.6174999,0.768538773059845,-0.9636662006378174,9.667187690734863,-5.615234375,-0.06103515625,-0.42724609375
1.6224999000000002,0.839766263961792,-0.8960300087928772,9.707290649414062,4.638671875,-0.457763671875,-1.617431640625
1.6274999,0.8050503134727478,-0.7870938181877136,9.694721221923828,-1.03759765625,0.06103515625,1.861572265625
1.6324999000000002,0.9481038451194763,-0.8930372595787048,9.627683639526367,-2.9296875,0,-2.197265625
1.6374999000000001,0.8463503122329712,-0.7739257216453552,9.795876502990723,5.37109375,0.335693359375,0.091552734375
1.6424999000000002,0.9307458996772766,-0.8936358094215393,9.820416450500488,-4.791259765625,0.701904296875,0.9765625
1.6474999000000001,0.811634361743927,-0.9469067454338074,9.781511306762695,1.251220703125,0.06103515625,-2.50244140625
1.6524999000000002,0.8110358119010925,-0.767341673374176,9.701305389404297,-0.79345703125,0.48828125,1.983642578125
1.6574999000000001,0.9510966539382935,-0.849941611289978,9.606734275817871,-3.387451171875,0.152587890625,-1.52587890625
1.6624999000000003,1.0845733880996704,-1.1079168319702148,9.455899238586426,2.0751953125,-0.152587890625,0.518798828125
1.6674999000000001,1.4700398445129395,-2.2427685260772705,7.846996307373047,-61.21826171875,11.688232421875,16.9677734375
1.6724999,1.5089455842971802,-3.5889084339141846,6.100425720214844,-182.67822265625,49.4384765625,114.227294921875
1.6774999000000002,2.25473952293396,-3.9199066162109375,4.124012470245361,250.518798828125,-29.876708984375,288.9404296875
1.6824999,1.0678139925003052,-2.959233283996582,3.265092611312866,475.7080078125,-11.810302734375,226.9287109375
1.6874999000000002,0.7284358739852905,-0.07960720360279083,3.9223008155822754,158.782958984375,151.336669921875,37.567138671875
1.6924999,-0.9301473498344421,3.0819361209869385,4.613028049468994,9.765625,76.263427734375,-30.975341796875
1.6974999000000002,-1.811812162399292,5.917269706726074,5.427056789398193,-28.900146484375,-69.580078125,-46.966552734375
1.7024999,-0.4255693554878235,6.241085052490234,1.3162124156951904,-103.912353515625,-119.964599609375,-103.33251953125
1.7074999000000002,0.24181437492370605,6.521206855773926,2.9047651290893555,-7.080078125,-15.13671875,-73.6083984375
1.7124999,1.4832079410552979,5.961562156677246,5.464166641235352,161.102294921875,125.67138671875,-87.615966796875
1.7174999000000002,2.1068975925445557,5.638344764709473,8.272565841674805,213.8671875,125.640869140625,-115.234375
1.7224999,3.1681272983551025,5.0254292488098145,11.741764068603516,169.769287109375,41.839599609375,-102.4169921875
1.7274999000000002,3.553593873977661,4.088697910308838,13.71458625793457,-16.4794921875,17.333984375,-54.962158203125
1.7324999,3.867832899093628,3.5488054752349854,14.822503089904785,-80.535888671875,20.93505859375,-16.4794921875
1.7374999000000002,3.3913867473602295,3.027467966079712,14.34366226196289,1.28173828125,1.953125,-9.521484375
1.7424999,2.449268341064453,2.425326347351074,12.884995460510254,1.068115234375,-24.627685546875,-8.85009765625
1.7474999000000002,1.227626919746399,-1.7609353065490723,8.529343605041504,-13.916015625,-0.3662109375,10.009765625
1.7524999,1.6310498714447021,-2.1128830909729004,8.699930191040039,-3.265380859375,-1.46484375,-0.274658203125
1.7574999000000002,1.9243396520614624,-2.205658197402954,8.71609115600586,-18.157958984375,11.993408203125,2.471923828125
1.7624999000000001,1.8950105905532837,-2.184709072113037,8.728660583496094,6.805419921875,12.75634765625,2.8076171875
1.7674999000000002,1.6765397787094116,-1.9788076877593994,8.808866500854492,12.420654296875,7.293701171875,-10.772705078125
1.7724999000000001,1.4736311435699463,-1.7166426181793213,8.707113265991211,2.593994140625,22.52197265625,-4.913330078125
1.7774999000000002,1.0959458351135254,-1.5532383918762207,8.850166320800781,30.76171875,10.68115234375,-4.7607421875
1.7824999000000001,0.8415619134902954,-1.2671312093734741,9.019556045532227,24.383544921875,0.579833984375,-12.115478515625
1.7874999000000003,0.6189011335372925,-1.0965443849563599,9.065046310424805,20.050048828125,10.7421875,-0.335693359375
1.7924999000000001,0.3860650360584259,-0.7410054206848145,9.663596153259277,25.45166015625,-10.07080078125,-5.37109375
1.7974999,0.5410895943641663,-0.40940847992897034,9.99339771270752,25.146484375,-2.044677734375,4.241943359375
1.8024999000000002,0.7086837291717529,-0.008379706181585789,10.63504409790039,30.792236328125,-16.90673828125,-4.8828125
1.8074999,0.9959878921508789,0.5123591423034668,10.80203914642334,-11.65771484375,-3.72314453125,-6.591796875
1.8124999000000002,1.2629413604736328,0.9582792520523071,11.121665000915527,3.448486328125,-1.800537109375,-1.0986328125
1.8174999,1.4089876413345337,1.1139023303985596,10.963647842407227,0.91552734375,-11.5966796875,-5.889892578125
1.8224999000000002,1.634641170501709,1.035492181777954,10.396222114562988,-27.587890625,5.401611328125,4.08935546875
1.8274999,1.7184382677078247,0.8750807046890259,9.982624053955078,6.89697265625,0.335693359375,4.39453125
1.8324999000000002,1.721431016921997,0.26396074891090393,9.531915664672852,-11.260986328125,-3.509521484375,-1.220703125
1.8374999,1.7280150651931763,-0.03950432687997818,9.17817211151123,-19.439697265625,13.18359375,7.26318359375
1.8424999000000002,1.4957774877548218,-0.5943605899810791,9.34157657623291,8.72802734375,-1.922607421875,-2.50244140625
1.8474999,1.316810965538025,-0.871489405632019,9.204508781433105,-14.58740234375,6.134033203125,-3.60107421875
1.8524999000000002,0.8738836050033569,-1.1791443824768066,9.429563522338867,11.1083984375,-7.38525390625,-5.645751953125
1.8574999,0.829590916633606,-1.0552444458007812,9.260771751403809,-5.401611328125,8.758544921875,1.8310546875
1.8624999000000002,0.7457938194274902,-0.9804255962371826,9.515155792236328,20.3857421875,-4.33349609375,0.79345703125
1.8674999,0.7942764163017273,-0.6985083222389221,9.53849983215332,2.197265625,-5.889892578125,-6.011962890625
1.8724999000000002,0.9295487999916077,-0.424970805644989,9.558850288391113,3.814697265625,6.65283203125,3.509521484375
1.8774999,0.9852139949798584,-0.23104046285152435,9.920374870300293,16.41845703125,-10.894775390625,-5.767822265625
1.8824999000000002,1.170764684677124,0.0017956512747332454,9.766547203063965,-12.969970703125,3.936767578125,-1.77001953125
1.8874999000000001,1.225232720375061,0.1256955862045288,10.095749855041504,12.3291015625,-0.732421875,1.312255859375
1.8924999000000002,1.3012486696243286,0.1322796493768692,10.019734382629395,-6.16455078125,-5.462646484375,-4.852294921875
1.8974999000000001,1.41257905960083,0.2041056901216507,9.897629737854004,-8.72802734375,8.575439453125,5.2490234375
1.9024999000000002,1.41257905960083,0.2041056901216507,9.897629737854004,-8.72802734375,8.575439453125,5.2490234375
1.9074999000000001,1.3341689109802246,0.0077811554074287415,10.012551307678223,10.772705078125,-7.476806640625,-2.227783203125
1.9124999000000003,1.2635399103164673,-0.3758896589279175,9.806650161743164,8.575439453125,2.410888671875,3.11279296875
1.9174999000000001,1.1791443824768066,-0.5650315880775452,9.707290649414062,-2.716064453125,-4.94384765625,-5.615234375
1.9224999,1.0223240852355957,-0.6625953316688538,9.707290649414062,13.763427734375,-7.50732421875,-4.425048828125
1.9274999000000002,1.0223240852355957,-0.6625953316688538,9.707290649414062,13.763427734375,-7.50732421875,-4.425048828125
1.9324999,1.0450690984725952,-0.5530605912208557,9.44991397857666,-11.627197265625,5.279541015625,-0.18310546875
1.9374999000000002,1.0067617893218994,-0.5327098965644836,9.733627319335938,15.167236328125,0.18310546875,1.46484375
1.9424999,1.061229944229126,-0.4602852761745453,9.691728591918945,-5.279541015625,-3.875732421875,-5.126953125
1.9474999000000002,1.1091139316558838,-0.2968810200691223,9.7791166305542,0.79345703125,6.866455078125,4.2724609375
1.9524999,1.1276689767837524,-0.2621650993824005,9.946710586547852,8.72802734375,-8.60595703125,-5.126953125
1.9574999000000002,1.157596468925476,-0.1472434103488922,9.767744064331055,-13.916015625,6.77490234375,2.62451171875
1.9624999,1.1839327812194824,-0.1825578808784485,10.029909133911133,14.7705078125,-3.84521484375,-0.30517578125
1.9674999000000002,1.1929110288619995,-0.21308395266532898,9.744999885559082,-13.885498046875,0.335693359375,-1.77001953125
1.9724999,1.1115081310272217,-0.42437225580215454,9.73781681060791,12.115478515625,-6.4697265625,-4.180908203125
1.9774999000000002,1.1115081310272217,-0.42437225580215454,9.73781681060791,12.115478515625,-6.4697265625,-4.180908203125
1.9824999,1.0761936902999878,-0.383670836687088,9.515754699707031,-13.519287109375,5.584716796875,1.220703125
1.9874999000000002,1.0761936902999878,-0.424970805644989,9.874884605407715,15.5029296875,-1.3427734375,-0.030517578125
1.9924999,1.0779893398284912,-0.41539400815963745,9.695320129394531,-10.92529296875,-1.129150390625,-3.23486328125
1.9974999000000002,1.158793568611145,-0.31364041566848755,9.86111831665039,7.843017578125,4.33349609375,3.570556640625
2.0024999,1.1378443241119385,-0.2603694200515747,9.828198432922363,9.6435546875,-6.805419921875,-4.425048828125
2.0074999,1.215057373046875,-0.2537853717803955,9.651625633239746,-13.48876953125,5.615234375,2.655029296875
2.0124999000000003,1.1785458326339722,-0.32441434264183044,9.899425506591797,14.7705078125,-3.41796875,-1.3427734375
2.0174999000000002,1.1755530834197998,-0.3357867896556854,9.825803756713867,12.0849609375,2.166748046875,2.197265625
2.0224999,1.1683704853057861,-0.4321534037590027,9.640253067016602,-7.843017578125,-3.41796875,-4.058837890625
2.0274999,1.202487826347351,-0.2908954918384552,9.746794700622559,4.058837890625,5.7373046875,4.302978515625
2.0324999000000004,1.1402385234832764,-0.3860650360584259,9.710882186889648,1.739501953125,-6.195068359375,-5.584716796875
2.0374999000000003,1.2030863761901855,-0.23942017555236816,9.6989107131958,-5.401611328125,6.683349609375,4.302978515625
2.0424999,1.1127052307128906,-0.33339259028434753,9.80904483795166,10.223388671875,-5.523681640625,-4.486083984375
2.0474999,1.1677719354629517,-0.26755204796791077,9.62947940826416,-12.20703125,4.974365234375,2.74658203125
2.0524999,1.0893617868423462,-0.31543606519699097,9.870695114135742,14.495849609375,-2.9296875,-2.13623046875
2.0574999000000003,1.105522632598877,-0.4159925580024719,9.621698379516602,-14.7705078125,1.953125,0.274658203125
2.0624999,1.1091139316558838,-0.3106476664543152,9.889848709106445,14.0380859375,-0.06103515625,0.67138671875
2.0674999,1.1085153818130493,-0.44532153010368347,9.619303703308105,-12.14599609375,-1.495361328125,-2.288818359375
2.0724999,1.139639973640442,-0.272938996553421,9.825803756713867,9.796142578125,3.143310546875,2.838134765625
2.0774999000000003,1.194706678390503,-0.18076223134994507,9.724050521850586,-2.99072265625,5.767822265625,4.33349609375
2.0824999,1.1312602758407593,-0.3711012601852417,9.883264541625977,10.833740234375,-4.119873046875,-3.997802734375
2.0874999,1.1827356815338135,-0.38486793637275696,9.602544784545898,-11.993408203125,3.753662109375,2.655029296875
2.0924999,1.1234791278839111,-0.36990416049957275,9.864709854125977,13.153076171875,-2.593994140625,-2.471923828125
2.0974999000000003,1.1617863178253174,-0.3992331326007843,9.560047149658203,-13.48876953125,1.861572265625,1.15966796875
2.1024999,1.1091139316558838,-0.3034650683403015,9.854534149169922,13.885498046875,-0.885009765625,-1.007080078125
2.1074999,1.1019313335418701,-0.45669397711753845,9.592369079589844,-13.092041015625,0.274658203125,-0.48828125
2.1124999,1.12467622756958,-0.2974795699119568,9.846753120422363,13.12255859375,0.579833984375,0.3662109375
2.1174999000000003,1.18094003200531,-0.28790274262428284,9.87967300415039,11.260986328125,1.861572265625,1.5869140625
2.1224999,1.1791443824768066,-0.3471592366695404,9.649829864501953,-9.735107421875,-1.953125,-2.838134765625
2.1274999,1.1994950771331787,-0.25737667083740234,9.912593841552734,8.97216796875,2.532958984375,2.593994140625
2.1324999,1.1959037780761719,-0.3315969407558441,9.68574333190918,-7.75146484375,-2.5634765625,-3.448486328125
2.1374999000000003,1.1456254720687866,-0.23104046285152435,9.843161582946777,6.805419921875,3.23486328125,3.173828125
2.1424999000000002,1.1480196714401245,-0.3166331648826599,9.660005569458008,-5.340576171875,-2.960205078125,-4.08935546875
2.1474999,1.1091139316558838,-0.1951274424791336,9.732429504394531,4.57763671875,3.5400390625,3.692626953125
2.1524999,1.1276689767837524,-0.2974795699119568,9.628880500793457,-3.0517578125,-3.448486328125,-4.241943359375
2.1574999000000004,1.137245774269104,-0.18734627962112427,9.700706481933594,3.021240234375,3.814697265625,3.84521484375
2.1624999000000003,1.1791443824768066,-0.3531447649002075,9.755773544311523,-0.6103515625,3.47900390625,4.058837890625
2.1674999,1.1510124206542969,-0.39205053448677063,9.710283279418945,1.03759765625,-2.9296875,-4.45556640625
2.1724999,1.1749545335769653,-0.34356793761253357,9.744400978088379,-0.396728515625,3.326416015625,3.753662109375
2.1774999000000004,1.1492167711257935,-0.37169981002807617,9.695320129394531,0.48828125,-3.082275390625,-4.57763671875
2.1824999000000003,1.159990668296814,-0.2998737692832947,9.75278091430664,0.030517578125,2.960205078125,3.631591796875
2.1874999,1.1456254720687866,-0.34596213698387146,9.68933391571045,0,-3.11279296875,-4.45556640625
2.1924999,1.1348515748977661,-0.2585737705230713,9.778518676757812,0.946044921875,2.838134765625,3.72314453125
2.1974999,1.1342530250549316,-0.3208230137825012,9.703699111938477,-0.8544921875,-2.685546875,-4.08935546875
2.2024999000000003,1.114500880241394,-0.2885012924671173,9.80904483795166,4.5166015625,2.44140625,3.143310546875
2.2074999,1.139639973640442,-0.3555389642715454,9.6618013381958,-4.82177734375,-1.983642578125,-3.509521484375
2.2124999,1.148618221282959,-0.31783026456832886,9.845556259155273,6.16455078125,1.983642578125,2.44140625
2.2174999,1.1288660764694214,-0.3531447649002075,9.652822494506836,-6.622314453125,-1.77001953125,-2.9296875
2.2224999000000003,1.1444283723831177,-0.3148375153541565,9.858723640441895,7.62939453125,1.77001953125,2.01416015625
2.2274999,1.0869675874710083,-0.35434186458587646,9.64923095703125,-7.87353515625,-1.007080078125,-2.227783203125
2.2324999,1.1186907291412354,-0.3124433159828186,9.883264541625977,8.6669921875,1.312255859375,1.373291015625
2.2374999,1.12467622756958,-0.38726213574409485,9.642048835754395,-9.1552734375,-0.701904296875,-1.3427734375
2.2424999000000003,1.1665748357772827,-0.25737667083740234,9.609726905822754,-9.521484375,0.79345703125,0.67138671875
2.2474999,1.1420341730117798,-0.2603694200515747,9.81263542175293,9.521484375,-0.67138671875,-1.953125
2.2524999,1.1516109704971313,-0.32022446393966675,9.642647743225098,-8.392333984375,1.28173828125,1.64794921875
2.2574999,1.1408370733261108,-0.34177228808403015,9.788095474243164,7.87353515625,-1.52587890625,-2.74658203125
2.2624999000000003,1.1791443824768066,-0.40521863102912903,9.748590469360352,-6.072998046875,1.800537109375,2.44140625
2.2674999000000002,1.1408370733261108,-0.3860650360584259,9.786299705505371,5.06591796875,-1.678466796875,-3.570556640625
2.2724999,1.1701661348342896,-0.3693056106567383,9.787496566772461,-3.0517578125,2.105712890625,3.143310546875
2.2774999,1.1210849285125732,-0.333991140127182,9.717466354370117,1.64794921875,-1.708984375,-3.570556640625
2.2824999000000004,1.1139023303985596,-0.24899697303771973,9.80904483795166,0.42724609375,2.288818359375,3.265380859375
2.2874999000000003,1.091755986213684,-0.25677812099456787,9.676166534423828,-2.288818359375,-1.678466796875,-3.662109375
2.2924999,1.1049240827560425,-0.20889410376548767,9.82999324798584,4.39453125,1.77001953125,2.50244140625
2.2974999,1.1540051698684692,-0.30466216802597046,9.78869342803955,8.544921875,-0.335693359375,-1.52587890625
2.3024999000000004,1.14742112159729,-0.284311443567276,9.62947940826416,-7.354736328125,1.495361328125,1.77001953125
2.3074999000000003,1.1432312726974487,-0.30226796865463257,9.725846290588379,5.828857421875,-1.007080078125,-2.838134765625
2.3124999,1.1749545335769653,-0.2890998423099518,9.77253246307373,-3.662109375,1.617431640625,2.532958984375
2.3174999,1.12467622756958,-0.3495534360408783,9.714473724365234,1.953125,-1.8310546875,-3.448486328125
2.3224999,1.1300631761550903,-0.29568392038345337,9.82999324798584,0.8544921875,2.044677734375,3.021240234375
2.3274999000000003,1.0959458351135254,-0.3585317134857178,9.674968719482422,-2.99072265625,-1.251220703125,-3.082275390625
2.3324999,1.106719732284546,-0.28371289372444153,9.82759952545166,5.7373046875,1.312255859375,2.01416015625
2.3374999,1.1312602758407593,-0.2944868206977844,9.867103576660156,8.331298828125,0.42724609375,0.396728515625
2.3424999,1.1432312726974487,-0.3357867896556854,9.624691009521484,-8.209228515625,-0.091552734375,-0.091552734375
2.3474999000000003,1.1252747774124146,-0.2819172441959381,9.834183692932129,8.4228515625,-0.1220703125,-1.40380859375
2.3524999,1.1222820281982422,-0.2944868206977844,9.66958236694336,-6.805419921875,1.068115234375,1.77001953125
2.3574999,1.1264718770980835,-0.30286651849746704,9.7791166305542,5.157470703125,-1.0986328125,-2.899169921875
2.3624999,1.1534066200256348,-0.30466216802597046,9.807249069213867,-2.25830078125,1.40380859375,2.593994140625
2.3674999000000003,1.1216834783554077,-0.3621230125427246,9.77013874053955,-0.335693359375,-1.251220703125,-3.173828125
2.3724999,1.1510124206542969,-0.29149407148361206,9.871891975402832,3.2958984375,2.01416015625,2.44140625
2.3774999,1.105522632598877,-0.3561375141143799,9.709086418151855,-5.340576171875,-1.007080078125,-2.38037109375
2.3824999,1.113303780555725,-0.2944868206977844,9.898228645324707,7.50732421875,1.0986328125,1.007080078125
2.3874999000000003,1.1150994300842285,-0.314238965511322,9.615114212036133,-8.148193359375,-0.06103515625,-0.579833984375
2.3924999000000002,1.1150994300842285,-0.2867056429386139,9.809642791748047,8.209228515625,-0.1220703125,-1.03759765625
2.3974999,1.14742112159729,-0.292691171169281,9.739612579345703,5.035400390625,-0.885009765625,-2.74658203125
2.4024999,1.1516109704971313,-0.2849099934101105,9.788095474243164,-1.953125,1.739501953125,2.593994140625
2.4074999000000004,1.1150994300842285,-0.33937808871269226,9.730634689331055,-0.823974609375,-1.3427734375,-3.082275390625
2.4124999000000003,1.1342530250549316,-0.2944868206977844,9.848548889160156,4.08935546875,1.068115234375,2.01416015625
2.4174999,1.1456254720687866,-0.3728969097137451,9.694122314453125,-6.011962890625,-0.579833984375,-1.77001953125
2.4224999,1.1276689767837524,-0.32022446393966675,9.870695114135742,7.99560546875,0.3662109375,0.213623046875
2.4274999000000004,1.14742112159729,-0.35434186458587646,9.702502250671387,-7.781982421875,0.1220703125,0.244140625
2.4324999000000003,1.104325532913208,-0.2992752194404602,9.814431190490723,7.080078125,-0.823974609375,-1.983642578125
2.4374999,1.127070426940918,-0.26994624733924866,9.787496566772461,-4.7607421875,0.8544921875,2.13623046875
2.4424999,1.1085153818130493,-0.292691171169281,9.706692695617676,1.861572265625,-0.946044921875,-3.082275390625
2.4474999,1.1569979190826416,-0.2322375625371933,9.816825866699219,1.495361328125,1.28173828125,2.3193359375
2.4524999000000003,1.0977414846420288,-0.3196259140968323,9.637260437011719,-4.425048828125,-1.15966796875,-2.349853515625
2.4574999,1.080383539199829,-0.3345896899700165,9.557653427124023,-7.38525390625,-0.06103515625,-0.274658203125
2.4624999,1.1115081310272217,-0.3321954905986786,9.768342971801758,7.537841796875,-0.274658203125,-1.40380859375
2.4674999,1.1743559837341309,-0.33997663855552673,9.68155288696289,-5.462646484375,0.701904296875,1.77001953125
2.4724999000000003,1.1593921184539795,-0.345363587141037,9.698312759399414,2.74658203125,-0.762939453125,-2.74658203125
2.4774999,1.2030863761901855,-0.30705636739730835,9.845556259155273,0.885009765625,1.068115234375,2.44140625
2.4824999,1.0989385843276978,-0.3172317147254944,9.8784761428833,6.500244140625,0.6103515625,0.91552734375
2.4874999,1.0989385843276978,-0.3172317147254944,9.8784761428833,6.500244140625,0.6103515625,0.91552734375
2.4924999000000003,1.0528502464294434,-0.3405751883983612,9.638457298278809,-7.354736328125,0,-0.152587890625
2.4974999,1.0809820890426636,-0.33279404044151306,9.813234329223633,7.32421875,-0.274658203125,-1.52587890625
2.5024999,1.1438298225402832,-0.32860419154167175,9.730035781860352,-4.913330078125,0.8544921875,1.861572265625
2.5074999,1.148618221282959,-0.33997663855552673,9.699509620666504,2.105712890625,-0.579833984375,-2.86865234375
2.5124999000000003,1.18094003200531,-0.35673606395721436,9.679159164428711,-4.608154296875,-0.48828125,-1.922607421875
2.5174999000000002,1.158793568611145,-0.284311443567276,9.856928825378418,7.01904296875,0.213623046875,0.640869140625
2.5224999,1.14742112159729,-0.322618693113327,9.717466354370117,-7.4462890625,0.1220703125,0.42724609375
2.5274999,1.106719732284546,-0.2992752194404602,9.783307075500488,6.195068359375,0,-2.227783203125
2.5324999000000004,1.1276689767837524,-0.2861070930957794,9.783905029296875,-3.143310546875,0.946044921875,2.044677734375
2.5374999000000003,1.0881646871566772,-0.3190273642539978,9.677363395690918,0.06103515625,-1.28173828125,-2.655029296875
2.5424999,1.1264718770980835,-0.2849099934101105,9.81263542175293,3.997802734375,1.03759765625,1.708984375
2.5474999,1.136048674583435,-0.32381579279899597,9.66958236694336,-6.317138671875,-0.274658203125,-1.190185546875
2.5524999000000004,1.1336544752120972,-0.2849099934101105,9.79527759552002,7.354736328125,0.18310546875,-0.732421875
2.5574999000000003,1.1767501831054688,-0.3208230137825012,9.728240013122559,-6.16455078125,-0.152587890625,1.40380859375
2.5624999,1.1127052307128906,-0.33099839091300964,9.733627319335938,-7.14111328125,0.457763671875,0.335693359375
2.5674999,1.1276689767837524,-0.3148375153541565,9.794678688049316,5.9814453125,-0.3662109375,-1.89208984375
2.5724999,1.1569979190826416,-0.2825157940387726,9.787496566772461,-2.777099609375,0.946044921875,2.0751953125
2.5774999000000003,1.1222820281982422,-0.314238965511322,9.651625633239746,-0.823974609375,-0.518798828125,-2.655029296875
2.5824999,1.1444283723831177,-0.292691171169281,9.841964721679688,4.364013671875,0.579833984375,1.251220703125
2.5874999,1.12467622756958,-0.3214215636253357,9.589975357055664,-6.378173828125,-0.091552734375,-0.579833984375
2.5924999,1.128267526626587,-0.3106476664543152,9.801262855529785,6.927490234375,0.18310546875,-1.190185546875
2.5974999000000003,1.169567584991455,-0.292691171169281,9.731831550598145,-4.730224609375,0.396728515625,1.64794921875
2.6024999,1.125873327255249,-0.3345896899700165,9.744400978088379,1.5869140625,-0.42724609375,-2.410888671875
2.6074999,1.1569979190826416,-0.29568392038345337,9.891644477844238,2.288818359375,1.220703125,1.922607421875
2.6124999,1.1540051698684692,-0.34356793761253357,9.743204116821289,-5.462646484375,-0.213623046875,-1.3427734375
2.6174999000000003,1.1893197298049927,-0.3274070918560028,9.759963035583496,-5.645751953125,0.457763671875,1.495361328125
2.6224999,1.1330559253692627,-0.33758243918418884,9.698312759399414,2.99072265625,-0.18310546875,-2.410888671875
2.6274999,1.1593921184539795,-0.292691171169281,9.815628051757812,0.79345703125,1.46484375,2.105712890625
2.6324999,1.1540051698684692,-0.36092591285705566,9.665990829467773,-4.638671875,-0.06103515625,-1.617431640625
2.6374999000000003,1.106719732284546,-0.2825157940387726,9.831191062927246,6.4697265625,0.762939453125,0.152587890625
2.6424999000000002,1.1306617259979248,-0.33997663855552673,9.742605209350586,-5.859375,1.03759765625,1.129150390625
2.6474999,1.0540473461151123,-0.3321954905986786,9.761159896850586,3.997802734375,-0.18310546875,-2.471923828125
2.6524999,1.0785878896713257,-0.2777273952960968,9.80904483795166,0.1220703125,1.007080078125,1.8310546875
2.6574999000000004,1.0893617868423462,-0.33997663855552673,9.674968719482422,-3.692626953125,-0.396728515625,-2.044677734375
2.6624999000000003,1.072602391242981,-0.2735375463962555,9.834183692932129,6.072998046875,0.274658203125,0
2.6674999,1.1085153818130493,-0.3256114423274994,9.733028411865234,-6.2255859375,-0.213623046875,0.701904296875
2.6724999,1.058835744857788,-0.3208230137825012,9.77013874053955,3.997802734375,-0.54931640625,-2.62451171875
2.6774999000000004,1.1085153818130493,-0.32620999217033386,9.75637149810791,4.5166015625,-1.3427734375,-2.13623046875
2.6824999000000003,1.161187767982483,-0.26396074891090393,9.787496566772461,0.152587890625,0.732421875,2.105712890625
2.6874999,1.1827356815338135,-0.3232172429561615,9.638457298278809,-3.692626953125,0,-1.8310546875
2.6924999,1.1546037197113037,-0.2669534981250763,9.801262855529785,6.256103515625,0.42724609375,-0.30517578125
2.6974999,1.1785458326339722,-0.3429693877696991,9.720458984375,-5.950927734375,0.396728515625,0.9765625
2.7024999000000003,1.0881646871566772,-0.3357867896556854,9.73542308807373,3.47900390625,-0.152587890625,-2.3193359375
2.7074999,1.094150185585022,-0.2902969419956207,9.810839653015137,0.823974609375,0.885009765625,1.983642578125
2.7124999,1.1007342338562012,-0.33997663855552673,9.667187690734863,-3.753662109375,-0.54931640625,-1.373291015625
2.7174999,1.136048674583435,-0.36571431159973145,9.7791166305542,-4.364013671875,-0.274658203125,1.15966796875
2.7224999000000003,1.1049240827560425,-0.32381579279899597,9.852140426635742,3.265380859375,-0.457763671875,1.434326171875
2.7274999,1.105522632598877,-0.2992752194404602,9.640851974487305,-4.791259765625,-0.67138671875,-0.9765625
2.7324999,1.114500880241394,-0.20709845423698425,9.769539833068848,6.805419921875,-0.152587890625,-0.8544921875
2.7374999,1.171961784362793,-0.18734627962112427,9.764751434326172,-4.302978515625,0.67138671875,1.64794921875
2.7424999000000003,1.1264718770980835,-0.24660277366638184,9.725247383117676,0.732421875,-0.06103515625,-2.3193359375
2.7474999,1.1528080701828003,-0.27473464608192444,9.93354320526123,3.96728515625,0.79345703125,1.3427734375
2.7524999,1.0983400344848633,-0.322618693113327,9.666589736938477,-5.706787109375,0.244140625,-0.42724609375
2.7574999,1.1204863786697388,-0.3166331648826599,9.764153480529785,6.103515625,-0.091552734375,-1.495361328125
2.7624999000000003,1.1115081310272217,-0.30226796865463257,9.706093788146973,-2.44140625,0.18310546875,1.800537109375
2.7674999000000002,1.0887632369995117,-0.32620999217033386,9.622296333312988,-1.373291015625,-0.701904296875,-2.227783203125
2.7724999,1.1139023303985596,-0.31842881441116333,9.804255485534668,4.39453125,-0.732421875,-2.0751953125
2.7774999,1.1713632345199585,-0.25258827209472656,9.841365814208984,-1.190185546875,0.06103515625,1.64794921875
2.7824999000000004,1.170764684677124,-0.3058592677116394,9.672574996948242,-4.180908203125,-0.67138671875,-1.617431640625
2.7874999000000003,1.1432312726974487,-0.2687491476535797,9.806051254272461,5.706787109375,0.091552734375,-0.42724609375
2.7924999,1.1905168294906616,-0.3621230125427246,9.739612579345703,-5.55419921875,0.396728515625,1.434326171875
2.7974999,1.0881646871566772,-0.40521863102912903,9.711481094360352,2.593994140625,-0.1220703125,-2.197265625
2.8024999000000004,1.072602391242981,-0.28072014451026917,9.742006301879883,6.53076171875,0.18310546875,-1.251220703125
2.8074999000000003,1.1097124814987183,-0.2495955228805542,9.733028411865234,-2.838134765625,0.579833984375,1.89208984375
2.8124999,1.0504560470581055,-0.2783259451389313,9.713874816894531,-0.732421875,-0.06103515625,-1.953125
2.8174999,1.0821791887283325,-0.31842881441116333,9.829395294189453,-6.072998046875,-0.091552734375,0.091552734375
2.8224999,1.071405291557312,-0.3124433159828186,9.849146842956543,4.638671875,-0.701904296875,-1.953125
2.8274999000000003,1.14742112159729,-0.25977087020874023,9.85034465789795,-0.244140625,0.18310546875,1.800537109375
2.8324999,1.157596468925476,-0.3196259140968323,9.657012939453125,-3.692626953125,0.06103515625,-1.373291015625
2.8374999,1.159990668296814,-0.2801215946674347,9.765948295593262,6.34765625,-0.18310546875,-0.518798828125
2.8424999,1.1965023279190063,-0.35015198588371277,9.761159896850586,-4.82177734375,0.091552734375,1.190185546875
2.8474999000000003,1.1079168319702148,-0.37169981002807617,9.707290649414062,1.251220703125,-0.18310546875,-2.349853515625
2.8524999,1.12467622756958,-0.33518823981285095,9.894038200378418,2.99072265625,0.244140625,1.068115234375
2.8574999,1.071405291557312,-0.32381579279899597,9.66419506072998,-6.2255859375,0.1220703125,-0.3662109375
2.8624999,1.1103110313415527,-0.2795230448246002,9.733028411865234,5.035400390625,-0.030517578125,-1.678466796875
2.8674999000000003,1.1073182821273804,-0.22505496442317963,9.719860076904297,-2.288818359375,0.274658203125,1.89208984375
2.8724999,1.1552022695541382,-0.2890998423099518,9.625887870788574,-2.960205078125,-0.213623046875,-1.800537109375
2.8774999,1.1737574338912964,-0.3489548861980438,9.767744064331055,-5.7373046875,0.1220703125,0.9765625
2.8824999,1.0965443849563599,-0.3758896589279175,9.75637149810791,2.13623046875,-0.335693359375,-2.13623046875
2.8874999000000003,1.1623848676681519,-0.31124621629714966,9.835380554199219,2.044677734375,0.6103515625,1.495361328125
2.8924999000000002,1.1162965297698975,-0.27712884545326233,9.597756385803223,-5.950927734375,0.518798828125,0.457763671875
2.8974999,1.1976994276046753,-0.16879121959209442,9.731831550598145,4.241943359375,0.3662109375,0.3662109375
2.9024999,1.2497732639312744,-0.017956512048840523,9.731831550598145,-4.8828125,1.129150390625,5.035400390625
2.9074999000000004,1.3736732006072998,0.01735796220600605,9.756970405578613,-4.302978515625,0.79345703125,4.119873046875
2.9124999000000003,1.41257905960083,0.1843535304069519,9.95090103149414,0.67138671875,3.082275390625,9.307861328125
2.9174999,1.4814122915267944,0.23702596127986908,9.93474006652832,-11.260986328125,3.7841796875,11.23046875
2.9224999,1.3706804513931274,0.22026655077934265,9.873687744140625,-5.523681640625,3.41796875,7.904052734375
2.9274999000000004,1.3126211166381836,0.27054479718208313,9.870695114135742,-4.69970703125,4.7607421875,10.68115234375
2.9324999000000003,1.1468225717544556,0.07122749835252762,9.596558570861816,-7.26318359375,4.241943359375,7.843017578125
2.9374999,1.0947487354278564,0.015562310814857483,9.740211486816406,-0.732421875,3.936767578125,6.89697265625
2.9424999,1.2982559204101562,0.4129997789859772,10.00716495513916,-1.678466796875,2.716064453125,12.939453125
2.9474999,1.3718775510787964,0.618302583694458,9.942521095275879,-9.6435546875,1.0986328125,12.3291015625
2.9524999000000003,1.533486247062683,0.8541314601898193,9.974244117736816,-3.662109375,3.326416015625,14.190673828125
2.9574999,1.590348482131958,1.0420763492584229,10.046669006347656,-9.735107421875,4.547119140625,21.42333984375
2.9624999,1.6382324695587158,1.105522632598877,9.928155899047852,-2.777099609375,5.035400390625,29.11376953125
2.9674999,1.646013617515564,1.103128433227539,9.961674690246582,-11.505126953125,5.767822265625,33.02001953125
2.9724999000000003,1.3970166444778442,1.1528080701828003,10.087369918823242,-15.594482421875,3.326416015625,36.0107421875
2.9774999,1.2886791229248047,1.1773487329483032,10.132261276245117,-11.383056640625,2.105712890625,35.064697265625
2.9824999,1.2443863153457642,1.2653355598449707,10.311227798461914,-21.42333984375,3.997802734375,37.78076171875
2.9874999,1.0749965906143188,1.1438298225402832,10.357316970825195,-33.38623046875,3.875732421875,34.24072265625
2.9924999000000003,0.9259575009346008,1.0684125423431396,10.542867660522461,-36.19384765625,2.50244140625,32.40966796875
2.9974999,0.8044517636299133,0.829590916633606,10.773907661437988,-48.4619140625,5.279541015625,31.219482421875
3.0024999,0.6572083830833435,0.4231751561164856,10.733804702758789,-51.45263671875,8.026123046875,23.681640625
3.0074999,0.6631938815116882,0.10354922711849213,10.779294967651367,-55.17578125,5.340576171875,24.139404296875
3.0124999000000003,0.6506243348121643,-0.26575639843940735,10.606313705444336,-66.71142578125,2.838134765625,21.881103515625
3.0174999000000002,0.7709329724311829,-0.7326257228851318,10.384849548339844,-67.413330078125,4.57763671875,19.256591796875
3.0224999,0.8026561141014099,-0.8134300112724304,10.413579940795898,-74.127197265625,8.4228515625,22.552490234375
3.0274999,0.8780734539031982,-0.7930793166160583,10.657190322875977,-92.83447265625,13.18359375,11.993408203125
3.0324999000000004,0.8846575021743774,-0.3357867896556854,11.05402946472168,-113.46435546875,16.448974609375,11.260986328125
3.0374999000000003,0.7918822169303894,-0.04249707981944084,11.30422306060791,-132.232666015625,18.646240234375,3.631591796875
3.0424999,0.3489548861980438,-1.8614917993545532,7.666832447052002,-183.380126953125,-88.31787109375,306.243896484375
3.0474999,-1.2096704244613647,-0.7260416746139526,5.152322292327881,300.048828125,-236.602783203125,265.5029296875
3.0524999000000004,-3.155557870864868,0.9528923034667969,3.7852327823638916,192.230224609375,-214.630126953125,267.39501953125
3.0574999000000003,-4.986523628234863,2.8616695404052734,2.782660961151123,129.241943359375,-172.2412109375,318.17626953125
3.0624999,-5.615001678466797,4.4759602546691895,2.741959571838379,136.383056640625,-109.649658203125,349.151611328125
3.0674999,-4.855441093444824,5.230133533477783,3.3417069911956787,13.275146484375,-7.26318359375,405.517578125
3.0724999000000004,-2.670732021331787,2.9682116508483887,5.033809185028076,89.508056640625,181.671142578125,354.3701171875
3.0774999000000003,7.791929244995117,-5.044582843780518,11.183316230773926,319.671630859375,-63.812255859375,-22.39990234375
3.0824999,8.252214431762695,-2.852691411972046,8.10317611694336,238.76953125,-86.151123046875,-101.1962890625
3.0874999,8.06307315826416,-1.0755951404571533,4.080318450927734,335.0830078125,-136.444091796875,-116.3330078125
3.0924999,7.513603687286377,0.4985924959182739,0.4016273319721222,275.604248046875,-131.34765625,-101.86767578125
3.0974999000000003,6.931213855743408,1.787870168685913,-1.7920600175857544,263.458251953125,-99.365234375,-92.620849609375
3.1024999,6.34762716293335,2.3965959548950195,-2.540846586227417,244.354248046875,-68.4814453125,-74.64599609375
3.1074999,5.849034786224365,2.69646954536438,-2.078166961669922,206.024169921875,-45.95947265625,-54.595947265625
3.1124999,5.45458984375,2.7515363693237305,-0.812831461429596,155.94482421875,-35.33935546875,-34.11865234375
3.1174999000000003,5.084685802459717,2.5995044708251953,0.6769605278968811,89.84375,-40.618896484375,-12.0849609375
3.1224999,3.159149169921875,2.3738510608673096,3.71280837059021,-131.378173828125,-85.0830078125,-9.796142578125
3.1274999,2.652176856994629,2.4845829010009766,3.557783842086792,-161.224365234375,-68.66455078125,-28.533935546875
3.1324999,2.7934348583221436,3.418321371078491,4.637568473815918,-190.032958984375,-47.607421875,-49.468994140625
3.1374999000000003,3.538031578063965,4.680664539337158,6.242282390594482,-325.01220703125,40.10009765625,-61.492919921875
3.1424999000000002,4.387973308563232,5.578489780426025,7.38132381439209,-504.82177734375,119.2626953125,-74.64599609375
3.1474999,5.125985622406006,6.219537258148193,7.745242595672607,-494.56787109375,119.0185546875,-92.95654296875
3.1524999,5.0014872550964355,5.3564276695251465,5.906495571136475,-453.826904296875,122.25341796875,-119.81201171875
3.1574999000000004,4.393958568572998,3.8061821460723877,3.9659950733184814,-416.839599609375,140.869140625,-149.749755859375
3.1624999000000003,5.173271179199219,0.9630676507949829,4.1862616539001465,-274.169921875,217.376708984375,-152.40478515625
3.1674999,4.90452241897583,-1.7076643705368042,5.6461262702941895,110.443115234375,235.7177734375,-115.3564453125
3.1724999,4.632181644439697,-5.213972568511963,7.943362712860107,44.525146484375,-1.46484375,-66.83349609375
3.1774999000000004,3.0131027698516846,-4.821922302246094,6.068104267120361,31.43310546875,-54.168701171875,-74.462890625
3.1824999000000003,1.346139907836914,-3.581127166748047,3.136404275894165,16.876220703125,-98.785400390625,-81.329345703125
3.1874999,0.1825578808784485,-2.2912509441375732,0.5237316489219666,8.60595703125,-147.0947265625,-85.205078125
3.1924999,-0.2687491476535797,-1.4856021404266357,-1.2407950162887573,9.796142578125,-186.553955078125,-87.82958984375
3.1974999000000004,-0.37828385829925537,-0.9367313981056213,-0.45669397711753845,13.702392578125,-165.679931640625,-82.183837890625
3.2024999000000003,-2.7114334106445312,-2.8149826526641846,10.83436107635498,21.3623046875,-35.888671875,11.962890625
3.2074999,-3.156156301498413,-1.0205284357070923,8.808267593383789,-5.279541015625,-23.651123046875,5.92041015625
3.2124999,-3.1034839153289795,0.7757213711738586,8.133103370666504,-25.787353515625,-6.988525390625,-0.244140625
3.2174999,-2.584540843963623,2.118269920349121,8.524555206298828,-16.754150390625,-22.94921875,3.570556640625
3.2224999000000003,-1.7537527084350586,2.5923218727111816,9.217676162719727,-13.12255859375,-37.353515625,9.8876953125
3.2274999,-0.7667431235313416,2.2427685260772705,9.835380554199219,-14.6484375,-39.337158203125,11.199951171875
3.2324999,0.1041477769613266,1.2198457717895508,10.104728698730469,-14.190673828125,-37.04833984375,13.214111328125
3.2374999,0.9271546006202698,0.09696517139673233,10.113706588745117,-7.843017578125,-27.099609375,7.080078125
3.2424999000000003,1.5987281799316406,-0.7823054194450378,10.126276016235352,-4.913330078125,-25.45166015625,-6.500244140625
3.2474999,2.144007682800293,-1.358709454536438,10.073004722595215,-1.312255859375,-21.087646484375,-7.87353515625
3.2524999,2.4684219360351562,-1.45806884765625,9.939528465270996,3.326416015625,-9.27734375,-3.326416015625
3.2574999,2.541445016860962,-1.2210428714752197,9.704896926879883,3.631591796875,-0.732421875,0.579833984375
3.2624999000000003,2.167351007461548,-0.36750996112823486,9.390059471130371,0.213623046875,11.077880859375,-2.899169921875
3.2674999000000002,2.167351007461548,-0.36750996112823486,9.390059471130371,0.213623046875,11.077880859375,-2.899169921875
3.2724999,1.8291701078414917,-0.090979665517807,9.445724487304688,-1.0986328125,13.458251953125,-3.265380859375
3.2774999,1.3982137441635132,0.023343466222286224,9.537900924682617,-0.640869140625,14.556884765625,-0.823974609375
3.2824999000000004,0.08259996026754379,-0.2406172752380371,10.021530151367188,1.007080078125,-4.730224609375,-1.708984375
3.2874999000000003,0.08259996026754379,-0.2406172752380371,10.021530151367188,1.007080078125,-4.730224609375,-1.708984375
3.2924999,0.1735796183347702,-0.23403321206569672,10.000580787658691,-0.48828125,-6.256103515625,-2.532958984375
3.2974999,0.37888240814208984,-0.14245499670505524,9.873088836669922,-2.197265625,-5.615234375,-0.9765625
3.3024999000000004,0.6446388363838196,-0.043095629662275314,9.817423820495605,-1.983642578125,-4.241943359375,2.655029296875
3.3074999000000003,0.8906430602073669,-0.11432313174009323,9.714473724365234,-0.823974609375,-2.716064453125,3.90625
3.3124999,1.2294225692749023,-0.33518823981285095,9.674370765686035,1.617431640625,0.457763671875,-4.119873046875
3.3174999,1.2761094570159912,-0.3669114112854004,9.679159164428711,0.457763671875,3.173828125,-4.2724609375
3.3224999000000004,1.2413935661315918,-0.2944868206977844,9.729436874389648,-0.579833984375,4.150390625,0.579833984375
3.3274999000000003,1.0809820890426636,-0.1604115068912506,9.738415718078613,-0.335693359375,3.23486328125,5.2490234375
3.3324999,0.8732850551605225,-0.19213469326496124,9.82759952545166,-0.091552734375,-0.457763671875,2.13623046875
3.3374999,0.7631517648696899,-0.22206220030784607,9.818022727966309,0.579833984375,-1.861572265625,-3.0517578125
3.3424999,0.690727174282074,-0.28311434388160706,9.815030097961426,0.762939453125,-0.79345703125,-4.486083984375
3.3474999000000003,0.7428010702133179,-0.29568392038345337,9.798270225524902,-0.3662109375,0.457763671875,-0.30517578125
3.3524999,0.7763199210166931,-0.13946224749088287,9.774328231811523,-0.30517578125,0.518798828125,5.035400390625
3.3574999,0.8068459630012512,-0.2017114907503128,9.806650161743164,-0.3662109375,-1.77001953125,2.349853515625
3.3624999,0.8661024570465088,-0.19871874153614044,9.759963035583496,0.18310546875,-1.434326171875,-3.173828125
3.3674999000000003,0.9229647517204285,-0.2495955228805542,9.761758804321289,0.3662109375,1.03759765625,-5.706787109375
3.3724999,0.8834604024887085,-0.20051439106464386,9.791088104248047,0,-2.38037109375,4.547119140625
3.3774999,0.8870517015457153,-0.21847090125083923,9.786897659301758,-0.946044921875,-2.166748046875,-4.08935546875
3.3824999,0.9151836037635803,-0.23702596127986908,9.7791166305542,-2.13623046875,-0.1220703125,-7.080078125
3.3874999000000003,0.9630676507949829,-0.2777273952960968,9.790489196777344,-1.068115234375,1.678466796875,2.044677734375
3.3924999000000002,0.9038111567497253,-0.23104046285152435,9.755773544311523,1.312255859375,-0.640869140625,7.843017578125
3.3974999,0.9026140570640564,-0.25677812099456787,9.767146110534668,0.457763671875,-2.197265625,-1.8310546875
3.4024999,0.8439561128616333,-0.21428105235099792,9.746794700622559,-3.173828125,-1.007080078125,-8.819580078125
3.4074999000000004,0.849941611289978,-0.21368250250816345,9.768941879272461,1.739501953125,-1.129150390625,8.880615234375
3.4124999000000003,0.9169792532920837,-0.2693476974964142,9.793481826782227,1.312255859375,-2.166748046875,-0.244140625
3.4174999,0.8816647529602051,-0.2214636504650116,9.804255485534668,-3.84521484375,-1.007080078125,-9.70458984375
3.4224999,0.9463081955909729,-0.2693476974964142,9.79527759552002,-1.556396484375,1.52587890625,-0.79345703125
3.4274999000000004,0.943913996219635,-0.23822307586669922,9.814431190490723,3.0517578125,0.030517578125,9.490966796875
3.4324999000000003,0.9744400978088379,-0.25677812099456787,9.765350341796875,1.007080078125,-1.15966796875,-0.91552734375
3.4374999,0.9690531492233276,-0.23343466222286224,9.784503936767578,-4.608154296875,0.48828125,-10.284423828125
3.4424999,0.9558850526809692,-0.45848962664604187,9.739612579345703,2.105712890625,0.091552734375,-6.134033203125
3.4474999000000004,0.9636662006378174,-0.4728548228740692,9.768342971801758,-0.457763671875,3.173828125,-10.55908203125
3.4524999000000003,1.0079588890075684,-0.4213795065879822,9.802460670471191,4.94384765625,5.401611328125,4.913330078125
3.4574999,0.9516952037811279,-0.03531447425484657,9.739013671875,-5.67626953125,-0.244140625,-9.27734375
3.4624999,0.8547300100326538,0.05686229094862938,9.79408073425293,-3.84521484375,1.40380859375,-0.946044921875
3.4674999,0.729034423828125,0.018555063754320145,9.79408073425293,3.96728515625,1.617431640625,10.498046875
3.4724999000000003,0.7242460250854492,-0.13706804811954498,9.78989028930664,-0.091552734375,-3.7841796875,-3.570556640625
3.4774999,0.7428010702133179,-0.2669534981250763,9.84615421295166,-4.8828125,-2.838134765625,-9.33837890625
3.4824999,0.7661445140838623,-0.4040215313434601,9.865906715393066,4.302978515625,0.823974609375,7.049560546875
3.4874999,0.8954314589500427,-0.3908534348011017,9.786897659301758,4.425048828125,-0.640869140625,4.638671875
3.4924999000000003,0.9433154463768005,-0.322618693113327,9.753378868103027,-5.92041015625,-2.62451171875,-11.04736328125
3.4974999,1.0372878313064575,-0.25737667083740234,9.830592155456543,-0.762939453125,2.532958984375,1.0986328125
3.5024999,0.9852139949798584,-0.19213469326496124,9.722254753112793,5.55419921875,3.7841796875,10.650634765625
3.5074999,1.0313023328781128,-0.14784196019172668,9.713275909423828,-3.72314453125,-1.03759765625,-6.927490234375
3.5124999000000003,0.9971849918365479,-0.17058686912059784,9.743204116821289,-4.82177734375,2.105712890625,-4.974365234375
3.5174999000000002,0.7894880175590515,-0.15562310814857483,9.886856079101562,4.08935546875,2.838134765625,11.566162109375
3.5224999,0.8122329115867615,-0.32680854201316833,9.855133056640625,2.838134765625,1.15966796875,6.500244140625
3.5274999,0.8798691034317017,-0.29628247022628784,9.755773544311523,6.77490234375,0.8544921875,9.063720703125
3.5324999000000004,0.9894038438796997,-0.333991140127182,9.718663215637207,-9.735107421875,0.18310546875,-8.514404296875
3.5374999000000003,1.0414776802062988,-0.27234044671058655,9.79527759552002,0.762939453125,2.410888671875,3.814697265625
3.5424999,1.173158884048462,-0.06883329898118973,9.68933391571045,7.75146484375,4.638671875,13.641357421875
3.5474999,1.359906554222107,0.08080431073904037,9.66299819946289,-9.82666015625,3.387451171875,2.532958984375
3.5524999000000004,1.5083470344543457,0.24241292476654053,9.718663215637207,-1.739501953125,5.18798828125,16.17431640625
3.5574999000000003,1.7471686601638794,0.48722004890441895,9.701904296875,-10.711669921875,9.185791015625,21.728515625
3.5624999,1.6723499298095703,0.5039794445037842,9.854534149169922,-9.246826171875,1.922607421875,31.158447265625
3.5674999,1.5849615335464478,0.4100070297718048,9.898826599121094,10.528564453125,1.678466796875,38.63525390625
3.5724999000000004,1.4844050407409668,0.17836803197860718,9.869498252868652,-8.544921875,4.39453125,32.073974609375
3.5774999000000003,1.304241418838501,0,10.011953353881836,-9.1552734375,-1.495361328125,46.875
3.5824999,1.2114660739898682,-0.10175357013940811,10.00955867767334,7.720947265625,-6.866455078125,51.94091796875
3.5874999,1.1336544752120972,-0.24660277366638184,9.950302124023438,-11.749267578125,-3.936767578125,43.670654296875
3.5924999,1.0438719987869263,-0.18375498056411743,10.026318550109863,-9.94873046875,-3.23486328125,57.4951171875
3.5974999000000003,1.0408791303634644,-0.16519992053508759,10.013150215148926,2.38037109375,-10.406494140625,57.12890625
3.6024999,1.1444283723831177,-0.15801730751991272,9.9185791015625,-17.364501953125,-6.561279296875,52.520751953125
3.6074999,1.2557587623596191,-0.05267243832349777,9.97484302520752,-8.72802734375,-1.64794921875,67.535400390625
3.6124999,1.4856021404266357,-0.02274491637945175,9.923966407775879,-2.105712890625,-7.965087890625,63.4765625
3.6174999000000003,1.8758569955825806,0.09516951441764832,10.08437728881836,-13.031005859375,9.82666015625,77.911376953125
3.6224999,1.9925743341445923,0.14065934717655182,10.177751541137695,-22.369384765625,9.124755859375,66.070556640625
3.6274999,1.9614497423171997,0.20290859043598175,10.448296546936035,-39.520263671875,14.251708984375,69.82421875
3.6324999,1.8429367542266846,0.4668693244457245,10.594941139221191,-25.909423828125,12.298583984375,76.11083984375
3.6374999000000003,1.6502034664154053,0.5351040959358215,10.568604469299316,-40.802001953125,11.199951171875,63.3544921875
3.6424999000000002,1.4036006927490234,0.7876923680305481,10.392032623291016,-43.701171875,14.190673828125,66.558837890625
3.6474999,1.1073182821273804,0.7817068696022034,10.127472877502441,-28.045654296875,12.20703125,58.135986328125
3.6524999,0.9002198576927185,0.52552729845047,9.820416450500488,-50.96435546875,19.1650390625,47.4853515625
3.6574999000000004,0.6625953316688538,0.2148796021938324,9.77013874053955,-45.34912109375,27.7099609375,54.473876953125
3.6624999000000003,0.4836287498474121,-0.41120412945747375,9.762955665588379,-38.726806640625,24.658203125,42.05322265625
3.6674999,0.30466216802597046,-0.9427168965339661,9.818022727966309,-46.2646484375,25.20751953125,39.36767578125
3.6724999,0.30466216802597046,-0.9427168965339661,9.818022727966309,-46.2646484375,25.20751953125,39.36767578125
3.6774999000000004,0.0694318488240242,-1.5340847969055176,9.642647743225098,-33.172607421875,20.44677734375,22.369384765625
3.6824999000000003,0.060453593730926514,-1.4550760984420776,8.9866361618042,-28.6865234375,16.510009765625,16.05224609375
3.6874999,0.07481880486011505,-1.4215573072433472,8.943540573120117,-8.331298828125,14.83154296875,20.69091796875
3.6924999,0.08918401598930359,-1.5705963373184204,8.846575736999512,-11.322021484375,14.007568359375,9.979248046875
3.6974999000000004,0.061052143573760986,-1.7082629203796387,8.923788070678711,-10.223388671875,15.655517578125,18.341064453125
3.7024999000000003,0.03651157766580582,-1.8680758476257324,9.039308547973633,7.171630859375,10.467529296875,14.984130859375
3.7074999,0.023343466222286224,-2.0021512508392334,9.05606746673584,-3.60107421875,10.31494140625,14.068603515625
3.7124999,0.035913024097681046,-1.9285295009613037,9.173383712768555,13.702392578125,4.39453125,23.223876953125
3.7174999,0.1472434103488922,-1.8710685968399048,9.113529205322266,8.575439453125,0.885009765625,17.578125
3.7224999000000003,0.25917232036590576,-1.5969325304031372,9.18355941772461,9.1552734375,-1.28173828125,32.196044921875
3.7274999,0.4345476031303406,-1.2599486112594604,9.319430351257324,5.43212890625,-5.523681640625,32.53173828125
3.7324999,0.41718965768814087,-1.0971429347991943,9.485827445983887,22.52197265625,-8.636474609375,36.2548828125
3.7374999,0.3669114112854004,-1.1803414821624756,9.510367393493652,14.70947265625,-6.89697265625,25.726318359375
3.7424999000000003,0.23942017555236816,-1.1647791862487793,9.663596153259277,19.500732421875,-6.195068359375,31.463623046875
3.7474999,0.14425064623355865,-1.2384008169174194,9.622296333312988,26.763916015625,-7.4462890625,19.256591796875
3.7524999,-0.06464344263076782,-1.359906554222107,9.72165584564209,14.70947265625,-3.326416015625,18.707275390625
3.7574999,-0.19452889263629913,-1.2737152576446533,9.707889556884766,31.341552734375,-7.110595703125,15.777587890625
3.7624999000000003,-0.37888240814208984,-1.3317747116088867,9.635464668273926,16.082763671875,-5.126953125,6.53076171875
3.7674999000000002,-0.5303156971931458,-1.2312182188034058,9.649829864501953,29.937744140625,-6.77490234375,11.77978515625
3.7724999,-0.6117185354232788,-1.2216414213180542,9.427168846130371,26.641845703125,-7.843017578125,-3.082275390625
3.7774999,-0.7631517648696899,-1.238999366760254,9.421782493591309,26.85546875,-9.246826171875,1.556396484375
3.7824999000000004,-0.7523778676986694,-1.2384008169174194,9.262567520141602,40.130615234375,-15.0146484375,-5.096435546875
3.7874999000000003,-0.49320554733276367,-1.2348095178604126,9.131484985351562,30.487060546875,-22.705078125,-12.054443359375
3.7924999,-0.24361002445220947,-1.0875661373138428,9.359533309936523,46.32568359375,-30.242919921875,-2.227783203125
3.7974999,0.05386953800916672,-1.0313023328781128,9.258976936340332,45.745849609375,-30.364990234375,-13.153076171875
3.8024999000000004,0.2603694200515747,-0.9379284977912903,9.44871711730957,41.6259765625,-26.85546875,-7.965087890625
3.8074999000000003,0.49978959560394287,-0.8619126081466675,9.50857162475586,61.248779296875,-29.60205078125,-17.852783203125
3.8124999,0.6254851818084717,-0.7308300733566284,9.59715747833252,45.654296875,-21.209716796875,-18.61572265625
3.8174999,0.8265981078147888,-0.5464765429496765,9.858125686645508,65.61279296875,-22.857666015625,-22.430419921875
3.8224999000000004,0.9858125448226929,-0.3477577865123749,10.161590576171875,43.243408203125,-17.730712890625,-26.18408203125
3.8274999000000003,1.370081901550293,0.24899697303771973,11.137825965881348,39.00146484375,-6.317138671875,-17.120361328125
3.8324999,1.6741455793380737,0.6524199843406677,11.297638893127441,-3.814697265625,6.317138671875,-22.186279296875
3.8374999,2.056020736694336,1.258152961730957,11.915343284606934,7.843017578125,7.843017578125,-14.556884765625
3.8424999,1.677138328552246,1.2701239585876465,9.832986831665039,4.425048828125,8.819580078125,-10.284423828125
3.8474999000000003,1.193509578704834,0.7936778664588928,9.577404975891113,-11.53564453125,5.67626953125,-2.197265625
3.8524999,0.8224082589149475,0.406415730714798,9.474454879760742,9.82666015625,1.89208984375,-3.631591796875
3.8574999,0.4106055796146393,-0.21667525172233582,9.374496459960938,-12.87841796875,-1.312255859375,-5.462646484375
3.8624999,0.2908954918384552,-0.40880993008613586,9.711481094360352,13.36669921875,-4.486083984375,-1.861572265625
3.8674999000000003,0.15682020783424377,-0.6949170231819153,9.468469619750977,-13.031005859375,-4.302978515625,-6.8359375
3.8724999,0.3232172429561615,-0.5063736438751221,9.944915771484375,9.490966796875,-5.615234375,-0.18310546875
3.8774999,0.5135562419891357,-0.44771572947502136,9.586981773376465,-8.514404296875,-2.685546875,-8.72802734375
3.8824999,0.7846996188163757,-0.15502455830574036,10.039485931396484,3.35693359375,-4.364013671875,-0.79345703125
3.8874999000000003,0.9612720012664795,-0.08259996026754379,9.610325813293457,-3.326416015625,0.274658203125,-8.575439453125
3.8924999000000002,0.849941611289978,-0.44352585077285767,9.790489196777344,-10.528564453125,0.091552734375,-1.8310546875
3.8974999,0.8463503122329712,-0.26755204796791077,9.742006301879883,12.87841796875,1.46484375,-3.11279296875
3.9024999,0.7128735780715942,-0.3711012601852417,9.68574333190918,-12.02392578125,-0.213623046875,-3.143310546875
3.9074999000000004,0.7625532150268555,-0.1322796493768692,9.856329917907715,13.458251953125,0.3662109375,-1.434326171875
3.9124999000000003,0.606930136680603,-0.2687491476535797,9.672574996948242,-12.0849609375,-0.335693359375,-4.8828125
3.9174999,0.74040687084198,-0.0586579404771328,9.980828285217285,11.932373046875,-0.48828125,-0.152587890625
3.9224999,0.6631938815116882,-0.1711854189634323,9.63187313079834,-11.71875,0.06103515625,-5.279541015625
3.9274999000000004,0.767341673374176,-0.076015904545784,10.006566047668457,11.23046875,-1.40380859375,0.91552734375
3.9324999000000003,0.7362170219421387,-0.18495208024978638,9.554061889648438,-10.711669921875,-0.335693359375,-6.927490234375
3.9374999,0.760757565498352,-0.1538274586200714,9.546280860900879,-6.8359375,-1.861572265625,-6.89697265625
3.9424999,0.7655459642410278,-0.09157821536064148,10.003573417663574,3.47900390625,-5.218505859375,1.77001953125
3.9474999000000004,0.7326257228851318,-0.16101007163524628,9.583391189575195,-5.279541015625,-3.143310546875,-7.476806640625
3.9524999000000003,0.7553706169128418,-0.10175357013940811,10.074202537536621,0.762939453125,-6.866455078125,0.518798828125
3.9574999,0.7026981711387634,-0.1454477459192276,9.578003883361816,-4.058837890625,-4.82177734375,-7.75146484375
3.9624999,0.7487865686416626,-0.1646013706922531,10.061034202575684,-1.40380859375,-7.32421875,0.701904296875
3.9674999000000004,0.7134721279144287,-0.1933317929506302,9.579200744628906,-2.655029296875,-5.67626953125,-7.50732421875
3.9724999000000003,0.7715315222740173,-0.2346317619085312,10.047865867614746,-2.74658203125,-7.26318359375,0.30517578125
3.9774999,0.7559691667556763,-0.24241292476654053,9.601945877075195,-0.8544921875,-5.37109375,-7.9345703125
3.9824999,0.811634361743927,-0.28969839215278625,10.06462574005127,-3.84521484375,-6.439208984375,-0.8544921875
3.9874999,0.910993754863739,-0.21847090125083923,9.627683639526367,0.823974609375,-3.997802734375,-8.4228515625
3.9924999000000003,0.9558850526809692,-0.25019407272338867,9.980229377746582,-4.852294921875,-3.7841796875,-0.030517578125
3.9974999,0.9768342971801758,-0.181959331035614,9.576807022094727,1.129150390625,-2.74658203125,-8.026123046875
4.0024999,0.657806932926178,-0.0586579404771328,9.66419506072998,-0.91552734375,-3.7841796875,-14.09912109375
4.0074999,0.5434837937355042,-0.09576806426048279,9.901819229125977,-6.89697265625,-4.33349609375,-7.354736328125
4.0124999,0.4836287498474121,-0.0694318488240242,9.633668899536133,-2.3193359375,-6.317138671875,-16.387939453125
4.0174999,0.48482584953308105,-0.07841010391712189,9.871294021606445,-5.859375,-7.476806640625,-9.490966796875
4.022499900000001,0.5823895931243896,-0.27473464608192444,9.61451530456543,-2.5634765625,-9.368896484375,-16.4794921875
4.0274999000000005,0.9157821536064148,-0.5554547905921936,9.63187313079834,-2.01416015625,-9.796142578125,-12.908935546875
4.0324999,1.0408791303634644,-0.5015852451324463,9.899425506591797,1.3427734375,-8.026123046875,-4.364013671875
4.0374999,1.2180501222610474,-0.6332663297653198,9.595361709594727,-2.471923828125,-7.415771484375,-10.55908203125
4.0424999,1.2629413604736328,-0.4279635548591614,9.881468772888184,3.173828125,-3.96728515625,-3.936767578125
4.0474999,1.3072341680526733,-0.4411316514015198,9.546280860900879,-4.425048828125,-2.5634765625,-10.3759765625
4.0524999,1.291671872138977,-0.2214636504650116,9.896432876586914,3.96728515625,-0.30517578125,-4.45556640625
4.0574999,1.1827356815338135,-0.21966800093650818,9.579200744628906,-7.293701171875,0.67138671875,-10.162353515625
4.062499900000001,1.1617863178253174,-0.07661445438861847,9.941324234008789,5.18798828125,2.0751953125,-5.096435546875
4.0674999000000005,0.9445125460624695,-0.181959331035614,9.654019355773926,-9.307861328125,1.28173828125,-9.8876953125
4.0724999,0.9349357485771179,-0.05506663769483566,9.967061996459961,6.011962890625,1.28173828125,-6.591796875
4.0774999,0.7200561761856079,-0.27234044671058655,9.707290649414062,-10.498046875,-0.67138671875,-10.3759765625
4.0824999,0.7368155717849731,-0.43754035234451294,9.707889556884766,-8.087158203125,-6.34765625,-7.75146484375
4.0874999,0.9959878921508789,-0.32620999217033386,9.720458984375,8.209228515625,-6.89697265625,-6.805419921875
4.0924999,1.1330559253692627,-0.5309142470359802,9.87967300415039,-5.67626953125,-4.974365234375,-0.1220703125
4.0974999,1.4317326545715332,-0.39624038338661194,9.721057891845703,7.598876953125,-1.678466796875,-2.960205078125
4.1024999,1.4975731372833252,-0.43933600187301636,9.979032516479492,-2.716064453125,-0.396728515625,2.471923828125
4.1074999000000005,1.5640122890472412,-0.31603461503982544,9.575610160827637,5.340576171875,3.96728515625,-4.852294921875
4.1124999,1.4586673974990845,-0.17238251864910126,9.914987564086914,0.823974609375,4.94384765625,1.46484375
4.1174999,1.3437457084655762,-0.10235211998224258,9.433155059814453,0.213623046875,6.591796875,-6.317138671875
4.1224999,1.146224021911621,0.05985504388809204,9.840767860412598,4.180908203125,6.011962890625,1.708984375
4.1274999,0.9684545993804932,-0.010175357572734356,9.45111083984375,-4.69970703125,5.43212890625,-4.608154296875
4.1324999,0.8379706144332886,0.028730420395731926,9.889848709106445,7.4462890625,3.875732421875,2.13623046875
4.1374999,0.6661866307258606,-0.14903905987739563,9.99220085144043,9.33837890625,-0.732421875,0.244140625
4.1424999,0.5452794432640076,-0.3214215636253357,9.798270225524902,-9.1552734375,-2.777099609375,-1.922607421875
4.147499900000001,0.7050924301147461,-0.18914192914962769,9.895833969116211,9.09423828125,-3.662109375,-1.46484375
4.1524999000000005,0.689530074596405,-0.2849099934101105,9.94970417022705,-7.87353515625,-4.69970703125,0.42724609375
4.1574999,0.9289502501487732,-0.15921440720558167,9.637260437011719,6.195068359375,-3.387451171875,-2.50244140625
4.1624999,1.1127052307128906,-0.20350714027881622,9.39784049987793,1.495361328125,-1.15966796875,-4.33349609375
4.1674999,1.0887632369995117,-0.12449848651885986,9.804255485534668,0.8544921875,-1.0986328125,1.922607421875
4.1724999,1.14742112159729,-0.24420857429504395,9.311050415039062,-3.35693359375,0.9765625,-5.035400390625
4.1774999,1.1121066808700562,-0.11133038252592087,9.77133560180664,5.889892578125,0.762939453125,1.46484375
4.1824999,1.0348936319351196,-0.304063618183136,9.410409927368164,-7.38525390625,1.5869140625,-4.058837890625
4.187499900000001,1.0743980407714844,-0.1975216418504715,9.77253246307373,8.453369140625,1.251220703125,0.213623046875
4.1924999000000005,0.9714473485946655,-0.1951274424791336,9.711481094360352,8.087158203125,0.18310546875,-1.3427734375
4.1974999,0.8750807046890259,-0.24420857429504395,9.907206535339355,-7.4462890625,-0.48828125,0.030517578125
4.2024999,0.9265560507774353,-0.14365209639072418,9.66539192199707,4.150390625,-0.244140625,-2.838134765625
4.2074999,0.8846575021743774,-0.21667525172233582,10.047266960144043,-3.570556640625,-0.67138671875,1.953125
4.2124999,0.9780313968658447,-0.14903905987739563,9.583989143371582,-1.556396484375,0.701904296875,-3.936767578125
4.2174999,1.0103530883789062,-0.10474632680416107,9.931148529052734,1.40380859375,1.434326171875,2.899169921875
4.2224999,1.2898762226104736,0.21607670187950134,9.84256362915039,-9.490966796875,3.5400390625,-2.532958984375
4.2274999,1.7579425573349,1.41257905960083,10.890625,-16.815185546875,6.256103515625,12.359619140625
4.2324999000000005,2.318185806274414,3.006518840789795,11.963826179504395,-75.50048828125,22.3388671875,16.78466796875
4.2374999,3.0131027698516846,5.193023681640625,13.531429290771484,-121.917724609375,37.4755859375,20.416259765625
4.2424999,3.553593873977661,6.652289390563965,14.740501403808594,-182.708740234375,47.943115234375,22.552490234375
4.2474999,4.058770656585693,7.367557048797607,15.343840599060059,-211.181640625,50.140380859375,37.017822265625
4.2524999,4.575918197631836,4.69024133682251,14.81232738494873,-267.303466796875,88.775634765625,59.600830078125
4.2574999,4.334702014923096,2.011728048324585,14.025233268737793,-272.64404296875,117.0654296875,57.31201171875
4.2624999,3.8744168281555176,-1.4622586965560913,12.699444770812988,-257.2021484375,155.82275390625,30.3955078125
4.2674999,3.2752678394317627,-4.488529682159424,11.338340759277344,-213.165283203125,204.620361328125,5.828857421875
4.272499900000001,2.8143839836120605,-7.021595001220703,9.617507934570312,-177.42919921875,250.42724609375,-22.369384765625
4.2774999000000005,2.5977089405059814,-8.361749649047852,8.079832077026367,-123.6572265625,284.5458984375,-38.57421875
4.2824999,2.5971102714538574,-8.74721622467041,6.647500991821289,-100.677490234375,302.3681640625,-49.62158203125
4.2874999,2.5971102714538574,-8.74721622467041,6.647500991821289,-100.677490234375,302.3681640625,-49.62158203125
4.2924999,2.5336639881134033,-8.22228717803955,5.495291233062744,-67.44384765625,295.5322265625,-51.33056640625
4.2974999,2.2421698570251465,-7.21791934967041,4.909310817718506,-61.09619140625,272.186279296875,-37.933349609375
4.3024999,1.5723919868469238,-5.9340291023254395,4.411316394805908,-48.248291015625,244.7509765625,-29.449462890625
4.3074999,0.5566518902778625,-4.540005207061768,4.54419469833374,-41.50390625,215.02685546875,-14.617919921875
4.312499900000001,-2.0039467811584473,-2.4025814533233643,4.982333660125732,-21.78955078125,164.947509765625,-8.636474609375
4.3174999000000005,-3.1920695304870605,-1.7651251554489136,5.14932918548584,-17.51708984375,150.787353515625,-7.965087890625
4.3224999,-5.0236334800720215,-1.290474772453308,5.620388507843018,26.214599609375,131.500244140625,5.889892578125
4.3274999,-5.625176906585693,-1.6226701736450195,5.8657941818237305,40.4052734375,106.414794921875,6.744384765625
4.3324999,-6.122572422027588,-2.051830768585205,6.259640216827393,38.421630859375,71.77734375,14.09912109375
4.3374999,-6.50025749206543,-2.721010208129883,6.3973069190979,37.139892578125,34.332275390625,8.48388671875
4.3424999,-6.783371925354004,-3.1759085655212402,6.531382083892822,43.426513671875,-4.08935546875,9.8876953125
4.3474999,-6.918644428253174,-3.5619735717773438,6.292560577392578,41.44287109375,-35.70556640625,6.8359375
4.352499900000001,-6.950367450714111,-3.7421371936798096,5.98490571975708,58.7158203125,-62.19482421875,6.34765625
4.3574999000000005,-6.927023887634277,-3.693654775619507,5.6874260902404785,61.767578125,-86.5478515625,6.16455078125
4.3624999,-6.779181957244873,-3.694851875305176,5.495890140533447,76.202392578125,-108.7646484375,-3.23486328125
4.3674999,-6.156091213226318,-3.2357635498046875,5.595848083496094,83.953857421875,-161.163330078125,-11.71875
4.3724999,-5.5790886878967285,-2.920926094055176,5.8657941818237305,96.5576171875,-190.582275390625,-7.080078125
4.3774999,-4.896142482757568,-2.608482837677002,5.8191070556640625,95.88623046875,-216.12548828125,-6.195068359375
4.3824999,-4.2090067863464355,-2.3918075561523438,5.801150798797607,114.349365234375,-243.988037109375,-10.25390625
4.3874999,-3.535637378692627,-2.0488381385803223,5.762245178222656,114.80712890625,-269.775390625,-7.110595703125
4.3924999,-2.918531894683838,-2.1368250846862793,5.700594425201416,123.71826171875,-285.82763671875,-12.603759765625
4.397499900000001,-2.4127566814422607,-1.8411411046981812,5.8873419761657715,134.124755859375,-301.33056640625,-11.71875
4.4024999000000005,-1.4024035930633545,-1.7956513166427612,6.421248912811279,149.505615234375,-328.30810546875,-18.06640625
4.4074999,-0.8409633636474609,-1.6035165786743164,7.0156097412109375,145.5078125,-334.9609375,-16.937255859375
4.4124999,0.20051439106464386,-1.71245276927948,8.71489429473877,159.698486328125,-323.30322265625,-21.91162109375
4.4174999,2.8556840419769287,-1.8010382652282715,11.130643844604492,173.27880859375,-246.124267578125,-19.134521484375
4.4224999,8.474875450134277,0.03770867735147476,15.69878101348877,16.571044921875,-20.56884765625,18.768310546875
4.4274999,8.474875450134277,0.03770867735147476,15.69878101348877,16.571044921875,-20.56884765625,18.768310546875
4.4324999,10.017938613891602,1.48081374168396,15.114595413208008,-2.777099609375,-50.537109375,-3.143310546875
4.437499900000001,9.566631317138672,3.0101101398468018,12.366650581359863,-1.495361328125,-29.541015625,-2.716064453125
4.4424999000000005,8.035539627075195,3.3225533962249756,8.289923667907715,-6.591796875,-11.90185546875,1.03759765625
4.4474999,6.0417680740356445,3.051409959793091,4.505289077758789,-11.1083984375,-3.265380859375,-6.195068359375
4.4524999,4.492719650268555,2.562394380569458,2.3780407905578613,-7.904052734375,8.758544921875,-6.561279296875
4.4574999,3.3674447536468506,1.942894697189331,2.073378562927246,-20.263671875,30.853271484375,-11.41357421875
4.4624999,3.113060712814331,1.745373010635376,4.036025524139404,-17.15087890625,58.746337890625,-17.15087890625
4.4674999,3.2357635498046875,1.5203180313110352,7.39748477935791,-23.25439453125,90.667724609375,-13.458251953125
4.4724999,3.443460702896118,0.9858125448226929,10.985794067382812,-11.474609375,92.254638671875,-10.894775390625
4.477499900000001,3.311779499053955,0.5081692934036255,13.884573936462402,-4.852294921875,66.253662109375,4.364013671875
4.4824999000000005,-2.629431962966919,-1.8040310144424438,7.936778545379639,-1.77001953125,-3.570556640625,5.37109375
4.4874999,-2.629431962966919,-1.8040310144424438,7.936778545379639,-1.77001953125,-3.570556640625,5.37109375
4.4924999,-2.363077163696289,-1.8399440050125122,8.316259384155273,7.537841796875,-16.05224609375,2.166748046875
4.4974999,-1.6980875730514526,-1.7357962131500244,8.786720275878906,-1.5869140625,-18.49365234375,2.86865234375
4.5024999,-0.7146692276000977,-1.6561890840530396,9.29069995880127,8.636474609375,-19.256591796875,-0.67138671875
4.5074999,0.28550854325294495,-1.2132617235183716,9.77253246307373,5.55419921875,-15.80810546875,4.669189453125
4.5124999,1.217451572418213,-0.9510966539382935,9.941324234008789,1.8310546875,-9.27734375,-0.091552734375
4.5174999,1.8884265422821045,-0.5398924946784973,10.204686164855957,5.7373046875,-3.23486328125,0.67138671875
4.522499900000001,2.2577321529388428,-0.22924481332302094,10.245985984802246,-6.28662109375,5.096435546875,2.86865234375
4.5274999000000005,2.0841526985168457,-0.12030863761901855,10.205883026123047,-5.7373046875,11.810302734375,5.18798828125
4.5324999,1.701080322265625,-0.42377370595932007,9.99100399017334,-8.056640625,10.6201171875,1.068115234375
4.5374999,1.1444283723831177,-0.517746090888977,9.95748519897461,-1.03759765625,6.2255859375,4.302978515625
4.5424999,0.628477931022644,-0.7003039717674255,9.757569313049316,-9.6435546875,2.38037109375,5.828857421875
4.5474999,0.21128830313682556,-0.9217676520347595,9.632472038269043,-1.15966796875,-2.288818359375,1.77001953125
4.5524999,-0.02214636653661728,-0.8900445103645325,9.619902610778809,-2.960205078125,-4.119873046875,4.974365234375
4.5574999,0.02274491637945175,-1.1150994300842285,9.487024307250977,-5.79833984375,-4.913330078125,-0.1220703125
4.562499900000001,0.7475894689559937,-1.0133458375930786,9.619303703308105,1.739501953125,-3.41796875,-1.89208984375
4.5674999000000005,0.9127894043922424,-0.8319851160049438,9.782708168029785,0.244140625,-1.861572265625,2.3193359375
4.5724999,1.0582371950149536,-0.9714473485946655,9.720458984375,-3.814697265625,-0.48828125,-1.861572265625
4.5774999,0.7260416746139526,-0.7110779285430908,9.748590469360352,-5.035400390625,-2.777099609375,1.800537109375
4.5824999,0.7918822169303894,-0.8152256608009338,9.715071678161621,-0.9765625,-2.777099609375,-2.593994140625
4.5874999,0.8631097078323364,-0.6805518269538879,9.852140426635742,0.823974609375,-1.220703125,1.556396484375
4.5924999,0.9103952050209045,-0.8277952671051025,9.724050521850586,-6.927490234375,0.396728515625,-0.1220703125
4.5974999,1.0211269855499268,-0.8044517636299133,9.79408073425293,3.23486328125,-0.244140625,-1.007080078125
4.602499900000001,1.026513934135437,-0.7703344225883484,9.764153480529785,-3.96728515625,2.105712890625,2.38037109375
4.6074999000000005,0.9953893423080444,-0.8684966564178467,9.659406661987305,-2.3193359375,1.922607421875,-1.89208984375
4.6124999,0.851138710975647,-0.801459014415741,9.64803409576416,-4.852294921875,1.373291015625,0.274658203125
4.6174999,0.8248024582862854,-0.7703344225883484,9.644442558288574,4.913330078125,0,-2.044677734375
4.6224999,0.7541735172271729,-0.5716156363487244,9.67077922821045,1.007080078125,-0.6103515625,0.457763671875
4.6274999,0.7410054206848145,-0.47644615173339844,9.603142738342285,1.068115234375,-1.3427734375,-4.425048828125
4.6324999,0.7158663272857666,-0.05985504388809204,9.779715538024902,4.45556640625,-2.288818359375,-2.8076171875
4.6374999,0.6590040326118469,0.1711854189634323,9.880271911621094,-8.36181640625,-2.166748046875,-3.936767578125
4.6424999,0.9684545993804932,0.14784196019172668,10.178948402404785,-5.767822265625,-5.096435546875,-1.983642578125
4.647499900000001,1.0336965322494507,-0.18914192914962769,10.111910820007324,-13.73291015625,-3.84521484375,3.35693359375
4.6524999000000005,1.091755986213684,-0.6769605278968811,10.011953353881836,-14.58740234375,-1.312255859375,1.89208984375
4.6574999,1.138442873954773,-1.4951789379119873,9.679159164428711,-12.14599609375,3.23486328125,2.01416015625
4.6624999,1.1336544752120972,-1.5729905366897583,9.526528358459473,-14.190673828125,5.126953125,-2.13623046875
4.6674999,1.2042834758758545,-1.313219666481018,9.750985145568848,-13.092041015625,6.2255859375,1.129150390625
4.6724999,1.1659762859344482,-1.1653777360916138,9.907805442810059,-24.658203125,7.87353515625,4.852294921875
4.6774999,1.2623428106307983,-1.070208191871643,10.087968826293945,-23.956298828125,7.50732421875,5.126953125
4.6824999,1.2449848651885986,-0.8325836658477783,10.348937034606934,-28.62548828125,8.85009765625,12.63427734375
4.687499900000001,1.2030863761901855,-0.9510966539382935,10.343549728393555,-37.750244140625,9.918212890625,10.25390625
4.6924999000000005,1.0995371341705322,-0.9397241473197937,10.343549728393555,-33.111572265625,9.857177734375,9.368896484375
4.6974999,0.9127894043922424,-0.9989806413650513,10.259753227233887,-40.191650390625,10.92529296875,10.467529296875
4.7024999,0.669179379940033,-1.270722508430481,9.967659950256348,-39.520263671875,11.260986328125,4.730224609375
4.7074999,0.3776853084564209,-1.4047977924346924,9.57979965209961,-39.215087890625,10.92529296875,3.997802734375
4.7124999,0.4381389021873474,-1.525106430053711,9.30805778503418,-28.076171875,9.09423828125,1.312255859375
4.7174999,0.48961424827575684,-1.4742296934127808,9.227851867675781,-23.74267578125,8.85009765625,5.523681640625
4.7224999,0.5817909836769104,-1.6759412288665771,9.081207275390625,-24.810791015625,8.7890625,1.190185546875
4.727499900000001,0.6703764796257019,-1.71245276927948,9.062053680419922,-14.739990234375,8.636474609375,1.007080078125
4.7324999000000005,0.6554127335548401,-1.7220295667648315,9.277531623840332,-17.547607421875,8.97216796875,1.373291015625
4.7374999,0.6997054219245911,-1.8034324645996094,9.26675796508789,-14.16015625,8.23974609375,-1.40380859375
4.7424999,0.790086567401886,-1.6059107780456543,9.469666481018066,-9.82666015625,7.415771484375,5.37109375
4.7474999,0.8523358106613159,-1.5275006294250488,9.628880500793457,-16.998291015625,7.965087890625,6.561279296875
4.7524999,1.0301052331924438,-1.4215573072433472,9.597756385803223,-11.41357421875,7.32421875,7.354736328125
4.7574999,1.0546458959579468,-1.2054805755615234,9.809642791748047,-13.61083984375,8.7890625,11.04736328125
4.7624999,1.0085574388504028,-1.3323732614517212,9.810839653015137,-17.059326171875,9.33837890625,5.523681640625
4.7674999,0.7152677774429321,-1.270722508430481,9.946112632751465,-17.547607421875,10.772705078125,5.096435546875
4.772499900000001,0.5321113467216492,-1.4311341047286987,9.895833969116211,-18.1884765625,10.772705078125,0
4.7774999000000005,0.5033808946609497,-1.3557167053222656,9.974244117736816,-18.00537109375,11.23046875,4.21142578125
4.7824999,0.45669397711753845,-1.499967336654663,10.268132209777832,-27.679443359375,12.5732421875,4.33349609375
4.7874999,0.5781996846199036,-1.557428240776062,10.20528507232666,-27.89306640625,12.8173828125,4.547119140625
4.7924999,0.657806932926178,-1.4083890914916992,10.513538360595703,-35.125732421875,15.31982421875,7.110595703125
4.7974999,0.6625953316688538,-1.4736311435699463,10.755352973937988,-46.905517578125,16.876220703125,0.396728515625
4.8024999,0.6260837316513062,-1.2922704219818115,11.301230430603027,-82.51953125,19.04296875,-5.462646484375
4.8074999,0.6386532783508301,-1.3569138050079346,11.332953453063965,-91.12548828125,17.486572265625,-3.692626953125
4.812499900000001,0.6919242739677429,-1.5652093887329102,11.502942085266113,-105.926513671875,17.02880859375,-7.6904296875
4.8174999000000005,0.8391677141189575,-1.9662381410598755,11.264719009399414,-121.39892578125,18.646240234375,-14.190673828125
4.8224999,0.8577227592468262,-2.251148223876953,11.171943664550781,-127.838134765625,19.287109375,-19.866943359375
4.8274999,1.0085574388504028,-2.5576059818267822,10.76852035522461,-120.78857421875,19.439697265625,-21.331787109375
4.8324999,1.113303780555725,-3.0388405323028564,10.67514705657959,-115.966796875,13.458251953125,-21.270751953125
4.8374999,1.347337007522583,-3.42490553855896,10.366294860839844,-100.799560546875,2.593994140625,-25.5126953125
4.8424999,1.6543933153152466,-3.688866376876831,10.142436981201172,-77.5146484375,-9.124755859375,-24.84130859375
4.8474999,1.9357120990753174,-3.9450459480285645,10.322002410888672,-54.50439453125,-17.333984375,-29.693603515625
4.852499900000001,2.121262788772583,-3.9707834720611572,10.307038307189941,-16.876220703125,-22.27783203125,-36.865234375
4.8574999000000005,2.3080103397369385,-3.977966070175171,10.754155158996582,20.416259765625,-31.6162109375,-41.473388671875
4.8624999,2.3540987968444824,-4.028842926025391,11.216236114501953,55.17578125,-41.595458984375,-51.45263671875
4.8674999,2.38462495803833,-3.9151182174682617,11.610082626342773,93.475341796875,-46.32568359375,-57.4951171875
4.8724999,2.3714568614959717,-3.7439329624176025,12.230180740356445,119.598388671875,-46.783447265625,-61.248779296875
4.8774999,2.1739351749420166,-2.9436709880828857,13.039421081542969,160.09521484375,-42.694091796875,-72.8759765625
4.8824999,2.029684543609619,-2.3505074977874756,13.542202949523926,163.238525390625,-34.637451171875,-76.385498046875
4.8874999,1.8746598958969116,-1.886630892753601,13.55896282196045,167.999267578125,-20.99609375,-79.9560546875
4.8924999,1.8746598958969116,-1.886630892753601,13.55896282196045,167.999267578125,-20.99609375,-79.9560546875
4.897499900000001,1.7615338563919067,-1.2761094570159912,13.51766300201416,170.166015625,-5.645751953125,-76.324462890625
4.9024999000000005,1.6825252771377563,-0.9894038438796997,13.44643497467041,167.388916015625,7.232666015625,-74.52392578125
4.9074999,1.6519991159439087,-0.6871358752250671,12.90714168548584,171.142578125,17.08984375,-69.610595703125
4.9124999,1.7118542194366455,-0.42856210470199585,12.632407188415527,170.989990234375,20.538330078125,-61.676025390625
4.9174999,1.6992846727371216,-0.3357867896556854,12.224793434143066,172.637939453125,22.5830078125,-61.46240234375
4.9224999,1.7848774194717407,-0.24001872539520264,11.62983512878418,181.243896484375,26.18408203125,-58.89892578125
4.9274999,1.7423802614212036,-0.26396074891090393,11.365874290466309,182.708740234375,30.548095703125,-56.5185546875
4.9324999,1.73519766330719,-0.4489128291606903,10.766724586486816,187.98828125,35.308837890625,-60.333251953125
4.937499900000001,1.4305355548858643,-0.6254851818084717,9.400833129882812,189.422607421875,33.75244140625,-65.277099609375
4.9424999000000005,1.1869255304336548,-0.5811924338340759,8.300098419189453,191.7724609375,31.280517578125,-71.197509765625
4.9474999,1.058835744857788,-0.3208230137825012,7.2340803146362305,188.65966796875,29.1748046875,-70.49560546875
4.9524999,0.9498994946479797,0.0005985504249110818,6.186018466949463,181.427001953125,29.72412109375,-71.22802734375
4.9574999,1.013944387435913,0.5267243981361389,4.8494553565979,180.450439453125,34.24072265625,-67.291259765625
4.9624999,1.282094955444336,1.4419080018997192,2.715024709701538,160.675048828125,50.537109375,-56.182861328125
4.9674999,1.4867992401123047,1.7489643096923828,1.5496470928192139,154.052734375,60.791015625,-48.4619140625
4.9724999,1.482010841369629,1.8638859987258911,0.8493430614471436,139.6484375,69.27490234375,-41.07666015625
4.977499900000001,1.469441294670105,1.6861165761947632,-0.019153613597154617,127.410888671875,78.7353515625,-37.29248046875
4.9824999000000005,1.2515689134597778,1.4209587574005127,-0.6889315247535706,115.478515625,79.681396484375,-27.862548828125
4.9874999,0.933738648891449,0.8565256595611572,-0.9097966551780701,92.4072265625,75.836181640625,-25.115966796875
4.9924999,-0.8092401623725891,-1.7232266664505005,-0.9744400978088379,14.617919921875,61.5234375,-38.39111328125
4.9974999,-1.4562731981277466,-2.4576480388641357,-0.7954735159873962,-13.336181640625,49.8046875,-49.102783203125
5.0024999,-2.117072820663452,-2.756923198699951,-0.25977087020874023,-51.483154296875,36.163330078125,-59.234619140625
5.0074999,-2.5947160720825195,-2.698265314102173,-0.2298433631658554,-89.141845703125,22.491455078125,-77.45361328125
5.0124999,-2.494159698486328,-2.205658197402954,-0.2190694510936737,-109.954833984375,1.0986328125,-86.0595703125
5.0174999,-2.120065689086914,-1.4460978507995605,-0.5716156363487244,-121.002197265625,-31.55517578125,-68.328857421875
5.022499900000001,-1.348534107208252,-0.7332242727279663,-1.013944387435913,-121.15478515625,-71.807861328125,-48.370361328125
5.0274999000000005,-0.8068459630012512,0.0293289702385664,-1.1186907291412354,-128.173828125,-111.663818359375,-27.64892578125
5.0324999,-1.702277421951294,0.4776432514190674,-0.7493851184844971,-143.157958984375,-130.7373046875,-30.059814453125
5.0374999,-2.7293899059295654,0.8403648138046265,0.1364694982767105,-159.36279296875,-100.52490234375,-89.17236328125
5.0424999,-4.365228176116943,1.1540051698684692,2.8802247047424316,-304.5654296875,-186.553955078125,-75.1953125
5.0474999,-3.1214404106140137,1.173158884048462,3.5685577392578125,-348.480224609375,-241.485595703125,-24.322509765625
5.0524999,-0.047884032130241394,0.5422866940498352,5.7754130363464355,-367.49267578125,-198.944091796875,24.322509765625
5.0574999,2.4025814533233643,-0.6973112225532532,8.268375396728516,-71.563720703125,106.4453125,65.49072265625
5.062499900000001,3.997718334197998,-1.5269020795822144,9.013570785522461,-84.3505859375,8.6669921875,71.96044921875
5.0674999000000005,4.454412460327148,-3.024475336074829,8.3306245803833,-90.240478515625,-62.652587890625,43.3349609375
5.0724999,2.7048494815826416,-3.4524388313293457,4.180874824523926,-20.599365234375,-134.6435546875,35.70556640625
5.0774999,0.535702645778656,-3.6535518169403076,-0.7236474752426147,23.4375,-179.534912109375,15.380859375
5.0824999,-1.3796586990356445,-3.7223851680755615,-4.724358558654785,104.4921875,-222.137451171875,-9.552001953125
5.0874999,-2.5785553455352783,-3.669712543487549,-7.105391979217529,175.079345703125,-239.1357421875,-32.073974609375
5.0924999,-3.1962592601776123,-3.3668460845947266,-7.71471643447876,235.41259765625,-204.132080078125,-56.884765625
5.0974999,-2.9664158821105957,-3.247136116027832,-6.506841659545898,279.571533203125,-147.979736328125,-87.82958984375
5.102499900000001,-1.6867151260375977,-2.0380642414093018,-1.083974838256836,268.24951171875,-49.74365234375,-116.363525390625
5.1074999000000005,-1.6867151260375977,-2.0380642414093018,-1.083974838256836,268.24951171875,-49.74365234375,-116.363525390625
5.1124999,-0.11611878126859665,-1.313219666481018,3.581725835800171,204.498291015625,-4.425048828125,-115.29541015625
5.1174999,1.7405846118927002,-0.3734954595565796,7.903259754180908,-48.095703125,52.520751953125,-55.206298828125
5.1224999,1.9518729448318481,2.601898670196533,5.792172431945801,-171.112060546875,120.025634765625,29.11376953125
5.1274999,1.9889830350875854,2.4839842319488525,5.776610374450684,-162.933349609375,142.364501953125,29.510498046875
5.1324999,3.357867956161499,1.8698714971542358,7.907449722290039,-101.62353515625,181.2744140625,21.453857421875
5.1374999,4.908113479614258,0.6715735793113708,11.441889762878418,6.2255859375,161.92626953125,-3.875732421875
5.1424999,-3.1669301986694336,-3.5194764137268066,5.52821159362793,30.029296875,27.83203125,5.7373046875
5.147499900000001,-3.508702516555786,-2.358887195587158,6.654683589935303,10.55908203125,25.390625,1.3427734375
5.1524999000000005,-2.7545289993286133,-0.8361749649047852,9.03631591796875,7.049560546875,-0.42724609375,-3.84521484375
5.1574999,-1.6849194765090942,0.3842693865299225,11.234192848205566,3.35693359375,-23.773193359375,-5.584716796875
5.1624999,-0.5069721937179565,1.1192892789840698,12.198457717895508,-3.23486328125,-33.538818359375,-7.2021484375
5.1674999,0.22625206410884857,1.4221558570861816,12.039841651916504,-1.40380859375,-33.99658203125,1.434326171875
5.1724999,0.8032546639442444,0.9804255962371826,11.091737747192383,-8.48388671875,-32.40966796875,5.615234375
5.1774999,1.1426327228546143,0.4926069974899292,9.975440979003906,-6.65283203125,-27.9541015625,1.52587890625
5.1824999,1.9177556037902832,-0.7200561761856079,9.332598686218262,-6.805419921875,-18.73779296875,0.152587890625
5.187499900000001,2.2260091304779053,-1.2042834758758545,9.243413925170898,-0.48828125,-14.22119140625,-4.974365234375
5.1924999000000005,2.4408886432647705,-1.3581109046936035,9.428366661071777,3.2958984375,-6.439208984375,-3.448486328125
5.1974999,2.43011474609375,-1.4472949504852295,9.254786491394043,-1.983642578125,0.762939453125,-2.349853515625
5.2024999,2.4355015754699707,-1.2826935052871704,9.268553733825684,4.8828125,7.26318359375,-3.90625
5.2074999,2.3122003078460693,-0.9666589498519897,9.413402557373047,2.288818359375,12.237548828125,-0.274658203125
5.2124999,2.1362264156341553,-0.7104793787002563,9.43375301361084,-4.241943359375,14.46533203125,-0.91552734375
5.2174999,1.902193307876587,-0.4818331003189087,9.542689323425293,1.8310546875,17.39501953125,-0.457763671875
5.2224999,1.6208745241165161,-0.34596213698387146,9.767744064331055,-1.8310546875,17.486572265625,2.99072265625
5.227499900000001,1.2874820232391357,-0.4578910768032074,9.685144424438477,-5.2490234375,15.899658203125,0.67138671875
5.2324999000000005,1.0181342363357544,-0.547075092792511,9.852738380432129,2.9296875,13.48876953125,-0.579833984375
5.2374999,0.7571662664413452,-0.7098808288574219,9.94970417022705,-1.495361328125,8.48388671875,0.823974609375
5.2424999,0.5135562419891357,-0.7936778664588928,9.947309494018555,4.669189453125,-0.030517578125,-0.6103515625
