# Time (seconds),Accel_X,Accel_Y,Accel_Z,Gyro_X,Gyro_Y,Gyro_Z
0.0024999,0.08798690885305405,0.05506663769483566,9.746794700622559,-0.30517578125,0.152587890625,0.091552734375
0.0074999,0.09217676520347595,0.05386953800916672,9.757569313049316,-0.213623046875,0.18310546875,0.091552734375
0.012499900000000001,0.09696517139673233,0.05446808785200119,9.762357711791992,-0.213623046875,0.06103515625,0.030517578125
0.0174999,0.09516951441764832,0.05506663769483566,9.7605619430542,-0.396728515625,0,0.030517578125
0.0224999,0.09876082092523575,0.04668693244457245,9.758766174316406,-0.457763671875,-0.1220703125,0.152587890625
0.0274999,0.10773907601833344,0.043095629662275314,9.755773544311523,-0.274658203125,0.091552734375,-0.06103515625
0.0324999,0.11851298063993454,0.03770867735147476,9.75517463684082,-0.152587890625,0.42724609375,-0.152587890625
0.0374999,0.13587094843387604,0.03411737456917763,9.756970405578613,-0.3662109375,0.885009765625,-0.06103515625
0.0424999,0.14065934717655182,0.03890577703714371,9.755773544311523,-0.335693359375,1.190185546875,0.06103515625
0.0474999,0.13287819921970367,0.046088382601737976,9.75637149810791,-0.274658203125,1.068115234375,0.152587890625
0.0524999,0.1173158809542656,0.050876785069704056,9.753378868103027,-0.3662109375,0.9765625,-0.1220703125
0.0574999,0.09157821536064148,0.050876785069704056,9.750386238098145,-0.3662109375,0.732421875,-0.06103515625
0.0624999,0.0736217051744461,0.050876785069704056,9.749788284301758,-0.1220703125,0.48828125,-0.030517578125
0.0674999,0.0694318488240242,0.04668693244457245,9.749788284301758,-0.091552734375,0.396728515625,-0.244140625
0.0724999,0.07422025501728058,0.04429273307323456,9.750386238098145,-0.091552734375,0.42724609375,-0.152587890625
0.0774999,0.08738835901021957,0.04668693244457245,9.75278091430664,-0.213623046875,0.701904296875,-0.06103515625
0.0824999,0.0933738648891449,0.04489128291606903,9.753378868103027,-0.274658203125,0.67138671875,-0.152587890625
0.0874999,0.09457096457481384,0.04489128291606903,9.751583099365234,-0.274658203125,0.30517578125,-0.213623046875
0.0924999,0.08619125932455063,0.04489128291606903,9.750386238098145,-0.091552734375,0.152587890625,-0.18310546875
0.0974999,0.0802057534456253,0.04908113554120064,9.747992515563965,-0.091552734375,0.30517578125,-0.091552734375
0.1024999,0.0694318488240242,0.04967968538403511,9.742605209350586,-0.1220703125,0.18310546875,-0.1220703125
0.1074999,0.05746084079146385,0.04668693244457245,9.736021041870117,-0.06103515625,-0.06103515625,-0.06103515625
0.1124999,0.04668693244457245,0.048482585698366165,9.731232643127441,0.1220703125,-0.54931640625,-0.091552734375
0.1174999,0.047884032130241394,0.04668693244457245,9.733627319335938,0.244140625,-0.732421875,-0.335693359375
0.1224999,0.05746084079146385,0.04908113554120064,9.739612579345703,0.1220703125,-0.518798828125,-0.213623046875
0.1274999,0.07422025501728058,0.055665191262960434,9.749189376831055,0.091552734375,-0.213623046875,-0.152587890625
0.1324999,0.07960720360279083,0.05267243832349777,9.75278091430664,0.091552734375,-0.518798828125,-0.18310546875
0.1374999,0.07900865375995636,0.055665191262960434,9.748590469360352,0.06103515625,-0.79345703125,-0.091552734375
0.1424999,0.07122749835252762,0.05147533491253853,9.740809440612793,0,-0.91552734375,-0.1220703125
0.1474999,0.07422025501728058,0.05147533491253853,9.73661994934082,0.030517578125,-1.007080078125,-0.152587890625
0.1524999,0.08918401598930359,0.050876785069704056,9.739013671875,0,-1.15966796875,-0.06103515625
0.1574999,0.10115502029657364,0.0454898327589035,9.743802070617676,-0.244140625,-0.946044921875,-0.091552734375
0.1624999,0.1173158809542656,0.04489128291606903,9.753378868103027,-0.091552734375,-0.48828125,-0.213623046875
0.1674999,0.12210428714752197,0.03651157766580582,9.75278091430664,0.06103515625,-0.396728515625,-0.213623046875
0.1724999,0.12689268589019775,0.03651157766580582,9.75397777557373,0.091552734375,-0.396728515625,-0.30517578125
0.17749990000000002,0.13108254969120026,0.035913024097681046,9.752182006835938,0.06103515625,-0.1220703125,-0.30517578125
0.1824999,0.13527239859104156,0.041299980133771896,9.751583099365234,-0.091552734375,0.30517578125,-0.244140625
0.1874999,0.13527239859104156,0.04728548228740692,9.756970405578613,-0.06103515625,0.3662109375,-0.42724609375
0.1924999,0.1280897855758667,0.04967968538403511,9.75936508178711,-0.06103515625,0.3662109375,-0.3662109375
0.1974999,0.1149216815829277,0.04967968538403511,9.764153480529785,0.18310546875,0.18310546875,-0.18310546875
0.2024999,0.10295066982507706,0.046088382601737976,9.75936508178711,0.06103515625,0.1220703125,-0.396728515625
0.20749990000000001,0.08918401598930359,0.043095629662275314,9.756970405578613,0,0.030517578125,-0.30517578125
0.2124999,0.07781155407428741,0.04369417950510979,9.748590469360352,-0.091552734375,-0.1220703125,-0.152587890625
0.2174999,0.07781155407428741,0.04369417950510979,9.748590469360352,-0.091552734375,-0.1220703125,-0.152587890625
0.2224999,0.07122749835252762,0.04908113554120064,9.741408348083496,-0.1220703125,-0.1220703125,-0.274658203125
0.2274999,0.0694318488240242,0.050876785069704056,9.73781681060791,-0.030517578125,-0.152587890625,-0.1220703125
0.2324999,0.07541735470294952,0.05626374110579491,9.736021041870117,-0.030517578125,-0.18310546875,-0.1220703125
0.2374999,0.08798690885305405,0.05626374110579491,9.738415718078613,-0.1220703125,-0.213623046875,-0.18310546875
0.2424999,0.10115502029657364,0.05686229094862938,9.73781681060791,-0.091552734375,-0.30517578125,-0.244140625
0.2474999,0.1107318252325058,0.05506663769483566,9.73661994934082,-0.030517578125,-0.335693359375,-0.213623046875
0.2524999,0.11611878126859665,0.0520738884806633,9.733028411865234,0,-0.1220703125,-0.244140625
0.2574999,0.1173158809542656,0.04967968538403511,9.731831550598145,0.06103515625,-0.091552734375,-0.1220703125
0.2624999,0.1149216815829277,0.04489128291606903,9.732429504394531,0.030517578125,-0.18310546875,-0.152587890625
0.2674999,0.11133038252592087,0.04429273307323456,9.734225273132324,0.1220703125,-0.06103515625,-0.244140625
0.2724999,0.10474632680416107,0.0454898327589035,9.738415718078613,0,0,-0.30517578125
0.2774999,0.10055647045373917,0.046088382601737976,9.73781681060791,0,-0.06103515625,-0.244140625
0.2824999,0.09636662155389786,0.04668693244457245,9.739612579345703,0.152587890625,-0.030517578125,-0.152587890625
0.28749990000000003,0.09876082092523575,0.047884032130241394,9.73781681060791,0.152587890625,-0.06103515625,-0.244140625
0.2924999,0.09876082092523575,0.047884032130241394,9.740809440612793,0.06103515625,-0.1220703125,-0.091552734375
0.2974999,0.10235211998224258,0.047884032130241394,9.741408348083496,0,-0.06103515625,-0.18310546875
0.3024999,0.10235211998224258,0.05027823522686958,9.746794700622559,-0.06103515625,-0.030517578125,-0.1220703125
0.3074999,0.10175357013940811,0.05027823522686958,9.746196746826172,0.06103515625,-0.091552734375,-0.06103515625
0.3124999,0.09935937076807022,0.05506663769483566,9.747992515563965,-0.152587890625,-0.030517578125,-0.030517578125
0.3174999,0.0999579206109047,0.05686229094862938,9.743802070617676,-0.274658203125,-0.06103515625,0
0.3224999,0.10115502029657364,0.060453593730926514,9.744400978088379,-0.152587890625,-0.1220703125,-0.030517578125
0.3274999,0.10295066982507706,0.05985504388809204,9.743204116821289,-0.091552734375,0.030517578125,0.030517578125
0.3324999,0.10714052617549896,0.05446808785200119,9.742605209350586,-0.18310546875,-0.18310546875,0.18310546875
0.3374999,0.10893617570400238,0.050876785069704056,9.742006301879883,0.030517578125,-0.152587890625,0.030517578125
0.3424999,0.10893617570400238,0.046088382601737976,9.740211486816406,0.030517578125,-0.152587890625,-0.091552734375
0.34749990000000003,0.10534487664699554,0.04489128291606903,9.740809440612793,0.06103515625,-0.1220703125,-0.244140625
0.35249990000000003,0.09876082092523575,0.0454898327589035,9.743204116821289,-0.06103515625,-0.30517578125,-0.18310546875
0.3574999,0.09636662155389786,0.0454898327589035,9.747393608093262,0.06103515625,-0.3662109375,-0.274658203125
0.3624999,0.09576806426048279,0.04668693244457245,9.748590469360352,0.1220703125,-0.30517578125,-0.396728515625
0.3674999,0.10115502029657364,0.04908113554120064,9.750985145568848,0.152587890625,-0.244140625,-0.3662109375
0.3724999,0.11013327538967133,0.04908113554120064,9.749189376831055,0.152587890625,-0.152587890625,-0.18310546875
0.3774999,0.1173158809542656,0.050876785069704056,9.747393608093262,0.1220703125,0.030517578125,-0.274658203125
0.3824999,0.11911153793334961,0.04908113554120064,9.744400978088379,0.18310546875,0.06103515625,-0.457763671875
0.3874999,0.11851298063993454,0.046088382601737976,9.742605209350586,0.030517578125,0.06103515625,-0.457763671875
0.3924999,0.11432313174009323,0.04429273307323456,9.741408348083496,0.06103515625,0.152587890625,-0.54931640625
0.3974999,0.11013327538967133,0.04489128291606903,9.741408348083496,0.274658203125,0,-0.274658203125
0.4024999,0.10773907601833344,0.04429273307323456,9.746196746826172,0.30517578125,0.030517578125,-0.274658203125
0.4074999,0.10654197633266449,0.050876785069704056,9.748590469360352,0.1220703125,-0.091552734375,-0.3662109375
0.41249990000000003,0.10175357013940811,0.05446808785200119,9.750386238098145,0.06103515625,-0.030517578125,-0.3662109375
0.41749990000000003,0.09696517139673233,0.060453593730926514,9.749189376831055,0.091552734375,-0.1220703125,-0.244140625
0.4224999,0.08858546614646912,0.06165069341659546,9.743204116821289,0.06103515625,-0.3662109375,-0.06103515625
0.4274999,0.08319851011037827,0.06344634294509888,9.740809440612793,-0.030517578125,-0.244140625,0.152587890625
0.4324999,0.07900865375995636,0.060453593730926514,9.739013671875,0.06103515625,-0.213623046875,0.030517578125
0.4374999,0.07841010391712189,0.0586579404771328,9.740809440612793,0.030517578125,-0.244140625,-0.091552734375
0.4424999,0.08080431073904037,0.05506663769483566,9.742006301879883,0.152587890625,-0.457763671875,-0.152587890625
0.4474999,0.08140286058187485,0.05446808785200119,9.740809440612793,0,-0.6103515625,-0.18310546875
0.4524999,0.08738835901021957,0.05147533491253853,9.740211486816406,0,-0.54931640625,-0.18310546875
0.4574999,0.09876082092523575,0.05267243832349777,9.741408348083496,0.06103515625,-0.579833984375,-0.06103515625
0.4624999,0.11133038252592087,0.0520738884806633,9.744999885559082,0.030517578125,-0.335693359375,0.030517578125
0.4674999,0.12749123573303223,0.05267243832349777,9.750985145568848,-0.152587890625,-0.091552734375,-0.030517578125
0.47249990000000003,0.13527239859104156,0.05147533491253853,9.751583099365234,-0.1220703125,-0.18310546875,0.06103515625
0.47749990000000003,0.13587094843387604,0.050876785069704056,9.751583099365234,-0.213623046875,-0.213623046875,0
0.4824999,0.13347674906253815,0.0520738884806633,9.747992515563965,-0.213623046875,-0.1220703125,0.030517578125
0.4874999,0.12689268589019775,0.05267243832349777,9.743802070617676,-0.091552734375,-0.091552734375,-0.030517578125
0.4924999,0.12210428714752197,0.05506663769483566,9.743802070617676,-0.06103515625,0.030517578125,0
0.4974999,0.11971008777618408,0.05446808785200119,9.746794700622559,-0.091552734375,0.030517578125,0
0.5024999,0.11372458189725876,0.055665191262960434,9.747393608093262,-0.06103515625,0.06103515625,0
0.5074999,0.10833762586116791,0.05147533491253853,9.750985145568848,-0.091552734375,-0.18310546875,0
0.5124999,0.1041477769613266,0.0520738884806633,9.752182006835938,-0.1220703125,-0.244140625,0.030517578125
0.5174999,0.10115502029657364,0.050876785069704056,9.752182006835938,0.1220703125,-0.335693359375,0
0.5224999,0.10295066982507706,0.05147533491253853,9.75278091430664,-0.18310546875,-0.335693359375,0.091552734375
0.5274999,0.10953472554683685,0.05027823522686958,9.751583099365234,-0.1220703125,-0.1220703125,-0.18310546875
0.5324999,0.1107318252325058,0.048482585698366165,9.749189376831055,0.030517578125,0.152587890625,-0.274658203125
0.5374999,0.11611878126859665,0.0454898327589035,9.746196746826172,0,-0.030517578125,-0.244140625
0.5424999,0.11611878126859665,0.046088382601737976,9.742006301879883,-0.06103515625,-0.091552734375,-0.1220703125
0.5474999,0.11552023142576218,0.047884032130241394,9.73781681060791,-0.091552734375,0,-0.244140625
0.5524999,0.1173158809542656,0.04908113554120064,9.736021041870117,-0.1220703125,0.152587890625,-0.213623046875
0.5574999,0.11791443079710007,0.04908113554120064,9.732429504394531,-0.06103515625,0.06103515625,-0.244140625
0.5624999,0.11851298063993454,0.04728548228740692,9.736021041870117,-0.030517578125,0.030517578125,-0.244140625
0.5674999000000001,0.11971008777618408,0.04489128291606903,9.73781681060791,-0.030517578125,0.091552734375,-0.335693359375
0.5724999000000001,0.1173158809542656,0.047884032130241394,9.743204116821289,-0.18310546875,0.152587890625,-0.244140625
0.5774999000000001,0.11372458189725876,0.05027823522686958,9.745597839355469,-0.1220703125,0.1220703125,-0.152587890625
0.5824999,0.11372458189725876,0.05027823522686958,9.745597839355469,-0.1220703125,0.1220703125,-0.152587890625
0.5874999,0.10893617570400238,0.05506663769483566,9.745597839355469,-0.091552734375,0.06103515625,-0.030517578125
0.5924999,0.10295066982507706,0.05686229094862938,9.743204116821289,-0.091552734375,0.030517578125,-0.152587890625
0.5974999,0.09935937076807022,0.0586579404771328,9.743204116821289,-0.030517578125,0.18310546875,0.030517578125
0.6024999,0.09816227108240128,0.05985504388809204,9.742605209350586,-0.18310546875,0.06103515625,-0.030517578125
0.6074999,0.09876082092523575,0.060453593730926514,9.746196746826172,-0.091552734375,0.030517578125,-0.030517578125
0.6124999,0.10235211998224258,0.06165069341659546,9.750386238098145,-0.091552734375,-0.030517578125,-0.091552734375
0.6174999,0.10654197633266449,0.061052143573760986,9.75397777557373,-0.030517578125,-0.06103515625,-0.06103515625
0.6224999,0.10833762586116791,0.05626374110579491,9.757569313049316,-0.030517578125,-0.06103515625,-0.06103515625
0.6274999,0.10893617570400238,0.050876785069704056,9.757569313049316,-0.1220703125,-0.091552734375,0.06103515625
0.6324999,0.10893617570400238,0.047884032130241394,9.75517463684082,-0.091552734375,-0.244140625,0.1220703125
0.6374999,0.10654197633266449,0.04369417950510979,9.751583099365234,-0.152587890625,-0.213623046875,-0.1220703125
0.6424999,0.10893617570400238,0.04189852997660637,9.744999885559082,-0.06103515625,-0.18310546875,-0.091552734375
0.6474999,0.10833762586116791,0.04249707981944084,9.742006301879883,-0.030517578125,-0.06103515625,-0.030517578125
0.6524999,0.10953472554683685,0.03890577703714371,9.739612579345703,0.06103515625,-0.244140625,-0.06103515625
0.6574999,0.11133038252592087,0.03950432687997818,9.739612579345703,0,-0.18310546875,-0.06103515625
0.6624999,0.10893617570400238,0.04189852997660637,9.741408348083496,-0.18310546875,-0.06103515625,0.030517578125
0.6674999,0.11013327538967133,0.04668693244457245,9.745597839355469,-0.091552734375,-0.1220703125,-0.06103515625
0.6724999,0.10773907601833344,0.0520738884806633,9.747393608093262,-0.06103515625,-0.335693359375,-0.18310546875
0.6774999,0.10534487664699554,0.058059390634298325,9.750386238098145,-0.091552734375,-0.18310546875,-0.244140625
0.6824999,0.10295066982507706,0.0586579404771328,9.749189376831055,-0.030517578125,-0.152587890625,-0.030517578125
0.6874999,0.1041477769613266,0.05686229094862938,9.747992515563965,-0.030517578125,-0.274658203125,0.152587890625
0.6924999000000001,0.10773907601833344,0.05147533491253853,9.744400978088379,0.091552734375,-0.1220703125,0.06103515625
0.6974999000000001,0.11252748221158981,0.048482585698366165,9.740211486816406,0.030517578125,-0.091552734375,-0.30517578125
0.7024999000000001,0.11432313174009323,0.04429273307323456,9.739013671875,-0.06103515625,0,-0.152587890625
0.7074999,0.11252748221158981,0.043095629662275314,9.73781681060791,0.030517578125,0.06103515625,-0.030517578125
0.7124999,0.1107318252325058,0.043095629662275314,9.741408348083496,-0.030517578125,-0.06103515625,0.030517578125
0.7174999,0.10773907601833344,0.046088382601737976,9.744999885559082,-0.1220703125,-0.18310546875,-0.1220703125
0.7224999,0.10714052617549896,0.04908113554120064,9.746196746826172,-0.1220703125,0.06103515625,-0.152587890625
0.7274999,0.10773907601833344,0.05446808785200119,9.747393608093262,-0.06103515625,0.030517578125,-0.030517578125
0.7324999,0.10594342648983002,0.05686229094862938,9.743802070617676,-0.06103515625,-0.091552734375,-0.030517578125
0.7374999,0.10893617570400238,0.0586579404771328,9.742006301879883,0.091552734375,-0.030517578125,-0.152587890625
0.7424999,0.1107318252325058,0.05985504388809204,9.738415718078613,-0.06103515625,0.06103515625,-0.335693359375
0.7474999,0.11312603205442429,0.05746084079146385,9.739612579345703,0.030517578125,-0.091552734375,-0.274658203125
0.7524999,0.11252748221158981,0.058059390634298325,9.742006301879883,0.213623046875,-0.1220703125,-0.18310546875
0.7574999,0.1107318252325058,0.053270988166332245,9.743802070617676,0.06103515625,-0.152587890625,-0.213623046875
0.7624999,0.10773907601833344,0.050876785069704056,9.747393608093262,-0.091552734375,-0.030517578125,-0.335693359375
0.7674999,0.10534487664699554,0.04728548228740692,9.746196746826172,-0.06103515625,0.091552734375,-0.335693359375
0.7724999,0.10474632680416107,0.043095629662275314,9.745597839355469,0.06103515625,-0.06103515625,-0.244140625
0.7774999,0.1041477769613266,0.043095629662275314,9.743802070617676,0,-0.030517578125,-0.30517578125
0.7824999,0.10534487664699554,0.04249707981944084,9.742006301879883,0.091552734375,-0.091552734375,-0.3662109375
0.7874999,0.10714052617549896,0.04249707981944084,9.739612579345703,0.06103515625,0.06103515625,-0.396728515625
0.7924999,0.10953472554683685,0.04489128291606903,9.739013671875,0.152587890625,0.06103515625,-0.396728515625
0.7974999,0.10953472554683685,0.05027823522686958,9.738415718078613,0.091552734375,0.06103515625,-0.48828125
0.8024999,0.11133038252592087,0.05147533491253853,9.743802070617676,0.06103515625,0.030517578125,-0.42724609375
0.8074999,0.11013327538967133,0.053270988166332245,9.747992515563965,0.274658203125,0.06103515625,-0.274658203125
0.8124999,0.11192893236875534,0.048482585698366165,9.75278091430664,0.1220703125,0.213623046875,-0.518798828125
0.8174999000000001,0.10714052617549896,0.046088382601737976,9.75517463684082,0.1220703125,0.18310546875,-0.3662109375
0.8224999000000001,0.1107318252325058,0.043095629662275314,9.75517463684082,0.091552734375,-0.06103515625,-0.244140625
0.8274999000000001,0.10474632680416107,0.04489128291606903,9.756970405578613,-0.030517578125,0.06103515625,-0.274658203125
0.8324999000000001,0.10594342648983002,0.04668693244457245,9.754576683044434,0.06103515625,0.030517578125,-0.244140625
0.8374999,0.10295066982507706,0.05027823522686958,9.75637149810791,-0.091552734375,0.030517578125,-0.18310546875
0.8424999,0.10594342648983002,0.055665191262960434,9.754576683044434,-0.030517578125,0.091552734375,-0.18310546875
0.8474999,0.10354922711849213,0.05985504388809204,9.756970405578613,-0.1220703125,0.152587890625,-0.18310546875
0.8524999,0.10833762586116791,0.061052143573760986,9.75397777557373,-0.152587890625,0,-0.213623046875
0.8574999,0.10953472554683685,0.05925649031996727,9.750985145568848,0.06103515625,0,-0.18310546875
0.8624999,0.11013327538967133,0.05506663769483566,9.746196746826172,0.030517578125,0.06103515625,-0.18310546875
0.8674999,0.11013327538967133,0.05147533491253853,9.740809440612793,0.06103515625,0.244140625,-0.152587890625
0.8724999,0.10773907601833344,0.05027823522686958,9.741408348083496,0,0.274658203125,-0.274658203125
0.8774999,0.10654197633266449,0.05027823522686958,9.743802070617676,-0.1220703125,0.030517578125,-0.06103515625
0.8824999,0.10594342648983002,0.050876785069704056,9.749189376831055,-0.091552734375,0,-0.030517578125
0.8874999,0.10893617570400238,0.05267243832349777,9.75397777557373,-0.1220703125,0.18310546875,-0.18310546875
0.8924999,0.11312603205442429,0.05446808785200119,9.761159896850586,-0.091552734375,0.091552734375,-0.030517578125
0.8974999,0.11611878126859665,0.05626374110579491,9.762955665588379,-0.06103515625,0.06103515625,-0.091552734375
0.9024999,0.11791443079710007,0.05686229094862938,9.766547203063965,-0.091552734375,0.1220703125,-0.152587890625
0.9074999,0.11611878126859665,0.05746084079146385,9.763554573059082,-0.030517578125,-0.091552734375,-0.091552734375
0.9124999,0.10953472554683685,0.05626374110579491,9.759963035583496,-0.091552734375,-0.18310546875,-0.091552734375
0.9174999,0.10594342648983002,0.05446808785200119,9.752182006835938,-0.06103515625,-0.1220703125,-0.152587890625
0.9224999,0.10235211998224258,0.050876785069704056,9.747393608093262,-0.06103515625,-0.091552734375,-0.030517578125
0.9274999,0.10175357013940811,0.046088382601737976,9.741408348083496,-0.06103515625,-0.18310546875,-0.244140625
0.9324999,0.10654197633266449,0.043095629662275314,9.740809440612793,0.1220703125,-0.18310546875,-0.1220703125
0.9374999,0.10833762586116791,0.04369417950510979,9.741408348083496,0.030517578125,-0.1220703125,-0.091552734375
0.9424999000000001,0.11133038252592087,0.04249707981944084,9.746794700622559,-0.030517578125,-0.152587890625,-0.244140625
0.9474999000000001,0.11133038252592087,0.04249707981944084,9.746794700622559,-0.030517578125,-0.152587890625,-0.244140625
0.9524999000000001,0.11013327538967133,0.04668693244457245,9.751583099365234,0.152587890625,-0.152587890625,-0.335693359375
0.9574999000000001,0.11133038252592087,0.04967968538403511,9.757569313049316,0.091552734375,-0.091552734375,-0.42724609375
0.9624999,0.10953472554683685,0.05147533491253853,9.75517463684082,0,-0.1220703125,-0.30517578125
0.9674999,0.11133038252592087,0.055665191262960434,9.75397777557373,0.030517578125,-0.06103515625,-0.152587890625
0.9724999,0.11252748221158981,0.05506663769483566,9.747393608093262,0.06103515625,0,-0.152587890625
0.9774999,0.11192893236875534,0.05686229094862938,9.740809440612793,0.06103515625,-0.06103515625,-0.3662109375
0.9824999,0.11013327538967133,0.05746084079146385,9.742006301879883,-0.091552734375,0.06103515625,-0.274658203125
0.9874999,0.10654197633266449,0.060453593730926514,9.743802070617676,-0.1220703125,0.18310546875,-0.152587890625
0.9924999,0.10115502029657364,0.060453593730926514,9.747992515563965,-0.06103515625,0.18310546875,-0.18310546875
0.9974999,0.09935937076807022,0.05925649031996727,9.750386238098145,0.06103515625,0.091552734375,0
1.0024999,0.09696517139673233,0.05746084079146385,9.751583099365234,-0.06103515625,0.06103515625,-0.06103515625
1.0074999000000002,0.09935937076807022,0.05267243832349777,9.749788284301758,0.030517578125,0.06103515625,0.06103515625
1.0124999000000001,0.0999579206109047,0.050876785069704056,9.749788284301758,-0.1220703125,0.091552734375,0.030517578125
1.0174999000000002,0.10235211998224258,0.05027823522686958,9.750985145568848,-0.06103515625,0.06103515625,-0.18310546875
1.0224999000000001,0.10773907601833344,0.04908113554120064,9.749788284301758,-0.030517578125,0.06103515625,-0.1220703125
1.0274999,0.10953472554683685,0.05267243832349777,9.749788284301758,-0.06103515625,0,0.030517578125
1.0324999000000001,0.11552023142576218,0.05267243832349777,9.746794700622559,-0.1220703125,-0.091552734375,0.030517578125
1.0374999,0.11671733111143112,0.05626374110579491,9.745597839355469,-0.030517578125,-0.152587890625,-0.1220703125
1.0424999000000001,0.11851298063993454,0.05626374110579491,9.746196746826172,-0.030517578125,-0.091552734375,-0.06103515625
1.0474999,0.11611878126859665,0.05686229094862938,9.744999885559082,-0.030517578125,-0.1220703125,-0.091552734375
1.0524999000000002,0.11312603205442429,0.05386953800916672,9.750386238098145,-0.091552734375,-0.091552734375,-0.06103515625
1.0574999,0.10953472554683685,0.050876785069704056,9.748590469360352,0,-0.244140625,-0.030517578125
1.0624999000000002,0.10654197633266449,0.04668693244457245,9.748590469360352,0.091552734375,-0.152587890625,-0.30517578125
1.0674999,0.10714052617549896,0.04429273307323456,9.744999885559082,0.06103515625,-0.091552734375,-0.152587890625
1.0724999000000002,0.10654197633266449,0.04249707981944084,9.742006301879883,0.06103515625,-0.030517578125,-0.244140625
1.0774999,0.10474632680416107,0.0454898327589035,9.742605209350586,0.030517578125,0.06103515625,-0.244140625
1.0824999000000002,0.10354922711849213,0.04728548228740692,9.745597839355469,0.030517578125,-0.030517578125,-0.18310546875
1.0874999,0.09876082092523575,0.05446808785200119,9.749189376831055,-0.091552734375,0,-0.244140625
1.0924999000000002,0.10055647045373917,0.05925649031996727,9.75517463684082,-0.06103515625,-0.06103515625,-0.274658203125
1.0974999,0.10654197633266449,0.061052143573760986,9.75637149810791,-0.030517578125,-0.030517578125,-0.1220703125
1.1024999000000002,0.11013327538967133,0.061052143573760986,9.759963035583496,-0.06103515625,0.06103515625,-0.152587890625
1.1074999,0.11791443079710007,0.05626374110579491,9.758766174316406,-0.06103515625,-0.030517578125,-0.274658203125
1.1124999000000002,0.11971008777618408,0.05267243832349777,9.75397777557373,-0.06103515625,0.091552734375,-0.274658203125
1.1174999,0.11791443079710007,0.0520738884806633,9.750985145568848,0,0.152587890625,-0.3662109375
1.1224999000000002,0.11432313174009323,0.05267243832349777,9.744400978088379,-0.030517578125,0.1220703125,-0.30517578125
1.1274999,0.10833762586116791,0.05386953800916672,9.743204116821289,0.030517578125,0,-0.152587890625
1.1324999000000002,0.10654197633266449,0.053270988166332245,9.740809440612793,-0.030517578125,0.091552734375,-0.06103515625
1.1374999000000001,0.10295066982507706,0.05147533491253853,9.744999885559082,-0.213623046875,0.244140625,-0.18310546875
1.1424999000000002,0.10295066982507706,0.047884032130241394,9.749189376831055,-0.152587890625,0.274658203125,-0.091552734375
1.1474999000000001,0.1041477769613266,0.04429273307323456,9.75278091430664,-0.152587890625,0.030517578125,-0.06103515625
1.1524999000000002,0.10295066982507706,0.04249707981944084,9.75637149810791,-0.152587890625,-0.091552734375,-0.091552734375
1.1574999000000001,0.10534487664699554,0.04189852997660637,9.75517463684082,-0.091552734375,-0.06103515625,-0.030517578125
1.1624999,0.10714052617549896,0.04489128291606903,9.75278091430664,-0.1220703125,0,0.1220703125
1.1674999000000001,0.10893617570400238,0.04967968538403511,9.747992515563965,-0.213623046875,0,-0.06103515625
1.1724999,0.1107318252325058,0.05446808785200119,9.742006301879883,-0.213623046875,0,0.030517578125
1.1774999000000002,0.11192893236875534,0.05925649031996727,9.741408348083496,-0.18310546875,-0.030517578125,-0.06103515625
1.1824999,0.11432313174009323,0.06224924325942993,9.739013671875,-0.06103515625,-0.030517578125,-0.1220703125
1.1874999000000002,0.11611878126859665,0.06344634294509888,9.739612579345703,-0.091552734375,0,-0.1220703125
1.1924999,0.1173158809542656,0.06224924325942993,9.739013671875,-0.030517578125,0.091552734375,-0.244140625
1.1974999000000002,0.11611878126859665,0.0586579404771328,9.736021041870117,-0.030517578125,0.06103515625,-0.030517578125
1.2024999,0.1149216815829277,0.053270988166332245,9.733028411865234,-0.1220703125,0,-0.091552734375
1.2074999000000002,0.11432313174009323,0.046088382601737976,9.733028411865234,-0.030517578125,0,-0.152587890625
1.2124999,0.11611878126859665,0.040701430290937424,9.73542308807373,0.152587890625,0.06103515625,-0.213623046875
1.2174999000000002,0.12030863761901855,0.03651157766580582,9.741408348083496,0.091552734375,0.30517578125,-0.30517578125
1.2224999,0.12449848651885986,0.0347159244120121,9.747992515563965,-0.030517578125,0.396728515625,-0.396728515625
1.2274999000000002,0.12389993667602539,0.03770867735147476,9.752182006835938,-0.152587890625,0.42724609375,-0.54931640625
1.2324999,0.12030863761901855,0.041299980133771896,9.75278091430664,-0.030517578125,0.48828125,-0.30517578125
1.2374999000000002,0.11312603205442429,0.04728548228740692,9.750985145568848,-0.091552734375,0.244140625,-0.18310546875
1.2424999,0.10354922711849213,0.053270988166332245,9.748590469360352,-0.091552734375,0.1220703125,-0.244140625
1.2474999000000002,0.09636662155389786,0.05686229094862938,9.749788284301758,-0.1220703125,0.18310546875,-0.30517578125
1.2524999,0.090979665517807,0.05985504388809204,9.749788284301758,-0.06103515625,0.213623046875,-0.213623046875
1.2574999000000002,0.09277531504631042,0.05686229094862938,9.750985145568848,0.06103515625,0.030517578125,-0.18310546875
1.2624999000000001,0.09636662155389786,0.05686229094862938,9.750985145568848,-0.030517578125,0.091552734375,-0.18310546875
1.2674999000000002,0.10474632680416107,0.05386953800916672,9.749788284301758,-0.091552734375,0.18310546875,-0.213623046875
1.2724999000000001,0.11013327538967133,0.05267243832349777,9.749788284301758,-0.152587890625,0.06103515625,-0.152587890625
1.2774999000000002,0.11432313174009323,0.053270988166332245,9.746196746826172,-0.18310546875,0.244140625,-0.244140625
1.2824999000000001,0.11432313174009323,0.050876785069704056,9.744400978088379,0.030517578125,0.152587890625,-0.30517578125
1.2874999,0.11252748221158981,0.05386953800916672,9.744400978088379,0.06103515625,0.244140625,-0.244140625
1.2924999000000001,0.10893617570400238,0.0520738884806633,9.742006301879883,-0.06103515625,0.274658203125,-0.244140625
1.2974999,0.10354922711849213,0.053270988166332245,9.744999885559082,-0.091552734375,0.18310546875,-0.3662109375
1.3024999000000002,0.09636662155389786,0.05027823522686958,9.747992515563965,-0.091552734375,0.244140625,-0.42724609375
1.3074999,0.08918401598930359,0.0520738884806633,9.750386238098145,-0.030517578125,0.30517578125,-0.274658203125
1.3124999000000002,0.08918401598930359,0.0520738884806633,9.750386238098145,-0.030517578125,0.30517578125,-0.274658203125
1.3174999,0.0867898091673851,0.050876785069704056,9.75397777557373,0.091552734375,0.213623046875,-0.152587890625
1.3224999000000002,0.08619125932455063,0.053270988166332245,9.754576683044434,0,0.091552734375,-0.244140625
1.3274999,0.08858546614646912,0.05506663769483566,9.75278091430664,-0.1220703125,0.1220703125,-0.1220703125
1.3324999000000002,0.08978256583213806,0.05506663769483566,9.750386238098145,-0.18310546875,0.030517578125,-0.030517578125
1.3374999,0.09157821536064148,0.05686229094862938,9.746794700622559,-0.1220703125,0.091552734375,-0.1220703125
1.3424999000000002,0.09397241473197937,0.05626374110579491,9.743204116821289,-0.1220703125,0.030517578125,0
1.3474999,0.09816227108240128,0.05626374110579491,9.742006301879883,-0.244140625,-0.152587890625,0.1220703125
1.3524999000000002,0.10175357013940811,0.053270988166332245,9.739013671875,-0.213623046875,-0.091552734375,0.152587890625
1.3574999,0.1041477769613266,0.05147533491253853,9.739013671875,-0.3662109375,0,0.18310546875
1.3624999000000002,0.10115502029657364,0.048482585698366165,9.739612579345703,-0.42724609375,-0.152587890625,0.18310546875
1.3674999,0.09696517139673233,0.048482585698366165,9.738415718078613,-0.18310546875,-0.274658203125,0.152587890625
1.3724999000000002,0.09277531504631042,0.04908113554120064,9.739013671875,-0.3662109375,-0.274658203125,0.091552734375
1.3774999,0.08259996026754379,0.05027823522686958,9.731831550598145,-0.335693359375,-0.3662109375,0.18310546875
1.3824999000000002,0.07721300423145294,0.0454898327589035,9.727641105651855,-0.213623046875,-0.946044921875,0.244140625
1.3874999000000001,0.08259996026754379,0.047884032130241394,9.730035781860352,-0.06103515625,-1.03759765625,-0.244140625
1.3924999000000002,0.09457096457481384,0.04010287672281265,9.734824180603027,-0.396728515625,-0.54931640625,0.030517578125
1.3974999000000001,0.11552023142576218,0.04429273307323456,9.749788284301758,-0.335693359375,-0.091552734375,0.152587890625
1.4024999000000002,0.1322796493768692,0.0454898327589035,9.761159896850586,-0.213623046875,0.06103515625,0.030517578125
1.4074999000000001,0.14065934717655182,0.047884032130241394,9.764751434326172,-0.213623046875,-0.091552734375,0.091552734375
1.4124999,0.13706804811954498,0.05267243832349777,9.764153480529785,-0.244140625,-0.030517578125,0
1.4174999000000001,0.13108254969120026,0.0520738884806633,9.761159896850586,-0.274658203125,0.244140625,-0.152587890625
1.4224999,0.12389993667602539,0.05386953800916672,9.757569313049316,-0.213623046875,0.06103515625,-0.06103515625
1.4274999000000002,0.1149216815829277,0.053270988166332245,9.754576683044434,-0.274658203125,0.18310546875,-0.06103515625
1.4324999,0.10714052617549896,0.05147533491253853,9.753378868103027,-0.244140625,0.244140625,0.030517578125
1.4374999000000002,0.10295066982507706,0.053270988166332245,9.748590469360352,-0.244140625,0.091552734375,0.091552734375
1.4424999,0.09816227108240128,0.04967968538403511,9.747393608093262,-0.1220703125,0.152587890625,0.030517578125
1.4474999000000002,0.0975637212395668,0.05147533491253853,9.747992515563965,-0.18310546875,0.1220703125,0.152587890625
1.4524999,0.09876082092523575,0.04908113554120064,9.751583099365234,-0.152587890625,0.091552734375,-0.152587890625
1.4574999000000002,0.10295066982507706,0.048482585698366165,9.755773544311523,-0.213623046875,0.091552734375,-0.18310546875
1.4624999,0.10295066982507706,0.047884032130241394,9.75637149810791,0.030517578125,0.030517578125,-0.1220703125
1.4674999000000002,0.11192893236875534,0.04728548228740692,9.75397777557373,0,0.152587890625,-0.18310546875
1.4724999,0.11611878126859665,0.0454898327589035,9.754576683044434,-0.06103515625,0.274658203125,-0.1220703125
1.4774999000000002,0.11911153793334961,0.04668693244457245,9.752182006835938,-0.18310546875,0.579833984375,-0.091552734375
1.4824999,0.1173158809542656,0.04369417950510979,9.753378868103027,-0.152587890625,0.396728515625,-0.06103515625
1.4874999000000002,0.10654197633266449,0.04429273307323456,9.753378868103027,-0.030517578125,0.1220703125,-0.152587890625
1.4924999,0.09516951441764832,0.04429273307323456,9.750985145568848,0,0.06103515625,-0.18310546875
1.4974999000000002,0.08798690885305405,0.04489128291606903,9.747992515563965,-0.06103515625,0,-0.1220703125
1.5024999,0.08798690885305405,0.047884032130241394,9.745597839355469,-0.1220703125,-0.1220703125,-0.1220703125
1.5074999000000002,0.09157821536064148,0.050876785069704056,9.745597839355469,-0.030517578125,-0.152587890625,-0.213623046875
1.5124999000000001,0.09457096457481384,0.05506663769483566,9.748590469360352,-0.091552734375,-0.030517578125,-0.1220703125
1.5174999000000002,0.09696517139673233,0.0586579404771328,9.752182006835938,-0.1220703125,-0.18310546875,-0.030517578125
1.5224999000000001,0.09277531504631042,0.06165069341659546,9.753378868103027,-0.152587890625,-0.06103515625,-0.152587890625
1.5274999000000002,0.090979665517807,0.0628477931022644,9.752182006835938,-0.06103515625,-0.18310546875,-0.244140625
1.5324999000000001,0.08798690885305405,0.058059390634298325,9.747393608093262,0,-0.335693359375,-0.152587890625
1.5374999000000003,0.0867898091673851,0.0520738884806633,9.744400978088379,0.030517578125,-0.335693359375,-0.030517578125
1.5424999000000001,0.08858546614646912,0.043095629662275314,9.742605209350586,-0.213623046875,-0.18310546875,-0.06103515625
1.5474999,0.09277531504631042,0.03711012750864029,9.742605209350586,-0.213623046875,-0.213623046875,-0.091552734375
1.5524999000000002,0.09696517139673233,0.03232172131538391,9.744400978088379,-0.1220703125,-0.244140625,0.030517578125
1.5574999,0.10534487664699554,0.02992752194404602,9.745597839355469,-0.091552734375,-0.274658203125,0.06103515625
1.5624999000000002,0.11192893236875534,0.0293289702385664,9.747992515563965,-0.030517578125,-0.091552734375,-0.091552734375
1.5674999,0.11671733111143112,0.02992752194404602,9.746196746826172,-0.06103515625,-0.1220703125,-0.18310546875
1.5724999000000002,0.11851298063993454,0.03411737456917763,9.747992515563965,-0.152587890625,-0.18310546875,-0.091552734375
1.5774999,0.1173158809542656,0.03890577703714371,9.746794700622559,-0.18310546875,-0.030517578125,-0.152587890625
1.5824999000000002,0.11552023142576218,0.04489128291606903,9.744999885559082,-0.18310546875,0.18310546875,-0.18310546875
1.5874999,0.1107318252325058,0.05027823522686958,9.744999885559082,-0.091552734375,-0.06103515625,-0.152587890625
1.5924999000000002,0.10654197633266449,0.05147533491253853,9.741408348083496,-0.06103515625,-0.091552734375,-0.1220703125
1.5974999,0.10235211998224258,0.053270988166332245,9.741408348083496,-0.091552734375,-0.1220703125,-0.213623046875
1.6024999000000002,0.09516951441764832,0.05267243832349777,9.742006301879883,-0.030517578125,-0.30517578125,-0.030517578125
1.6074999,0.09038111567497253,0.05147533491253853,9.741408348083496,0,-0.30517578125,0.030517578125
1.6124999000000002,0.08080431073904037,0.053270988166332245,9.740809440612793,-0.091552734375,-0.213623046875,-0.06103515625
1.6174999,0.07781155407428741,0.04967968538403511,9.740809440612793,-0.244140625,-0.48828125,-0.18310546875
1.6224999000000002,0.08319851011037827,0.046088382601737976,9.743204116821289,-0.1220703125,-0.335693359375,-0.06103515625
1.6274999,0.09576806426048279,0.03950432687997818,9.749189376831055,0.06103515625,-0.1220703125,0.030517578125
1.6324999000000002,0.11252748221158981,0.03411737456917763,9.756970405578613,-0.152587890625,0,-0.152587890625
1.6374999000000001,0.12749123573303223,0.03292027488350868,9.7605619430542,-0.213623046875,0.274658203125,-0.18310546875
1.6424999000000002,0.1364694982767105,0.031124621629714966,9.763554573059082,-0.152587890625,0.274658203125,-0.213623046875
1.6474999000000001,0.1346738487482071,0.03292027488350868,9.763554573059082,0.091552734375,0.335693359375,-0.3662109375
1.6524999000000002,0.1280897855758667,0.035913024097681046,9.7605619430542,0,0.48828125,-0.396728515625
1.6574999000000001,0.11971008777618408,0.03890577703714371,9.761159896850586,-0.152587890625,0.213623046875,-0.30517578125
1.6624999000000003,0.1107318252325058,0.043095629662275314,9.757569313049316,0.06103515625,0.42724609375,-0.396728515625
1.6674999000000001,0.10474632680416107,0.043095629662275314,9.752182006835938,0.091552734375,0.42724609375,-0.3662109375
1.6724999,0.10354922711849213,0.04429273307323456,9.749788284301758,-0.030517578125,0.396728515625,-0.3662109375
1.6774999000000002,0.10354922711849213,0.04429273307323456,9.749788284301758,-0.030517578125,0.396728515625,-0.3662109375
1.6824999,0.10295066982507706,0.043095629662275314,9.743802070617676,0,0.396728515625,-0.213623046875
1.6874999000000002,0.10594342648983002,0.04369417950510979,9.746794700622559,-0.030517578125,0.274658203125,-0.152587890625
1.6924999,0.10714052617549896,0.04728548228740692,9.751583099365234,-0.030517578125,0.3662109375,-0.06103515625
1.6974999000000002,0.10654197633266449,0.047884032130241394,9.75637149810791,0,0.3662109375,0.030517578125
1.7024999,0.10115502029657364,0.05147533491253853,9.75637149810791,-0.091552734375,0.274658203125,0
1.7074999000000002,0.09576806426048279,0.05267243832349777,9.754576683044434,0.030517578125,0.030517578125,-0.244140625
1.7124999,0.09038111567497253,0.0520738884806633,9.744999885559082,-0.1220703125,0.1220703125,-0.091552734375
1.7174999000000002,0.0933738648891449,0.0520738884806633,9.742006301879883,-0.1220703125,0.091552734375,-0.091552734375
1.7224999,0.09876082092523575,0.05027823522686958,9.739013671875,-0.091552734375,0.213623046875,-0.152587890625
1.7274999000000002,0.10654197633266449,0.046088382601737976,9.73542308807373,-0.1220703125,0.30517578125,0
1.7324999,0.10833762586116791,0.04249707981944084,9.73661994934082,-0.091552734375,0.518798828125,0.091552734375
1.7374999000000002,0.10953472554683685,0.03770867735147476,9.73781681060791,-0.18310546875,0.48828125,0
1.7424999,0.10474632680416107,0.03411737456917763,9.739612579345703,-0.42724609375,0.457763671875,0
1.7474999000000002,0.09935937076807022,0.03531447425484657,9.747393608093262,-0.3662109375,0.42724609375,0.030517578125
1.7524999,0.090979665517807,0.035913024097681046,9.748590469360352,-0.274658203125,0.244140625,0.030517578125
1.7574999000000002,0.08858546614646912,0.03950432687997818,9.753378868103027,-0.213623046875,-0.1220703125,0.30517578125
1.7624999000000001,0.09038111567497253,0.041299980133771896,9.753378868103027,-0.18310546875,-0.1220703125,0.091552734375
1.7674999000000002,0.0975637212395668,0.04249707981944084,9.753378868103027,-0.244140625,-0.152587890625,0
1.7724999000000001,0.10893617570400238,0.040701430290937424,9.755773544311523,-0.18310546875,-0.06103515625,-0.06103515625
1.7774999000000002,0.11911153793334961,0.040701430290937424,9.751583099365234,-0.06103515625,0.213623046875,-0.213623046875
1.7824999000000001,0.1256955862045288,0.038307227194309235,9.753378868103027,-0.213623046875,0.18310546875,-0.274658203125
1.7874999000000003,0.12749123573303223,0.038307227194309235,9.755773544311523,-0.18310546875,0.213623046875,-0.213623046875
1.7924999000000001,0.12389993667602539,0.03651157766580582,9.756970405578613,-0.091552734375,0.152587890625,-0.213623046875
1.7974999,0.11192893236875534,0.03770867735147476,9.762955665588379,-0.213623046875,0.42724609375,-0.3662109375
1.8024999000000002,0.10534487664699554,0.03950432687997818,9.764751434326172,-0.030517578125,0.579833984375,-0.1220703125
1.8074999,0.09576806426048279,0.04010287672281265,9.765948295593262,-0.030517578125,0.54931640625,0.06103515625
1.8124999000000002,0.0975637212395668,0.04369417950510979,9.764751434326172,-0.06103515625,0.457763671875,-0.030517578125
1.8174999,0.10354922711849213,0.04489128291606903,9.761758804321289,0,0.335693359375,0.152587890625
1.8224999000000002,0.10594342648983002,0.050876785069704056,9.75637149810791,-0.030517578125,0.640869140625,0.213623046875
1.8274999,0.10654197633266449,0.053270988166332245,9.753378868103027,-0.244140625,0.885009765625,0.152587890625
1.8324999000000002,0.09636662155389786,0.05925649031996727,9.748590469360352,-0.274658203125,0.762939453125,0.091552734375
1.8374999,0.08080431073904037,0.05925649031996727,9.744999885559082,-0.244140625,0.457763671875,-0.06103515625
1.8424999000000002,0.06823474913835526,0.05386953800916672,9.742006301879883,-0.213623046875,0.18310546875,-0.152587890625
1.8474999,0.055665191262960434,0.050876785069704056,9.736021041870117,-0.213623046875,0.152587890625,0.030517578125
1.8524999000000002,0.050876785069704056,0.04189852997660637,9.734824180603027,-0.18310546875,-0.1220703125,-0.091552734375
1.8574999,0.050876785069704056,0.023942016065120697,9.736021041870117,0.06103515625,-0.30517578125,-0.244140625
1.8624999000000002,0.05267243832349777,-0.010175357572734356,9.75397777557373,0.457763671875,-0.762939453125,-0.396728515625
1.8674999,0.03232172131538391,-0.16639702022075653,10.040084838867188,1.861572265625,-2.01416015625,-1.5869140625
1.8724999000000002,-0.11671733111143112,-0.23822307586669922,9.730634689331055,13.00048828125,-12.02392578125,-9.21630859375
1.8774999,-0.641047477722168,-0.37888240814208984,9.980828285217285,-6.622314453125,16.6015625,-13.153076171875
1.8824999000000002,-0.8086416125297546,-0.43694180250167847,9.261370658874512,-8.056640625,-14.312744140625,10.528564453125
1.8874999000000001,-0.7613561153411865,-0.27473464608192444,9.583391189575195,2.349853515625,-26.031494140625,-2.3193359375
1.8924999000000002,-0.11252748221158981,-0.2849099934101105,9.385271072387695,-0.335693359375,-5.706787109375,2.3193359375
1.8974999000000001,0.6129156351089478,-0.03651157766580582,9.926360130310059,-2.838134765625,8.97216796875,3.173828125
1.9024999000000002,0.9786299467086792,-0.03531447425484657,10.032303810119629,-2.86865234375,9.796142578125,0.946044921875
1.9074999000000001,0.7332242727279663,-0.02513911761343479,9.985017776489258,-0.732421875,0.48828125,0.06103515625
1.9124999000000003,0.3124433159828186,-0.06703764945268631,9.838373184204102,2.25830078125,-7.9345703125,-0.823974609375
1.9174999000000001,0.0454898327589035,-0.014365210197865963,9.697115898132324,1.678466796875,-5.67626953125,0.18310546875
1.9224999,0.08978256583213806,-0.03411737456917763,9.727043151855469,-1.251220703125,2.0751953125,-0.091552734375
1.9274999000000002,0.26575639843940735,0.08499415963888168,9.84376049041748,-1.28173828125,5.645751953125,0.3662109375
1.9324999,0.34835633635520935,0.050876785069704056,9.892841339111328,0.030517578125,4.82177734375,-0.54931640625
1.9374999000000002,0.2968810200691223,0.020350715145468712,9.856928825378418,0.91552734375,2.471923828125,-1.220703125
1.9424999,0.16759411990642548,0.017956512048840523,9.803058624267578,1.129150390625,1.52587890625,-0.3662109375
1.9474999000000002,0.076015904545784,0.017956512048840523,9.740211486816406,0.091552734375,2.44140625,-0.640869140625
1.9524999,0.004788403399288654,0.060453593730926514,9.713874816894531,-0.213623046875,2.227783203125,-0.18310546875
1.9574999000000002,-0.023942016065120697,0.08379705995321274,9.697713851928711,0.213623046875,1.220703125,-0.244140625
1.9624999,-0.035913024097681046,0.07302315533161163,9.68274974822998,0.42724609375,0.06103515625,-0.18310546875
1.9674999000000002,-0.0347159244120121,0.07900865375995636,9.671378135681152,0.152587890625,0.152587890625,-0.213623046875
1.9724999,-0.015562310814857483,0.06224924325942993,9.668384552001953,-0.1220703125,-0.274658203125,0.030517578125
1.9774999000000002,0.010175357572734356,0.07900865375995636,9.68813705444336,0.091552734375,-0.946044921875,0.152587890625
1.9824999,0.03711012750864029,0.05925649031996727,9.701904296875,-0.1220703125,-0.701904296875,0.06103515625
1.9874999000000002,0.0454898327589035,0.0628477931022644,9.718663215637207,-0.42724609375,-0.48828125,0.244140625
1.9924999,0.05386953800916672,0.03711012750864029,9.716269493103027,0,-1.251220703125,0
1.9974999000000002,0.040701430290937424,0.023343466222286224,9.71926212310791,0.274658203125,-2.44140625,-0.091552734375
2.0024999,0.05686229094862938,0.011971008032560349,9.715670585632324,0.3662109375,-2.685546875,-0.06103515625
2.0074999,0.08619125932455063,0.020350715145468712,9.733028411865234,0.30517578125,-1.922607421875,-0.030517578125
2.0124999000000003,0.11671733111143112,0.018555063754320145,9.749788284301758,0.18310546875,-1.434326171875,-0.030517578125
2.0174999000000002,0.1628057211637497,0.046088382601737976,9.770736694335938,0.3662109375,-1.678466796875,-0.30517578125
2.0224999,0.1735796183347702,0.028131870552897453,9.784503936767578,0.457763671875,-1.556396484375,-0.3662109375
2.0274999,0.19871874153614044,0.02753331884741783,9.791686058044434,0.396728515625,-0.79345703125,-0.396728515625
2.0324999000000004,0.19033902883529663,0.02274491637945175,9.79408073425293,0.3662109375,-0.1220703125,-0.3662109375
2.0374999000000003,0.181959331035614,0.0017956512747332454,9.77013874053955,0.701904296875,-0.79345703125,-0.335693359375
2.0424999,0.1149216815829277,0.0065840547904372215,9.767146110534668,1.068115234375,-1.46484375,-0.732421875
2.0474999,0.1149216815829277,0.0065840547904372215,9.767146110534668,1.068115234375,-1.46484375,-0.732421875
2.0524999,0.10115502029657364,0.025737667456269264,9.752182006835938,1.46484375,-2.044677734375,-1.007080078125
2.0574999000000003,0.07841010391712189,0.015562310814857483,9.771934509277344,1.220703125,-1.953125,-0.885009765625
2.0624999,0.11192893236875534,0.05925649031996727,9.783905029296875,1.129150390625,-1.28173828125,-1.007080078125
2.0674999,0.15682020783424377,0.047884032130241394,9.798270225524902,0.9765625,-0.823974609375,-1.03759765625
2.0724999,0.1885433793067932,0.06584054976701736,9.799467086791992,1.0986328125,-0.579833984375,-1.03759765625
2.0774999000000003,0.21847090125083923,0.0628477931022644,9.789292335510254,1.40380859375,-0.42724609375,-1.03759765625
2.0824999,0.21547815203666687,0.06344634294509888,9.780912399291992,1.46484375,-0.152587890625,-1.28173828125
2.0874999,0.22625206410884857,0.06344634294509888,9.779715538024902,1.28173828125,0.091552734375,-1.220703125
2.0924999,0.22685061395168304,0.07182604819536209,9.786299705505371,0.79345703125,0.79345703125,-0.30517578125
2.0974999000000003,0.21428105235099792,0.0628477931022644,9.779715538024902,0,2.105712890625,0.30517578125
2.1024999,0.17238251864910126,0.0694318488240242,9.763554573059082,0.3662109375,2.288818359375,0.213623046875
2.1074999,0.10833762586116791,0.048482585698366165,9.727641105651855,0.54931640625,0.79345703125,-0.030517578125
2.1124999,0.0347159244120121,0.061052143573760986,9.688735961914062,0.6103515625,-0.640869140625,-0.091552734375
2.1174999000000003,0.01496376097202301,0.07422025501728058,9.679757118225098,0.67138671875,-1.800537109375,0.946044921875
2.1224999,0.014365210197865963,0.0802057534456253,9.692925453186035,0.1220703125,-2.5634765625,2.99072265625
2.1274999,0.0454898327589035,0.08978256583213806,9.716269493103027,-0.244140625,-1.678466796875,1.556396484375
2.1324999,0.07721300423145294,0.06464344263076782,9.744400978088379,0.1220703125,-1.678466796875,0.518798828125
2.1374999000000003,0.07721300423145294,0.06344634294509888,9.741408348083496,0.030517578125,-2.655029296875,0.9765625
2.1424999000000002,0.0975637212395668,0.02513911761343479,9.75278091430664,0.213623046875,-2.288818359375,0.823974609375
2.1474999,0.10953472554683685,0.04189852997660637,9.728240013122559,0.396728515625,-1.617431640625,0.335693359375
2.1524999,0.12449848651885986,0.02454056777060032,9.73781681060791,0.6103515625,-1.434326171875,0.091552734375
2.1574999000000004,0.12449848651885986,0.033518824726343155,9.718064308166504,0.396728515625,-1.52587890625,0.091552734375
2.1624999000000003,0.12090718746185303,0.04429273307323456,9.731831550598145,0.54931640625,-1.8310546875,-0.18310546875
2.1674999,0.1041477769613266,0.06703764945268631,9.746196746826172,0.213623046875,-2.227783203125,0.396728515625
2.1724999,0.10295066982507706,0.07302315533161163,9.758766174316406,0.30517578125,-2.74658203125,0.8544921875
2.1774999000000004,0.12330138683319092,0.08798690885305405,9.770736694335938,0.06103515625,-3.143310546875,1.220703125
2.1824999000000003,0.15442600846290588,0.076015904545784,9.764751434326172,0.274658203125,-2.38037109375,0.701904296875
2.1874999,0.17896658182144165,0.07003039866685867,9.743802070617676,0.42724609375,-1.0986328125,-0.213623046875
2.1924999,0.17477671802043915,0.0628477931022644,9.747992515563965,0.457763671875,-1.007080078125,-0.244140625
2.1974999,0.15682020783424377,0.0694318488240242,9.750985145568848,0.152587890625,-2.716064453125,0.335693359375
2.2024999000000003,0.11971008777618408,0.07781155407428741,9.774927139282227,0.152587890625,-3.936767578125,1.40380859375
2.2074999,0.12629413604736328,0.07481880486011505,9.766547203063965,0.244140625,-4.8828125,1.617431640625
2.2124999,0.15682020783424377,0.05925649031996727,9.758167266845703,0.244140625,-3.41796875,1.0986328125
2.2174999,0.21966800093650818,0.018555063754320145,9.713275909423828,0.6103515625,-1.617431640625,0.18310546875
2.2224999000000003,0.2693476974964142,0.0017956512747332454,9.694721221923828,1.28173828125,0.518798828125,-2.3193359375
2.2274999,0.23942017555236816,0.028131870552897453,9.695320129394531,1.8310546875,1.64794921875,-2.5634765625
2.2324999,0.181959331035614,0.05985504388809204,9.72285270690918,-0.244140625,-0.946044921875,0.396728515625
2.2374999,0.14784196019172668,0.1041477769613266,9.726444244384766,-0.885009765625,-4.08935546875,2.044677734375
2.2424999000000003,0.13048399984836578,0.0975637212395668,9.75278091430664,0.213623046875,-1.312255859375,0.3662109375
2.2474999,0.1735796183347702,0.08379705995321274,9.72165584564209,0.823974609375,2.349853515625,-1.617431640625
2.2524999,0.17178396880626678,0.06344634294509888,9.729436874389648,0.42724609375,1.8310546875,-1.220703125
2.2574999,0.15143325924873352,0.07062894850969315,9.753378868103027,-0.6103515625,-1.77001953125,0.885009765625
2.2624999000000003,0.12389993667602539,0.08200141042470932,9.752182006835938,-0.67138671875,-3.082275390625,1.46484375
2.2674999000000002,0.15143325924873352,0.07900865375995636,9.775525093078613,-0.030517578125,-1.495361328125,0.42724609375
2.2724999,0.21188685297966003,0.04489128291606903,9.706692695617676,0.701904296875,1.983642578125,-1.251220703125
2.2774999,0.2059013396501541,0.05626374110579491,9.746196746826172,0.6103515625,2.471923828125,-1.678466796875
2.2824999000000004,0.1801636815071106,0.05027823522686958,9.710283279418945,-0.213623046875,-0.9765625,0.213623046875
2.2874999000000003,0.12210428714752197,0.07302315533161163,9.767744064331055,-1.03759765625,-3.23486328125,1.678466796875
2.2924999,0.15083470940589905,0.046088382601737976,9.777320861816406,-0.06103515625,-2.50244140625,1.0986328125
2.2974999,0.19213469326496124,0.04668693244457245,9.734225273132324,0.91552734375,1.5869140625,-1.03759765625
2.3024999000000004,0.2059013396501541,0.020949264988303185,9.759963035583496,0.946044921875,3.692626953125,-2.5634765625
2.3074999000000003,0.166995570063591,0.076015904545784,9.724648475646973,0,-0.3662109375,-0.213623046875
2.3124999,0.09876082092523575,0.09876082092523575,9.77672290802002,-1.251220703125,-4.08935546875,2.25830078125
2.3174999,0.12270283699035645,0.08140286058187485,9.75936508178711,-0.335693359375,-3.753662109375,1.3427734375
2.3224999,0.19153612852096558,0.07242459803819656,9.728838920593262,0.91552734375,2.13623046875,-1.312255859375
2.3274999000000003,0.20051439106464386,0.035913024097681046,9.752182006835938,1.495361328125,4.638671875,-3.082275390625
2.3324999,0.18136078119277954,0.0933738648891449,9.749189376831055,0.030517578125,-1.03759765625,0.091552734375
2.3374999,0.12449848651885986,0.10354922711849213,9.787496566772461,-1.617431640625,-5.706787109375,3.326416015625
2.3424999,0.1364694982767105,0.1364694982767105,9.789292335510254,-0.335693359375,-3.7841796875,1.52587890625
2.3474999000000003,0.2064998894929886,0.058059390634298325,9.746794700622559,1.861572265625,4.150390625,-2.288818359375
2.3524999,0.20709845423698425,0.08319851011037827,9.718064308166504,1.434326171875,4.547119140625,-3.173828125
2.3574999,0.1604115068912506,0.0520738884806633,9.737217903137207,-0.823974609375,-2.777099609375,1.46484375
2.3624999,0.1562216579914093,0.0736217051744461,9.744999885559082,-1.800537109375,-6.65283203125,3.631591796875
2.3674999000000003,0.1885433793067932,0.03770867735147476,9.676166534423828,0.8544921875,-0.54931640625,0.06103515625
2.3724999,0.22864626348018646,0.02992752194404602,9.766547203063965,1.922607421875,6.2255859375,-3.631591796875
2.3774999,0.20709845423698425,0.0520738884806633,9.689932823181152,0.732421875,1.495361328125,-1.15966796875
2.3824999,0.14065934717655182,0.06703764945268631,9.793481826782227,-1.8310546875,-6.134033203125,3.96728515625
2.3874999000000003,0.1628057211637497,0.0975637212395668,9.697115898132324,-0.48828125,-5.18798828125,2.471923828125
2.3924999000000002,0.16519992053508759,0.060453593730926514,9.764751434326172,2.532958984375,4.69970703125,-2.838134765625
2.3974999,0.17238251864910126,0.06763619929552078,9.701305389404297,1.312255859375,4.364013671875,-3.265380859375
2.4024999,0.1454477459192276,0.06224924325942993,9.75517463684082,-1.312255859375,-4.486083984375,2.838134765625
2.4074999000000004,0.11971008777618408,0.08200141042470932,9.743802070617676,-1.46484375,-7.171630859375,3.936767578125
2.4124999000000003,0.11971008777618408,0.08200141042470932,9.743802070617676,-1.46484375,-7.171630859375,3.936767578125
2.4174999,0.14604631066322327,0.0520738884806633,9.73661994934082,2.166748046875,2.777099609375,-2.13623046875
2.4224999,0.15083470940589905,0.07661445438861847,9.73661994934082,1.64794921875,6.195068359375,-4.302978515625
2.4274999000000004,0.15023615956306458,0.07062894850969315,9.742006301879883,-0.640869140625,-3.11279296875,1.8310546875
2.4324999000000003,0.15023615956306458,0.06584054976701736,9.768941879272461,-2.01416015625,-7.99560546875,4.730224609375
2.4374999,0.16639702022075653,0.05147533491253853,9.736021041870117,2.01416015625,1.251220703125,-1.77001953125
2.4424999,0.17836803197860718,0.0628477931022644,9.77253246307373,2.0751953125,6.683349609375,-4.913330078125
2.4474999,0.17956513166427612,0.06464344263076782,9.725846290588379,-0.54931640625,-2.716064453125,1.40380859375
2.4524999000000003,0.18734627962112427,0.07541735470294952,9.734225273132324,-1.922607421875,-8.514404296875,4.913330078125
2.4574999,0.1843535304069519,0.09636662155389786,9.724050521850586,2.38037109375,0.8544921875,-2.01416015625
2.4624999,0.1825578808784485,0.08619125932455063,9.75517463684082,2.227783203125,6.317138671875,-4.94384765625
2.4674999,0.20051439106464386,0.07242459803819656,9.734225273132324,-0.6103515625,-3.11279296875,2.0751953125
2.4724999000000003,0.2232593148946762,0.061052143573760986,9.759963035583496,-1.40380859375,-7.720947265625,4.69970703125
2.4774999,0.20949265360832214,0.06823474913835526,9.776124000549316,2.288818359375,2.777099609375,-2.8076171875
2.4824999,0.18974047899246216,0.07900865375995636,9.754576683044434,1.03759765625,5.645751953125,-3.753662109375
2.4874999,0.22864626348018646,0.07182604819536209,9.7791166305542,-1.03759765625,-4.94384765625,3.509521484375
2.4924999000000003,0.20769700407981873,0.06763619929552078,9.750985145568848,-0.579833984375,-6.072998046875,3.265380859375
2.4974999,0.1867477297782898,0.08499415963888168,9.777320861816406,2.01416015625,5.18798828125,-3.7841796875
2.5024999,0.17477671802043915,0.06823474913835526,9.771934509277344,0.518798828125,3.448486328125,-2.105712890625
2.5074999,0.21787235140800476,0.04489128291606903,9.741408348083496,-1.52587890625,-6.805419921875,4.638671875
2.5124999000000003,0.2017114907503128,0.05147533491253853,9.763554573059082,0.091552734375,-2.3193359375,0.9765625
2.5174999000000002,0.14844051003456116,0.07481880486011505,9.763554573059082,1.556396484375,6.866455078125,-4.608154296875
2.5224999,0.18315643072128296,0.05746084079146385,9.708487510681152,-0.274658203125,-0.18310546875,0.79345703125
2.5274999,0.21787235140800476,0.06344634294509888,9.690531730651855,-1.5869140625,-7.293701171875,4.7607421875
2.5324999000000004,0.18076223134994507,0.08499415963888168,9.720458984375,0.885009765625,2.44140625,-2.105712890625
2.5374999000000003,0.1496376097202301,0.11192893236875534,9.73542308807373,1.220703125,5.7373046875,-3.96728515625
2.5424999,0.21607670187950134,0.07541735470294952,9.71926212310791,-1.0986328125,-4.974365234375,3.662109375
2.5474999,0.20889410376548767,0.07302315533161163,9.75936508178711,-0.79345703125,-4.425048828125,2.13623046875
2.5524999000000004,0.13407529890537262,0.1041477769613266,9.806650161743164,1.64794921875,6.28662109375,-4.547119140625
2.5574999000000003,0.181959331035614,0.08259996026754379,9.754576683044434,0.213623046875,1.190185546875,-0.213623046875
2.5624999,0.23702596127986908,0.060453593730926514,9.742605209350586,-1.556396484375,-6.77490234375,4.57763671875
2.5674999,0.17657238245010376,0.10175357013940811,9.75397777557373,0.701904296875,1.8310546875,-2.13623046875
2.5724999,0.15562310814857483,0.09816227108240128,9.764153480529785,1.15966796875,5.279541015625,-3.41796875
2.5774999000000003,0.23343466222286224,0.05746084079146385,9.710882186889648,-1.03759765625,-4.852294921875,3.753662109375
2.5824999,0.1885433793067932,0.07841010391712189,9.767744064331055,-0.579833984375,-2.74658203125,0.823974609375
2.5874999,0.12030863761901855,0.11911153793334961,9.786897659301758,1.64794921875,5.859375,-4.486083984375
2.5924999,0.18734627962112427,0.08559270948171616,9.720458984375,-0.30517578125,-1.190185546875,1.678466796875
2.5974999000000003,0.2364274114370346,0.060453593730926514,9.720458984375,-1.46484375,-5.096435546875,3.2958984375
2.6024999,0.1496376097202301,0.10055647045373917,9.75397777557373,1.312255859375,4.57763671875,-4.150390625
2.6074999,0.18794482946395874,0.06344634294509888,9.712079048156738,0.457763671875,1.953125,-0.79345703125
2.6124999,0.25438392162323,0.03292027488350868,9.687539100646973,-1.617431640625,-6.103515625,4.21142578125
2.6174999000000003,0.18614917993545532,0.08978256583213806,9.740211486816406,0.3662109375,1.861572265625,-2.50244140625
2.6224999,0.16579847037792206,0.10714052617549896,9.758766174316406,1.15966796875,4.302978515625,-2.838134765625
2.6274999,0.25677812099456787,0.05506663769483566,9.709086418151855,-1.220703125,-5.157470703125,3.997802734375
2.6324999,0.19931729137897491,0.09516951441764832,9.789292335510254,-0.42724609375,-0.6103515625,-0.6103515625
2.6374999000000003,0.12030863761901855,0.10295066982507706,9.822811126708984,1.617431640625,5.18798828125,-3.84521484375
2.6424999000000002,0.23104046285152435,0.04668693244457245,9.738415718078613,-0.579833984375,-3.662109375,3.448486328125
2.6474999,0.20111294090747833,0.07841010391712189,9.797672271728516,-1.03759765625,-2.349853515625,0.885009765625
2.6524999,0.1215057373046875,0.1322796493768692,9.806650161743164,1.3427734375,5.31005859375,-4.486083984375
2.6574999000000004,0.22206220030784607,0.08379705995321274,9.710882186889648,-0.18310546875,-2.227783203125,2.44140625
2.6624999000000003,0.20470423996448517,0.0802057534456253,9.73781681060791,-1.3427734375,-3.35693359375,2.0751953125
2.6674999,0.11971008777618408,0.12749123573303223,9.766547203063965,1.190185546875,5.0048828125,-4.39453125
2.6724999,0.20051439106464386,0.05446808785200119,9.683947563171387,0.3662109375,-1.220703125,1.739501953125
2.6774999000000004,0.2214636504650116,0.03651157766580582,9.720458984375,-1.312255859375,-4.0283203125,2.655029296875
2.6824999000000003,0.1364694982767105,0.10055647045373917,9.790489196777344,0.885009765625,4.638671875,-4.39453125
2.6874999,0.2082955539226532,0.035913024097681046,9.707889556884766,0.54931640625,-0.3662109375,1.15966796875
2.6924999,0.23582886159420013,0.02693476900458336,9.744400978088379,-1.251220703125,-4.33349609375,3.021240234375
2.6974999,0.14185644686222076,0.1107318252325058,9.813833236694336,0.79345703125,4.2724609375,-4.241943359375
2.7024999000000003,0.2059013396501541,0.05985504388809204,9.712079048156738,0.701904296875,-0.152587890625,0.885009765625
2.7074999,0.2406172752380371,0.05446808785200119,9.743204116821289,-1.190185546875,-4.241943359375,2.9296875
2.7124999,0.14185644686222076,0.14006079733371735,9.805453300476074,0.579833984375,3.96728515625,-4.425048828125
2.7174999,0.2059013396501541,0.08259996026754379,9.691728591918945,0.640869140625,-0.335693359375,1.03759765625
2.7224999000000003,0.22924481332302094,0.06584054976701736,9.731831550598145,-1.007080078125,-4.058837890625,2.716064453125
2.7274999,0.12689268589019775,0.14784196019172668,9.790489196777344,0.701904296875,4.119873046875,-4.57763671875
2.7324999,0.19033902883529663,0.06464344263076782,9.676764488220215,0.6103515625,-0.823974609375,1.52587890625
2.7374999,0.20231004059314728,0.07062894850969315,9.746196746826172,-1.03759765625,-3.60107421875,2.593994140625
2.7424999000000003,0.11013327538967133,0.1412578970193863,9.79288387298584,0.54931640625,4.302978515625,-4.5166015625
2.7474999,0.20530278980731964,0.06224924325942993,9.687539100646973,0.48828125,-1.556396484375,2.13623046875
2.7524999,0.2322375625371933,0.09277531504631042,9.767146110534668,-0.762939453125,-2.899169921875,2.01416015625
2.7574999,0.14484919607639313,0.14065934717655182,9.792284965515137,0.732421875,4.364013671875,-4.608154296875
2.7624999000000003,0.262763649225235,0.05506663769483566,9.672574996948242,0.213623046875,-2.349853515625,3.173828125
2.7674999000000002,0.23523031175136566,0.06883329898118973,9.756970405578613,-0.732421875,-1.5869140625,0.91552734375
2.7724999,0.1454477459192276,0.10235211998224258,9.756970405578613,0.762939453125,4.0283203125,-4.150390625
2.7774999,0.1454477459192276,0.10235211998224258,9.756970405578613,0.762939453125,4.0283203125,-4.150390625
2.7824999000000004,0.26815059781074524,0.0065840547904372215,9.636063575744629,-0.030517578125,-3.5400390625,4.0283203125
2.7874999000000003,0.19871874153614044,0.06344634294509888,9.747992515563965,-0.579833984375,-0.30517578125,-0.518798828125
2.7924999,0.1496376097202301,0.08738835901021957,9.727043151855469,0.762939453125,3.387451171875,-3.23486328125
2.7974999,0.2621650993824005,0.0035913025494664907,9.62828254699707,-0.152587890625,-4.150390625,4.486083984375
2.8024999000000004,0.1454477459192276,0.09696517139673233,9.790489196777344,-0.30517578125,1.312255859375,-2.044677734375
2.8074999000000003,0.14604631066322327,0.09217676520347595,9.715071678161621,0.732421875,1.922607421875,-1.678466796875
2.8124999,0.22685061395168304,0.048482585698366165,9.691728591918945,-0.335693359375,-4.364013671875,4.180908203125
2.8174999,0.11312603205442429,0.14844051003456116,9.85034465789795,-0.274658203125,2.9296875,-3.5400390625
2.8224999,0.17956513166427612,0.08619125932455063,9.693524360656738,0.701904296875,0.152587890625,0.42724609375
2.8274999000000003,0.20889410376548767,0.08259996026754379,9.79527759552002,-0.274658203125,-3.35693359375,2.838134765625
2.8324999,0.09876082092523575,0.14784196019172668,9.853935241699219,0.030517578125,3.60107421875,-4.2724609375
2.8374999,0.20949265360832214,0.07003039866685867,9.693524360656738,0.54931640625,-1.983642578125,2.50244140625
2.8424999,0.2106897532939911,0.09696517139673233,9.817423820495605,-0.6103515625,-1.251220703125,0.91552734375
2.8474999000000003,0.1538274586200714,0.12988543510437012,9.762955665588379,0.091552734375,3.2958984375,-3.387451171875
2.8524999,0.2968810200691223,0.03711012750864029,9.636661529541016,0.518798828125,-3.936767578125,3.90625
2.8574999,0.17178396880626678,0.12090718746185303,9.82999324798584,-0.30517578125,1.15966796875,-1.64794921875
2.8624999,0.17238251864910126,0.11432313174009323,9.712079048156738,0.518798828125,1.5869140625,-1.556396484375
2.8674999000000003,0.22266076505184174,0.055665191262960434,9.722254753112793,0.152587890625,-3.692626953125,3.448486328125
2.8724999,0.10773907601833344,0.13587094843387604,9.862914085388184,-0.579833984375,3.143310546875,-3.631591796875
2.8774999,0.20769700407981873,0.04429273307323456,9.654618263244629,0.79345703125,-1.129150390625,1.3427734375
2.8824999,0.24001872539520264,0.038307227194309235,9.769539833068848,-0.091552734375,-1.922607421875,1.77001953125
2.8874999000000003,0.15442600846290588,0.08619125932455063,9.761758804321289,-0.42724609375,3.35693359375,-3.47900390625
2.8924999000000002,0.2944868206977844,0.010773907415568829,9.621698379516602,1.007080078125,-3.60107421875,3.60107421875
2.8974999,0.15562310814857483,0.10714052617549896,9.836577415466309,-0.274658203125,0.9765625,-1.28173828125
2.9024999,0.16579847037792206,0.12090718746185303,9.713874816894531,-0.06103515625,1.46484375,-1.15966796875
2.9074999000000004,0.20769700407981873,0.07960720360279083,9.73542308807373,0.79345703125,-3.570556640625,3.387451171875
2.9124999000000003,0.12389993667602539,0.19931729137897491,9.905410766601562,-0.640869140625,3.5400390625,-3.84521484375
2.9174999,0.26575639843940735,0.0933738648891449,9.638457298278809,0.030517578125,-2.166748046875,3.60107421875
2.9224999,0.2513911724090576,0.11013327538967133,9.810839653015137,1.15966796875,-1.983642578125,3.448486328125
2.9274999000000004,0.23343466222286224,0.1454477459192276,9.751583099365234,-0.152587890625,3.570556640625,-4.150390625
2.9324999000000003,0.28550854325294495,0.0454898327589035,9.625887870788574,0.457763671875,-3.326416015625,5.126953125
2.9374999,0.1586158573627472,0.152031809091568,9.871294021606445,-1.03759765625,0.823974609375,-0.701904296875
2.9424999,0.18555063009262085,0.09217676520347595,9.661202430725098,0.6103515625,0.030517578125,-0.54931640625
2.9474999,0.1999158412218094,0.09038111567497253,9.774927139282227,0.42724609375,-1.617431640625,2.86865234375
2.9524999000000003,0.11312603205442429,0.14604631066322327,9.807847023010254,-1.220703125,3.2958984375,-3.692626953125
2.9574999,0.2256535142660141,0.023942016065120697,9.621698379516602,0.762939453125,-3.936767578125,4.302978515625
2.9624999,0.14903905987739563,0.10893617570400238,9.864110946655273,0.1220703125,0.640869140625,-1.28173828125
2.9674999,0.24241292476654053,0.1041477769613266,9.676166534423828,-0.1220703125,1.678466796875,-1.89208984375
2.9724999000000003,0.25019407272338867,0.03232172131538391,9.741408348083496,0.30517578125,-3.875732421875,8.148193359375
2.9774999,0.22445641458034515,0.17836803197860718,9.894637107849121,-0.640869140625,3.173828125,-3.35693359375
2.9824999,0.25917232036590576,0.028131870552897453,9.627683639526367,0,-1.861572265625,3.753662109375
2.9874999,0.181959331035614,0.08319851011037827,9.870096206665039,0.762939453125,-0.518798828125,2.01416015625
2.9924999000000003,0.2059013396501541,0.10354922711849213,9.695918083190918,-0.30517578125,2.38037109375,-3.021240234375
2.9974999,0.18914192914962769,-0.009576806798577309,9.662399291992188,0.48828125,-3.509521484375,6.28662109375
3.0024999,0.1562216579914093,0.12270283699035645,9.864110946655273,-1.03759765625,2.38037109375,-3.082275390625
3.0074999,0.20231004059314728,-0.018555063754320145,9.567230224609375,0.8544921875,-1.739501953125,2.960205078125
3.0124999000000003,0.1759738177061081,0.04908113554120064,9.84615421295166,0.54931640625,0.030517578125,1.708984375
3.0174999000000002,0.24660277366638184,0.07960720360279083,9.673771858215332,-1.15966796875,2.532958984375,-2.197265625
3.0224999,0.21966800093650818,0.021547814831137657,9.659406661987305,1.28173828125,-4.486083984375,7.781982421875
3.0274999,0.21547815203666687,0.15442600846290588,9.886856079101562,-0.823974609375,2.5634765625,-3.60107421875
3.0324999000000004,0.2172738015651703,0.031124621629714966,9.573814392089844,0.48828125,-1.46484375,3.692626953125
3.0374999000000003,0.17956513166427612,0.12270283699035645,9.890447616577148,0.701904296875,-0.457763671875,2.44140625
3.0424999,0.24839842319488525,0.09217676520347595,9.683947563171387,-1.46484375,2.0751953125,-2.044677734375
3.0474999,0.25079262256622314,0.06823474913835526,9.695320129394531,1.861572265625,-3.47900390625,7.781982421875
3.0524999000000004,0.22685061395168304,0.16579847037792206,9.868300437927246,-1.220703125,3.509521484375,-2.471923828125
3.0574999000000003,0.25258827209472656,0.0628477931022644,9.558850288391113,0.579833984375,-2.25830078125,5.37109375
3.0624999,0.14844051003456116,0.166995570063591,9.86231517791748,1.0986328125,-0.274658203125,2.471923828125
3.0674999,0.22026655077934265,0.11192893236875534,9.606734275817871,-1.220703125,0.8544921875,-0.42724609375
3.0724999000000004,0.18136078119277954,0.08858546614646912,9.698312759399414,2.25830078125,-3.47900390625,6.77490234375
3.0774999000000003,0.23163901269435883,0.13766659796237946,9.806051254272461,-2.044677734375,2.8076171875,-2.38037109375
3.0824999,0.23582886159420013,0.03651157766580582,9.619303703308105,1.739501953125,-2.9296875,6.65283203125
3.0874999,0.17477671802043915,0.13108254969120026,9.922170639038086,0.06103515625,1.15966796875,0.885009765625
3.0924999,0.2603694200515747,0.05985504388809204,9.617507934570312,-0.54931640625,-0.762939453125,1.983642578125
3.0974999000000003,0.15023615956306458,0.07242459803819656,9.795876502990723,2.50244140625,-2.655029296875,6.65283203125
3.1024999,0.2717418968677521,0.090979665517807,9.750386238098145,-2.5634765625,2.0751953125,-1.953125
3.1074999,0.20470423996448517,0.025737667456269264,9.658807754516602,3.021240234375,-3.265380859375,7.293701171875
3.1124999,0.1909375786781311,0.10594342648983002,9.948506355285645,-1.373291015625,2.044677734375,-1.495361328125
3.1174999000000003,0.22864626348018646,0.02753331884741783,9.610325813293457,0.823974609375,-1.708984375,4.425048828125
3.1224999,0.13287819921970367,0.1280897855758667,9.893440246582031,1.3427734375,-0.48828125,3.631591796875
3.1274999,0.284311443567276,0.0736217051744461,9.625887870788574,-2.593994140625,0.67138671875,0.213623046875
3.1324999,0.17956513166427612,0.090979665517807,9.657012939453125,4.425048828125,-2.74658203125,8.148193359375
3.1374999000000003,0.29867666959762573,0.12689268589019775,9.786897659301758,-2.655029296875,2.3193359375,-2.044677734375
3.1424999000000002,0.29867666959762573,0.12689268589019775,9.786897659301758,-2.655029296875,2.3193359375,-2.044677734375
3.1474999,0.21308395266532898,0.060453593730926514,9.597756385803223,2.471923828125,-3.021240234375,7.904052734375
3.1524999,0.1843535304069519,0.10474632680416107,9.940725326538086,-0.640869140625,1.190185546875,2.38037109375
3.1574999000000004,0.30885201692581177,0.05267243832349777,9.625887870788574,-0.30517578125,-0.732421875,3.570556640625
3.1624999000000003,0.15682020783424377,0.07302315533161163,9.874286651611328,2.99072265625,-1.190185546875,8.453369140625
3.1674999,0.43993455171585083,0.02693476900458336,9.66419506072998,-3.631591796875,1.983642578125,0.18310546875
3.1724999,0.21128830313682556,0.10175357013940811,9.701305389404297,5.2490234375,-3.814697265625,12.6953125
3.1774999000000004,0.37648820877075195,0.017956512048840523,9.818621635437012,-3.84521484375,3.265380859375,2.13623046875
3.1824999000000003,0.3172317147254944,0.004189853090792894,9.628880500793457,3.021240234375,-2.838134765625,10.92529296875
3.1874999,0.2561795711517334,-0.04010287672281265,9.906009674072266,1.617431640625,-0.244140625,11.474609375
3.1924999,0.42377370595932007,-0.2406172752380371,9.579200744628906,-2.685546875,0.823974609375,5.37109375
3.1974999000000004,0.1711854189634323,0.07661445438861847,9.892841339111328,7.26318359375,-3.60107421875,14.739990234375
3.2024999000000003,0.4141969084739685,-0.16220717132091522,9.609128952026367,-6.34765625,1.739501953125,2.3193359375
3.2074999,0.03411737456917763,0.19692309200763702,9.801262855529785,6.683349609375,-2.166748046875,13.824462890625
3.2124999,0.21547815203666687,0.16400282084941864,9.745597839355469,-3.11279296875,-0.1220703125,3.11279296875
3.2174999,-0.013168109580874443,0.09935937076807022,9.675567626953125,2.13623046875,-0.823974609375,6.2255859375
3.2224999000000003,0.015562310814857483,0.3298012912273407,9.888651847839355,1.129150390625,-0.396728515625,4.302978515625
3.2274999,0.1562216579914093,0.07900865375995636,9.621099472045898,-1.5869140625,-0.091552734375,2.25830078125
3.2324999,0.01496376097202301,0.4273650050163269,9.932944297790527,3.11279296875,-0.54931640625,8.941650390625
3.2374999,0.37469255924224854,0.08619125932455063,9.606135368347168,-4.791259765625,0.91552734375,-1.678466796875
3.2424999000000003,0.05506663769483566,0.3728969097137451,9.824007987976074,6.103515625,-1.556396484375,11.65771484375
3.2474999,0.4129997789859772,0.021547814831137657,9.674968719482422,-5.096435546875,0.79345703125,-1.708984375
3.2524999,0.09457096457481384,0.12749123573303223,9.700108528137207,4.425048828125,-0.885009765625,8.9111328125
3.2574999,0.28550854325294495,0.060453593730926514,9.804255485534668,-1.953125,0.18310546875,1.40380859375
3.2624999000000003,0.19871874153614044,-0.12210428714752197,9.618705749511719,-0.274658203125,-0.152587890625,4.547119140625
3.2674999000000002,0.1735796183347702,0.1693897694349289,9.885659217834473,2.8076171875,-0.579833984375,6.7138671875
3.2724999,0.3579331636428833,-0.21368250250816345,9.588777542114258,-4.0283203125,0.91552734375,0.274658203125
3.2774999,0.11192893236875534,0.23582886159420013,9.889249801635742,5.157470703125,-0.518798828125,10.040283203125
3.2824999000000004,0.4231751561164856,-0.09935937076807022,9.606135368347168,-5.7373046875,0.762939453125,-0.67138671875
3.2874999000000003,0.04967968538403511,0.2621650993824005,9.81143856048584,6.28662109375,-0.946044921875,10.101318359375
3.2924999,0.3585317134857178,0.060453593730926514,9.687539100646973,-5.523681640625,0.79345703125,-0.885009765625
3.2974999,0.07062894850969315,0.12030863761901855,9.725846290588379,3.692626953125,0,8.85009765625
3.3024999000000004,0.24121582508087158,0.1646013706922531,9.810839653015137,-1.46484375,0.18310546875,2.44140625
3.3074999000000003,0.15083470940589905,-0.0736217051744461,9.668384552001953,0.091552734375,-0.18310546875,4.425048828125
3.3124999,0.11671733111143112,0.19273324310779572,9.897629737854004,2.01416015625,-0.457763671875,5.218505859375
3.3174999,0.25917232036590576,-0.11133038252592087,9.627683639526367,-3.082275390625,0.030517578125,0.030517578125
3.3224999000000004,0.05686229094862938,0.262763649225235,9.889848709106445,4.241943359375,-0.396728515625,7.904052734375
3.3274999000000003,0.39624038338661194,-0.058059390634298325,9.608530044555664,-5.37109375,0.335693359375,-2.044677734375
3.3324999,0.05686229094862938,0.3106476664543152,9.817423820495605,6.103515625,-0.701904296875,9.490966796875
3.3374999,0.42197805643081665,0.01496376097202301,9.657012939453125,-5.79833984375,0.457763671875,-2.74658203125
3.3424999,0.06524199992418289,0.2454056739807129,9.737217903137207,5.340576171875,-0.335693359375,8.23974609375
3.3474999000000003,0.34835633635520935,0.11192893236875534,9.7605619430542,-4.0283203125,0.244140625,-0.732421875
3.3524999,0.1215057373046875,0.07182604819536209,9.691129684448242,2.62451171875,-0.335693359375,6.103515625
3.3574999,0.23942017555236816,0.22385786473751068,9.84376049041748,-0.213623046875,-0.1220703125,2.44140625
3.3624999,0.2256535142660141,-0.07721300423145294,9.663596153259277,-1.251220703125,0.457763671875,1.89208984375
3.3674999000000003,0.13587094843387604,0.28790274262428284,9.88625717163086,2.38037109375,-0.1220703125,5.645751953125
3.3724999,0.33039984107017517,-0.13108254969120026,9.625887870788574,-3.753662109375,0.213623046875,-0.54931640625
3.3774999,0.07481880486011505,0.3280056416988373,9.873088836669922,5.31005859375,-0.67138671875,7.904052734375
3.3824999,0.4207809567451477,-0.10235211998224258,9.615114212036133,-5.9814453125,0.335693359375,-2.25830078125
3.3874999000000003,0.05147533491253853,0.2561795711517334,9.831789016723633,6.34765625,-0.48828125,8.9111328125
3.3924999000000002,0.4411316514015198,-0.010773907415568829,9.644442558288574,-6.011962890625,0.274658203125,-2.838134765625
3.3974999,0.047884032130241394,0.17836803197860718,9.762955665588379,5.43212890625,-0.152587890625,8.48388671875
3.4024999,0.3818751573562622,0.08379705995321274,9.729436874389648,-4.364013671875,-0.06103515625,-1.0986328125
3.4074999000000004,0.08140286058187485,0.11312603205442429,9.715071678161621,3.60107421875,-0.244140625,6.591796875
3.4124999000000003,0.27712884545326233,0.19812019169330597,9.806051254272461,-1.861572265625,0.1220703125,1.220703125
3.4174999,0.15263035893440247,-0.03172317147254944,9.711481094360352,0.42724609375,0.274658203125,3.021240234375
3.4224999,0.181959331035614,0.2519897222518921,9.858723640441895,1.15966796875,-0.42724609375,3.72314453125
3.4274999000000004,0.23822307586669922,-0.11851298063993454,9.677363395690918,-2.44140625,0.30517578125,1.190185546875
3.4324999000000003,0.10773907601833344,0.30286651849746704,9.88745403289795,4.058837890625,-0.213623046875,5.31005859375
3.4374999,0.3315969407558441,-0.13347674906253815,9.62828254699707,-5.0048828125,0.457763671875,-2.13623046875
3.4424999,0.05027823522686958,0.3734954595565796,9.864709854125977,6.04248046875,-0.54931640625,7.26318359375
3.4474999000000004,0.40880993008613586,-0.06643909960985184,9.598953247070312,-6.53076171875,0.30517578125,-3.35693359375
3.4524999000000003,0.030526071786880493,0.29867666959762573,9.853337287902832,6.8359375,-0.42724609375,8.11767578125
3.4574999,0.4405331015586853,-0.010175357572734356,9.633070945739746,-6.378173828125,0.54931640625,-3.875732421875
3.4624999,0.02214636653661728,0.17896658182144165,9.819818496704102,5.79833984375,-0.091552734375,7.293701171875
3.4674999,0.4100070297718048,-0.002992752008140087,9.701305389404297,-5.55419921875,-0.091552734375,-2.50244140625
3.4724999000000003,0.05147533491253853,0.12330138683319092,9.745597839355469,5.035400390625,-0.213623046875,7.080078125
3.4774999,0.363918662071228,0.060453593730926514,9.746794700622559,-3.753662109375,0.06103515625,-1.03759765625
3.4824999,0.1173158809542656,0.015562310814857483,9.714473724365234,2.62451171875,0.335693359375,4.730224609375
3.4874999,0.2944868206977844,0.16160862147808075,9.79408073425293,-1.0986328125,-0.244140625,0.823974609375
3.4924999000000003,0.17657238245010376,-0.06165069341659546,9.724050521850586,0.06103515625,0.1220703125,2.99072265625
3.4974999,0.21368250250816345,0.23044191300868988,9.839570045471191,1.373291015625,-0.30517578125,3.387451171875
3.5024999,0.25019407272338867,-0.07960720360279083,9.697713851928711,-2.838134765625,0.762939453125,1.373291015625
3.5074999,0.25019407272338867,-0.07960720360279083,9.697713851928711,-2.838134765625,0.762939453125,1.373291015625
3.5124999000000003,0.16160862147808075,0.26994624733924866,9.856928825378418,4.180908203125,-0.396728515625,5.035400390625
3.5174999000000002,0.33099839091300964,-0.12090718746185303,9.640253067016602,-5.2490234375,0.67138671875,-0.640869140625
3.5224999,0.10594342648983002,0.3250128924846649,9.829395294189453,6.28662109375,-0.579833984375,6.7138671875
3.5274999,0.39205053448677063,-0.11971008777618408,9.597756385803223,-6.927490234375,0.732421875,-1.922607421875
3.5324999000000004,0.055665191262960434,0.3669114112854004,9.815030097961426,7.26318359375,-0.67138671875,7.568359375
3.5374999000000003,0.4387374520301819,-0.07242459803819656,9.576208114624023,-7.568359375,0.335693359375,-2.166748046875
3.5424999,0.03770867735147476,0.3298012912273407,9.855731010437012,7.720947265625,-0.54931640625,8.36181640625
3.5474999,0.4537012279033661,-0.04249707981944084,9.594164848327637,-7.843017578125,0.396728515625,-2.716064453125
3.5524999000000004,0.018555063754320145,0.2124854028224945,9.872490882873535,7.26318359375,-0.30517578125,7.568359375
3.5574999000000003,0.4141969084739685,-0.0293289702385664,9.655217170715332,-6.622314453125,0.30517578125,-2.960205078125
3.5624999,0.005985504016280174,0.1364694982767105,9.835380554199219,6.256103515625,0.091552734375,5.828857421875
3.5674999,0.37229835987091064,0.016160860657691956,9.712677955627441,-5.584716796875,-0.091552734375,-2.410888671875
3.5724999000000004,0.03950432687997818,0.12928688526153564,9.786299705505371,4.82177734375,-0.091552734375,5.340576171875
3.5774999000000003,0.353743314743042,0.10833762586116791,9.727641105651855,-3.814697265625,-0.030517578125,-1.190185546875
3.5824999,0.08918401598930359,0.08499415963888168,9.751583099365234,3.11279296875,0.152587890625,3.96728515625
3.5874999,0.29628247022628784,0.21607670187950134,9.718663215637207,-2.166748046875,-0.30517578125,-0.396728515625
3.5924999,0.12210428714752197,0.023343466222286224,9.736021041870117,1.220703125,0.213623046875,2.74658203125
3.5974999000000003,0.22505496442317963,0.27653029561042786,9.75517463684082,-0.244140625,-0.54931640625,1.28173828125
3.6024999,0.17058686912059784,-0.030526071786880493,9.744999885559082,-0.18310546875,0.18310546875,1.40380859375
3.6074999,0.20470423996448517,0.2645592987537384,9.819219589233398,1.0986328125,-0.3662109375,2.25830078125
3.6124999,0.2406172752380371,-0.0933738648891449,9.724648475646973,-1.77001953125,0.335693359375,0.396728515625
3.6174999000000003,0.17836803197860718,0.26815059781074524,9.838972091674805,2.8076171875,-0.42724609375,3.204345703125
3.6224999,0.28371289372444153,-0.14185644686222076,9.676764488220215,-3.60107421875,0.518798828125,-1.190185546875
3.6274999,0.12868833541870117,0.3064578175544739,9.833584785461426,4.302978515625,-0.457763671875,4.058837890625
3.6324999,0.31543606519699097,-0.12629413604736328,9.651625633239746,-4.974365234375,0.152587890625,-2.166748046875
3.6374999000000003,0.09876082092523575,0.3274070918560028,9.818022727966309,5.615234375,-0.396728515625,4.82177734375
3.6424999000000002,0.36571431159973145,-0.09457096457481384,9.625288963317871,-5.67626953125,0.274658203125,-2.655029296875
3.6474999,0.0933738648891449,0.353743314743042,9.808445930480957,5.950927734375,0.152587890625,5.126953125
3.6524999,0.41359832882881165,-0.06344634294509888,9.61212158203125,-6.591796875,0.213623046875,-3.387451171875
3.6574999000000004,0.07721300423145294,0.38905778527259827,9.813234329223633,6.9580078125,-0.18310546875,5.767822265625
3.6624999000000003,0.43993455171585083,-0.05267243832349777,9.602544784545898,-7.171630859375,0.030517578125,-3.814697265625
3.6674999,0.05506663769483566,0.3411737382411957,9.837775230407715,7.4462890625,-0.213623046875,5.706787109375
3.6724999,0.4495113790035248,-0.06464344263076782,9.607333183288574,-7.659912109375,0.274658203125,-3.997802734375
3.6774999000000004,0.031124621629714966,0.2059013396501541,9.882067680358887,7.659912109375,0.091552734375,5.523681640625
3.6824999000000003,0.4339490532875061,-0.04967968538403511,9.628880500793457,-7.50732421875,0.06103515625,-4.547119140625
3.6874999,-0.0077811554074287415,0.1412578970193863,9.899425506591797,7.354736328125,-0.213623046875,5.584716796875
3.6924999,0.41120412945747375,-0.04369417950510979,9.618705749511719,-7.354736328125,0.091552734375,-4.425048828125
3.6974999000000004,-0.026336219161748886,0.18076223134994507,9.870695114135742,7.32421875,-0.091552734375,5.06591796875
3.7024999000000003,0.4082113802433014,-0.016160860657691956,9.616909980773926,-7.476806640625,0.091552734375,-4.547119140625
3.7074999,-0.021547814831137657,0.21966800093650818,9.860519409179688,7.32421875,-0.152587890625,4.730224609375
3.7124999,0.41539400815963745,0.015562310814857483,9.650428771972656,-7.26318359375,0.18310546875,-4.180908203125
3.7174999,-0.0005985504249110818,0.21308395266532898,9.86231517791748,7.14111328125,-0.152587890625,4.33349609375
3.7224999000000003,0.4273650050163269,0.01735796220600605,9.658209800720215,-6.89697265625,0.18310546875,-3.875732421875
3.7274999,0.038307227194309235,0.17537526786327362,9.851541519165039,6.500244140625,-0.06103515625,4.21142578125
3.7324999,0.43754035234451294,0.02992752194404602,9.645041465759277,-6.378173828125,0.06103515625,-3.41796875
3.7374999,0.06643909960985184,0.1256955862045288,9.840767860412598,6.072998046875,-0.152587890625,3.875732421875
3.7424999000000003,0.43035775423049927,0.06643909960985184,9.661202430725098,-5.706787109375,0.1220703125,-2.99072265625
3.7474999,0.05925649031996727,0.12988543510437012,9.824007987976074,5.340576171875,-0.06103515625,3.631591796875
3.7524999,0.4010287821292877,0.09876082092523575,9.673771858215332,-5.340576171875,0.213623046875,-2.777099609375
3.7574999,0.038307227194309235,0.15502455830574036,9.81263542175293,5.126953125,0,3.2958984375
3.7624999000000003,0.37469255924224854,0.10354922711849213,9.66299819946289,-4.69970703125,0.06103515625,-2.593994140625
3.7674999000000002,0.03411737456917763,0.12090718746185303,9.816825866699219,4.57763671875,0.091552734375,2.716064453125
3.7724999,0.36810851097106934,0.09217676520347595,9.654019355773926,-4.425048828125,0.091552734375,-2.44140625
3.7774999,0.05267243832349777,0.07781155407428741,9.830592155456543,4.08935546875,-0.06103515625,2.5634765625
3.7824999000000004,0.3693056106567383,0.10235211998224258,9.653421401977539,-3.814697265625,-0.152587890625,-2.349853515625
3.7874999000000003,0.07661445438861847,0.058059390634298325,9.849146842956543,3.60107421875,0,2.25830078125
3.7924999,0.36810851097106934,0.1430535465478897,9.665990829467773,-3.204345703125,-0.091552734375,-2.044677734375
3.7974999,0.09457096457481384,0.06344634294509888,9.864110946655273,3.11279296875,0.030517578125,2.197265625
3.8024999000000004,0.365115761756897,0.19153612852096558,9.672574996948242,-2.9296875,-0.18310546875,-1.64794921875
3.8074999000000003,0.10654197633266449,0.07541735470294952,9.868300437927246,2.655029296875,0.335693359375,2.471923828125
3.8124999,0.3585317134857178,0.2172738015651703,9.66419506072998,-2.685546875,-0.335693359375,-1.251220703125
3.8174999,0.10773907601833344,0.07242459803819656,9.865307807922363,2.410888671875,0.335693359375,2.593994140625
3.8224999000000004,0.3513490855693817,0.21128830313682556,9.659406661987305,-2.166748046875,-0.30517578125,-1.0986328125
3.8274999000000003,0.10773907601833344,0.06584054976701736,9.861717224121094,2.288818359375,0.48828125,2.777099609375
3.8324999,0.3477577865123749,0.1999158412218094,9.645041465759277,-2.227783203125,-0.396728515625,-0.91552734375
3.8374999,0.10474632680416107,0.06524199992418289,9.856928825378418,2.0751953125,0.335693359375,2.960205078125
3.8424999,0.34177228808403015,0.18974047899246216,9.625288963317871,-2.105712890625,-0.335693359375,-1.03759765625
3.8474999000000003,0.08918401598930359,0.07122749835252762,9.849745750427246,2.13623046875,0.274658203125,2.685546875
3.8524999,0.32680854201316833,0.17298106849193573,9.61451530456543,-2.197265625,-0.152587890625,-1.312255859375
3.8574999,0.0736217051744461,0.08080431073904037,9.852140426635742,2.288818359375,0.213623046875,2.288818359375
3.8624999,0.3250128924846649,0.15502455830574036,9.61331844329834,-2.50244140625,-0.396728515625,-1.64794921875
3.8674999000000003,0.076015904545784,0.0933738648891449,9.86889934539795,2.593994140625,0.244140625,2.44140625
3.8724999,0.076015904545784,0.0933738648891449,9.86889934539795,2.593994140625,0.244140625,2.44140625
3.8774999,0.34656068682670593,0.15981295704841614,9.618705749511719,-2.685546875,-0.396728515625,-1.739501953125
3.8824999,0.08798690885305405,0.1215057373046875,9.882067680358887,2.99072265625,0.18310546875,2.38037109375
3.8874999000000003,0.3693056106567383,0.1759738177061081,9.616909980773926,-3.23486328125,-0.213623046875,-1.800537109375
3.8924999000000002,0.08319851011037827,0.14185644686222076,9.891045570373535,3.35693359375,0.244140625,2.5634765625
3.8974999,0.3800795078277588,0.1628057211637497,9.61212158203125,-3.5400390625,-0.18310546875,-1.861572265625
3.9024999,0.07003039866685867,0.12689268589019775,9.895833969116211,3.72314453125,0.244140625,2.86865234375
3.9074999000000004,0.3926490843296051,0.12449848651885986,9.59715747833252,-4.180908203125,-0.1220703125,-1.922607421875
3.9124999000000003,0.06344634294509888,0.08559270948171616,9.884461402893066,4.2724609375,0.274658203125,2.8076171875
3.9174999,0.4076128304004669,0.08499415963888168,9.571419715881348,-4.669189453125,-0.152587890625,-2.44140625
3.9224999,0.055665191262960434,0.061052143573760986,9.872490882873535,4.608154296875,0.091552734375,2.86865234375
3.9274999000000004,0.4106055796146393,0.05686229094862938,9.560047149658203,-5.126953125,-0.06103515625,-2.532958984375
3.9324999000000003,0.04369417950510979,0.0628477931022644,9.880870819091797,5.462646484375,0.152587890625,3.021240234375
3.9374999,0.4118026793003082,0.046088382601737976,9.559449195861816,-5.7373046875,0.1220703125,-2.86865234375
3.9424999,0.0347159244120121,0.09397241473197937,9.909601211547852,5.950927734375,0.030517578125,3.143310546875
3.9474999000000004,0.4189853072166443,0.061052143573760986,9.556455612182617,-6.40869140625,-0.06103515625,-2.899169921875
3.9524999000000003,0.033518824726343155,0.1496376097202301,9.95329475402832,6.77490234375,-0.30517578125,3.570556640625
3.9574999,0.43275195360183716,0.07781155407428741,9.55825138092041,-7.232666015625,0,-2.8076171875
3.9624999,0.03890577703714371,0.17956513166427612,10.002974510192871,7.4462890625,-0.244140625,3.570556640625
3.9674999000000004,0.4507084786891937,0.060453593730926514,9.550470352172852,-8.23974609375,0.396728515625,-3.204345703125
3.9724999000000003,0.04668693244457245,0.17417816817760468,10.036493301391602,8.453369140625,-0.152587890625,3.96728515625
3.9774999,0.46088382601737976,0.020949264988303185,9.513360023498535,-8.819580078125,0.396728515625,-3.11279296875
3.9824999,0.040701430290937424,0.18974047899246216,10.025120735168457,9.185791015625,-0.42724609375,4.08935546875
3.9874999,0.45190557837486267,0.0011971008498221636,9.456498146057129,-9.70458984375,0.42724609375,-3.265380859375
3.9924999000000003,0.015562310814857483,0.23523031175136566,9.985616683959961,10.040283203125,-0.518798828125,4.150390625
3.9974999,0.4429273009300232,-0.0005985504249110818,9.413402557373047,-10.498046875,0.579833984375,-3.47900390625
4.0024999,-0.013168109580874443,0.26336219906806946,9.961075782775879,10.772705078125,-0.701904296875,4.150390625
4.0074999,0.43694180250167847,-0.0035913025494664907,9.400833129882812,-11.16943359375,0.732421875,-3.631591796875
4.0124999,-0.01735796220600605,0.2890998423099518,9.965864181518555,11.505126953125,-1.0986328125,3.997802734375
4.0174999,0.4345476031303406,-0.008978256024420261,9.405022621154785,-11.962890625,0.732421875,-3.41796875
4.022499900000001,0.008379706181585789,0.3106476664543152,10.005369186401367,11.932373046875,-1.007080078125,3.997802734375
4.0274999000000005,0.44532153010368347,-0.02992752194404602,9.424775123596191,-12.176513671875,1.0986328125,-3.23486328125
4.0324999,0.041299980133771896,0.30885201692581177,10.049661636352539,12.359619140625,-1.068115234375,3.814697265625
4.0374999,0.43335050344467163,-0.050876785069704056,9.481637001037598,-12.451171875,1.28173828125,-3.082275390625
4.0424999,0.05686229094862938,0.3058592677116394,10.058639526367188,12.26806640625,-1.3427734375,3.509521484375
4.0474999,0.3926490843296051,-0.09217676520347595,9.526528358459473,-12.237548828125,1.129150390625,-2.777099609375
4.0524999,0.05446808785200119,0.2950853705406189,10.019734382629395,12.054443359375,-1.52587890625,3.173828125
4.0574999,0.35254621505737305,-0.13766659796237946,9.549273490905762,-11.962890625,1.434326171875,-2.50244140625
4.062499900000001,0.0628477931022644,0.25498247146606445,9.976638793945312,11.53564453125,-1.46484375,2.777099609375
4.0674999000000005,0.3172317147254944,-0.1693897694349289,9.61331844329834,-11.04736328125,1.3427734375,-1.77001953125
4.0724999,0.10175357013940811,0.21847090125083923,9.990405082702637,10.833740234375,-1.495361328125,2.227783203125
4.0774999,0.29388827085494995,-0.18076223134994507,9.700108528137207,-10.009765625,1.64794921875,-1.15966796875
4.0824999,0.14365209639072418,0.21966800093650818,9.9772367477417,9.490966796875,-1.495361328125,1.861572265625
4.0874999,0.2561795711517334,-0.11552023142576218,9.740809440612793,-8.697509765625,1.708984375,-0.3662109375
4.0924999,0.18076223134994507,0.25498247146606445,9.880870819091797,7.62939453125,-1.556396484375,1.129150390625
4.0974999,0.2172738015651703,-0.02454056777060032,9.737217903137207,-6.8359375,1.495361328125,0.274658203125
4.1024999,0.22086510062217712,0.2735375463962555,9.768941879272461,5.889892578125,-1.617431640625,0.6103515625
4.1074999000000005,0.18614917993545532,0.033518824726343155,9.75397777557373,-4.852294921875,1.3427734375,0.885009765625
4.1124999,0.27473464608192444,0.2561795711517334,9.655815124511719,3.72314453125,-1.495361328125,-0.213623046875
4.1174999,0.14604631066322327,0.06524199992418289,9.775525093078613,-2.593994140625,1.251220703125,1.64794921875
4.1224999,0.33339259028434753,0.22864626348018646,9.549872398376465,1.3427734375,-1.312255859375,-1.0986328125
4.1274999,0.11552023142576218,0.08978256583213806,9.822212219238281,-0.1220703125,1.007080078125,2.227783203125
4.1324999,0.3992331326007843,0.17657238245010376,9.501988410949707,-1.03759765625,-1.129150390625,-1.5869140625
4.1374999,0.09516951441764832,0.09576806426048279,9.899425506591797,2.197265625,0.732421875,3.143310546875
4.1424999,0.4572925269603729,0.08200141042470932,9.499593734741211,-3.692626953125,-0.6103515625,-2.044677734375
4.147499900000001,0.06224924325942993,0.10175357013940811,9.941324234008789,4.791259765625,0.54931640625,3.509521484375
4.1524999000000005,0.46567222476005554,-0.005386953707784414,9.474454879760742,-6.011962890625,-0.335693359375,-2.685546875
4.1574999,0.023343466222286224,0.1256955862045288,9.993996620178223,7.26318359375,0.244140625,4.150390625
4.1624999,0.4507084786891937,-0.033518824726343155,9.434351921081543,-8.36181640625,-0.091552734375,-2.9296875
4.1674999,0.014365210197865963,0.1693897694349289,10.073004722595215,9.246826171875,-0.152587890625,4.2724609375
4.1724999,0.45848962664604187,-0.0071826050989329815,9.416994094848633,-10.406494140625,0.213623046875,-3.11279296875
4.1774999,0.012569558806717396,0.25019407272338867,10.05923843383789,10.772705078125,-0.274658203125,4.33349609375
4.1824999,0.46327802538871765,0.04010287672281265,9.354744911193848,-11.5966796875,0.640869140625,-3.021240234375
4.187499900000001,0.014365210197865963,0.3292027413845062,9.985616683959961,12.14599609375,-0.823974609375,4.425048828125
4.1924999000000005,0.436343252658844,0.058059390634298325,9.314641952514648,-12.359619140625,0.946044921875,-2.227783203125
4.1974999,0.048482585698366165,0.3561375141143799,10.003573417663574,12.420654296875,-1.129150390625,3.936767578125
4.2024999,0.39564183354377747,-0.020350715145468712,9.415796279907227,-12.481689453125,1.312255859375,-2.01416015625
4.2074999,0.07062894850969315,0.2998737692832947,10.049062728881836,12.39013671875,-1.5869140625,3.5400390625
4.2124999,0.3315969407558441,-0.1472434103488922,9.583989143371582,-11.8408203125,1.495361328125,-1.28173828125
4.2174999,0.08918401598930359,0.2041056901216507,10.077195167541504,11.29150390625,-1.77001953125,2.5634765625
4.2224999,0.27234044671058655,-0.21966800093650818,9.729436874389648,-10.498046875,1.861572265625,-0.457763671875
4.2274999,0.13826514780521393,0.1562216579914093,10.047266960144043,9.613037109375,-1.708984375,1.77001953125
4.2324999000000005,0.21607670187950134,-0.19033902883529663,9.79288387298584,-8.514404296875,1.953125,0.274658203125
4.2374999,0.21607670187950134,-0.19033902883529663,9.79288387298584,-8.514404296875,1.953125,0.274658203125
4.2424999,0.1825578808784485,0.21009120345115662,9.898826599121094,7.232666015625,-1.556396484375,0.48828125
4.2474999,0.14365209639072418,-0.04489128291606903,9.787496566772461,-5.828857421875,1.8310546875,0.79345703125
4.2524999,0.24420857429504395,0.30945056676864624,9.687539100646973,4.33349609375,-1.77001953125,-0.518798828125
4.2574999,0.10833762586116791,0.07781155407428741,9.767744064331055,-2.9296875,1.556396484375,2.044677734375
4.2624999,0.3513490855693817,0.31184476613998413,9.503783226013184,1.129150390625,-1.40380859375,-1.190185546875
4.2674999,0.10175357013940811,0.09277531504631042,9.806650161743164,0.579833984375,1.373291015625,2.960205078125
4.272499900000001,0.45250412821769714,0.18555063009262085,9.44752025604248,-2.288818359375,-1.220703125,-1.922607421875
4.2774999000000005,0.07721300423145294,0.0694318488240242,9.910199165344238,4.058837890625,1.007080078125,3.5400390625
4.2824999,0.4884171485900879,0.04189852997660637,9.452308654785156,-5.859375,-0.6103515625,-2.99072265625
4.2874999,0.055665191262960434,0.08080431073904037,10.028712272644043,7.32421875,0.54931640625,3.936767578125
4.2924999,0.4728548228740692,-0.020949264988303185,9.424775123596191,-8.636474609375,-0.457763671875,-2.777099609375
4.2974999,0.028131870552897453,0.166995570063591,10.073603630065918,9.918212890625,-0.152587890625,4.302978515625
4.3024999,0.4507084786891937,0.023343466222286224,9.367912292480469,-10.8642578125,0.30517578125,-2.62451171875
4.3074999,0.0065840547904372215,0.314238965511322,10.014945983886719,11.627197265625,-0.274658203125,4.058837890625
4.312499900000001,0.4207809567451477,0.09636662155389786,9.335591316223145,-12.237548828125,0.6103515625,-2.410888671875
4.3174999000000005,0.03711012750864029,0.406415730714798,10.00836181640625,12.39013671875,-1.15966796875,3.692626953125
4.3224999,0.375291109085083,0.03292027488350868,9.41100788116455,-12.451171875,1.068115234375,-1.953125
4.3274999,0.07541735470294952,0.31783026456832886,10.038289070129395,12.14599609375,-1.800537109375,2.685546875
4.3324999,0.29388827085494995,-0.16101007163524628,9.581595420837402,-11.810302734375,1.678466796875,-1.3427734375
4.3374999,0.08978256583213806,0.15023615956306458,10.059837341308594,10.894775390625,-1.861572265625,1.46484375
4.3424999,0.19812019169330597,-0.23942017555236816,9.765350341796875,-9.58251953125,1.953125,-0.18310546875
4.3474999,0.14365209639072418,0.1388636976480484,10.023923873901367,8.48388671875,-2.227783203125,0.701904296875
4.352499900000001,0.152031809091568,-0.08858546614646912,9.849745750427246,-7.2021484375,1.922607421875,1.373291015625
4.3574999000000005,0.26994624733924866,0.26336219906806946,9.810839653015137,5.157470703125,-2.13623046875,-0.3662109375
4.3624999,0.1454477459192276,0.09636662155389786,9.816825866699219,-3.41796875,2.13623046875,1.983642578125
4.3674999,0.39803603291511536,0.2992752194404602,9.542689323425293,1.3427734375,-1.708984375,-1.52587890625
4.3724999,0.11252748221158981,0.13287819921970367,9.818022727966309,0.3662109375,1.953125,3.2958984375
4.3774999,0.46806642413139343,0.15263035893440247,9.422380447387695,-2.44140625,-1.556396484375,-2.01416015625
4.3824999,0.04668693244457245,0.08738835901021957,9.920374870300293,4.241943359375,1.434326171875,3.997802734375
4.3874999,0.47225627303123474,-0.015562310814857483,9.408015251159668,-6.134033203125,-1.0986328125,-2.838134765625
4.3924999,0.028730420395731926,0.11312603205442429,10.062829971313477,7.965087890625,0.762939453125,4.425048828125
4.397499900000001,0.47884035110473633,-0.02753331884741783,9.391256332397461,-9.429931640625,-0.762939453125,-2.838134765625
4.4024999000000005,0.048482585698366165,0.2555810213088989,10.078990936279297,10.528564453125,0.152587890625,4.39453125
4.4074999,0.4812345504760742,0.06524199992418289,9.303269386291504,-11.77978515625,0.244140625,-2.593994140625
4.4124999,0.06763619929552078,0.3974374830722809,9.99459457397461,12.420654296875,-0.6103515625,3.84521484375
4.4174999,0.41120412945747375,0.05027823522686958,9.28650951385498,-12.603759765625,0.79345703125,-2.105712890625
4.4224999,0.08200141042470932,0.35015198588371277,10.001777648925781,12.420654296875,-1.251220703125,2.899169921875
4.4274999,0.29867666959762573,-0.12210428714752197,9.48882007598877,-11.993408203125,1.52587890625,-0.9765625
4.4324999,0.08619125932455063,0.1735796183347702,10.069414138793945,11.138916015625,-1.983642578125,1.89208984375
4.437499900000001,0.18375498056411743,-0.2298433631658554,9.736021041870117,-9.979248046875,1.922607421875,0.030517578125
4.4424999000000005,0.14185644686222076,0.11791443079710007,10.04068374633789,8.392333984375,-2.197265625,0.396728515625
4.4474999,0.11671733111143112,-0.11133038252592087,9.862914085388184,-6.805419921875,2.288818359375,1.556396484375
4.4524999,0.2735375463962555,0.22385786473751068,9.819818496704102,4.669189453125,-2.288818359375,-0.48828125
4.4574999,0.09217676520347595,0.09935937076807022,9.864110946655273,-2.777099609375,2.197265625,2.99072265625
4.4624999,0.41778820753097534,0.26994624733924866,9.552266120910645,0.30517578125,-2.01416015625,-1.617431640625
4.4674999,0.08439560979604721,0.17836803197860718,9.8784761428833,1.5869140625,1.861572265625,3.662109375
4.4724999,0.5117605924606323,0.12210428714752197,9.422380447387695,-4.0283203125,-1.52587890625,-2.166748046875
4.477499900000001,0.08559270948171616,0.15083470940589905,9.97484302520752,5.889892578125,1.3427734375,4.69970703125
4.4824999000000005,0.5279214978218079,-0.04668693244457245,9.36013126373291,-7.9345703125,-0.885009765625,-2.685546875
4.4874999,0.06464344263076782,0.1909375786781311,10.041281700134277,9.58251953125,0.579833984375,4.45556640625
4.4924999,0.4836287498474121,-0.06584054976701736,9.265560150146484,-10.7421875,-0.152587890625,-2.593994140625
4.4974999,0.03651157766580582,0.3232172429561615,9.997588157653809,11.810302734375,-0.335693359375,4.21142578125
4.5024999,0.39205053448677063,-0.02513911761343479,9.232041358947754,-12.542724609375,0.6103515625,-2.044677734375
4.5074999,0.04668693244457245,0.36990416049957275,9.999382972717285,12.786865234375,-1.0986328125,3.204345703125
4.5124999,0.2902969419956207,-0.1041477769613266,9.409213066101074,-12.451171875,1.52587890625,-0.9765625
4.5174999,0.08200141042470932,0.2364274114370346,10.092158317565918,11.65771484375,-1.708984375,2.166748046875
4.522499900000001,0.18794482946395874,-0.21787235140800476,9.704896926879883,-10.467529296875,1.89208984375,0.42724609375
4.5274999000000005,0.14903905987739563,0.13826514780521393,10.08198356628418,9.063720703125,-2.166748046875,0.762939453125
4.5324999,0.0999579206109047,-0.13407529890537262,9.869498252868652,-7.293701171875,2.227783203125,1.983642578125
4.5374999,0.28072014451026917,0.21847090125083923,9.831191062927246,5.035400390625,-2.227783203125,-0.579833984375
4.5424999,0.06464344263076782,0.07841010391712189,9.868300437927246,-2.62451171875,2.13623046875,3.387451171875
4.5474999,0.42676645517349243,0.25438392162323,9.531915664672852,0.091552734375,-1.89208984375,-1.3427734375
4.5524999,0.053270988166332245,0.17836803197860718,9.895833969116211,2.38037109375,1.5869140625,4.39453125
4.5574999,0.5027823448181152,0.09576806426048279,9.399636268615723,-5.096435546875,-1.556396484375,-2.166748046875
4.562499900000001,0.06224924325942993,0.1801636815071106,10.02452278137207,7.38525390625,0.91552734375,4.8828125
4.5674999000000005,0.5069721937179565,-0.019153613597154617,9.353547096252441,-9.185791015625,-0.762939453125,-2.471923828125
4.5724999,0.05506663769483566,0.2867056429386139,10.052056312561035,10.92529296875,0.091552734375,4.150390625
4.5774999,0.4537012279033661,0.040701430290937424,9.287108421325684,-12.14599609375,0.06103515625,-2.44140625
4.5824999,0.06404489278793335,0.42616790533065796,10.018536567687988,12.87841796875,-0.9765625,3.631591796875
4.5874999,0.36810851097106934,0.04429273307323456,9.344569206237793,-13.18359375,1.007080078125,-1.15966796875
4.5924999,0.11312603205442429,0.3663128614425659,10.078392028808594,12.603759765625,-1.3427734375,2.685546875
4.5974999,0.272938996553421,-0.1107318252325058,9.603741645812988,-11.90185546875,1.8310546875,-0.030517578125
4.602499900000001,0.272938996553421,-0.1107318252325058,9.603741645812988,-11.90185546875,1.8310546875,-0.030517578125
4.6074999000000005,0.17178396880626678,0.1999158412218094,10.108319282531738,10.589599609375,-1.800537109375,1.190185546875
4.6124999,0.16160862147808075,-0.16400282084941864,9.821614265441895,-8.85009765625,2.13623046875,1.800537109375
4.6174999,0.27413609623908997,0.1951274424791336,9.915586471557617,6.53076171875,-2.227783203125,-0.152587890625
4.6224999,0.07900865375995636,0,9.868300437927246,-4.0283203125,2.044677734375,3.387451171875
4.6274999,0.39564183354377747,0.2579752206802368,9.584588050842285,1.556396484375,-2.166748046875,-1.220703125
4.6324999,0.05267243832349777,0.13407529890537262,9.877877235412598,1.129150390625,1.8310546875,4.364013671875
4.6374999,0.4950011968612671,0.14365209639072418,9.394248962402344,-3.7841796875,-1.64794921875,-2.105712890625
4.6424999,0.07302315533161163,0.17298106849193573,9.99220085144043,6.378173828125,0.946044921875,4.69970703125
4.647499900000001,0.5351040959358215,0.015562310814857483,9.34157657623291,-8.636474609375,-0.67138671875,-2.593994140625
4.6524999000000005,0.08439560979604721,0.29149407148361206,10.041281700134277,10.711669921875,0.244140625,4.425048828125
4.6574999,0.4878185987472534,0.07302315533161163,9.276334762573242,-11.71875,0.18310546875,-1.983642578125
4.6624999,0.09157821536064148,0.4495113790035248,10.002974510192871,12.5732421875,-0.91552734375,3.7841796875
4.6674999,0.38127660751342773,0.08379705995321274,9.338583946228027,-12.786865234375,1.190185546875,-0.9765625
4.6724999,0.11552023142576218,0.383670836687088,10.053851127624512,12.481689453125,-1.739501953125,2.3193359375
4.6774999,0.2495955228805542,-0.09217676520347595,9.616311073303223,-11.383056640625,1.800537109375,0.335693359375
4.6824999,0.16519992053508759,0.19692309200763702,10.089764595031738,10.07080078125,-2.25830078125,0.9765625
4.687499900000001,0.13168109953403473,-0.1388636976480484,9.843161582946777,-8.148193359375,2.25830078125,2.044677734375
4.6924999000000005,0.28730419278144836,0.19931729137897491,9.877279281616211,5.67626953125,-2.471923828125,-0.457763671875
4.6974999,0.07062894850969315,0.041299980133771896,9.885659217834473,-3.265380859375,2.349853515625,3.41796875
4.7024999,0.43035775423049927,0.23523031175136566,9.551069259643555,0.3662109375,-2.38037109375,-1.953125
4.7074999,0.043095629662275314,0.15083470940589905,9.92097282409668,2.44140625,1.953125,4.364013671875
4.7124999,0.49320554733276367,0.076015904545784,9.382277488708496,-4.94384765625,-1.373291015625,-2.410888671875
4.7174999,0.03711012750864029,0.17477671802043915,10.04307746887207,7.75146484375,0.946044921875,4.364013671875
4.7224999,0.4812345504760742,-0.019153613597154617,9.307458877563477,-9.82666015625,-0.54931640625,-2.838134765625
4.727499900000001,0.040701430290937424,0.32381579279899597,10.032901763916016,11.199951171875,-0.091552734375,4.058837890625
4.7324999000000005,0.41120412945747375,0.04908113554120064,9.249998092651367,-12.451171875,0.518798828125,-1.922607421875
4.7374999,0.06344634294509888,0.4141969084739685,9.997588157653809,12.725830078125,-1.068115234375,2.960205078125
4.7424999,0.29867666959762573,-0.03770867735147476,9.412803649902344,-12.51220703125,1.64794921875,-0.9765625
4.7474999,0.11552023142576218,0.243011474609375,10.085575103759766,11.65771484375,-1.953125,1.5869140625
4.7524999,0.17537526786327362,-0.21308395266532898,9.737217903137207,-10.009765625,2.38037109375,0.8544921875
4.7574999,0.20470423996448517,0.09876082092523575,10.023923873901367,8.270263671875,-2.655029296875,-0.274658203125
4.7624999,0.0802057534456253,-0.14425064623355865,9.874286651611328,-5.79833984375,2.593994140625,2.3193359375
4.7674999,0.34656068682670593,0.15083470940589905,9.692327499389648,3.326416015625,-2.5634765625,-1.3427734375
4.772499900000001,0.055665191262960434,0.0454898327589035,9.86889934539795,-0.48828125,2.25830078125,3.692626953125
4.7774999000000005,0.4866214990615845,0.10714052617549896,9.408614158630371,-2.777099609375,-1.983642578125,-2.532958984375
4.7824999,0.07481880486011505,0.13048399984836578,9.949105262756348,5.37109375,1.861572265625,4.425048828125
4.7874999,0.5416881442070007,-0.02274491637945175,9.318233489990234,-7.843017578125,-1.03759765625,-2.960205078125
4.7924999,0.08080431073904037,0.24600422382354736,10.02811336517334,9.46044921875,0.701904296875,4.058837890625
4.7974999,0.48303020000457764,0.023343466222286224,9.247005462646484,-11.29150390625,0,-2.62451171875
4.8024999,0.0867898091673851,0.42197805643081665,10.022727012634277,12.420654296875,-0.91552734375,3.35693359375
4.8074999,0.36750996112823486,0.0586579404771328,9.32302188873291,-12.75634765625,0.9765625,-1.129150390625
4.812499900000001,0.12330138683319092,0.3800795078277588,10.06582260131836,12.14599609375,-1.8310546875,2.01416015625
4.8174999000000005,0.22505496442317963,-0.09277531504631042,9.624092102050781,-10.8642578125,2.0751953125,0.579833984375
4.8224999,0.18375498056411743,0.18734627962112427,10.073004722595215,9.185791015625,-2.349853515625,0.6103515625
4.8274999,0.09516951441764832,-0.13527239859104156,9.86889934539795,-6.89697265625,2.471923828125,2.166748046875
4.8324999,0.3010708689689636,0.16160862147808075,9.812037467956543,4.302978515625,-2.532958984375,-1.190185546875
4.8374999,0.0293289702385664,0.01496376097202301,9.90361499786377,-1.434326171875,2.105712890625,3.60107421875
4.8424999,0.436343252658844,0.12988543510437012,9.479841232299805,-1.800537109375,-1.922607421875,-2.13623046875
4.8474999,0.03292027488350868,0.10714052617549896,9.946112632751465,4.2724609375,1.52587890625,4.2724609375
4.852499900000001,0.5099649429321289,-0.018555063754320145,9.339181900024414,-7.110595703125,-1.007080078125,-2.99072265625
4.8574999000000005,0.060453593730926514,0.19692309200763702,10.020332336425781,9.33837890625,0.518798828125,4.39453125
4.8624999,0.4866214990615845,-0.015562310814857483,9.26675796508789,-10.772705078125,0,-2.410888671875
4.8674999,0.090979665517807,0.37648820877075195,10.010157585144043,11.871337890625,-0.732421875,3.662109375
4.8724999,0.37888240814208984,0.04489128291606903,9.327211380004883,-11.90185546875,0.885009765625,-1.5869140625
4.8774999,0.12090718746185303,0.37169981002807617,10.039485931396484,11.90185546875,-1.708984375,1.922607421875
4.8824999,0.22026655077934265,-0.07481880486011505,9.624092102050781,-10.589599609375,1.708984375,0.30517578125
4.8874999,0.17717093229293823,0.18734627962112427,10.066421508789062,9.033203125,-2.25830078125,0.67138671875
4.8924999,0.09576806426048279,-0.10354922711849213,9.880870819091797,-6.7138671875,2.01416015625,2.105712890625
4.897499900000001,0.3124433159828186,0.1496376097202301,9.815628051757812,4.08935546875,-2.44140625,-1.007080078125
4.9024999000000005,0.043095629662275314,0.05626374110579491,9.914389610290527,-1.46484375,2.044677734375,3.570556640625
4.9074999,0.456095427274704,0.10953472554683685,9.48343276977539,-1.8310546875,-1.800537109375,-2.227783203125
4.9124999,0.03770867735147476,0.15442600846290588,9.947309494018555,4.5166015625,1.40380859375,4.364013671875
4.9174999,0.5111620426177979,-0.031124621629714966,9.324816703796387,-7.415771484375,-1.03759765625,-2.349853515625
4.9224999,0.0586579404771328,0.2585737705230713,10.014945983886719,9.490966796875,0.30517578125,4.7607421875
4.9274999,0.4770447015762329,-0.009576806798577309,9.239224433898926,-11.04736328125,0.1220703125,-2.13623046875
4.9324999,0.10175357013940811,0.42437225580215454,10.020931243896484,11.962890625,-0.640869140625,3.448486328125
4.937499900000001,0.37828385829925537,0.016160860657691956,9.329605102539062,-12.3291015625,1.0986328125,-1.007080078125
4.9424999000000005,0.13706804811954498,0.3687070608139038,10.05923843383789,11.810302734375,-2.13623046875,1.983642578125
4.9474999,0.20530278980731964,-0.1107318252325058,9.632472038269043,-10.68115234375,2.227783203125,0.640869140625
4.9524999,0.18974047899246216,0.1777694821357727,10.046070098876953,8.636474609375,-2.3193359375,0.213623046875
4.9574999,0.06224924325942993,-0.08439560979604721,9.873088836669922,-6.072998046875,2.471923828125,2.197265625
4.9624999,0.3232172429561615,0.1472434103488922,9.741408348083496,2.960205078125,-2.532958984375,-1.5869140625
4.9674999,0.3232172429561615,0.1472434103488922,9.741408348083496,2.960205078125,-2.532958984375,-1.5869140625
4.9724999,0.02274491637945175,0.08140286058187485,9.911396026611328,0.1220703125,2.227783203125,3.72314453125
4.977499900000001,0.45669397711753845,0.076015904545784,9.41639518737793,-3.448486328125,-1.678466796875,-2.716064453125
4.9824999000000005,0.043095629662275314,0.16639702022075653,9.988011360168457,6.072998046875,1.251220703125,3.936767578125
4.9874999,0.4991910457611084,-0.02693476900458336,9.315239906311035,-8.697509765625,-0.823974609375,-3.11279296875
4.9924999,0.05985504388809204,0.2974795699119568,10.039485931396484,10.92529296875,-0.213623046875,3.5400390625
4.9974999,0.43275195360183716,0.021547814831137657,9.251194953918457,-12.237548828125,0.42724609375,-2.532958984375
5.0024999,0.09157821536064148,0.40940847992897034,10.037092208862305,12.51220703125,-1.220703125,2.471923828125
5.0074999,0.30945056676864624,-0.028131870552897453,9.405022621154785,-12.176513671875,1.5869140625,-0.762939453125
5.0124999,0.152031809091568,0.262763649225235,10.110713958740234,11.29150390625,-2.0751953125,1.03759765625
5.0174999,0.16639702022075653,-0.1693897694349289,9.754576683044434,-9.46044921875,2.0751953125,0.732421875
5.022499900000001,0.2579752206802368,0.13826514780521393,9.990405082702637,6.8359375,-2.38037109375,-1.15966796875
5.0274999000000005,0.06165069341659546,-0.06823474913835526,9.922768592834473,-4.21142578125,2.62451171875,2.5634765625
5.0324999,0.4141969084739685,0.17178396880626678,9.649829864501953,0.91552734375,-2.13623046875,-2.44140625
5.0374999,0.03172317147254944,0.11911153793334961,9.956287384033203,1.983642578125,2.105712890625,3.570556640625
5.0424999,0.4854243993759155,0.07422025501728058,9.3828763961792,-5.401611328125,-1.46484375,-3.0517578125
5.0474999,0.03770867735147476,0.19812019169330597,10.026318550109863,7.904052734375,0.762939453125,3.90625
5.0524999,0.47584760189056396,-0.009576806798577309,9.264962196350098,-10.1318359375,-0.335693359375,-2.86865234375
5.0574999,0.08140286058187485,0.3256114423274994,10.021530151367188,11.41357421875,-0.457763671875,3.11279296875
5.062499900000001,0.39803603291511536,0.02693476900458336,9.285911560058594,-12.02392578125,1.190185546875,-1.8310546875
5.0674999000000005,0.12210428714752197,0.3579331636428833,10.012551307678223,11.932373046875,-1.5869140625,1.617431640625
5.0724999,0.24480712413787842,-0.05925649031996727,9.561842918395996,-11.016845703125,2.227783203125,-0.3662109375
5.0774999,0.18495208024978638,0.22266076505184174,10.058639526367188,9.185791015625,-2.74658203125,-0.152587890625
5.0824999,0.10354922711849213,-0.09457096457481384,9.870695114135742,-6.9580078125,2.777099609375,1.46484375
5.0874999,0.3148375153541565,0.18375498056411743,9.821614265441895,3.997802734375,-2.86865234375,-2.044677734375
5.0924999,0.03651157766580582,0.026336219161748886,9.935338973999023,-1.129150390625,2.899169921875,2.86865234375
5.0974999,0.45848962664604187,0.11552023142576218,9.478046417236328,-2.01416015625,-2.349853515625,-3.082275390625
5.102499900000001,0.05267243832349777,0.09516951441764832,9.9772367477417,5.18798828125,1.5869140625,3.692626953125
5.1074999000000005,0.5207388401031494,-0.013168109580874443,9.327810287475586,-7.781982421875,-1.220703125,-3.173828125
5.1124999,0.08499415963888168,0.23822307586669922,10.013150215148926,9.674072265625,0.67138671875,3.448486328125
5.1174999,0.45848962664604187,0.03890577703714371,9.249998092651367,-11.199951171875,0.18310546875,-2.471923828125
5.1224999,0.11552023142576218,0.4010287821292877,10.012551307678223,11.77978515625,-0.946044921875,2.25830078125
5.1274999,0.31543606519699097,0.02274491637945175,9.412803649902344,-11.444091796875,1.52587890625,-1.190185546875
5.1324999,0.15263035893440247,0.27892449498176575,10.072406768798828,10.3759765625,-2.0751953125,0.6103515625
5.1374999,0.14365209639072418,-0.11192893236875534,9.756970405578613,-8.6669921875,2.685546875,0.3662109375
5.1424999,0.25258827209472656,0.14245499670505524,9.937732696533203,6.072998046875,-2.8076171875,-1.40380859375
5.147499900000001,0.03770867735147476,-0.025737667456269264,9.919178009033203,-3.11279296875,2.685546875,2.197265625
5.1524999000000005,0.4189853072166443,0.1472434103488922,9.606734275817871,0.030517578125,-2.655029296875,-2.777099609375
5.1574999,0.028131870552897453,0.12330138683319092,9.966463088989258,2.86865234375,2.38037109375,3.5400390625
5.1624999,0.507570743560791,0.035913024097681046,9.372102737426758,-5.889892578125,-1.708984375,-3.570556640625
5.1674999,0.0628477931022644,0.20111294090747833,10.021530151367188,8.453369140625,1.190185546875,3.387451171875
5.1724999,0.5027823448181152,-0.01496376097202301,9.27034854888916,-10.31494140625,-0.42724609375,-3.143310546875
5.1774999,0.11971008777618408,0.35673606395721436,10.015543937683105,11.627197265625,-0.48828125,2.62451171875
5.1824999,0.4016273319721222,0.03232172131538391,9.32421875,-11.8408203125,1.28173828125,-2.197265625
5.187499900000001,0.15143325924873352,0.3555389642715454,10.02691650390625,11.322021484375,-1.8310546875,1.007080078125
5.1924999000000005,0.2059013396501541,-0.0586579404771328,9.618106842041016,-10.1318359375,2.25830078125,0.030517578125
5.1974999,0.21428105235099792,0.18914192914962769,10.013748168945312,7.9345703125,-2.8076171875,-0.823974609375
5.2024999,0.05147533491253853,-0.07122749835252762,9.88625717163086,-5.218505859375,2.777099609375,1.556396484375
5.2074999,0.3531447649002075,0.1388636976480484,9.73661994934082,1.983642578125,-2.899169921875,-2.62451171875
5.2124999,0.008379706181585789,0.058059390634298325,9.954492568969727,1.068115234375,2.5634765625,3.082275390625
5.2174999,0.47405192255973816,0.04908113554120064,9.427168846130371,-4.33349609375,-2.197265625,-3.41796875
5.2224999,0.04429273307323456,0.16160862147808075,10.023923873901367,6.988525390625,1.556396484375,3.570556640625
5.227499900000001,0.5141547918319702,-0.02454056777060032,9.299677848815918,-9.490966796875,-0.8544921875,-3.60107421875
5.2324999000000005,0.10055647045373917,0.32680854201316833,10.013150215148926,10.92529296875,0.030517578125,2.899169921875
5.2374999,0.43035775423049927,0.0454898327589035,9.269750595092773,-11.5966796875,0.54931640625,-2.349853515625
5.2424999,0.13168109953403473,0.37469255924224854,9.97603988647461,11.566162109375,-1.46484375,1.46484375
5.2474999,0.24361002445220947,-0.028131870552897453,9.510966300964355,-10.7421875,2.105712890625,-0.701904296875
5.2524999,0.18555063009262085,0.20470423996448517,10.02691650390625,8.941650390625,-2.777099609375,-0.42724609375
