# Time (seconds),Accel_X,Accel_Y,Accel_Z,Gyro_X,Gyro_Y,Gyro_Z
0.0024999,0.31543606519699097,-0.3298012912273407,9.764153480529785,4.94384765625,0.091552734375,-4.547119140625
0.0074999,0.31543606519699097,-0.3298012912273407,9.764153480529785,4.94384765625,0.091552734375,-4.547119140625
0.012499900000000001,0.34596213698387146,-0.23104046285152435,9.875483512878418,2.99072265625,-0.244140625,3.7841796875
0.0174999,0.3800795078277588,-0.39145198464393616,9.714473724365234,-8.1787109375,-0.244140625,-0.3662109375
0.0224999,0.37648820877075195,-0.3794809579849243,9.77672290802002,5.584716796875,0.06103515625,-3.936767578125
0.0274999,0.4141969084739685,-0.26815059781074524,9.84376049041748,1.861572265625,-0.213623046875,4.241943359375
0.0324999,0.3860650360584259,-0.3232172429561615,9.782109260559082,6.53076171875,0.213623046875,-3.60107421875
0.0374999,0.3884592354297638,-0.21966800093650818,9.862914085388184,0.335693359375,-0.030517578125,4.39453125
0.0424999,0.395043283700943,-0.365115761756897,9.703699111938477,-7.32421875,-0.18310546875,-1.8310546875
0.0474999,0.36332011222839355,-0.31783026456832886,9.792284965515137,7.537841796875,-0.030517578125,-3.143310546875
0.0524999,0.3908534348011017,-0.23942017555236816,9.867103576660156,-0.274658203125,0.152587890625,4.302978515625
0.0574999,0.4231751561164856,-0.40701428055763245,9.714473724365234,-6.40869140625,-0.213623046875,-2.38037109375
0.0624999,0.414795458316803,-0.3274070918560028,9.855133056640625,7.781982421875,0.152587890625,-2.471923828125
0.0674999,0.43035775423049927,-0.2669534981250763,9.903017044067383,-2.410888671875,0.18310546875,4.45556640625
0.0724999,0.43694180250167847,-0.4495113790035248,9.736021041870117,-5.615234375,-0.030517578125,-3.082275390625
0.0774999,0.3884592354297638,-0.3280056416988373,9.885659217834473,8.697509765625,-0.152587890625,-1.983642578125
0.0824999,0.3687070608139038,-0.41359832882881165,9.746794700622559,-4.82177734375,-0.030517578125,-3.509521484375
0.0874999,0.32022446393966675,-0.25438392162323,9.877279281616211,-4.974365234375,-0.274658203125,4.0283203125
0.0924999,0.38965633511543274,-0.41539400815963745,9.797073364257812,-3.631591796875,0.152587890625,-4.150390625
0.0974999,0.3669114112854004,-0.32381579279899597,9.943120002746582,8.36181640625,0,-0.640869140625
0.1024999,0.38486793637275696,-0.33279404044151306,9.881468772888184,-4.82177734375,-0.091552734375,3.662109375
0.1074999,0.4596867263317108,-0.5039794445037842,9.802460670471191,-2.227783203125,-0.091552734375,-4.39453125
0.1124999,0.3908534348011017,-0.3663128614425659,9.897629737854004,7.476806640625,0.213623046875,0.18310546875
0.1174999,0.39384618401527405,-0.3579331636428833,9.80904483795166,-6.683349609375,-0.244140625,3.41796875
0.1224999,0.40462008118629456,-0.49799394607543945,9.726444244384766,-1.068115234375,-0.244140625,-4.57763671875
0.1274999,0.31364041566848755,-0.3010708689689636,9.849146842956543,7.4462890625,0.091552734375,1.068115234375
0.1324999,0.3315969407558441,-0.28730419278144836,9.774328231811523,-7.26318359375,0,2.960205078125
0.1374999,0.36152446269989014,-0.4189853072166443,9.724648475646973,-0.030517578125,-0.152587890625,-4.7607421875
0.1424999,0.3106476664543152,-0.2256535142660141,9.860519409179688,6.805419921875,-0.244140625,1.556396484375
0.1474999,0.4207809567451477,-0.4279635548591614,9.716269493103027,1.312255859375,0.18310546875,-4.82177734375
0.1524999,0.3645172119140625,-0.26575639843940735,9.822212219238281,6.378173828125,0.18310546875,2.3193359375
0.1574999,0.4129997789859772,-0.333991140127182,9.713874816894531,-7.6904296875,-0.091552734375,1.5869140625
0.1624999,0.4315548539161682,-0.4405331015586853,9.68155288696289,2.716064453125,-0.1220703125,-5.096435546875
0.1674999,0.34835633635520935,-0.25677812099456787,9.799467086791992,5.218505859375,0.152587890625,2.777099609375
0.1724999,0.3669114112854004,-0.3010708689689636,9.692327499389648,-8.7890625,-0.213623046875,1.434326171875
0.17749990000000002,0.3429693877696991,-0.36810851097106934,9.701904296875,3.570556640625,-0.091552734375,-4.669189453125
0.1824999,0.2950853705406189,-0.16819266974925995,9.818022727966309,4.364013671875,-0.335693359375,3.021240234375
0.1874999,0.32620999217033386,-0.27473464608192444,9.689932823181152,-8.48388671875,-0.274658203125,0.54931640625
0.1924999,0.3274070918560028,-0.32441434264183044,9.712677955627441,4.486083984375,0.18310546875,-4.486083984375
0.1974999,0.35015198588371277,-0.1885433793067932,9.825803756713867,3.23486328125,0.335693359375,3.509521484375
0.2024999,0.38307225704193115,-0.3585317134857178,9.6803560256958,-8.087158203125,-0.274658203125,-0.18310546875
0.20749990000000001,0.36810851097106934,-0.2017114907503128,9.871891975402832,-0.274658203125,0.213623046875,4.302978515625
0.2124999,0.4034229815006256,-0.35673606395721436,9.733627319335938,-7.080078125,0.030517578125,-1.983642578125
0.2174999,0.3824737071990967,-0.30226796865463257,9.835380554199219,7.4462890625,0.152587890625,-2.777099609375
0.2224999,0.4124012291431427,-0.26755204796791077,9.908403396606445,-1.617431640625,-0.152587890625,4.33349609375
0.2274999,0.4297592043876648,-0.4387374520301819,9.730634689331055,-6.072998046875,-0.30517578125,-2.685546875
0.2324999,0.3998316824436188,-0.3758896589279175,9.86231517791748,7.9345703125,0.18310546875,-2.349853515625
0.2374999,0.4034229815006256,-0.46806642413139343,9.732429504394531,-5.06591796875,0.030517578125,-3.173828125
0.2424999,0.30047231912612915,-0.535702645778656,9.743204116821289,8.148193359375,0,-1.495361328125
0.2474999,0.37469255924224854,-0.9923965930938721,9.35654067993164,4.913330078125,1.28173828125,9.8876953125
0.2524999,-0.17956513166427612,-2.251746654510498,8.97885513305664,-8.48388671875,-1.52587890625,23.0712890625
0.2574999,-0.6554127335548401,-2.6437971591949463,8.164826393127441,67.230224609375,-1.373291015625,50.933837890625
0.2624999,-0.9816226959228516,-2.564788579940796,8.327033042907715,41.19873046875,5.523681640625,29.205322265625
0.2674999,-1.2413935661315918,-3.0885202884674072,7.5453267097473145,38.421630859375,-0.518798828125,6.988525390625
0.2724999,-1.0923545360565186,-0.8768763542175293,7.824849605560303,-9.307861328125,-26.947021484375,75.897216796875
0.2774999,-0.9894038438796997,-1.0785878896713257,7.2574238777160645,28.350830078125,-20.233154296875,46.356201171875
0.2824999,-1.0881646871566772,-0.08559270948171616,6.770204067230225,94.879150390625,-9.521484375,-1.15966796875
0.28749990000000003,-0.9068039059638977,0.9044097065925598,6.496666431427002,-5.4931640625,-18.4326171875,59.50927734375
0.2924999,-0.8732850551605225,1.4826093912124634,5.658695697784424,58.77685546875,-14.2822265625,37.04833984375
0.2974999,0.24660277366638184,3.0131027698516846,5.996278285980225,43.365478515625,-27.64892578125,20.538330078125
0.3024999,0.6236895322799683,3.067570924758911,6.136937618255615,57.647705078125,-30.364990234375,4.425048828125
0.3074999,0.5057750940322876,2.5689783096313477,5.722740650177002,27.28271484375,-38.299560546875,13.092041015625
0.3124999,0.24001872539520264,2.4917654991149902,4.874594688415527,86.9140625,-30.45654296875,-9.94873046875
0.3174999,0.3776853084564209,2.9759926795959473,4.897938251495361,31.097412109375,-23.98681640625,7.843017578125
0.3224999,-0.24121582508087158,2.500145196914673,4.501099109649658,12.542724609375,-34.36279296875,3.47900390625
0.3274999,0.5877765417098999,3.3446998596191406,5.95138692855835,101.898193359375,-22.8271484375,-29.1748046875
0.3324999,0.2214636504650116,2.474407434463501,5.585672378540039,32.77587890625,-8.056640625,29.11376953125
0.3374999,0.6344634294509888,2.977189779281616,5.960963726043701,-8.97216796875,-10.92529296875,7.87353515625
0.3424999,0.5500678420066833,2.124255418777466,6.0836663246154785,18.798828125,-26.30615234375,-6.53076171875
0.34749990000000003,0.2621650993824005,2.5348610877990723,5.14932918548584,97.137451171875,-8.148193359375,-14.862060546875
0.35249990000000003,0.25079262256622314,2.5067291259765625,5.460575580596924,-14.0380859375,5.645751953125,21.05712890625
0.3574999,0.8092401623725891,-0.11372458189725876,5.2696380615234375,-35.125732421875,-17.4560546875,-14.495849609375
0.3624999,0.48063600063323975,-0.2669534981250763,5.219958305358887,15.838623046875,-2.86865234375,-53.314208984375
0.3674999,1.1216834783554077,-1.1450269222259521,6.606799602508545,-93.3837890625,0.244140625,-20.233154296875
0.3724999,1.1216834783554077,-1.1450269222259521,6.606799602508545,-93.3837890625,0.244140625,-20.233154296875
0.3774999,0.6859387755393982,-0.5351040959358215,6.090848922729492,-25.93994140625,-3.692626953125,-46.7529296875
0.3824999,0.99479079246521,-0.19273324310779572,6.734290599822998,-107.91015625,-0.213623046875,-6.77490234375
0.3874999,0.7870938181877136,1.0606313943862915,5.835866451263428,-99.517822265625,14.46533203125,-24.35302734375
0.3924999,0.9672574996948242,3.8331170082092285,5.567117691040039,-158.3251953125,30.303955078125,-10.772705078125
0.3974999,0.9672574996948242,3.8331170082092285,5.567117691040039,-158.3251953125,30.303955078125,-10.772705078125
0.4024999,1.3724761009216309,3.7385458946228027,8.539519309997559,-156.097412109375,68.4814453125,8.48388671875
0.4074999,1.3401544094085693,1.4257471561431885,11.555614471435547,-35.70556640625,67.2607421875,10.1318359375
0.41249990000000003,1.3078327178955078,-1.5705963373184204,14.055161476135254,-18.5546875,18.707275390625,-10.3759765625
0.41749990000000003,0.7416039705276489,-4.23773717880249,14.94460678100586,-9.27734375,0.701904296875,-7.32421875
0.4224999,0.17717093229293823,-5.8029465675354,13.086706161499023,-26.67236328125,2.8076171875,-16.387939453125
0.4274999,-0.4704606235027313,-5.666476726531982,9.787496566772461,18.37158203125,8.331298828125,-23.92578125
0.4324999,-0.7733271718025208,-4.8500542640686035,6.037578105926514,6.28662109375,-1.495361328125,-26.9775390625
0.4374999,-1.037886381149292,-3.80378794670105,4.247313976287842,35.33935546875,3.47900390625,-25.20751953125
0.4424999,-0.993593692779541,-3.134010076522827,4.487931251525879,9.490966796875,18.49365234375,-8.4228515625
0.4474999,-0.8667010068893433,-2.7742812633514404,6.933009624481201,31.73828125,14.22119140625,-7.568359375
0.4524999,-0.4381389021873474,-1.8279730081558228,11.964424133300781,24.96337890625,-14.0380859375,-4.33349609375
0.4574999,-0.36152446269989014,-0.7715315222740173,12.571952819824219,-1.617431640625,-15.716552734375,8.4228515625
0.4624999,-0.15921440720558167,0.060453593730926514,11.64599609375,12.725830078125,-15.7470703125,-10.101318359375
0.4674999,0.02214636653661728,1.14742112159729,10.65778923034668,2.532958984375,-12.0849609375,3.204345703125
0.47249990000000003,0.3645172119140625,1.3958195447921753,9.557653427124023,-13.153076171875,-8.97216796875,-7.568359375
0.47749990000000003,0.7487865686416626,1.7190368175506592,9.64803409576416,-6.4697265625,-4.21142578125,11.474609375
0.4824999,1.2844891548156738,0.6422445774078369,10.08198356628418,5.37109375,-0.8544921875,9.21630859375
0.4874999,1.2844891548156738,0.6422445774078369,10.08198356628418,5.37109375,-0.8544921875,9.21630859375
0.4924999,1.3563152551651,-0.2992752194404602,9.898826599121094,-17.791748046875,1.953125,-1.434326171875
0.4974999,1.1318588256835938,-0.8355764150619507,9.939528465270996,11.444091796875,4.39453125,-0.1220703125
0.5024999,0.9193734526634216,-1.3305776119232178,9.469666481018066,-13.12255859375,5.18798828125,-1.312255859375
0.5074999,0.6482301354408264,-1.48081374168396,9.543288230895996,20.44677734375,4.638671875,-4.21142578125
0.5124999,0.20231004059314728,0.20350714027881622,10.067618370056152,-3.509521484375,-0.06103515625,7.568359375
0.5174999,0.24600422382354736,0.03411737456917763,9.783905029296875,-5.767822265625,-2.50244140625,-7.4462890625
0.5224999,0.24779987335205078,0.2669534981250763,10.027515411376953,3.204345703125,-2.349853515625,7.50732421875
0.5274999,0.3705027103424072,-0.27054479718208313,9.703699111938477,-12.939453125,-3.173828125,-4.669189453125
0.5324999,0.4100070297718048,-0.23762452602386475,9.982025146484375,11.932373046875,-1.556396484375,3.631591796875
0.5374999,0.5961562395095825,-0.6200982332229614,9.604340553283691,-14.739990234375,-1.129150390625,-1.251220703125
0.5424999,0.6015431880950928,-0.6661866307258606,9.871294021606445,16.998291015625,-0.518798828125,-1.495361328125
0.5474999,0.6799532771110535,-0.6344634294509888,9.622296333312988,-12.725830078125,1.15966796875,2.8076171875
0.5524999,0.6129156351089478,-0.36990416049957275,9.82640266418457,-8.392333984375,2.74658203125,6.317138671875
0.5574999,0.608127236366272,-0.42018240690231323,9.732429504394531,5.9814453125,1.068115234375,-7.99560546875
0.5624999,0.4836287498474121,-0.06584054976701736,9.959878921508789,-0.762939453125,2.960205078125,7.476806640625
0.5674999000000001,0.48482584953308105,-0.33937808871269226,9.690531730651855,-4.974365234375,0.18310546875,-7.14111328125
0.5724999000000001,0.35673606395721436,-0.07841010391712189,9.94970417022705,7.080078125,0.8544921875,5.889892578125
0.5774999000000001,0.3902548849582672,-0.43933600187301636,9.667187690734863,-13.214111328125,-0.885009765625,-3.875732421875
0.5824999,0.30885201692581177,-0.36152446269989014,9.909002304077148,14.007568359375,-1.46484375,1.03759765625
0.5874999,0.36092591285705566,-0.49380409717559814,9.650428771972656,-14.801025390625,-1.190185546875,1.129150390625
0.5924999,0.38726213574409485,-0.5614402890205383,9.858125686645508,14.34326171875,-2.25830078125,-4.33349609375
0.5974999,0.4279635548591614,-0.4124012291431427,9.728240013122559,-10.498046875,-0.3662109375,5.462646484375
0.6024999,0.5237316489219666,-0.5704185366630554,9.73781681060791,7.75146484375,-1.739501953125,-7.415771484375
0.6074999,0.50876784324646,-0.25677812099456787,9.876680374145508,-1.15966796875,0.91552734375,7.476806640625
0.6124999,0.4231751561164856,-0.28311434388160706,9.834183692932129,-8.453369140625,0.6103515625,6.317138671875
0.6174999,0.4339490532875061,-0.4866214990615845,9.711481094360352,3.631591796875,-1.5869140625,-7.904052734375
0.6224999,0.3842693865299225,-0.2519897222518921,9.940725326538086,2.44140625,0.54931640625,6.866455078125
0.6274999,0.45848962664604187,-0.5931634902954102,9.667786598205566,-7.843017578125,-1.190185546875,-5.67626953125
0.6324999,0.436343252658844,-0.3208230137825012,9.95209789276123,11.810302734375,0.18310546875,3.2958984375
0.6374999,0.5315127968788147,-0.5285200476646423,9.658807754516602,-14.434814453125,-0.091552734375,-0.396728515625
0.6424999,0.5213374495506287,-0.3842693865299225,9.906607627868652,13.73291015625,-0.1220703125,-2.685546875
0.6474999,0.536899745464325,-0.4345476031303406,9.740809440612793,7.14111328125,-0.6103515625,-7.049560546875
0.6524999,0.4513070285320282,-0.22086510062217712,9.86111831665039,-0.885009765625,1.373291015625,7.14111328125
0.6574999,0.5183446407318115,-0.5009866952896118,9.659406661987305,-4.638671875,-0.640869140625,-6.378173828125
0.6624999,0.4321534037590027,-0.24181437492370605,9.949105262756348,10.009765625,0.67138671875,4.150390625
0.6674999,0.518943190574646,-0.4728548228740692,9.642647743225098,-13.153076171875,-0.3662109375,-1.739501953125
0.6724999,0.4878185987472534,-0.363918662071228,9.905410766601562,13.916015625,-0.54931640625,-2.01416015625
0.6774999,0.49978959560394287,-0.3387795388698578,9.72285270690918,-12.054443359375,0.3662109375,4.302978515625
0.6824999,0.5171475410461426,-0.4291606545448303,9.767744064331055,7.537841796875,-0.91552734375,-6.591796875
0.6874999,0.4465186297893524,-0.22445641458034515,9.90361499786377,-1.77001953125,0.54931640625,7.080078125
0.6924999000000001,0.5225345492362976,-0.5069721937179565,9.704896926879883,-4.608154296875,-1.0986328125,-6.561279296875
0.6974999000000001,0.45190557837486267,-0.2645592987537384,9.979631423950195,9.82666015625,0.30517578125,3.662109375
0.7024999000000001,0.5404910445213318,-0.4950011968612671,9.666589736938477,-13.12255859375,-0.335693359375,-1.40380859375
0.7074999,0.518943190574646,-0.3579331636428833,9.714473724365234,-10.589599609375,0.9765625,4.7607421875
0.7124999,0.5249287486076355,-0.45190557837486267,9.701305389404297,5.9814453125,-0.6103515625,-6.9580078125
0.7174999,0.45190557837486267,-0.2406172752380371,9.845556259155273,0.48828125,1.068115234375,6.65283203125
0.7224999,0.4513070285320282,-0.4411316514015198,9.655217170715332,-10.25390625,-0.457763671875,-3.753662109375
0.7274999,0.4291606545448303,-0.28790274262428284,9.936535835266113,12.603759765625,0.244140625,-0.06103515625
0.7324999,0.4878185987472534,-0.4387374520301819,9.816825866699219,8.544921875,-1.068115234375,-6.011962890625
0.7374999,0.43514615297317505,-0.2944868206977844,9.909601211547852,-2.25830078125,1.007080078125,6.439208984375
0.7424999,0.5237316489219666,-0.5542576909065247,9.713275909423828,-4.486083984375,-0.79345703125,-6.103515625
0.7474999,0.4513070285320282,-0.3411737382411957,9.970054626464844,10.07080078125,0.48828125,3.021240234375
0.7524999,0.524330198764801,-0.4908113479614258,9.679159164428711,-12.542724609375,-0.091552734375,-0.06103515625
0.7574999,0.5057750940322876,-0.42616790533065796,9.837176322937012,11.90185546875,-0.18310546875,-3.72314453125
0.7624999,0.4794389009475708,-0.3190273642539978,9.762357711791992,-7.50732421875,0.579833984375,5.584716796875
0.7674999,0.49320554733276367,-0.50876784324646,9.68574333190918,1.068115234375,-0.946044921875,-6.866455078125
0.7724999,0.4357447028160095,-0.29628247022628784,9.889249801635742,5.67626953125,0.732421875,5.126953125
0.7774999,0.4878185987472534,-0.5033808946609497,9.617507934570312,-10.589599609375,-0.6103515625,-2.899169921875
0.7824999,0.47584760189056396,-0.3992331326007843,9.8784761428833,12.725830078125,-0.213623046875,-1.312255859375
0.7874999,0.50876784324646,-0.37648820877075195,9.719860076904297,-10.833740234375,0.42724609375,4.058837890625
0.7924999,0.4692635238170624,-0.27712884545326233,9.911396026611328,1.495361328125,0.885009765625,6.011962890625
0.7974999,0.5069721937179565,-0.47644615173339844,9.707290649414062,-7.99560546875,-0.42724609375,-4.669189453125
0.8024999,0.4411316514015198,-0.31364041566848755,9.955090522766113,11.8408203125,0.518798828125,0.762939453125
0.8074999,0.47584760189056396,-0.365115761756897,9.789292335510254,-11.993408203125,0.30517578125,2.471923828125
0.8124999,0.4554968774318695,-0.43694180250167847,9.821015357971191,8.4228515625,-0.54931640625,-5.584716796875
0.8174999000000001,0.406415730714798,-0.26575639843940735,9.888052940368652,-2.44140625,0.640869140625,6.103515625
0.8224999000000001,0.4991910457611084,-0.5285200476646423,9.671976089477539,-5.218505859375,-0.91552734375,-5.584716796875
0.8274999000000001,0.4429273009300232,-0.34656068682670593,9.908403396606445,10.55908203125,0.244140625,2.0751953125
0.8324999000000001,0.5207388401031494,-0.4572925269603729,9.665990829467773,-12.5732421875,0.06103515625,0.885009765625
0.8374999,0.5147533416748047,-0.45908817648887634,9.767146110534668,9.857177734375,-0.274658203125,-4.7607421875
0.8424999,0.4704606235027313,-0.2867056429386139,9.801861763000488,-4.058837890625,0.946044921875,6.134033203125
0.8474999,0.5297171473503113,-0.5165489912033081,9.677961349487305,-2.899169921875,-0.48828125,-5.9814453125
0.8524999,0.5063736438751221,-0.4572925269603729,9.682151794433594,-11.8408203125,-0.1220703125,0
0.8574999,0.49559974670410156,-0.4106055796146393,9.806650161743164,10.589599609375,0.091552734375,-4.180908203125
0.8624999,0.4602852761745453,-0.292691171169281,9.774927139282227,-5.340576171875,0.91552734375,5.889892578125
0.8674999,0.5267243981361389,-0.49799394607543945,9.699509620666504,-1.922607421875,-0.6103515625,-6.103515625
0.8724999,0.4405331015586853,-0.2795230448246002,9.945513725280762,8.1787109375,0.79345703125,3.448486328125
0.8774999,0.49380409717559814,-0.4291606545448303,9.706692695617676,-11.871337890625,-0.518798828125,-0.48828125
0.8824999,0.4686649739742279,-0.3603273630142212,9.833584785461426,11.016845703125,-0.48828125,-3.753662109375
0.8874999,0.4411316514015198,-0.2890998423099518,9.767744064331055,-5.4931640625,0.518798828125,5.615234375
0.8924999,0.5117605924606323,-0.4985924959182739,9.686341285705566,-1.556396484375,-1.46484375,-6.256103515625
0.8974999,0.4279635548591614,-0.32022446393966675,9.909601211547852,6.622314453125,-0.30517578125,3.875732421875
0.9024999,0.4884171485900879,-0.47405192255973816,9.692925453186035,-12.054443359375,-0.67138671875,0.1220703125
0.9074999,0.45489832758903503,-0.4159925580024719,9.850942611694336,11.932373046875,-0.213623046875,-3.082275390625
0.9124999,0.5063736438751221,-0.5015852451324463,9.75637149810791,-1.617431640625,-0.3662109375,-6.988525390625
0.9174999,0.45250412821769714,-0.2537853717803955,9.967061996459961,8.087158203125,1.220703125,2.5634765625
0.9224999,0.5219359993934631,-0.4106055796146393,9.704896926879883,-12.054443359375,0.06103515625,0.213623046875
0.9274999,0.790086567401886,-0.47165772318840027,9.910199165344238,10.284423828125,0.42724609375,-3.2958984375
0.9324999,1.1073182821273804,-0.7978677153587341,9.854534149169922,23.62060546875,37.872314453125,6.500244140625
0.9374999,2.0159177780151367,-1.2779051065444946,9.971251487731934,59.63134765625,53.985595703125,-13.458251953125
0.9424999000000001,2.9047651290893555,-1.902193307876587,10.621875762939453,68.9697265625,55.633544921875,-34.36279296875
0.9474999000000001,4.012083530426025,-2.212841033935547,10.684124946594238,72.57080078125,113.067626953125,-35.5224609375
0.9524999000000001,4.769848346710205,-2.036268472671509,11.320982933044434,119.171142578125,124.3896484375,-53.28369140625
0.9574999000000001,5.154117584228516,-1.216254472732544,11.74056625366211,130.706787109375,113.250732421875,-95.062255859375
0.9624999,5.067926406860352,-0.18614917993545532,11.923723220825195,138.824462890625,101.4404296875,-147.674560546875
0.9674999,4.043806552886963,1.235408067703247,11.37904167175293,117.85888671875,60.6689453125,-169.464111328125
0.9724999,1.1432312726974487,2.806602954864502,7.5632829666137695,-22.8271484375,-106.658935546875,-160.003662109375
0.9774999,-0.21009120345115662,3.3734302520751953,4.873397350311279,-80.657958984375,-133.148193359375,-128.35693359375
0.9824999,-0.9457096457481384,2.937685489654541,2.6569652557373047,-113.006591796875,-149.4140625,-107.60498046875
0.9874999,-1.3066356182098389,2.826953649520874,1.3527239561080933,-125,-161.80419921875,-71.59423828125
0.9924999,-1.182137131690979,2.3026235103607178,0.6590040326118469,-159.60693359375,-157.65380859375,-42.022705078125
0.9974999,-1.314416766166687,1.9913772344589233,1.5604209899902344,-157.5927734375,-118.255615234375,-25.45166015625
1.0024999,-1.314416766166687,1.9913772344589233,1.5604209899902344,-157.5927734375,-118.255615234375,-25.45166015625
1.0074999000000002,-1.5412673950195312,1.7166426181793213,4.276642799377441,-162.506103515625,-13.397216796875,2.5634765625
1.0124999000000001,-1.6316484212875366,0.05626374110579491,8.22887134552002,-70.73974609375,165.8935546875,12.847900390625
1.0174999000000002,-2.1565771102905273,-1.6801310777664185,12.871827125549316,57.586669921875,141.357421875,1.617431640625
1.0224999000000001,-2.3552958965301514,-3.6762967109680176,15.296554565429688,-11.77978515625,54.26025390625,-1.495361328125
1.0274999,-2.6856956481933594,-5.070919036865234,15.32348918914795,-28.74755859375,25.45166015625,-9.674072265625
1.0324999000000001,2.115875720977783,-0.7122750282287598,12.557587623596191,8.758544921875,-24.993896484375,4.33349609375
1.0374999,1.9279309511184692,0.3818751573562622,10.752958297729492,17.303466796875,-15.07568359375,2.960205078125
1.0424999000000001,2.0715830326080322,0.5506663918495178,9.254786491394043,-14.251708984375,9.490966796875,4.547119140625
1.0474999,2.0715830326080322,0.5506663918495178,9.254786491394043,-14.251708984375,9.490966796875,4.547119140625
1.0524999000000002,1.8854337930679321,0.043095629662275314,9.922768592834473,5.4931640625,14.007568359375,4.913330078125
1.0574999,1.544858694076538,-0.5650315880775452,9.912593841552734,-12.51220703125,16.29638671875,5.401611328125
1.0624999000000002,1.1186907291412354,-1.2114660739898682,9.855133056640625,0.579833984375,14.6484375,-5.615234375
1.0674999,0.5859808921813965,-1.2066776752471924,9.731831550598145,7.6904296875,16.2353515625,1.953125
1.0724999000000002,0.2885012924671173,-1.4215573072433472,9.504382133483887,-4.852294921875,10.1318359375,-1.89208984375
1.0774999,-0.015562310814857483,-1.2312182188034058,9.682151794433594,15.045166015625,7.965087890625,-3.11279296875
1.0824999000000002,-0.16759411990642548,-0.8325836658477783,9.812037467956543,0.244140625,3.35693359375,5.096435546875
1.0874999,-0.15143325924873352,-0.7625532150268555,9.890447616577148,0.640869140625,-1.953125,-5.523681640625
1.0924999000000002,-0.15801730751991272,-0.2017114907503128,10.146028518676758,10.040283203125,-1.5869140625,0.762939453125
1.0974999,0.03292027488350868,-0.058059390634298325,9.95748519897461,-11.5966796875,-5.0048828125,1.15966796875
1.1024999000000002,0.19213469326496124,0.0347159244120121,9.998186111450195,3.753662109375,-6.28662109375,-4.7607421875
1.1074999,0.9217676520347595,-0.7541735172271729,9.61212158203125,-8.48388671875,1.678466796875,-0.79345703125
1.1124999000000002,0.801459014415741,-0.6392518281936646,9.733028411865234,10.406494140625,2.8076171875,-4.21142578125
1.1174999,0.6961141228675842,-0.36810851097106934,9.75936508178711,-1.28173828125,4.0283203125,5.2490234375
1.1224999000000002,0.5321113467216492,-0.2651578485965729,9.9401273727417,9.552001953125,3.173828125,0.48828125
1.1274999,0.5321113467216492,-0.2651578485965729,9.9401273727417,9.552001953125,3.173828125,0.48828125
1.1324999000000002,0.52552729845047,-0.27653029561042786,9.845556259155273,-10.43701171875,1.15966796875,3.173828125
1.1374999000000001,0.45010992884635925,-0.4554968774318695,9.858125686645508,2.74658203125,-0.701904296875,-5.37109375
1.1424999000000002,0.43095630407333374,-0.5057750940322876,9.679159164428711,-10.07080078125,-2.166748046875,-1.190185546875
1.1474999000000001,0.43754035234451294,-0.5183446407318115,9.783905029296875,9.979248046875,-1.129150390625,-3.0517578125
1.1524999000000002,0.48901569843292236,-0.3992331326007843,9.738415718078613,-3.662109375,-0.518798828125,4.669189453125
1.1574999000000001,0.619499683380127,-0.6715735793113708,9.689932823181152,-2.838134765625,-2.655029296875,-4.8828125
1.1624999,0.5973533391952515,-0.42856210470199585,9.882067680358887,9.82666015625,0.67138671875,1.129150390625
1.1674999000000001,0.6997054219245911,-0.46986207365989685,9.736021041870117,-9.58251953125,-0.48828125,2.410888671875
1.1724999,0.6613982319831848,-0.49619829654693604,9.795876502990723,5.218505859375,-0.48828125,-5.06591796875
1.1774999000000002,0.6494272351264954,-0.22086510062217712,9.82999324798584,2.44140625,2.13623046875,4.547119140625
1.1824999,0.667982280254364,-0.38905778527259827,9.652822494506836,-9.002685546875,-0.30517578125,-1.922607421875
1.1874999000000002,0.6368576288223267,-0.3292027413845062,9.80904483795166,9.8876953125,1.40380859375,-2.471923828125
1.1924999,0.6218938827514648,-0.2621650993824005,9.757569313049316,-5.615234375,1.46484375,4.730224609375
1.1974999000000002,0.6470330357551575,-0.5668272376060486,9.73661994934082,-2.593994140625,-1.251220703125,-4.791259765625
1.2024999,0.5835866928100586,-0.48901569843292236,9.668983459472656,-8.60595703125,-1.40380859375,-1.953125
1.2074999000000002,0.5907692909240723,-0.3908534348011017,9.82759952545166,9.979248046875,0.3662109375,-2.227783203125
1.2124999,0.6189011335372925,-0.2867056429386139,9.785101890563965,-5.37109375,0.8544921875,4.669189453125
1.2174999000000002,0.6829460263252258,-0.547075092792511,9.774328231811523,-2.5634765625,-1.251220703125,-4.8828125
1.2224999,0.5973533391952515,-0.3645172119140625,9.97065258026123,8.9111328125,1.46484375,1.40380859375
1.2274999000000002,0.6434416770935059,-0.4537012279033661,9.806051254272461,-9.674072265625,-0.274658203125,2.13623046875
1.2324999,0.5722141861915588,-0.5662286877632141,9.857526779174805,4.974365234375,-0.91552734375,-5.126953125
1.2374999000000002,0.5452794432640076,-0.3082534670829773,9.86351203918457,3.0517578125,1.46484375,4.33349609375
1.2424999,0.5716156363487244,-0.48063600063323975,9.67077922821045,-8.6669921875,-1.312255859375,-1.708984375
1.2474999000000002,0.5841852426528931,-0.29209262132644653,9.770736694335938,-4.425048828125,0.823974609375,4.852294921875
1.2524999,0.6649895310401917,-0.569819986820221,9.746196746826172,-3.60107421875,-1.40380859375,-4.57763671875
1.2574999000000002,0.5925649404525757,-0.38965633511543274,9.93474006652832,9.185791015625,1.373291015625,1.068115234375
1.2624999000000001,0.645237386226654,-0.4513070285320282,9.821614265441895,-9.490966796875,0.1220703125,2.685546875
1.2674999000000002,0.6003460884094238,-0.5883750915527344,9.840767860412598,3.72314453125,-0.67138671875,-5.37109375
1.2724999000000001,0.557250440120697,-0.3321954905986786,9.864110946655273,4.33349609375,1.64794921875,3.875732421875
1.2774999000000002,0.5758054852485657,-0.4866214990615845,9.674968719482422,-9.674072265625,-0.823974609375,-0.823974609375
1.2824999000000001,0.558447539806366,-0.4554968774318695,9.763554573059082,9.033203125,0.335693359375,-3.5400390625
1.2874999,0.5596446394920349,-0.3034650683403015,9.749189376831055,-2.044677734375,1.0986328125,4.82177734375
1.2924999000000001,0.6374561786651611,-0.5183446407318115,9.68274974822998,-5.18798828125,-1.28173828125,-3.84521484375
1.2974999,0.5883750915527344,-0.39145198464393616,9.880870819091797,9.765625,0.79345703125,-0.1220703125
1.3024999000000002,0.5560533404350281,-0.31543606519699097,9.88386344909668,6.256103515625,1.28173828125,2.9296875
1.3074999,0.5961562395095825,-0.45250412821769714,9.727641105651855,-10.223388671875,-1.068115234375,0.42724609375
1.3124999000000002,0.5500678420066833,-0.5057750940322876,9.786897659301758,7.2021484375,-0.396728515625,-4.241943359375
1.3174999,0.545877993106842,-0.28790274262428284,9.798270225524902,0.48828125,1.220703125,4.608154296875
1.3224999000000002,0.608127236366272,-0.5410895943641663,9.65222454071045,-7.659912109375,-1.190185546875,-2.838134765625
1.3274999,0.6015431880950928,-0.4405331015586853,9.835380554199219,10.162353515625,0.823974609375,-1.64794921875
1.3324999000000002,0.619499683380127,-0.3776853084564209,9.744400978088379,-5.767822265625,0.79345703125,3.96728515625
1.3374999,0.6530185341835022,-0.608127236366272,9.73781681060791,-2.197265625,-1.0986328125,-4.974365234375
1.3424999000000002,0.5716156363487244,-0.38486793637275696,9.892841339111328,8.819580078125,1.40380859375,1.64794921875
1.3474999,0.606930136680603,-0.44771572947502136,9.769539833068848,-9.46044921875,-0.06103515625,1.953125
1.3524999000000002,0.5638344883918762,-0.5536591410636902,9.829395294189453,4.21142578125,-0.42724609375,-4.852294921875
1.3574999,0.5488707423210144,-0.4465186297893524,9.786897659301758,9.124755859375,-0.1220703125,-2.86865234375
1.3624999000000002,0.5614402890205383,-0.304063618183136,9.749189376831055,-2.25830078125,1.129150390625,4.57763671875
1.3674999,0.6141127347946167,-0.524330198764801,9.683348655700684,-5.92041015625,-1.617431640625,-3.7841796875
1.3724999000000002,0.578798234462738,-0.36152446269989014,9.891045570373535,9.70458984375,0.701904296875,-0.213623046875
1.3774999,0.6135141849517822,-0.3489548861980438,9.797073364257812,-7.598876953125,0.244140625,3.35693359375
1.3824999000000002,0.6404489278793335,-0.5602431893348694,9.818621635437012,0.3662109375,-1.3427734375,-4.913330078125
1.3874999000000001,0.578798234462738,-0.31184476613998413,9.906607627868652,7.38525390625,1.0986328125,2.685546875
1.3924999000000002,0.595557689666748,-0.436343252658844,9.725846290588379,-10.223388671875,-0.732421875,0.91552734375
1.3974999000000001,0.5554547905921936,-0.5147533416748047,9.79288387298584,5.889892578125,-0.6103515625,-4.486083984375
1.4024999000000002,0.5309142470359802,-0.2932897210121155,9.798869132995605,2.38037109375,1.190185546875,4.2724609375
1.4074999000000001,0.5883750915527344,-0.5201402902603149,9.646238327026367,-8.6669921875,-1.220703125,-1.983642578125
1.4124999,0.6045359373092651,-0.41539400815963745,9.920374870300293,9.613037109375,1.5869140625,0.18310546875
1.4174999000000001,0.6488286852836609,-0.4106055796146393,9.822811126708984,-8.11767578125,0.274658203125,3.23486328125
1.4224999,0.6470330357551575,-0.5913678407669067,9.818022727966309,1.3427734375,-1.28173828125,-4.8828125
1.4274999000000002,0.10474632680416107,-0.4836287498474121,9.080010414123535,6.77490234375,1.46484375,2.9296875
1.4324999,0.21188685297966003,-0.8798691034317017,7.727285861968994,-127.9296875,5.67626953125,111.2060546875
1.4374999000000002,-0.6009446382522583,-0.8583213090896606,6.029797077178955,98.6328125,5.523681640625,148.92578125
1.4424999,-0.8301894664764404,-3.7942111492156982,4.296993732452393,114.6240234375,-8.636474609375,-60.302734375
1.4474999000000002,-0.3387795388698578,-4.70879602432251,6.491279125213623,69.793701171875,-0.79345703125,11.199951171875
1.4524999,0.23343466222286224,-5.7772088050842285,6.254851818084717,158.3251953125,9.429931640625,21.820068359375
1.4574999000000002,0.9301473498344421,-1.1408370733261108,6.30094051361084,95.39794921875,13.519287109375,97.625732421875
1.4624999,0.7727286219596863,2.011728048324585,5.950189590454102,96.435546875,0.030517578125,48.065185546875
1.4674999000000002,-0.18974047899246216,3.158550500869751,4.96856689453125,142.76123046875,-20.81298828125,36.712646484375
1.4724999,-0.03890577703714371,4.122815132141113,6.162076473236084,79.254150390625,-25.665283203125,50.506591796875
1.4774999000000002,-0.40222588181495667,4.4939165115356445,6.259640216827393,64.727783203125,-38.482666015625,50.47607421875
1.4824999,0.016160860657691956,5.365406036376953,6.829460144042969,-62.255859375,-60.48583984375,51.8798828125
1.4874999000000002,0.07481880486011505,5.941810131072998,5.996278285980225,-52.703857421875,-86.85302734375,9.490966796875
1.4924999,0.005386953707784414,6.253056526184082,5.12000036239624,-23.01025390625,-78.4912109375,7.14111328125
1.4974999000000002,0.3429693877696991,5.916072368621826,4.1880574226379395,-72.296142578125,-54.901123046875,7.62939453125
1.5024999,0.7703344225883484,5.270236492156982,4.296993732452393,-85.51025390625,-24.566650390625,11.749267578125
1.5074999000000002,1.5783774852752686,4.508880138397217,4.719570159912109,-153.4423828125,-13.641357421875,31.06689453125
1.5124999000000001,2.3535003662109375,3.802590847015381,5.696404457092285,-154.47998046875,5.859375,36.62109375
1.5174999000000002,4.326322555541992,1.8824410438537598,9.354744911193848,-126.15966796875,80.963134765625,44.3115234375
1.5224999000000001,-2.3331496715545654,-4.095282077789307,5.218760967254639,32.77587890625,25.32958984375,-30.303955078125
1.5274999000000002,-2.585737943649292,-3.3740286827087402,6.186617374420166,57.464599609375,15.472412109375,-12.603759765625
1.5324999000000001,-2.189497470855713,-3.163937568664551,7.800907611846924,32.928466796875,2.349853515625,-9.002685546875
1.5374999000000003,-1.7202339172363281,-2.319981336593628,10.096946716308594,51.7578125,-8.392333984375,1.495361328125
1.5424999000000001,0.2454056739807129,2.203263998031616,11.179126739501953,4.39453125,-23.25439453125,-10.894775390625
1.5474999,0.6063315868377686,2.607884168624878,10.44470500946045,-23.62060546875,-17.15087890625,5.55419921875
1.5524999000000002,0.6063315868377686,2.607884168624878,10.44470500946045,-23.62060546875,-17.15087890625,5.55419921875
1.5574999,1.0235211849212646,2.2607250213623047,9.880271911621094,-6.744384765625,-12.63427734375,-4.180908203125
1.5624999000000002,1.2886791229248047,1.6711528301239014,9.667786598205566,-17.27294921875,-6.04248046875,13.458251953125
1.5674999,1.512536883354187,0.4668693244457245,9.429563522338867,-10.223388671875,-4.638671875,-2.3193359375
1.5724999000000002,1.5436615943908691,-0.3597288131713867,9.587580680847168,-2.349853515625,1.77001953125,9.185791015625
1.5774999,1.521515130996704,-1.423951506614685,9.383475303649902,-8.97216796875,1.739501953125,-6.683349609375
1.5824999000000002,1.314416766166687,-1.7334020137786865,9.613917350769043,13.946533203125,7.965087890625,1.52587890625
1.5874999,1.2054805755615234,-1.9776105880737305,9.285911560058594,-7.38525390625,6.744384765625,-6.103515625
1.5924999000000002,0.36571431159973145,0.12090718746185303,10.011354446411133,7.476806640625,2.349853515625,-7.476806640625
1.5974999,0.1975216418504715,0.4315548539161682,10.020332336425781,-7.720947265625,3.47900390625,8.056640625
1.6024999000000002,0.2513911724090576,-0.4686649739742279,9.995792388916016,12.054443359375,-2.410888671875,3.753662109375
1.6074999,0.456095427274704,-0.7876923680305481,9.61212158203125,-13.031005859375,-4.5166015625,-0.823974609375
1.6124999000000002,0.5165489912033081,-0.7637503147125244,9.87967300415039,16.876220703125,-2.777099609375,-1.556396484375
1.6174999,0.6368576288223267,-0.5979518890380859,9.61451530456543,-12.0849609375,-1.678466796875,3.47900390625
1.6224999000000002,0.7541735172271729,-0.2256535142660141,9.794678688049316,-6.9580078125,1.3427734375,6.34765625
1.6274999,0.7829039692878723,-0.36332011222839355,9.709086418151855,2.166748046875,-1.129150390625,-8.087158203125
1.6324999000000002,0.7667431235313416,-0.013168109580874443,9.921571731567383,1.373291015625,3.753662109375,7.110595703125
1.6374999000000001,0.7697358727455139,-0.37648820877075195,9.68933391571045,-8.514404296875,0.274658203125,-5.4931640625
1.6424999000000002,0.6775590777397156,-0.1777694821357727,9.979032516479492,10.43701171875,3.11279296875,3.662109375
1.6474999000000001,0.6667851805686951,-0.47884035110473633,9.648633003234863,-14.373779296875,0.457763671875,-0.885009765625
1.6524999000000002,0.5644330382347107,-0.49799394607543945,9.938929557800293,14.923095703125,0.6103515625,-2.288818359375
1.6574999000000001,0.5093663930892944,-0.4794389009475708,9.67077922821045,-12.420654296875,0.518798828125,3.814697265625
1.6624999000000003,0.48961424827575684,-0.6362590789794922,9.77791976928711,10.55908203125,-2.227783203125,-6.9580078125
1.6674999000000001,0.4537012279033661,-0.3878606855869293,9.786897659301758,-4.08935546875,0.6103515625,6.561279296875
1.6724999,0.4692635238170624,-0.629675030708313,9.68574333190918,0.1220703125,-3.143310546875,-7.720947265625
1.6774999000000002,0.46746787428855896,-0.2717418968677521,9.922768592834473,6.072998046875,1.007080078125,5.9814453125
1.6824999,0.6530185341835022,-0.3363853394985199,9.68694019317627,-15.13671875,-0.152587890625,1.64794921875
1.6874999000000002,0.6530185341835022,-0.3363853394985199,9.68694019317627,-15.13671875,-0.152587890625,1.64794921875
1.6924999,0.6602011322975159,-0.3561375141143799,9.891045570373535,12.054443359375,-0.3662109375,-4.669189453125
1.6974999000000002,0.6446388363838196,-0.27234044671058655,9.762357711791992,-9.21630859375,1.953125,6.134033203125
1.7024999,0.6326677799224854,-0.5183446407318115,9.708487510681152,3.90625,-1.129150390625,-7.415771484375
1.7074999000000002,0.5835866928100586,-0.2998737692832947,9.880870819091797,2.50244140625,2.716064453125,6.683349609375
1.7124999,0.618302583694458,-0.6619967818260193,9.642048835754395,-7.4462890625,-1.28173828125,-5.218505859375
1.7174999000000002,0.569819986820221,-0.39863458275794983,9.915586471557617,12.3291015625,2.105712890625,2.5634765625
1.7224999,0.6230909824371338,-0.585382342338562,9.622296333312988,-14.068603515625,-0.06103515625,0.335693359375
1.7274999000000002,0.5973533391952515,-0.44592007994651794,9.905410766601562,13.671875,0.30517578125,-3.84521484375
1.7324999,0.5656301379203796,-0.35075053572654724,9.767146110534668,-10.498046875,1.28173828125,5.584716796875
1.7374999000000002,0.5596446394920349,-0.4537012279033661,9.784503936767578,4.8828125,-1.77001953125,-6.988525390625
1.7424999,0.5638344883918762,-0.5351040959358215,9.693524360656738,-6.9580078125,-1.983642578125,-5.218505859375
1.7474999000000002,0.518943190574646,-0.3447650372982025,9.931148529052734,11.23046875,1.373291015625,2.62451171875
1.7524999,0.5728127360343933,-0.5045779943466187,9.649829864501953,-13.397216796875,-0.67138671875,0.091552734375
1.7574999000000002,0.5440823435783386,-0.4812345504760742,9.874286651611328,13.031005859375,-0.42724609375,-4.0283203125
1.7624999000000001,0.5207388401031494,-0.353743314743042,9.757569313049316,-8.819580078125,1.129150390625,5.55419921875
1.7674999000000002,0.49799394607543945,-0.5315127968788147,9.725247383117676,4.0283203125,-1.800537109375,-7.171630859375
1.7724999000000001,0.4794389009475708,-0.26096799969673157,9.903017044067383,2.655029296875,1.678466796875,6.195068359375
1.7774999000000002,0.52552729845047,-0.5207388401031494,9.653421401977539,-8.575439453125,-1.922607421875,-4.82177734375
1.7824999000000001,0.5171475410461426,-0.31364041566848755,9.913790702819824,12.115478515625,0.67138671875,0.9765625
1.7874999000000003,0.5991489887237549,-0.39145198464393616,9.6618013381958,-13.61083984375,-0.42724609375,1.46484375
1.7924999000000001,0.6057330369949341,-0.4255693554878235,9.801861763000488,11.077880859375,-1.40380859375,-5.06591796875
1.7974999,0.5931634902954102,-0.26994624733924866,9.742006301879883,-6.439208984375,0.701904296875,6.256103515625
1.8024999000000002,0.6260837316513062,-0.42018240690231323,9.677363395690918,-11.65771484375,0.91552734375,3.753662109375
1.8074999,0.639850378036499,-0.5027823448181152,9.816825866699219,7.4462890625,-0.640869140625,-6.40869140625
1.8124999000000002,0.585382342338562,-0.30885201692581177,9.892841339111328,-1.068115234375,2.471923828125,6.40869140625
1.8174999,0.6344634294509888,-0.5309142470359802,9.729436874389648,-5.523681640625,-0.79345703125,-5.67626953125
1.8224999000000002,0.5506663918495178,-0.32022446393966675,9.970054626464844,10.589599609375,2.0751953125,2.44140625
1.8274999,0.5752069354057312,-0.43035775423049927,9.660603523254395,-12.542724609375,0.152587890625,0.8544921875
1.8324999000000002,0.5374982953071594,-0.4106055796146393,9.832387924194336,11.566162109375,-0.213623046875,-4.302978515625
1.8374999,0.4991910457611084,-0.2861070930957794,9.717466354370117,-6.622314453125,1.678466796875,5.92041015625
1.8424999000000002,0.52552729845047,-0.497395396232605,9.706692695617676,0.48828125,-1.922607421875,-6.65283203125
1.8474999,0.4800374507904053,-0.2717418968677521,9.909002304077148,6.500244140625,1.373291015625,4.730224609375
1.8524999000000002,0.5410895943641663,-0.46627077460289,9.652822494506836,-11.322021484375,-1.617431640625,-2.13623046875
1.8574999,0.5428852438926697,-0.3693056106567383,9.937732696533203,12.39013671875,-0.091552734375,-1.800537109375
1.8624999000000002,0.5781996846199036,-0.30526071786880493,9.732429504394531,-10.711669921875,0.091552734375,4.547119140625
1.8674999,0.5847837924957275,-0.49320554733276367,9.785700798034668,4.852294921875,-1.953125,-6.65283203125
1.8724999000000002,0.5847837924957275,-0.24779987335205078,9.904812812805176,1.89208984375,1.3427734375,5.889892578125
1.8774999,0.6302735805511475,-0.5267243981361389,9.667187690734863,-8.331298828125,-1.983642578125,-4.119873046875
1.8824999000000002,0.6003460884094238,-0.36750996112823486,9.943717956542969,12.02392578125,0.518798828125,0.3662109375
1.8874999000000001,0.6488286852836609,-0.43993455171585083,9.727043151855469,-11.810302734375,0.213623046875,2.5634765625
1.8924999000000002,0.6338648796081543,-0.5135562419891357,9.830592155456543,8.36181640625,-0.732421875,-6.011962890625
1.8974999000000001,0.5859808921813965,-0.3232172429561615,9.854534149169922,-1.77001953125,2.105712890625,6.2255859375
1.9024999000000002,0.646434485912323,-0.5638344883918762,9.695320129394531,-4.913330078125,-1.007080078125,-5.43212890625
1.9074999000000001,0.5704185366630554,-0.35434186458587646,9.935338973999023,10.55908203125,1.861572265625,1.861572265625
1.9124999000000003,0.5452794432640076,-0.4339490532875061,9.822811126708984,10.25390625,-0.42724609375,-4.974365234375
1.9174999000000001,0.4842272996902466,-0.29388827085494995,9.81143856048584,-4.058837890625,1.251220703125,5.889892578125
1.9224999,0.5279214978218079,-0.4908113479614258,9.713275909423828,-2.593994140625,-2.044677734375,-5.950927734375
1.9274999000000002,0.4776432514190674,-0.3166331648826599,9.96945571899414,9.002685546875,0.946044921875,3.0517578125
1.9324999,0.5380968451499939,-0.4465186297893524,9.68274974822998,-11.749267578125,-0.823974609375,0.213623046875
1.9374999000000002,0.547075092792511,-0.42018240690231323,9.854534149169922,10.55908203125,-0.640869140625,-4.119873046875
1.9424999,0.5327098965644836,-0.32680854201316833,9.774328231811523,-5.79833984375,0.732421875,5.645751953125
1.9474999000000002,0.6033388376235962,-0.518943190574646,9.726444244384766,-1.3427734375,-2.0751953125,-6.072998046875
1.9524999,0.5542576909065247,-0.3363853394985199,9.95090103149414,7.75146484375,1.40380859375,3.5400390625
1.9574999000000002,0.6200982332229614,-0.46088382601737976,9.679757118225098,-11.627197265625,-0.54931640625,-0.457763671875
1.9624999,0.6093243360519409,-0.41539400815963745,9.846753120422363,11.077880859375,-0.18310546875,-3.60107421875
1.9674999000000002,0.5937620401382446,-0.3274070918560028,9.73542308807373,-6.378173828125,1.28173828125,5.584716796875
1.9724999,0.6380547285079956,-0.5363011956214905,9.706692695617676,-0.54931640625,-1.46484375,-6.317138671875
1.9774999000000002,0.5746083855628967,-0.3363853394985199,9.911994934082031,7.38525390625,2.13623046875,3.47900390625
1.9824999,0.6087257862091064,-0.48602294921875,9.673771858215332,-11.71875,-0.244140625,-0.48828125
1.9874999000000002,0.5764040350914001,-0.4124012291431427,9.846753120422363,11.16943359375,0.396728515625,-3.35693359375
1.9924999,0.7212532758712769,-0.46746787428855896,9.647436141967773,-6.8359375,1.434326171875,7.8125
1.9974999000000002,1.4484920501708984,-1.5029600858688354,9.031527519226074,6.622314453125,12.5732421875,23.92578125
2.0024999,2.049436569213867,-2.2170307636260986,8.561066627502441,52.490234375,21.331787109375,63.262939453125
2.0074999,2.7299885749816895,-3.715202569961548,8.176796913146973,57.647705078125,34.85107421875,44.342041015625
2.0124999000000003,2.759317398071289,-3.97257924079895,7.6297221183776855,88.714599609375,71.014404296875,16.510009765625
2.0174999000000002,2.630030632019043,-3.671508312225342,8.476072311401367,68.145751953125,83.740234375,0.3662109375
2.0224999,2.2589292526245117,-3.1214404106140137,8.724471092224121,67.535400390625,69.7021484375,-23.223876953125
2.0274999,2.02848744392395,-1.8794482946395874,9.48343276977539,67.413330078125,48.919677734375,-28.74755859375
2.0324999000000004,-1.4359225034713745,5.202001571655273,7.650073051452637,-8.575439453125,-82.21435546875,-152.83203125
2.0374999000000003,-2.587533473968506,7.036558628082275,6.693589210510254,-80.047607421875,-110.809326171875,-128.326416015625
2.0424999,-3.04602313041687,7.592612266540527,5.76942777633667,-126.800537109375,-119.842529296875,-112.945556640625
2.0474999,-3.098097085952759,7.349600791931152,5.187636375427246,-155.1513671875,-118.560791015625,-83.099365234375
2.0524999,-2.606687068939209,6.450577735900879,4.6938323974609375,-193.450927734375,-102.142333984375,-56.793212890625
2.0574999000000003,-1.9231425523757935,5.539584159851074,5.764639377593994,-141.9677734375,-42.266845703125,-29.815673828125
2.0624999,-0.9397241473197937,4.304774761199951,7.944559574127197,-37.750244140625,69.82421875,-0.91552734375
2.0674999,0.19632454216480255,2.1356279850006104,11.14620590209961,44.097900390625,104.888916015625,-1.15966796875
2.0724999,0.8672995567321777,0.27234044671058655,14.119804382324219,4.69970703125,29.47998046875,24.5361328125
2.0774999000000003,1.246780514717102,-1.9297266006469727,15.144522666931152,-55.908203125,-20.99609375,30.364990234375
2.0824999,-0.048482585698366165,-3.155557870864868,11.889006614685059,-39.9169921875,-31.005859375,22.186279296875
2.0874999,-0.7559691667556763,-3.1525650024414062,9.47146224975586,-8.9111328125,-26.702880859375,6.866455078125
2.0924999,-1.1186907291412354,-2.58813214302063,7.643488883972168,-0.30517578125,-21.759033203125,14.34326171875
2.0974999000000003,-0.8954314589500427,-2.742558002471924,6.952761650085449,2.13623046875,-32.745361328125,4.82177734375
2.1024999,-0.4387374520301819,-2.5743653774261475,7.4094557762146,31.494140625,-24.688720703125,6.7138671875
2.1074999,0.3693056106567383,-2.583343744277954,7.997830867767334,15.68603515625,-21.514892578125,6.65283203125
2.1124999,1.0749965906143188,-2.501342296600342,8.991424560546875,34.1796875,-18.524169921875,-4.33349609375
2.1174999000000003,1.600523829460144,-1.8543092012405396,9.468469619750977,24.71923828125,-10.101318359375,4.5166015625
2.1224999,1.998559832572937,-1.427542805671692,9.774328231811523,18.1884765625,-8.453369140625,-6.89697265625
2.1274999,2.0147206783294678,-0.5009866952896118,10.08078670501709,27.83203125,0.946044921875,-1.312255859375
2.1324999,2.006939649581909,0.1693897694349289,10.111311912536621,-0.244140625,4.608154296875,0.1220703125
2.1374999000000003,1.7932571172714233,0.6757634282112122,10.38844108581543,12.20703125,8.697509765625,-4.94384765625
2.1424999000000002,1.3431471586227417,0.9852139949798584,10.380660057067871,-9.735107421875,8.11767578125,-3.23486328125
2.1474999,0.9894038438796997,0.9564836025238037,10.413579940795898,-1.190185546875,11.993408203125,5.340576171875
2.1524999,0.8236053586006165,0.4231751561164856,10.019135475158691,-21.484375,7.232666015625,4.2724609375
2.1574999000000004,0.5452794432640076,-0.10833762586116791,10.029909133911133,1.007080078125,5.43212890625,-1.434326171875
2.1624999000000003,0.34356793761253357,-0.43694180250167847,9.762955665588379,-11.3525390625,5.126953125,7.62939453125
2.1674999,0.3016694188117981,-1.0857704877853394,9.682151794433594,-5.645751953125,-1.15966796875,-4.5166015625
2.1724999,0.16340427100658417,-1.1192892789840698,9.70310115814209,7.537841796875,0.3662109375,2.838134765625
2.1774999000000004,0.31364041566848755,-1.3569138050079346,9.421183586120605,-8.087158203125,-4.39453125,-0.823974609375
2.1824999000000003,0.3447650372982025,-1.349731206893921,9.544485092163086,14.7705078125,-3.509521484375,-5.06591796875
2.1874999,0.48722004890441895,-1.0570400953292847,9.438541412353516,0.335693359375,-2.3193359375,4.547119140625
2.1924999,0.7056909799575806,-1.116895079612732,9.5809965133667,4.69970703125,-6.04248046875,-6.134033203125
2.1974999,0.7583633661270142,-0.628477931022644,9.815030097961426,12.0849609375,-0.457763671875,2.9296875
2.2024999000000003,0.9762357473373413,-0.2364274114370346,9.978434562683105,11.016845703125,-0.335693359375,-3.448486328125
2.2074999,0.9900023937225342,0.0520738884806633,9.888052940368652,-6.622314453125,1.922607421875,5.828857421875
2.2124999,0.9900023937225342,0.0520738884806633,9.888052940368652,-6.622314453125,1.922607421875,5.828857421875
2.2174999,1.0330979824066162,-0.12988543510437012,9.911994934082031,-3.326416015625,-0.823974609375,-4.852294921875
2.2224999000000003,0.8930372595787048,-0.005985504016280174,10.011953353881836,5.0048828125,3.96728515625,3.662109375
2.2274999,0.9319429993629456,-0.26575639843940735,9.77013874053955,-13.641357421875,0.946044921875,1.0986328125
2.2324999,0.7966706156730652,-0.48482584953308105,9.874286651611328,7.843017578125,1.708984375,-3.2958984375
2.2374999,0.7086837291717529,-0.4812345504760742,9.677961349487305,-5.7373046875,3.11279296875,5.584716796875
2.2424999000000003,0.578798234462738,-0.7374141216278076,9.749788284301758,9.3994140625,2.471923828125,2.01416015625
2.2474999,0.578798234462738,-0.7374141216278076,9.749788284301758,9.3994140625,2.471923828125,2.01416015625
2.2524999,0.6572083830833435,-0.8343793153762817,9.568427085876465,-9.490966796875,-0.946044921875,0.518798828125
2.2574999,0.6117185354232788,-0.778714120388031,9.742605209350586,11.1083984375,-0.54931640625,-4.638671875
2.2624999000000003,0.7433996200561523,-0.6141127347946167,9.743204116821289,-2.777099609375,-2.593994140625,-4.82177734375
2.2674999000000002,0.7056909799575806,-0.36332011222839355,9.932345390319824,9.552001953125,1.40380859375,1.77001953125
2.2724999,0.8104372620582581,-0.38486793637275696,9.767146110534668,-11.383056640625,-1.0986328125,1.89208984375
2.2774999,0.7805097699165344,-0.46088382601737976,9.886856079101562,6.927490234375,-1.068115234375,-4.7607421875
2.2824999000000004,0.7649474143981934,-0.26396074891090393,9.774927139282227,-2.50244140625,1.8310546875,5.706787109375
2.2874999000000003,0.8146271109580994,-0.5267243981361389,9.707290649414062,-6.378173828125,-2.01416015625,-3.936767578125
2.2924999,0.7553706169128418,-0.4836287498474121,9.864709854125977,9.6435546875,1.800537109375,0.579833984375
2.2974999,0.7972691655158997,-0.5758054852485657,9.660603523254395,-10.25390625,-0.030517578125,2.777099609375
2.3024999000000004,0.7326257228851318,-0.7529764175415039,9.791088104248047,6.256103515625,-0.9765625,-5.79833984375
2.3074999000000003,0.702099621295929,-0.5213374495506287,9.716269493103027,2.0751953125,2.655029296875,4.852294921875
2.3124999,0.751779317855835,-0.6524199843406677,9.588777542114258,-6.805419921875,-1.556396484375,-3.0517578125
2.3174999,0.7416039705276489,-0.49380409717559814,9.849146842956543,11.810302734375,1.52587890625,-1.0986328125
2.3224999,0.7224503755569458,-0.33279404044151306,9.906009674072266,4.39453125,2.532958984375,4.180908203125
2.3274999000000003,0.7224503755569458,-0.33279404044151306,9.906009674072266,4.39453125,2.532958984375,4.180908203125
2.3324999,0.7739257216453552,-0.46986207365989685,9.731831550598145,-9.8876953125,-1.77001953125,-1.373291015625
2.3374999,0.707486629486084,-0.4752490520477295,9.853337287902832,9.796142578125,0.3662109375,-2.62451171875
2.3424999,0.6973112225532532,-0.37409400939941406,9.717466354370117,-6.7138671875,1.251220703125,5.218505859375
2.3474999000000003,0.7595604658126831,-0.6745663285255432,9.774927139282227,-1.129150390625,-1.922607421875,-5.401611328125
2.3524999,0.679354727268219,-0.5117605924606323,9.875483512878418,7.26318359375,2.13623046875,2.685546875
2.3574999,0.7589619159698486,-0.608127236366272,9.697115898132324,-10.528564453125,-1.28173828125,0.701904296875
2.3624999,0.706289529800415,-0.639850378036499,9.827000617980957,9.002685546875,-0.396728515625,-4.57763671875
2.3674999000000003,0.707486629486084,-0.41778820753097534,9.703699111938477,-1.800537109375,1.8310546875,5.096435546875
2.3724999,0.7637503147125244,-0.5931634902954102,9.695320129394531,-4.547119140625,-2.227783203125,-4.2724609375
2.3774999,0.7254431247711182,-0.4620809257030487,9.86889934539795,10.406494140625,1.89208984375,0.3662109375
2.3824999,0.7445967197418213,-0.6021417379379272,9.859322547912598,5.0048828125,-0.9765625,-5.401611328125
2.3874999000000003,0.7248445749282837,-0.36152446269989014,9.801262855529785,2.532958984375,2.13623046875,4.94384765625
2.3924999000000002,0.7781155705451965,-0.5225345492362976,9.676166534423828,-8.636474609375,-1.708984375,-2.0751953125
2.3974999,0.7535749673843384,-0.4728548228740692,9.820416450500488,10.162353515625,0.9765625,-2.166748046875
2.4024999,0.7835025191307068,-0.4076128304004669,9.660005569458008,-7.293701171875,0.9765625,4.5166015625
2.4074999000000004,0.8469488620758057,-0.6506243348121643,9.773730278015137,0.1220703125,-1.89208984375,-5.584716796875
2.4124999000000003,0.7422025203704834,-0.49140989780426025,9.815628051757812,6.65283203125,2.227783203125,2.777099609375
2.4174999,0.8080430626869202,-0.578798234462738,9.687539100646973,-10.467529296875,-1.03759765625,0.67138671875
2.4224999,0.7284358739852905,-0.5943605899810791,9.802460670471191,8.7890625,-0.274658203125,-4.302978515625
2.4274999000000004,0.7056909799575806,-0.3908534348011017,9.709685325622559,-2.197265625,1.678466796875,5.279541015625
2.4324999000000003,0.7416039705276489,-0.568622887134552,9.67077922821045,-5.126953125,-2.166748046875,-4.119873046875
2.4374999,0.7038952708244324,-0.4644751250743866,9.865307807922363,10.467529296875,1.52587890625,-0.091552734375
2.4424999,0.7374141216278076,-0.6350619792938232,9.858723640441895,4.08935546875,-1.46484375,-5.4931640625
2.4474999,0.6865373253822327,-0.4124012291431427,9.837775230407715,3.84521484375,2.13623046875,4.33349609375
2.4524999000000003,0.7374141216278076,-0.5662286877632141,9.66299819946289,-9.368896484375,-1.861572265625,-0.9765625
2.4574999,0.707486629486084,-0.5596446394920349,9.805453300476074,9.8876953125,0.48828125,-2.777099609375
2.4624999,0.7116764783859253,-0.4255693554878235,9.714473724365234,-5.035400390625,1.220703125,5.0048828125
2.4674999,0.8062474131584167,-0.6967126727104187,9.770736694335938,-2.25830078125,-1.953125,-4.8828125
2.4724999000000003,0.71766197681427,-0.5267243981361389,9.932944297790527,8.48388671875,2.0751953125,1.46484375
2.4774999,0.8038532137870789,-0.5997475385665894,9.761159896850586,-9.979248046875,-0.396728515625,1.861572265625
2.4824999,0.7320271730422974,-0.4465186297893524,9.798869132995605,10.345458984375,1.007080078125,-2.044677734375
2.4874999,0.7864952683448792,-0.50876784324646,9.716867446899414,-9.8876953125,-0.762939453125,1.190185546875
2.4924999000000003,0.706289529800415,-0.6129156351089478,9.831789016723633,7.01904296875,-0.335693359375,-4.913330078125
2.4974999,0.6751648783683777,-0.3579331636428833,9.758766174316406,0.274658203125,2.105712890625,4.8828125
2.5024999,0.7350199222564697,-0.5997475385665894,9.650428771972656,-6.77490234375,-2.13623046875,-2.74658203125
2.5074999,0.71766197681427,-0.5099649429321289,9.840767860412598,10.25390625,0.91552734375,-1.556396484375
2.5124999000000003,0.750582218170166,-0.49380409717559814,9.684545516967773,-7.110595703125,0.732421875,4.08935546875
2.5174999000000002,0.8188169598579407,-0.6805518269538879,9.825803756713867,0.274658203125,-1.800537109375,-5.43212890625
2.5224999,0.7218518257141113,-0.49978959560394287,9.891045570373535,6.8359375,2.105712890625,2.593994140625
2.5274999,0.7823054194450378,-0.518943190574646,9.77013874053955,-10.07080078125,-0.732421875,1.15966796875
2.5324999000000004,0.7182605266571045,-0.5530605912208557,9.870096206665039,7.354736328125,-0.42724609375,-4.638671875
2.5374999000000003,0.8158242106437683,-0.6769605278968811,9.188945770263672,-7.50732421875,-1.495361328125,-1.739501953125
2.5424999,0.6105214357376099,-1.4574702978134155,7.975085735321045,10.498046875,4.180908203125,20.08056640625
2.5474999,0.6386532783508301,-1.7687164545059204,6.713940143585205,-54.19921875,31.097412109375,113.58642578125
2.5524999000000004,0.4866214990615845,-2.804208755493164,5.072714805603027,118.65234375,47.393798828125,53.8330078125
2.5574999000000003,0.14425064623355865,-0.8457517623901367,5.376778602600098,226.62353515625,20.93505859375,31.73828125
2.5624999,-1.5735890865325928,3.307589530944824,4.683657169342041,37.994384765625,-51.81884765625,94.8486328125
2.5674999,-2.1086931228637695,5.203797340393066,4.730942726135254,291.748046875,-38.482666015625,72.662353515625
2.5724999,-2.2397756576538086,3.884592294692993,4.468178749084473,-26.9775390625,-23.8037109375,71.1669921875
2.5774999000000003,-1.6603789329528809,4.642955780029297,5.12000036239624,25.177001953125,-61.798095703125,79.071044921875
2.5824999,-1.2922704219818115,2.9706058502197266,4.326322555541992,84.8388671875,-96.61865234375,76.2939453125
2.5874999,0.5069721937179565,2.2577321529388428,5.0912699699401855,110.992431640625,-59.478759765625,79.65087890625
2.5924999,0.8259995579719543,3.1723172664642334,6.140528678894043,-55.84716796875,-53.680419921875,137.725830078125
2.5974999000000003,0.7559691667556763,3.361459255218506,5.8639984130859375,121.27685546875,-39.9169921875,89.447021484375
2.6024999,0.619499683380127,4.624999046325684,6.0866594314575195,-34.11865234375,-41.56494140625,143.585205078125
2.6074999,-0.11133038252592087,5.37558126449585,5.264849662780762,88.958740234375,-33.660888671875,96.25244140625
2.6124999,0.1693897694349289,4.5639472007751465,5.658097267150879,-41.107177734375,-38.39111328125,123.870849609375
2.6174999000000003,1.0959458351135254,3.892971992492676,6.259640216827393,73.8525390625,-27.801513671875,62.286376953125
2.6224999,1.6543933153152466,2.3995885848999023,6.401496887207031,-17.7001953125,-22.94921875,119.720458984375
2.6274999,2.7317841053009033,2.120664119720459,7.088632583618164,-71.2890625,-5.706787109375,119.964599609375
2.6324999,3.0603883266448975,2.4684219360351562,6.377554893493652,-58.28857421875,-15.19775390625,71.197509765625
2.6374999000000003,3.064578056335449,3.287837505340576,6.233902454376221,-53.7109375,-14.495849609375,66.436767578125
2.6424999000000002,3.332728862762451,3.6834793090820312,5.912481307983398,-107.086181640625,-2.0751953125,48.7060546875
2.6474999,4.614225387573242,2.1727380752563477,9.2033109664917,-75.74462890625,57.67822265625,29.23583984375
2.6524999,5.306747913360596,0.6805518269538879,11.053430557250977,-35.125732421875,93.3837890625,11.77978515625
2.6574999000000004,5.461772441864014,-0.9097966551780701,13.043610572814941,21.026611328125,58.990478515625,-22.5830078125
2.6624999000000003,5.10383939743042,-2.456450939178467,13.373412132263184,-50.47607421875,29.937744140625,-31.982421875
2.6674999,3.883993625640869,-3.250727415084839,12.601282119750977,-33.69140625,56.94580078125,-24.5361328125
2.6724999,2.558803081512451,-3.9899370670318604,10.908581733703613,-48.370361328125,74.5849609375,-42.449951171875
2.6774999000000004,1.1689690351486206,-3.953425645828247,9.188945770263672,-22.186279296875,100.52490234375,-24.627685546875
2.6824999000000003,0.25258827209472656,-4.219780445098877,7.995436668395996,-13.85498046875,90.576171875,-40.313720703125
2.6874999,-0.47465047240257263,-3.9683892726898193,7.4333977699279785,0.54931640625,82.122802734375,-15.68603515625
2.6924999,-0.767341673374176,-4.043806552886963,7.869142532348633,33.721923828125,54.19921875,-28.228759765625
2.6974999,-1.0833762884140015,-3.7864298820495605,8.438364028930664,24.444580078125,38.482666015625,-4.608154296875
2.7024999000000003,-1.294066071510315,-3.382408380508423,9.502586364746094,54.87060546875,17.88330078125,-12.908935546875
2.7074999,-1.742978811264038,-0.4411316514015198,10.52670669555664,-3.204345703125,-18.524169921875,-6.256103515625
2.7124999,-1.599326729774475,0.8391677141189575,10.841544151306152,24.84130859375,-20.904541015625,-0.6103515625
2.7174999,-1.127070426940918,1.4963760375976562,10.52670669555664,-19.4091796875,-26.336669921875,-7.14111328125
2.7224999000000003,-0.6117185354232788,2.1128830909729004,10.819995880126953,7.4462890625,-24.139404296875,6.2255859375
2.7274999,-0.002394201699644327,1.8375498056411743,10.361506462097168,-25.238037109375,-33.3251953125,-6.927490234375
2.7324999,0.5578489899635315,1.5753847360610962,10.465654373168945,-6.866455078125,-24.7802734375,9.918212890625
2.7374999,1.048660397529602,0.6482301354408264,10.068216323852539,-14.678955078125,-31.585693359375,-8.85009765625
2.7424999000000003,1.3652935028076172,0.025737667456269264,9.91977596282959,-12.969970703125,-14.129638671875,11.138916015625
2.7474999,1.6382324695587158,-0.8265981078147888,9.599552154541016,-1.28173828125,-13.885498046875,-10.467529296875
2.7524999,1.7166426181793213,-1.237802267074585,9.292495727539062,-13.031005859375,-7.354736328125,7.781982421875
2.7574999,1.7812861204147339,-1.6711528301239014,9.214085578918457,12.87841796875,-8.056640625,-11.444091796875
2.7624999000000003,1.6148890256881714,-1.6454150676727295,9.335591316223145,23.040771484375,3.72314453125,-10.498046875
2.7674999000000002,1.5071499347686768,-1.2018892765045166,9.23323917388916,-11.65771484375,13.3056640625,4.058837890625
2.7724999,1.3221979141235352,-0.9391255974769592,9.752182006835938,24.84130859375,12.176513671875,-9.124755859375
2.7774999,1.2012907266616821,-0.41539400815963745,9.576807022094727,-17.15087890625,16.05224609375,1.739501953125
2.7824999000000004,0.9888052940368652,-0.15981295704841614,10.063427925109863,22.247314453125,14.862060546875,-4.82177734375
2.7874999000000003,0.829590916633606,0.14065934717655182,9.762955665588379,-21.3623046875,14.22119140625,3.23486328125
2.7924999,0.5704185366630554,0.13946224749088287,10.200496673583984,19.8974609375,10.955810546875,-0.244140625
2.7974999,0.40521863102912903,0.13706804811954498,9.804854393005371,-23.284912109375,7.232666015625,2.166748046875
2.8024999000000004,0.18076223134994507,-0.06464344263076782,10.194510459899902,18.646240234375,4.94384765625,1.0986328125
2.8074999000000003,0.1173158809542656,-0.27892449498176575,9.753378868103027,-21.942138671875,-1.861572265625,-0.030517578125
2.8124999,0.028730420395731926,-0.4578910768032074,10.112509727478027,19.256591796875,-1.220703125,2.349853515625
2.8174999,0.10654197633266449,-0.6590040326118469,9.692925453186035,-19.34814453125,-7.568359375,-1.739501953125
2.8224999,0.16400282084941864,-0.667982280254364,10.02691650390625,19.34814453125,-4.69970703125,2.532958984375
2.8274999000000003,0.3519476354122162,-0.7332242727279663,9.643245697021484,-17.364501953125,-10.3759765625,-3.41796875
2.8324999,0.4950011968612671,-0.5734112858772278,9.96825885772705,18.85986328125,-3.90625,2.838134765625
2.8374999,0.7296329736709595,-0.5506663918495178,9.588179588317871,-16.998291015625,-9.185791015625,-3.96728515625
2.8424999,0.8433575630187988,-0.365115761756897,9.895833969116211,16.815185546875,-1.0986328125,3.570556640625
2.8474999000000003,1.0145429372787476,-0.3728969097137451,9.524134635925293,-17.181396484375,-5.523681640625,-4.21142578125
2.8524999,1.0247182846069336,-0.2645592987537384,9.84495735168457,15.625,3.265380859375,3.875732421875
2.8574999,1.0821791887283325,-0.3561375141143799,9.50857162475586,-17.2119140625,-2.471923828125,-4.57763671875
2.8624999,0.9983820915222168,-0.3345896899700165,9.862914085388184,15.350341796875,6.256103515625,3.448486328125
2.8674999000000003,0.9768342971801758,-0.48063600063323975,9.545083999633789,-16.632080078125,-0.30517578125,-4.94384765625
2.8724999,0.8493430614471436,-0.4734533727169037,9.904812812805176,16.41845703125,7.049560546875,2.899169921875
2.8774999,0.7996633648872375,-0.6093243360519409,9.59476375579834,-15.7470703125,-0.1220703125,-4.730224609375
2.8824999,0.5668272376060486,-0.43514615297317505,9.670180320739746,-17.4560546875,-3.448486328125,-2.8076171875
2.8874999000000003,0.5231330990791321,-0.33937808871269226,10.06701946258545,18.1884765625,1.40380859375,1.15966796875
2.8924999000000002,0.585382342338562,-0.3106476664543152,9.591172218322754,-18.829345703125,-4.33349609375,-1.434326171875
2.8974999,0.5859808921813965,-0.31603461503982544,9.987412452697754,17.913818359375,-0.335693359375,0.457763671875
2.9024999,0.6625953316688538,-0.30945056676864624,9.529520988464355,-19.775390625,-4.058837890625,0.152587890625
2.9074999000000004,0.669179379940033,-0.4225766062736511,9.952696800231934,18.402099609375,-0.54931640625,-1.0986328125
2.9124999000000003,0.7451952695846558,-0.4058171808719635,9.53969669342041,-19.561767578125,-2.25830078125,1.40380859375
2.9174999,0.74040687084198,-0.5656301379203796,9.955689430236816,18.524169921875,0.30517578125,-2.8076171875
2.9224999,0.801459014415741,-0.5117605924606323,9.560047149658203,-18.310546875,0.732421875,3.0517578125
2.9274999000000004,0.7894880175590515,-0.639850378036499,9.919178009033203,16.41845703125,0.3662109375,-6.011962890625
2.9324999000000003,0.767341673374176,-0.41958385705947876,9.66958236694336,-13.97705078125,4.2724609375,6.500244140625
2.9374999,0.7338228225708008,-0.557250440120697,9.882067680358887,13.00048828125,-0.732421875,-7.537841796875
2.9424999,0.6470330357551575,-0.32860419154167175,9.747393608093262,-10.284423828125,4.486083984375,7.50732421875
2.9474999,0.6308721303939819,-0.5201402902603149,9.791088104248047,8.453369140625,-2.899169921875,-8.6669921875
2.9524999000000003,0.5566518902778625,-0.2579752206802368,9.776124000549316,-5.889892578125,4.08935546875,8.575439453125
2.9574999,0.5512649416923523,-0.5452794432640076,9.730035781860352,3.082275390625,-4.7607421875,-8.72802734375
2.9624999,0.5476736426353455,-0.2256535142660141,9.865307807922363,-0.335693359375,3.204345703125,8.1787109375
2.9674999,0.5554547905921936,-0.6105214357376099,9.729436874389648,-3.082275390625,-5.79833984375,-8.392333984375
2.9724999000000003,0.6003460884094238,-0.272938996553421,9.967061996459961,5.645751953125,2.899169921875,7.110595703125
2.9774999,0.6404489278793335,-0.6554127335548401,9.704896926879883,-8.758544921875,-5.523681640625,-6.7138671875
2.9824999,0.7541735172271729,-0.6494272351264954,9.650428771972656,-13.824462890625,-4.119873046875,-4.39453125
2.9874999,0.74040687084198,-0.3926490843296051,9.979631423950195,15.7470703125,2.349853515625,2.13623046875
2.9924999000000003,0.7966706156730652,-0.5823895931243896,9.575610160827637,-17.059326171875,-2.349853515625,-1.251220703125
2.9974999,0.7428010702133179,-0.4405331015586853,9.97065258026123,17.822265625,1.495361328125,-1.312255859375
3.0024999,0.7535749673843384,-0.4423287510871887,9.55466079711914,-17.669677734375,-0.1220703125,2.105712890625
3.0074999,0.6979097723960876,-0.4596867263317108,9.927556991577148,16.78466796875,0.091552734375,-4.82177734375
3.0124999000000003,0.6949170231819153,-0.3172317147254944,9.648633003234863,-14.556884765625,1.708984375,5.2490234375
3.0174999000000002,0.6901286244392395,-0.45848962664604187,9.839570045471191,12.542724609375,-1.556396484375,-7.171630859375
3.0224999,0.6721721291542053,-0.2579752206802368,9.754576683044434,-8.941650390625,3.143310546875,7.62939453125
3.0274999,0.6596025824546814,-0.5207388401031494,9.728838920593262,5.55419921875,-3.204345703125,-8.4228515625
3.0324999000000004,0.6368576288223267,-0.23822307586669922,9.849146842956543,-1.03759765625,3.814697265625,7.8125
3.0374999000000003,0.6135141849517822,-0.6230909824371338,9.712079048156738,-3.11279296875,-4.150390625,-7.568359375
3.0424999,0.7194576263427734,-0.365115761756897,10.005967140197754,13.916015625,2.960205078125,2.8076171875
3.0474999,0.7858967185020447,-0.5560533404350281,9.585784912109375,-15.899658203125,-2.0751953125,-0.9765625
3.0524999000000004,0.7416039705276489,-0.4321534037590027,9.944915771484375,16.693115234375,1.190185546875,-1.312255859375
3.0574999000000003,0.7374141216278076,-0.42018240690231323,9.551667213439941,-16.357421875,0.42724609375,3.326416015625
3.0624999,0.702099621295929,-0.4686649739742279,9.841964721679688,14.312744140625,-0.8544921875,-5.43212890625
3.0674999,0.6607996821403503,-0.3130418658256531,9.691129684448242,-11.23046875,2.838134765625,6.40869140625
3.0724999000000004,0.6607996821403503,-0.524330198764801,9.761159896850586,7.415771484375,-2.5634765625,-7.62939453125
3.0774999000000003,0.6129156351089478,-0.262763649225235,9.822212219238281,-2.5634765625,3.875732421875,7.659912109375
3.0824999,0.6141127347946167,-0.6470330357551575,9.719860076904297,-2.349853515625,-3.692626953125,-7.568359375
3.0874999,0.6075286865234375,-0.3232172429561615,9.932345390319824,7.32421875,3.41796875,5.584716796875
3.0924999,0.6673837304115295,-0.6931213736534119,9.701305389404297,-11.199951171875,-3.35693359375,-4.39453125
3.0974999000000003,0.6973112225532532,-0.47824180126190186,9.939528465270996,15.625,-0.091552734375,-3.387451171875
3.1024999,0.67815762758255,-0.39564183354377747,9.572616577148438,-13.7939453125,0.762939453125,5.06591796875
3.1074999,0.6883329749107361,-0.4692635238170624,9.797672271728516,10.345458984375,-2.3193359375,-6.805419921875
3.1124999,0.6584054827690125,-0.25737667083740234,9.73542308807373,-5.67626953125,2.777099609375,7.293701171875
3.1174999000000003,0.6518214344978333,-0.5404910445213318,9.702502250671387,0.1220703125,-3.753662109375,-7.6904296875
3.1224999,0.4794389009475708,-0.14065934717655182,9.456498146057129,5.157470703125,3.204345703125,5.9814453125
3.1274999,0.37828385829925537,-1.4407109022140503,8.358158111572266,-4.45556640625,-5.645751953125,1.5869140625
3.1324999,0.40043023228645325,-0.9564836025238037,8.264185905456543,153.4423828125,0.762939453125,21.78955078125
3.1374999000000003,0.48602294921875,-1.7345991134643555,6.494870662689209,129.08935546875,-2.105712890625,33.0810546875
3.1424999000000002,0.8858546018600464,-0.8457517623901367,6.642712593078613,27.7099609375,-1.800537109375,27.984619140625
3.1474999,0.6254851818084717,0.26156654953956604,5.388150691986084,44.281005859375,-36.4990234375,22.613525390625
3.1524999,0.32022446393966675,3.8139634132385254,4.727949619293213,6.256103515625,-52.67333984375,-9.58251953125
3.1574999000000004,0.02992752194404602,5.301361083984375,4.661510944366455,-1.495361328125,-67.413330078125,-37.261962890625
3.1624999000000003,0.3818751573562622,5.715558052062988,5.125985622406006,-26.7333984375,-71.075439453125,-21.97265625
3.1674999,0.05386953800916672,5.575497150421143,4.74111795425415,15.777587890625,-43.5791015625,-32.2265625
3.1724999,1.301847219467163,3.9677908420562744,6.323685169219971,-56.182861328125,-25.299072265625,-4.974365234375
3.1774999000000004,1.016338586807251,2.118269920349121,5.434239387512207,33.935546875,-4.669189453125,-13.61083984375
3.1824999000000003,2.2176294326782227,0.3064578175544739,7.215525150299072,-78.67431640625,6.53076171875,36.4990234375
3.1874999,1.8818424940109253,-0.2256535142660141,6.712144374847412,54.473876953125,22.064208984375,13.519287109375
3.1924999,2.0171148777008057,-0.2172738015651703,6.842628479003906,-126.739501953125,32.318115234375,80.657958984375
3.1974999000000004,1.5741876363754272,1.3174095153808594,6.253056526184082,-107.025146484375,22.15576171875,18.24951171875
3.2024999000000003,1.2192472219467163,2.3750481605529785,6.284181118011475,-51.422119140625,19.53125,9.735107421875
3.2074999,1.3407529592514038,2.381632089614868,7.162852764129639,-54.19921875,46.32568359375,-7.080078125
3.2124999,1.015141487121582,-4.37540340423584,11.495161056518555,-10.101318359375,29.296875,-6.927490234375
3.2174999,-0.0520738884806633,-4.597465991973877,9.231443405151367,-14.923095703125,17.578125,-18.035888671875
3.2224999000000003,-0.9774328470230103,-3.996521234512329,7.71591329574585,28.564453125,15.899658203125,-15.07568359375
3.2274999,-1.4742296934127808,-3.6140475273132324,6.69837760925293,15.9912109375,9.063720703125,-11.749267578125
3.2324999,-1.521515130996704,-3.06876802444458,7.325658798217773,50.933837890625,3.875732421875,-10.8642578125
3.2374999,-1.1875240802764893,-2.5025393962860107,8.134300231933594,21.759033203125,-2.410888671875,-1.8310546875
3.2424999000000003,-0.7475894689559937,-1.8704700469970703,9.644442558288574,45.013427734375,-13.36669921875,-7.232666015625
3.2474999,-0.22924481332302094,-0.8445546627044678,10.509946823120117,8.7890625,-17.578125,2.777099609375
3.2524999,0.1646013706922531,0.08619125932455063,11.19349193572998,23.834228515625,-18.00537109375,-9.613037109375
3.2574999,0.9756371974945068,2.0225019454956055,10.67514705657959,-13.671875,-9.613037109375,8.575439453125
3.2624999000000003,1.1875240802764893,1.5376760959625244,10.123882293701172,-11.993408203125,-10.31494140625,-4.486083984375
3.2674999000000002,1.2964602708816528,1.2120646238327026,9.907805442810059,-10.986328125,-1.3427734375,13.0615234375
3.2724999,1.382651448249817,0.09696517139673233,9.563039779663086,-16.998291015625,-3.814697265625,-0.42724609375
3.2774999,1.3084312677383423,-0.4686649739742279,9.619902610778809,2.5634765625,4.058837890625,8.85009765625
3.2824999000000004,1.2856862545013428,-1.3407529592514038,9.333196640014648,-14.22119140625,0.54931640625,-2.99072265625
3.2874999000000003,1.0666168928146362,-1.6214730739593506,9.513958930969238,14.7705078125,7.110595703125,0.18310546875
3.2924999,0.9624691009521484,-1.7944542169570923,9.176376342773438,-10.43701171875,4.669189453125,-4.08935546875
3.2974999,0.7697358727455139,-1.6651673316955566,9.522936820983887,21.881103515625,6.683349609375,-6.34765625
3.3024999000000004,0.6859387755393982,-1.2599486112594604,9.32661247253418,-7.14111328125,6.28662109375,0.152587890625
3.3074999000000003,0.6171054840087891,-0.9265560507774353,9.765948295593262,19.134521484375,3.41796875,-7.110595703125
3.3124999,0.5632359385490417,-0.1280897855758667,10.013150215148926,8.697509765625,-0.518798828125,-7.904052734375
3.3174999,0.4985924959182739,0.3016694188117981,10.147225379943848,-5.06591796875,2.50244140625,7.781982421875
3.3224999000000004,0.5099649429321289,0.12689268589019775,10.021530151367188,-3.72314453125,-3.41796875,-7.26318359375
3.3274999000000003,0.4926069974899292,0.31184476613998413,10.139444351196289,0.885009765625,1.617431640625,7.965087890625
3.3324999,0.5805938839912415,-0.20470423996448517,9.87967300415039,-12.359619140625,-4.8828125,-3.90625
3.3374999,0.5620388388633728,-0.21847090125083923,10.030508041381836,9.27734375,-0.3662109375,5.0048828125
3.3424999,0.6871358752250671,-0.6009446382522583,9.61331844329834,-14.892578125,-4.33349609375,-0.9765625
3.3474999000000003,0.6470330357551575,-0.7499836683273315,9.845556259155273,15.594482421875,-1.5869140625,-1.678466796875
3.3524999,0.7272387742996216,-0.7254431247711182,9.43494987487793,-12.939453125,-1.15966796875,1.89208984375
3.3574999,0.7529764175415039,-0.8559271097183228,9.676166534423828,14.95361328125,-1.617431640625,-6.4697265625
3.3624999,0.7990648150444031,-0.5716156363487244,9.578003883361816,-7.26318359375,2.471923828125,5.706787109375
3.3674999000000003,0.8505401611328125,-0.6673837304115295,9.656414031982422,7.080078125,-1.617431640625,-7.8125
3.3724999,0.8421604633331299,-0.4728548228740692,9.754576683044434,-4.547119140625,-1.3427734375,-6.7138671875
3.3774999,0.7547720670700073,-0.11372458189725876,10.020931243896484,7.598876953125,4.425048828125,5.2490234375
3.3824999,0.7990648150444031,-0.3627215623855591,9.733028411865234,-13.458251953125,-0.9765625,-2.99072265625
3.3874999000000003,0.6709750294685364,-0.2950853705406189,10.017339706420898,12.75634765625,2.13623046875,0.457763671875
3.3924999000000002,0.6961141228675842,-0.37169981002807617,9.616311073303223,-15.472412109375,-0.3662109375,1.77001953125
3.3974999,0.6147112846374512,-0.5548562407493591,9.87967300415039,12.908935546875,-1.40380859375,-4.7607421875
3.4024999,0.5985504388809204,-0.47165772318840027,9.68574333190918,-9.613037109375,0.8544921875,5.645751953125
3.4074999000000004,0.6141127347946167,-0.7439981698989868,9.703699111938477,6.256103515625,-3.60107421875,-7.781982421875
3.4124999000000003,0.5961562395095825,-0.4800374507904053,9.823410034179688,0.579833984375,1.495361328125,6.561279296875
3.4174999,0.6877344250679016,-0.7751228213310242,9.671976089477539,-3.90625,-3.96728515625,-6.927490234375
3.4224999,0.6787561774253845,-0.39624038338661194,9.947908401489258,10.43701171875,2.166748046875,4.241943359375
3.4274999000000004,0.800261914730072,-0.5488707423210144,9.642048835754395,-12.725830078125,-2.25830078125,-2.25830078125
3.4324999000000003,0.7948749661445618,-0.31842881441116333,9.609726905822754,-14.22119140625,0.335693359375,3.35693359375
3.4374999,0.7691373229026794,-0.38307225704193115,9.822811126708984,9.979248046875,-0.8544921875,-5.706787109375
3.4424999,0.7146692276000977,-0.27413609623908997,9.714473724365234,-7.2021484375,3.143310546875,6.77490234375
3.4474999000000004,0.7170634269714355,-0.5434837937355042,9.739013671875,0.42724609375,-2.227783203125,-7.171630859375
3.4524999000000003,0.6518214344978333,-0.33698388934135437,9.859322547912598,4.974365234375,3.5400390625,6.04248046875
3.4574999,0.7182605266571045,-0.6332663297653198,9.704896926879883,-9.368896484375,-2.166748046875,-4.486083984375
3.4624999,0.6488286852836609,-0.46507367491722107,9.960477828979492,13.3056640625,2.01416015625,1.03759765625
3.4674999,0.7356184720993042,-0.5273229479789734,9.625887870788574,-13.580322265625,-0.42724609375,1.0986328125
3.4724999000000003,0.7044938206672668,-0.5237316489219666,9.88386344909668,13.092041015625,-0.579833984375,-4.5166015625
3.4774999,0.7110779285430908,-0.3866635859012604,9.720458984375,-8.575439453125,1.678466796875,6.072998046875
3.4824999,0.702099621295929,-0.5339069962501526,9.773131370544434,3.631591796875,-2.74658203125,-7.080078125
3.4874999,0.6961141228675842,-0.27234044671058655,9.901819229125977,2.01416015625,3.387451171875,6.378173828125
3.4924999000000003,0.7212532758712769,-0.363918662071228,9.97603988647461,11.3525390625,1.800537109375,1.983642578125
3.4974999,0.8020575642585754,-0.4668693244457245,9.643844604492188,-13.763427734375,-0.54931640625,0.885009765625
3.5024999,0.7523778676986694,-0.5183446407318115,9.852140426635742,12.359619140625,-0.457763671875,-4.150390625
3.5074999,0.730231523513794,-0.40043023228645325,9.637260437011719,-8.544921875,1.861572265625,5.67626953125
3.5124999000000003,0.6889315247535706,-0.6039373874664307,9.68274974822998,3.448486328125,-2.655029296875,-7.049560546875
3.5174999000000002,0.656609833240509,-0.3531447649002075,9.822811126708984,3.265380859375,2.716064453125,5.767822265625
3.5224999,0.7116764783859253,-0.5746083855628967,9.685144424438477,-8.514404296875,-2.593994140625,-4.669189453125
3.5274999,0.669179379940033,-0.3902548849582672,9.961674690246582,12.359619140625,1.556396484375,1.068115234375
3.5324999000000004,0.7523778676986694,-0.4231751561164856,9.653421401977539,-13.5498046875,-0.762939453125,1.617431640625
3.5374999000000003,0.7212532758712769,-0.4626794755458832,9.858125686645508,11.077880859375,-1.28173828125,-4.7607421875
3.5424999,0.7212532758712769,-0.4626794755458832,9.858125686645508,11.077880859375,-1.28173828125,-4.7607421875
3.5474999,0.6961141228675842,-0.3250128924846649,9.68933391571045,-6.8359375,1.8310546875,6.072998046875
3.5524999000000004,0.6925228238105774,-0.3734954595565796,9.792284965515137,-1.922607421875,2.99072265625,6.256103515625
3.5574999000000003,0.7829039692878723,-0.5805938839912415,9.728838920593262,-4.486083984375,-2.471923828125,-5.828857421875
3.5624999,0.7236474752426147,-0.37888240814208984,9.95209789276123,9.82666015625,2.38037109375,2.777099609375
3.5674999,0.7835025191307068,-0.4692635238170624,9.672574996948242,-12.664794921875,-0.396728515625,0.1220703125
3.5724999000000004,0.74040687084198,-0.4644751250743866,9.873687744140625,11.688232421875,0.1220703125,-3.814697265625
3.5774999000000003,0.7026981711387634,-0.3513490855693817,9.671976089477539,-7.9345703125,2.044677734375,5.462646484375
3.5824999,0.6955155730247498,-0.5578489899635315,9.732429504394531,1.861572265625,-2.349853515625,-6.65283203125
3.5874999,0.6865373253822327,-0.5548562407493591,9.658807754516602,-10.19287109375,-2.197265625,-2.8076171875
3.5924999,0.6476315855979919,-0.45848962664604187,9.944915771484375,12.51220703125,0.54931640625,-1.03759765625
3.5974999000000003,0.6817489266395569,-0.43035775423049927,9.679159164428711,-10.986328125,0.3662109375,3.72314453125
3.6024999,0.6613982319831848,-0.3447650372982025,9.855731010437012,0.1220703125,2.593994140625,6.072998046875
3.6074999,0.6613982319831848,-0.3447650372982025,9.855731010437012,0.1220703125,2.593994140625,6.072998046875
3.6124999,0.7296329736709595,-0.5704185366630554,9.739013671875,-6.439208984375,-2.685546875,-4.608154296875
3.6174999000000003,0.6901286244392395,-0.40521863102912903,9.979032516479492,11.016845703125,1.678466796875,1.15966796875
3.6224999,0.7439981698989868,-0.4644751250743866,9.699509620666504,-12.3291015625,-0.457763671875,1.5869140625
3.6274999,0.7110779285430908,-0.5135562419891357,9.835380554199219,9.58251953125,-1.220703125,-5.2490234375
3.6324999,0.6697779297828674,-0.345363587141037,9.733028411865234,-3.936767578125,1.983642578125,6.103515625
3.6374999000000003,0.7499836683273315,-0.5608417391777039,9.673771858215332,-2.99072265625,-2.777099609375,-5.79833984375
3.6424999000000002,0.983418345451355,-0.5494692921638489,5.929839134216309,152.496337890625,-3.11279296875,37.811279296875
3.6474999,1.3946224451065063,-0.706289529800415,4.492120742797852,37.109375,-1.495361328125,106.109619140625
3.6524999,1.3305776119232178,0.9091981053352356,4.020462989807129,167.510986328125,-20.3857421875,81.72607421875
3.6574999000000004,1.202487826347351,0.9331400990486145,3.0364463329315186,123.9013671875,-33.38623046875,74.554443359375
3.6624999000000003,0.8481459617614746,3.3219549655914307,3.025073766708374,85.87646484375,-75.103759765625,7.62939453125
3.6674999,0.8678981065750122,4.198232650756836,3.2830491065979004,59.051513671875,-110.748291015625,4.302978515625
3.6724999,0.689530074596405,5.2271409034729,3.530250310897827,21.54541015625,-110.65673828125,-27.252197265625
3.6774999000000004,0.8876502513885498,4.9835309982299805,4.380191802978516,13.36669921875,-99.395751953125,-28.564453125
3.6824999000000003,2.1086931228637695,4.010886192321777,5.273229122161865,-57.373046875,-43.45703125,2.01416015625
3.6874999,3.959411144256592,3.202843427658081,5.8005523681640625,-126.983642578125,65.49072265625,62.1337890625
3.6924999,4.085705280303955,2.676118850708008,6.937798023223877,-174.163818359375,77.81982421875,59.661865234375
3.6974999000000004,4.505289077758789,2.1583728790283203,9.530718803405762,-104.30908203125,116.5771484375,40.4052734375
3.7024999000000003,4.823718070983887,0.2861070930957794,12.051214218139648,-46.173095703125,148.62060546875,14.495849609375
3.7074999,4.723161220550537,-1.45806884765625,14.453795433044434,3.997802734375,95.52001953125,-15.777587890625
3.7124999,3.930082082748413,-3.6128504276275635,14.906898498535156,-64.605712890625,58.258056640625,-12.908935546875
3.7174999,2.297835111618042,-5.066130638122559,13.924078941345215,-44.98291015625,65.032958984375,-27.2216796875
3.7224999000000003,0.3058592677116394,-5.285799026489258,11.272500038146973,-52.154541015625,60.455322265625,-28.839111328125
3.7274999,-1.4000093936920166,-5.118803024291992,8.775946617126465,-8.270263671875,42.877197265625,-41.900634765625
3.7324999,-3.670311212539673,-3.5254619121551514,6.266822814941406,44.403076171875,6.77490234375,-14.46533203125
3.7374999,-3.3470940589904785,-3.5027170181274414,7.303512096405029,46.783447265625,-9.3994140625,-26.031494140625
3.7424999000000003,-2.7293899059295654,-2.872443437576294,8.721478462219238,50.201416015625,-20.81298828125,-2.960205078125
3.7474999,-1.9105730056762695,-2.471414804458618,9.873088836669922,33.416748046875,-35.186767578125,-10.31494140625
3.7524999,-1.0570400953292847,-1.082777738571167,11.064204216003418,35.33935546875,-32.928466796875,5.340576171875
3.7574999,-0.15741875767707825,-0.14844051003456116,11.526884078979492,3.23486328125,-41.229248046875,-7.781982421875
3.7624999000000003,1.0887632369995117,-1.9003976583480835,9.420584678649902,1.007080078125,12.3291015625,-12.39013671875
3.7674999000000002,0.7972691655158997,-1.3239935636520386,9.715670585632324,15.228271484375,16.265869140625,0.335693359375
3.7724999,0.6165069341659546,-1.1390414237976074,9.579200744628906,-4.486083984375,9.674072265625,-6.9580078125
3.7774999,0.4297592043876648,-0.4991910457611084,9.999382972717285,18.73779296875,11.71875,0.244140625
3.7824999000000004,0.3363853394985199,-0.20111294090747833,9.840767860412598,-12.908935546875,4.302978515625,0.640869140625
3.7874999000000003,0.23044191300868988,0.10654197633266449,10.228628158569336,15.167236328125,4.39453125,-2.0751953125
3.7924999,0.17836803197860718,0.28790274262428284,9.965864181518555,-15.80810546875,1.5869140625,5.523681640625
3.7974999,0.17178396880626678,0.17717093229293823,10.08078670501709,7.32421875,-3.692626953125,-5.645751953125
3.8024999000000004,0.2364274114370346,-0.3315969407558441,9.825803756713867,-0.457763671875,-7.75146484375,-5.92041015625
3.8074999000000003,0.3579331636428833,-0.32860419154167175,9.913790702819824,1.068115234375,-2.288818359375,8.9111328125
3.8124999,0.47644615173339844,-0.9002198576927185,9.652822494506836,-6.744384765625,-8.60595703125,-4.913330078125
3.8174999,0.6344634294509888,-0.67815762758255,9.868300437927246,12.359619140625,-1.708984375,3.448486328125
3.8224999000000004,0.8319851160049438,-0.93254154920578,9.470264434814453,-12.14599609375,-4.791259765625,-3.082275390625
3.8274999000000003,0.9038111567497253,-0.6649895310401917,9.818022727966309,16.78466796875,-0.152587890625,-2.50244140625
3.8324999,1.0187327861785889,-0.5536591410636902,9.458293914794922,-13.580322265625,0.6103515625,2.227783203125
3.8374999,1.0223240852355957,-0.4273650050163269,9.75637149810791,12.75634765625,1.3427734375,-5.92041015625
3.8424999,0.811634361743927,-0.15083470940589905,9.923966407775879,-0.06103515625,5.859375,7.14111328125
3.8474999000000003,0.707486629486084,-0.5345055460929871,9.75936508178711,-7.293701171875,0.1220703125,-6.256103515625
3.8524999,0.4554968774318695,-0.558447539806366,9.592369079589844,-12.481689453125,-1.190185546875,3.692626953125
3.8574999,0.4752490520477295,-0.5817909836769104,9.795876502990723,11.138916015625,-3.23486328125,-6.561279296875
3.8624999,0.5039794445037842,-0.40043023228645325,9.758167266845703,-5.126953125,-0.213623046875,6.683349609375
3.8674999000000003,0.5560533404350281,-0.5111620426177979,9.727043151855469,0.030517578125,-4.669189453125,-7.354736328125
3.8724999,0.6218938827514648,-0.23702596127986908,9.938929557800293,5.06591796875,0.91552734375,5.67626953125
3.8774999,0.7248445749282837,-0.4297592043876648,9.724648475646973,-10.80322265625,-3.41796875,-3.875732421875
3.8824999,0.7577648162841797,-0.28969839215278625,9.992799758911133,12.237548828125,1.190185546875,0.885009765625
3.8874999000000003,0.8720879554748535,-0.3495534360408783,9.656414031982422,-14.984130859375,0.091552734375,2.044677734375
3.8924999000000002,0.861314058303833,-0.45010992884635925,9.849745750427246,11.77978515625,0.1220703125,-4.913330078125
3.8974999,0.8571242094039917,-0.35913026332855225,9.66419506072998,-8.36181640625,3.173828125,6.072998046875
3.9024999,0.7553706169128418,-0.3824737071990967,9.799467086791992,3.143310546875,4.21142578125,6.103515625
3.9074999000000004,0.7212532758712769,-0.6835445761680603,9.654618263244629,-7.87353515625,-1.15966796875,-4.82177734375
3.9124999000000003,0.6973112225532532,-0.44173020124435425,9.948506355285645,12.63427734375,2.593994140625,1.678466796875
3.9174999,0.739209771156311,-0.5099649429321289,9.644442558288574,-13.36669921875,0.213623046875,1.46484375
3.9224999,0.6937199234962463,-0.4644751250743866,9.883264541625977,12.451171875,0.030517578125,-3.997802734375
3.9274999000000004,0.6637924313545227,-0.32381579279899597,9.6989107131958,-8.97216796875,1.89208984375,6.2255859375
3.9324999000000003,0.5985504388809204,-0.4842272996902466,9.709086418151855,3.173828125,-2.899169921875,-6.866455078125
3.9374999,0.6027402877807617,-0.26336219906806946,9.868300437927246,2.655029296875,2.25830078125,6.2255859375
3.9424999,0.628477931022644,-0.5297171473503113,9.698312759399414,-8.6669921875,-3.021240234375,-4.45556640625
3.9474999000000004,0.639850378036499,-0.3585317134857178,9.965864181518555,12.298583984375,0.79345703125,1.03759765625
3.9524999000000003,0.7254431247711182,-0.46088382601737976,9.666589736938477,-13.18359375,-1.15966796875,1.5869140625
3.9574999,0.7104793787002563,-0.4710591733455658,9.839570045471191,11.77978515625,-1.129150390625,-5.126953125
3.9624999,0.7032967209815979,-0.5195417404174805,9.850942611694336,8.4228515625,-1.220703125,-6.2255859375
3.9674999000000004,0.6667851805686951,-0.3411737382411957,9.81024169921875,-2.777099609375,2.044677734375,6.134033203125
3.9724999000000003,0.7164648771286011,-0.6248866319656372,9.704896926879883,-3.5400390625,-2.44140625,-6.2255859375
3.9774999,0.7026981711387634,-0.3968389332294464,9.960477828979492,9.6435546875,2.13623046875,2.9296875
3.9824999,0.7398083209991455,-0.5339069962501526,9.640253067016602,-12.176513671875,-1.007080078125,-0.42724609375
3.9874999,0.7206547260284424,-0.4704606235027313,9.901819229125977,12.451171875,-0.091552734375,-3.47900390625
3.9924999000000003,0.6877344250679016,-0.3603273630142212,9.687539100646973,-8.85009765625,1.678466796875,5.340576171875
3.9974999,0.6099228858947754,-0.3208230137825012,9.847949981689453,3.570556640625,2.685546875,5.340576171875
4.0024999,0.6506243348121643,-0.5105634927749634,9.645041465759277,-9.765625,-1.922607421875,-3.265380859375
4.0074999,0.6458359360694885,-0.4124012291431427,9.93593692779541,12.054443359375,1.15966796875,-0.457763671875
4.0124999,0.7038952708244324,-0.4291606545448303,9.646238327026367,-11.8408203125,0.579833984375,3.35693359375
4.0174999,0.6769605278968811,-0.5506663918495178,9.78869342803955,7.568359375,-1.373291015625,-5.950927734375
4.022499900000001,0.6476315855979919,-0.36332011222839355,9.764153480529785,-1.373291015625,2.3193359375,6.256103515625
4.0274999000000005,0.7003039717674255,-0.6171054840087891,9.696516990661621,-5.340576171875,-2.50244140625,-5.126953125
4.0324999,0.6751648783683777,-0.406415730714798,9.980828285217285,10.498046875,1.617431640625,1.800537109375
4.0374999,0.7386112213134766,-0.5201402902603149,9.742605209350586,-12.26806640625,-0.701904296875,1.251220703125
4.0424999,0.7044938206672668,-0.49380409717559814,9.909601211547852,10.3759765625,-0.8544921875,-4.57763671875
4.0474999,0.6799532771110535,-0.32381579279899597,9.77133560180664,-5.06591796875,1.983642578125,6.103515625
4.0524999,0.690727174282074,-0.5506663918495178,9.710882186889648,-1.678466796875,-2.471923828125,-5.92041015625
4.0574999,0.7086837291717529,-0.5033808946609497,9.640851974487305,-11.90185546875,-1.068115234375,-0.640869140625
4.062499900000001,0.6973112225532532,-0.4638765752315521,9.880870819091797,11.65771484375,-0.213623046875,-3.41796875
4.0674999000000005,0.6841431260108948,-0.39384618401527405,9.682151794433594,-7.781982421875,1.556396484375,5.18798828125
4.0724999,0.6554127335548401,-0.6015431880950928,9.706692695617676,1.220703125,-1.861572265625,-6.439208984375
4.0774999,0.6308721303939819,-0.395043283700943,9.86770248413086,5.67626953125,2.38037109375,4.33349609375
4.0824999,0.6488286852836609,-0.5207388401031494,9.649829864501953,-10.19287109375,-1.52587890625,-2.0751953125
4.0874999,0.6488286852836609,-0.4357447028160095,9.958083152770996,11.71875,0.457763671875,-2.532958984375
4.0924999,0.6488286852836609,-0.4357447028160095,9.958083152770996,11.71875,0.457763671875,-2.532958984375
4.0974999,0.6685808300971985,-0.36571431159973145,9.783905029296875,-9.1552734375,0.9765625,4.69970703125
4.1024999,0.6416460275650024,-0.5554547905921936,9.853337287902832,3.021240234375,-2.3193359375,-6.439208984375
4.1074999000000005,0.6356605291366577,-0.3495534360408783,9.93354320526123,4.119873046875,2.13623046875,4.69970703125
4.1124999,0.669179379940033,-0.5099649429321289,9.651625633239746,-9.857177734375,-2.0751953125,-2.410888671875
4.1174999,0.6985083222389221,-0.5380968451499939,9.597756385803223,-9.09423828125,-1.739501953125,-2.655029296875
4.1224999,0.7050924301147461,-0.43275195360183716,9.885659217834473,11.65771484375,0.823974609375,-1.46484375
4.1274999,0.7511807680130005,-0.3974374830722809,9.700108528137207,-9.70458984375,1.312255859375,4.150390625
4.1324999,0.6943184733390808,-0.5752069354057312,9.805453300476074,3.47900390625,-1.434326171875,-5.9814453125
4.1374999,0.6673837304115295,-0.3280056416988373,9.894038200378418,3.41796875,2.777099609375,5.0048828125
4.1424999,0.6685808300971985,-0.5201402902603149,9.644442558288574,-9.307861328125,-1.64794921875,-2.593994140625
4.147499900000001,0.6613982319831848,-0.43275195360183716,9.923367500305176,11.474609375,1.03759765625,-1.739501953125
4.1524999000000005,0.6979097723960876,-0.4129997789859772,9.710882186889648,-8.880615234375,1.0986328125,4.5166015625
4.1574999,0.669179379940033,-0.5871779918670654,9.800065994262695,3.11279296875,-2.01416015625,-6.011962890625
4.1624999,0.70090252161026,-0.3357867896556854,9.698312759399414,-8.1787109375,0.9765625,4.730224609375
4.1674999,0.70090252161026,-0.3357867896556854,9.698312759399414,-8.1787109375,0.9765625,4.730224609375
4.1724999,0.7032967209815979,-0.5452794432640076,9.764751434326172,1.190185546875,-2.410888671875,-5.92041015625
4.1774999,0.70090252161026,-0.36092591285705566,9.8970308303833,5.645751953125,2.166748046875,3.875732421875
4.1824999,0.7260416746139526,-0.4770447015762329,9.66299819946289,-10.406494140625,-1.190185546875,-0.946044921875
4.187499900000001,0.718859076499939,-0.4273650050163269,9.864110946655273,10.68115234375,0.152587890625,-3.265380859375
4.1924999000000005,0.6991068720817566,-0.3447650372982025,9.741408348083496,-6.011962890625,1.495361328125,5.126953125
4.1974999,0.6943184733390808,-0.585382342338562,9.739612579345703,-0.640869140625,-2.105712890625,-5.767822265625
4.2024999,0.6416460275650024,-0.4297592043876648,9.934141159057617,7.598876953125,2.25830078125,2.716064453125
4.2074999,0.6482301354408264,-0.7206547260284424,9.763554573059082,-10.009765625,-0.640869140625,1.220703125
4.2124999,0.5781996846199036,-0.9612720012664795,9.855731010437012,11.29150390625,-0.79345703125,-1.708984375
4.2174999,0.586579442024231,-1.0067617893218994,9.19433307647705,-1.28173828125,-4.45556640625,1.953125
4.2224999,0.5734112858772278,-0.5985504388809204,9.279925346374512,13.12255859375,0.3662109375,-3.41796875
4.2274999,0.7038952708244324,-0.12449848651885986,8.89026927947998,-10.19287109375,-0.244140625,-8.392333984375
4.2324999000000005,0.7523778676986694,0.2537853717803955,9.133280754089355,8.11767578125,-0.30517578125,-13.275146484375
4.2374999,0.8188169598579407,0.8098387122154236,9.536105155944824,-6.34765625,2.5634765625,5.0048828125
4.2424999,0.8589198589324951,0.5847837924957275,10.159794807434082,0.274658203125,2.3193359375,7.4462890625
4.2474999,0.8242039084434509,-0.07900865375995636,10.01075553894043,-13.85498046875,-0.6103515625,5.218505859375
4.2524999,0.5961562395095825,-0.7368155717849731,9.998186111450195,1.556396484375,-2.74658203125,-6.256103515625
4.2574999,0.4950011968612671,-1.0205284357070923,9.790489196777344,0.823974609375,0.701904296875,2.777099609375
4.2624999,0.4471171796321869,-1.4227544069290161,9.448118209838867,-4.669189453125,-3.631591796875,-5.7373046875
4.2674999,0.4944026470184326,-1.3766659498214722,9.593565940856934,17.059326171875,-0.518798828125,-3.11279296875
4.272499900000001,0.7326257228851318,-0.9923965930938721,9.61571216583252,6.866455078125,-1.739501953125,-6.40869140625
4.2774999000000005,0.8122329115867615,-0.35254621505737305,9.858125686645508,7.9345703125,3.0517578125,3.0517578125
4.2824999,0.8637082576751709,-0.14484919607639313,9.753378868103027,-10.80322265625,0.1220703125,-1.52587890625
4.2874999,0.851138710975647,0.12629413604736328,10.004171371459961,7.99560546875,1.64794921875,-2.50244140625
4.2924999,0.7894880175590515,0.29807811975479126,9.92097282409668,-8.4228515625,3.143310546875,6.011962890625
4.2974999,0.7631517648696899,-0.09876082092523575,9.864709854125977,-5.43212890625,-1.220703125,-3.753662109375
4.3024999,0.6320692300796509,-0.11312603205442429,9.995193481445312,6.34765625,2.349853515625,3.11279296875
4.3074999,0.6200982332229614,-0.4710591733455658,9.733627319335938,-11.962890625,-1.068115234375,1.46484375
4.312499900000001,0.5291185975074768,-0.7110779285430908,9.784503936767578,8.30078125,-2.01416015625,-4.33349609375
4.3174999000000005,0.5303156971931458,-0.5776011347770691,9.700108528137207,0.701904296875,0.396728515625,4.82177734375
4.3224999,0.7236474752426147,-0.5273229479789734,9.834781646728516,3.60107421875,-1.89208984375,-5.37109375
4.3274999,0.7601590156555176,-0.19393034279346466,9.928155899047852,3.387451171875,2.8076171875,4.33349609375
4.3324999,0.7661445140838623,-0.2795230448246002,9.695320129394531,-11.260986328125,-0.579833984375,-1.129150390625
4.3374999,0.7499836683273315,-0.2454056739807129,9.870096206665039,9.002685546875,0.91552734375,-2.197265625
4.3424999,0.7104793787002563,-0.21188685297966003,9.77672290802002,-6.744384765625,2.01416015625,4.791259765625
4.3474999,0.7003039717674255,-0.5973533391952515,9.73542308807373,-2.8076171875,-1.89208984375,-5.0048828125
4.352499900000001,0.6111199855804443,-0.47165772318840027,9.925163269042969,9.033203125,2.227783203125,2.01416015625
4.3574999000000005,0.6338648796081543,-0.6560112833976746,9.686341285705566,-9.918212890625,-0.732421875,0.9765625
4.3624999,0.5829881429672241,-0.6596025824546814,9.79527759552002,8.331298828125,-1.678466796875,-4.82177734375
4.3674999,0.6051344871520996,-0.395043283700943,9.770736694335938,1.28173828125,1.678466796875,4.669189453125
4.3724999,0.6625953316688538,-0.5237316489219666,9.644442558288574,-6.89697265625,-2.38037109375,-3.35693359375
4.3774999,0.7805097699165344,-0.436343252658844,9.848548889160156,0.335693359375,-2.01416015625,-4.8828125
4.3824999,0.751779317855835,-0.23762452602386475,9.927556991577148,5.37109375,2.410888671875,3.692626953125
4.3874999,0.7577648162841797,-0.4429273009300232,9.676764488220215,-11.3525390625,-0.946044921875,-0.030517578125
4.3924999,0.6937199234962463,-0.48303020000457764,9.813234329223633,8.544921875,-0.1220703125,-3.570556640625
4.397499900000001,0.6751648783683777,-0.40222588181495667,9.725846290588379,-2.227783203125,1.922607421875,4.5166015625
4.4024999000000005,0.6673837304115295,-0.5518634915351868,9.743204116821289,-8.758544921875,0.3662109375,2.471923828125
4.4074999,0.6518214344978333,-0.6518214344978333,9.815628051757812,3.631591796875,-1.739501953125,-4.8828125
4.4124999,0.6308721303939819,-0.3280056416988373,9.873088836669922,5.035400390625,2.166748046875,3.753662109375
4.4174999,0.656609833240509,-0.44592007994651794,9.639056205749512,-10.25390625,-1.46484375,-1.03759765625
4.4224999,0.6745663285255432,-0.5165489912033081,9.695320129394531,-5.0048828125,-2.5634765625,-3.997802734375
4.4274999,0.6512228846549988,-0.3878606855869293,9.906607627868652,9.796142578125,1.190185546875,1.03759765625
4.4324999,0.6913257241249084,-0.4836287498474121,9.744400978088379,-9.429931640625,-0.1220703125,2.044677734375
4.437499900000001,0.6572083830833435,-0.6224924325942993,9.798270225524902,3.875732421875,-1.77001953125,-5.2490234375
4.4424999000000005,0.645237386226654,-0.3800795078277588,9.840168952941895,4.547119140625,2.197265625,3.60107421875
4.4474999,0.6739677786827087,-0.5195417404174805,9.628880500793457,-9.674072265625,-1.434326171875,-1.220703125
4.4524999,0.6524199843406677,-0.43694180250167847,9.804255485534668,9.796142578125,0.152587890625,-2.532958984375
4.4574999,0.6847416758537292,-0.2885012924671173,9.747393608093262,-3.96728515625,1.8310546875,4.486083984375
4.4624999,0.7003039717674255,-0.5159504413604736,9.713874816894531,-4.913330078125,-1.983642578125,-4.08935546875
4.4674999,0.6709750294685364,-0.3645172119140625,9.923367500305176,9.521484375,1.495361328125,0.762939453125
4.4724999,0.6937199234962463,-0.43514615297317505,9.763554573059082,-9.735107421875,0.06103515625,2.410888671875
4.477499900000001,2.115875720977783,-2.0009541511535645,10.15560531616211,53.741455078125,41.3818359375,-1.800537109375
4.4824999000000005,5.04099178314209,-4.89494514465332,12.61923885345459,167.90771484375,107.421875,-46.112060546875
4.4874999,4.934449672698975,-4.86142635345459,13.436260223388672,198.91357421875,125.091552734375,-64.63623046875
4.4924999,4.126406669616699,-4.105457305908203,14.36640739440918,236.083984375,129.486083984375,-78.094482421875
4.4974999,2.521692991256714,-2.2667105197906494,14.846445083618164,240.631103515625,115.020751953125,-74.798583984375
4.5024999,0.7751228213310242,-0.5321113467216492,14.380772590637207,209.8388671875,84.381103515625,-83.953857421875
4.5074999,-0.8918401598930359,1.6531962156295776,13.0729398727417,199.951171875,37.200927734375,-99.12109375
4.5124999,-2.027888774871826,3.6840779781341553,10.888230323791504,148.5595703125,-47.119140625,-118.743896484375
4.5174999,-2.495955228805542,5.655703067779541,6.007051944732666,55.938720703125,-175.6591796875,-139.556884765625
4.522499900000001,-2.0853497982025146,5.476736545562744,3.930680751800537,-17.425537109375,-221.649169921875,-119.537353515625
4.5274999000000005,-1.523909330368042,4.584896087646484,2.630629062652588,-59.295654296875,-244.873046875,-100.189208984375
4.5324999,-1.0606313943862915,3.8821980953216553,1.7076643705368042,-90.423583984375,-234.344482421875,-64.239501953125
4.5374999,-0.5434837937355042,2.8814218044281006,1.0199298858642578,-120.05615234375,-204.925537109375,-37.628173828125
4.5424999,-0.3274070918560028,2.2463598251342773,0.7380126714706421,-110.015869140625,-168.701171875,-15.625
4.5474999,-0.2346317619085312,2.273893117904663,0.5129576921463013,-116.63818359375,-138.763427734375,12.02392578125
4.5524999,-0.17896658182144165,1.8638859987258911,0.6003460884094238,-120.42236328125,-113.22021484375,20.660400390625
4.5574999,-0.20889410376548767,2.405574083328247,1.1971008777618408,-109.06982421875,-83.740234375,30.09033203125
4.562499900000001,-0.011971008032560349,2.919130325317383,3.5930981636047363,-160.980224609375,-33.477783203125,38.543701171875
4.5674999000000005,0.5506663918495178,3.642777919769287,6.035183906555176,-257.26318359375,121.27685546875,34.637451171875
4.5724999,1.0438719987869263,4.6507368087768555,8.775946617126465,-345.367431640625,182.647705078125,70.37353515625
4.5774999,3.7469255924224854,3.4967315196990967,13.42788028717041,-115.41748046875,224.609375,46.234130859375
4.5824999,4.416105270385742,0.5614402890205383,15.200786590576172,60.302734375,178.131103515625,-13.61083984375
4.5874999,4.614823818206787,-2.366069793701172,15.580267906188965,-51.1474609375,66.375732421875,-19.1650390625
4.5924999,3.224989652633667,-5.216965675354004,14.693814277648926,-88.31787109375,41.07666015625,-9.765625
4.5974999,0.8553285598754883,-5.917269706726074,11.72201156616211,-95.062255859375,41.778564453125,-20.20263671875
4.602499900000001,-1.5693992376327515,-5.878363609313965,8.228272438049316,-85.02197265625,31.463623046875,-42.327880859375
4.6074999000000005,-3.511695384979248,-4.724358558654785,5.569511890411377,-60.6689453125,2.01416015625,-37.750244140625
4.6124999,-4.619013786315918,-4.17728328704834,4.20421838760376,-46.051025390625,-13.24462890625,-27.2216796875
4.6174999,-4.775235176086426,-4.21080207824707,4.7375264167785645,0.18310546875,-13.73291015625,-34.637451171875
4.6224999,-4.301782131195068,-4.20541524887085,6.190806865692139,25.177001953125,-23.040771484375,-34.942626953125
4.6274999,-3.111265182495117,-4.773439407348633,7.717709064483643,19.866943359375,-39.97802734375,-39.276123046875
4.6324999,-1.9045875072479248,-4.908711910247803,8.859743118286133,48.980712890625,-53.741455078125,-41.412353515625
4.6374999,0.46627077460289,-4.065354347229004,8.779537200927734,74.70703125,-60.699462890625,-40.069580078125
4.6424999,1.3215993642807007,-3.1950621604919434,8.801085472106934,101.470947265625,-48.187255859375,-38.848876953125
4.647499900000001,2.1146786212921143,-2.2152352333068848,8.846575736999512,80.657958984375,-31.036376953125,-27.64892578125
4.6524999000000005,2.7688941955566406,-1.316810965538025,9.78869342803955,65.399169921875,-31.6162109375,-23.13232421875
4.6574999,3.135805606842041,0.18614917993545532,11.010334968566895,48.2177734375,-19.22607421875,-4.2724609375
4.6624999,3.3722331523895264,1.5646108388900757,11.964424133300781,5.950927734375,-10.1318359375,4.425048828125
4.6674999,3.1735143661499023,2.8610711097717285,12.365452766418457,2.593994140625,-6.16455078125,1.251220703125
4.6724999,2.718616008758545,3.9001545906066895,11.935693740844727,-3.90625,-4.913330078125,8.331298828125
4.6774999,2.2607250213623047,3.9252936840057373,10.664971351623535,-20.538330078125,-2.899169921875,4.180908203125
4.6824999,1.7591396570205688,3.3638534545898438,9.758167266845703,-8.331298828125,5.79833984375,4.241943359375
4.687499900000001,1.5328876972198486,2.647388458251953,9.048286437988281,-21.697998046875,12.786865234375,13.24462890625
4.6924999000000005,1.5161281824111938,0.9463081955909729,8.995614051818848,-26.580810546875,14.70947265625,7.415771484375
4.6974999,1.4658499956130981,-1.347337007522583,9.68574333190918,-21.6064453125,16.693115234375,14.09912109375
4.7024999,1.3060370683670044,-2.253542423248291,9.929352760314941,-7.9345703125,13.5498046875,4.08935546875
4.7074999,0.899621307849884,-2.471414804458618,9.757569313049316,3.35693359375,17.4560546875,6.77490234375
4.7124999,0.5901707410812378,-2.5264813899993896,9.339181900024414,-6.40869140625,12.75634765625,1.03759765625
4.7174999,0.21308395266532898,-2.321178436279297,9.278728485107422,14.312744140625,10.467529296875,-8.453369140625
4.7224999,0.0071826050989329815,-1.6484078168869019,9.235034942626953,13.5498046875,9.674072265625,-1.983642578125
4.727499900000001,0.0071826050989329815,-1.6484078168869019,9.235034942626953,13.5498046875,9.674072265625,-1.983642578125
4.7324999000000005,0.03411737456917763,-1.4616601467132568,9.362525939941406,3.265380859375,2.5634765625,-6.072998046875
4.7374999,0.076015904545784,-0.8900445103645325,9.79527759552002,19.1650390625,1.373291015625,-5.218505859375
4.7424999,0.2687491476535797,-0.3208230137825012,9.971251487731934,3.41796875,-1.434326171875,2.532958984375
4.7474999,0.4818331003189087,-0.08918401598930359,10.140042304992676,-0.6103515625,-6.683349609375,-5.218505859375
4.7524999,0.5644330382347107,0.3878606855869293,10.339360237121582,8.48388671875,-4.608154296875,-0.30517578125
4.7574999,1.027711033821106,-0.9038111567497253,9.389460563659668,0,4.8828125,2.74658203125
4.7624999,1.0157400369644165,-0.9828197956085205,9.53969669342041,-0.885009765625,1.495361328125,-5.584716796875
4.7674999,0.884058952331543,-0.6494272351264954,9.82640266418457,11.04736328125,5.218505859375,-1.373291015625
4.772499900000001,0.8493430614471436,-0.4357447028160095,9.776124000549316,-6.4697265625,3.692626953125,1.922607421875
4.7774999000000005,0.8134300112724304,-0.42616790533065796,9.963470458984375,0.885009765625,0.3662109375,-5.340576171875
4.7824999,0.6955155730247498,-0.22206220030784607,9.832986831665039,-11.260986328125,-1.129150390625,1.5869140625
4.7874999,0.6416460275650024,-0.33997663855552673,9.928155899047852,3.692626953125,-2.3193359375,-3.082275390625
4.7924999,0.6314706802368164,-0.2717418968677521,9.836577415466309,1.129150390625,0.30517578125,4.730224609375
4.7974999,0.7206547260284424,-0.5285200476646423,9.643844604492188,-9.1552734375,-5.0048828125,-1.068115234375
4.8024999,0.9684545993804932,-0.7386112213134766,9.61331844329834,-3.814697265625,-4.08935546875,-3.875732421875
4.8074999,0.9720458984375,-0.6171054840087891,9.789292335510254,10.3759765625,0.762939453125,-0.8544921875
4.812499900000001,1.0247182846069336,-0.5273229479789734,9.696516990661621,-5.9814453125,1.007080078125,3.326416015625
4.8174999000000005,1.0785878896713257,-0.6512228846549988,9.809642791748047,-0.762939453125,-0.762939453125,-4.57763671875
4.8224999,0.9594763517379761,-0.41778820753097534,9.889249801635742,7.232666015625,4.5166015625,1.678466796875
4.8274999,0.9906009435653687,-0.45190557837486267,9.774328231811523,-9.735107421875,2.105712890625,2.044677734375
4.8324999,0.8319851160049438,-0.3429693877696991,9.835380554199219,3.326416015625,4.913330078125,4.119873046875
4.8374999,0.800261914730072,-0.4985924959182739,9.660005569458008,-9.552001953125,0.640869140625,0.18310546875
4.8424999,0.7032967209815979,-0.5536591410636902,9.73542308807373,6.805419921875,1.068115234375,-3.753662109375
4.8474999,0.6356605291366577,-0.4423287510871887,9.655815124511719,0.213623046875,2.38037109375,3.631591796875
4.852499900000001,0.679354727268219,-0.6506243348121643,9.595361709594727,-6.011962890625,-2.62451171875,-3.082275390625
4.8574999000000005,0.6488286852836609,-0.6242880821228027,9.806051254272461,9.8876953125,-0.396728515625,-2.288818359375
4.8624999,0.7092822790145874,-0.49799394607543945,9.749788284301758,-3.326416015625,-0.518798828125,4.058837890625
4.8674999,0.8086416125297546,-0.6560112833976746,9.808445930480957,-2.9296875,-4.638671875,-3.997802734375
4.8724999,0.7924807667732239,-0.4878185987472534,9.991601943969727,8.9111328125,-0.762939453125,-0.091552734375
4.8774999,0.8768763542175293,-0.43993455171585083,9.832387924194336,-7.568359375,-1.983642578125,2.960205078125
4.8824999,0.8858546018600464,-0.3884592354297638,9.889848709106445,6.011962890625,1.068115234375,2.105712890625
4.8874999,0.9289502501487732,-0.5590460896492004,9.782708168029785,4.241943359375,-1.068115234375,-4.486083984375
4.8924999,0.9080010056495667,-0.3944447338581085,9.739013671875,3.265380859375,3.47900390625,3.47900390625
4.897499900000001,0.9307458996772766,-0.5363011956214905,9.57860279083252,-8.544921875,-0.274658203125,-0.67138671875
4.9024999000000005,0.900818407535553,-0.5554547905921936,9.731232643127441,7.6904296875,1.739501953125,-3.448486328125
4.9074999,0.8601169586181641,-0.40282443165779114,9.639056205749512,-0.091552734375,3.936767578125,3.814697265625
4.9124999,0.8954314589500427,-0.5734112858772278,9.62828254699707,-6.2255859375,-0.6103515625,-2.9296875
4.9174999,0.8146271109580994,-0.5153518915176392,9.816825866699219,9.124755859375,2.3193359375,-1.922607421875
4.9224999,0.800261914730072,-0.4082113802433014,9.75936508178711,-4.150390625,2.13623046875,3.997802734375
4.9274999,0.8271966576576233,-0.5829881429672241,9.822212219238281,-3.662109375,-2.044677734375,-3.7841796875
4.9324999,0.7457938194274902,-0.4728548228740692,9.996989250183105,8.36181640625,1.312255859375,0.213623046875
4.937499900000001,0.7709329724311829,-0.4572925269603729,9.815030097961426,-7.32421875,-0.396728515625,3.021240234375
4.9424999000000005,0.8289923667907715,-0.6356605291366577,9.893440246582031,0.06103515625,-2.716064453125,-4.5166015625
4.9474999,0.8846575021743774,-0.5057750940322876,9.604340553283691,-8.636474609375,-1.5869140625,-0.274658203125
4.9524999,0.8702923059463501,-0.5273229479789734,9.73542308807373,6.744384765625,0.213623046875,-3.60107421875
4.9574999,0.8505401611328125,-0.3519476354122162,9.680954933166504,0.6103515625,2.9296875,4.180908203125
4.9624999,0.9145850539207458,-0.524330198764801,9.633668899536133,-7.6904296875,-1.251220703125,-1.953125
4.9674999,0.8583213090896606,-0.5051765441894531,9.838373184204102,8.056640625,1.434326171875,-2.410888671875
4.9724999,0.8888474106788635,-0.3998316824436188,9.749189376831055,-3.021240234375,2.105712890625,4.302978515625
4.977499900000001,0.9050082564353943,-0.6200982332229614,9.767744064331055,-4.669189453125,-2.166748046875,-3.41796875
4.9824999000000005,0.8325836658477783,-0.5428852438926697,9.905410766601562,8.85009765625,1.373291015625,-0.946044921875
4.9874999,0.8080430626869202,-0.5147533416748047,9.779715538024902,-6.04248046875,0.457763671875,3.173828125
4.9924999,0.838569164276123,-0.6901286244392395,9.84376049041748,-1.190185546875,-2.74658203125,-4.547119140625
4.9974999,0.7368155717849731,-0.5285200476646423,9.891045570373535,8.026123046875,1.373291015625,0.9765625
5.0024999,0.8068459630012512,-0.5015852451324463,9.726444244384766,-7.537841796875,-0.885009765625,2.5634765625
5.0074999,0.8415619134902954,-0.6033388376235962,9.797672271728516,1.983642578125,-2.197265625,-4.5166015625
5.0124999,0.7882909178733826,-0.37409400939941406,9.759963035583496,5.55419921875,2.044677734375,2.471923828125
5.0174999,0.8565256595611572,-0.43754035234451294,9.616909980773926,-8.819580078125,-1.220703125,0.946044921875
5.022499900000001,0.8361749649047852,-0.50876784324646,9.742605209350586,4.57763671875,-1.03759765625,-4.241943359375
5.0274999000000005,0.8271966576576233,-0.3363853394985199,9.699509620666504,2.655029296875,2.655029296875,3.692626953125
5.0324999,0.8750807046890259,-0.48243165016174316,9.61331844329834,-8.697509765625,-1.434326171875,-0.48828125
5.0374999,0.862511157989502,-0.5333084464073181,9.762955665588379,6.988525390625,0.3662109375,-3.41796875
5.0424999,0.851138710975647,-0.40701428055763245,9.695918083190918,0.030517578125,2.838134765625,4.119873046875
5.0474999,0.9085995554924011,-0.5961562395095825,9.651026725769043,-6.805419921875,-1.678466796875,-2.25830078125
5.0524999,0.849941611289978,-0.5764040350914001,9.822811126708984,8.60595703125,1.373291015625,-2.38037109375
5.0574999,0.9097966551780701,-0.6404489278793335,9.755773544311523,-4.45556640625,-1.922607421875,-3.326416015625
5.062499900000001,0.8403648138046265,-0.5219359993934631,9.882067680358887,8.880615234375,1.46484375,-0.518798828125
5.0674999000000005,0.8361749649047852,-0.4596867263317108,9.782708168029785,-5.706787109375,0.79345703125,3.47900390625
5.0724999,0.8732850551605225,-0.6171054840087891,9.8599214553833,-1.77001953125,-2.227783203125,-4.547119140625
5.0774999,0.7679402232170105,-0.47584760189056396,9.932345390319824,7.904052734375,1.861572265625,0.885009765625
5.0824999,0.8182184100151062,-0.4638765752315521,9.767744064331055,-7.415771484375,-0.579833984375,2.716064453125
5.0874999,0.8481459617614746,-0.596754789352417,9.838373184204102,1.129150390625,-2.044677734375,-4.547119140625
5.0924999,0.768538773059845,-0.4010287821292877,9.79647445678711,5.9814453125,2.25830078125,2.3193359375
5.0974999,0.823006808757782,-0.4668693244457245,9.659406661987305,-8.392333984375,-1.28173828125,1.15966796875
5.102499900000001,0.8038532137870789,-0.5590460896492004,9.768342971801758,3.96728515625,-1.556396484375,-4.5166015625
5.1074999000000005,0.7841010689735413,-0.3711012601852417,9.748590469360352,3.753662109375,2.166748046875,3.143310546875
5.1124999,0.828393816947937,-0.47225627303123474,9.622296333312988,-8.575439453125,-1.64794921875,-0.244140625
5.1174999,0.8756792545318604,-1.0989385843276978,8.289923667907715,22.39990234375,15.80810546875,52.886962890625
5.1224999,-0.7086837291717529,-1.6657658815383911,4.644751071929932,-30.181884765625,-66.95556640625,52.42919921875
5.1274999,-0.2998737692832947,0.17298106849193573,4.420893669128418,129.39453125,-62.98828125,59.112548828125
5.1324999,0.5554547905921936,-0.0736217051744461,4.525639533996582,40.283203125,-63.873291015625,64.02587890625
5.1374999,0.5273229479789734,2.653373956680298,3.6529531478881836,94.7265625,-66.162109375,4.364013671875
5.1424999,0.9319429993629456,2.4133553504943848,3.6846764087677,-3.448486328125,-76.873779296875,30.242919921875
5.147499900000001,0.6153098344802856,4.062960147857666,3.512892484664917,107.2998046875,-57.586669921875,-1.0986328125
5.1524999000000005,1.5029600858688354,3.250128746032715,5.772420406341553,70.37353515625,-31.8603515625,19.6533203125
5.1574999,2.1775264739990234,2.7509377002716064,6.273406982421875,-45.074462890625,-30.517578125,53.466796875
5.1624999,2.536656618118286,3.201646327972412,6.115389823913574,-40.435791015625,-28.50341796875,15.960693359375
5.1674999,2.565985679626465,3.9187095165252686,5.542576789855957,-58.16650390625,-25.360107421875,26.06201171875
5.1724999,2.5749640464782715,4.1192240715026855,4.909310817718506,-73.089599609375,2.685546875,18.035888671875
5.1774999,2.633023262023926,4.179079055786133,5.182249546051025,-123.291015625,29.937744140625,47.149658203125
5.1824999,3.0795419216156006,3.4141316413879395,5.977723121643066,-129.39453125,46.44775390625,40.435791015625
5.187499900000001,3.7044286727905273,2.7293899059295654,8.052298545837402,-112.945556640625,76.446533203125,50.933837890625
5.1924999000000005,4.463390350341797,0.7703344225883484,10.501566886901855,-29.144287109375,109.039306640625,12.20703125
5.1974999,4.794987678527832,-0.7056909799575806,12.880805015563965,-10.6201171875,91.36962890625,3.814697265625
5.2024999,-2.099714994430542,-3.507505416870117,8.942941665649414,33.966064453125,-12.75634765625,-13.48876953125
5.2074999,-1.956661343574524,-2.497750997543335,9.9185791015625,49.835205078125,-16.693115234375,1.617431640625
5.2124999,-1.5394717454910278,-1.7064672708511353,10.399813652038574,23.712158203125,-28.350830078125,-11.322021484375
5.2174999,-1.1569979190826416,-0.1867477297782898,11.018714904785156,29.998779296875,-27.008056640625,-1.983642578125
5.2224999,-0.4321534037590027,0.7511807680130005,11.128249168395996,-7.171630859375,-36.376953125,-11.993408203125
5.227499900000001,0.13946224749088287,1.8596961498260498,11.434707641601562,11.688232421875,-32.958984375,-3.265380859375
5.2324999000000005,0.8583213090896606,2.1805191040039062,10.9091796875,-23.773193359375,-33.050537109375,-3.96728515625
5.2374999,1.9752163887023926,-1.4167689085006714,9.074024200439453,-15.07568359375,8.056640625,7.171630859375
