# Time (seconds),Accel_X,Accel_Y,Accel_Z,Gyro_X,Gyro_Y,Gyro_Z
0.0024999,0.49619829654693604,-0.2932897210121155,9.516951560974121,-4.913330078125,0.1220703125,-1.03759765625
0.0074999,0.49619829654693604,-0.2932897210121155,9.516951560974121,-4.913330078125,0.1220703125,-1.03759765625
0.012499900000000001,0.5931634902954102,-0.3597288131713867,9.920374870300293,6.2255859375,0.640869140625,-1.77001953125
0.0174999,0.3076549172401428,-0.2406172752380371,9.916783332824707,-1.52587890625,0.06103515625,2.166748046875
0.0224999,0.4836287498474121,-0.30286651849746704,9.609128952026367,-4.33349609375,-0.6103515625,-1.556396484375
0.0274999,0.5099649429321289,-0.3489548861980438,10.043676376342773,6.16455078125,0.244140625,-1.28173828125
0.0324999,0.29209262132644653,-0.2801215946674347,9.864110946655273,-3.35693359375,-0.030517578125,2.25830078125
0.0374999,0.29209262132644653,-0.2801215946674347,9.864110946655273,-3.35693359375,-0.030517578125,2.25830078125
0.0424999,0.45908817648887634,-0.33279404044151306,10.022727012634277,6.4697265625,0.579833984375,-0.67138671875
0.0474999,0.29568392038345337,-0.2495955228805542,9.781511306762695,-4.486083984375,-0.152587890625,1.8310546875
0.0524999,0.5339069962501526,-0.31783026456832886,9.625288963317871,-0.762939453125,-0.396728515625,-2.349853515625
0.0574999,0.4339490532875061,-0.2944868206977844,9.997588157653809,5.67626953125,0.701904296875,0.18310546875
0.0624999,0.3321954905986786,-0.28730419278144836,9.667786598205566,-5.55419921875,-0.152587890625,1.495361328125
0.0674999,0.5147533416748047,-0.2890998423099518,9.654019355773926,0.762939453125,-0.54931640625,-2.838134765625
0.0724999,0.37229835987091064,-0.25498247146606445,10.02811336517334,4.669189453125,0.640869140625,0.732421875
0.0774999,0.29209262132644653,-0.2124854028224945,9.6618013381958,-6.103515625,-0.06103515625,1.007080078125
0.0824999,0.5027823448181152,-0.2561795711517334,9.724050521850586,2.471923828125,-0.42724609375,-2.86865234375
0.0874999,0.395043283700943,-0.2346317619085312,9.97603988647461,3.11279296875,0.54931640625,1.220703125
0.0924999,0.35434186458587646,-0.2621650993824005,9.547477722167969,-6.103515625,0,0.701904296875
0.0974999,0.5626373887062073,-0.3298012912273407,9.722254753112793,4.486083984375,0.06103515625,-2.593994140625
0.1024999,0.40462008118629456,-0.2867056429386139,9.549872398376465,-5.859375,-0.6103515625,-0.1220703125
0.1074999,0.5931634902954102,-0.3363853394985199,9.865307807922363,5.859375,0.457763671875,-2.044677734375
0.1124999,0.3663128614425659,-0.24660277366638184,9.928754806518555,-0.42724609375,0.244140625,1.983642578125
0.1174999,0.4776432514190674,-0.27234044671058655,9.530119895935059,-5.18798828125,-0.6103515625,-0.946044921875
0.1224999,0.5656301379203796,-0.32680854201316833,9.934141159057617,6.134033203125,0,-1.52587890625
0.1274999,0.2861070930957794,-0.21547815203666687,9.914987564086914,-2.0751953125,0.30517578125,2.166748046875
0.1324999,0.4926069974899292,-0.27413609623908997,9.610923767089844,-3.692626953125,-0.579833984375,-1.678466796875
0.1374999,0.5111620426177979,-0.3214215636253357,10.039485931396484,6.4697265625,0.244140625,-1.251220703125
0.1424999,0.2998737692832947,-0.24839842319488525,9.84615421295166,-3.72314453125,0.335693359375,2.349853515625
0.1474999,0.5506663918495178,-0.2974795699119568,9.640253067016602,-1.64794921875,0.1220703125,-2.0751953125
0.1524999,0.45429977774620056,-0.2968810200691223,10.034099578857422,6.2255859375,0.1220703125,-0.640869140625
0.1574999,0.30705636739730835,-0.22445641458034515,9.794678688049316,-5.18798828125,0.274658203125,1.922607421875
0.1624999,0.3411737382411957,-0.25917232036590576,9.64803409576416,-6.103515625,-0.152587890625,1.556396484375
0.1674999,0.5171475410461426,-0.2693476974964142,9.649829864501953,1.77001953125,0.152587890625,-2.532958984375
0.1724999,0.383670836687088,-0.25498247146606445,10.02571964263916,4.39453125,0.18310546875,0.762939453125
0.17749990000000002,0.3106476664543152,-0.22206220030784607,9.651026725769043,-6.4697265625,-0.213623046875,0.91552734375
0.1824999,0.5291185975074768,-0.29628247022628784,9.725846290588379,2.99072265625,-0.335693359375,-2.86865234375
0.1874999,0.41120412945747375,-0.2651578485965729,9.980229377746582,3.173828125,0.42724609375,1.28173828125
0.1924999,0.37169981002807617,-0.30705636739730835,9.543288230895996,-6.2255859375,0.18310546875,0.54931640625
0.1974999,0.5752069354057312,-0.36332011222839355,9.767744064331055,4.45556640625,-0.30517578125,-2.471923828125
0.2024999,0.3519476354122162,-0.29149407148361206,9.970054626464844,1.15966796875,0.1220703125,1.556396484375
0.20749990000000001,0.4106055796146393,-0.3130418658256531,9.547477722167969,-5.889892578125,-0.213623046875,-0.152587890625
0.2124999,0.578798234462738,-0.3627215623855591,9.870096206665039,5.950927734375,0.396728515625,-2.01416015625
0.2174999,0.45010992884635925,-0.28790274262428284,9.534309387207031,-5.035400390625,-0.579833984375,-0.91552734375
0.2224999,0.5309142470359802,-0.3321954905986786,9.962871551513672,6.2255859375,0.091552734375,-1.40380859375
0.2274999,0.2621650993824005,-0.23403321206569672,9.911396026611328,-2.3193359375,-0.335693359375,2.0751953125
0.2324999,0.4991910457611084,-0.29867666959762573,9.633070945739746,-3.570556640625,-0.6103515625,-1.800537109375
0.2374999,0.5099649429321289,-0.35075053572654724,10.02452278137207,6.28662109375,0.213623046875,-1.007080078125
0.2424999,0.3250128924846649,-0.2867056429386139,9.816226959228516,-3.753662109375,0.030517578125,2.105712890625
0.2474999,0.5740098357200623,-0.3363853394985199,9.600749015808105,-1.8310546875,0.152587890625,-2.288818359375
0.2524999,0.47405192255973816,-0.32022446393966675,9.989208221435547,6.072998046875,0.091552734375,-0.518798828125
0.2574999,0.33997663855552673,-0.25079262256622314,9.746794700622559,-5.218505859375,-0.274658203125,1.861572265625
0.2624999,0.5464765429496765,-0.29388827085494995,9.610923767089844,0.30517578125,0.213623046875,-2.471923828125
0.2674999,0.4231751561164856,-0.2645592987537384,9.975440979003906,5.37109375,-0.1220703125,0.274658203125
0.2724999,0.3357867896556854,-0.243011474609375,10.029909133911133,4.2724609375,0.42724609375,1.190185546875
0.2774999,0.27234044671058655,-0.2148796021938324,9.62947940826416,-6.317138671875,-0.244140625,0.640869140625
0.2824999,0.5009866952896118,-0.30705636739730835,9.710882186889648,3.23486328125,-0.335693359375,-2.8076171875
0.28749990000000003,0.3734954595565796,-0.262763649225235,9.960477828979492,2.685546875,0.213623046875,1.64794921875
0.2924999,0.3621230125427246,-0.30226796865463257,9.537302017211914,-6.072998046875,-0.518798828125,0.213623046875
0.2974999,0.5776011347770691,-0.3387795388698578,9.790489196777344,4.57763671875,-0.030517578125,-2.838134765625
0.3024999,0.3621230125427246,-0.25498247146606445,9.981427192687988,0.79345703125,0.396728515625,1.922607421875
0.3074999,0.45190557837486267,-0.2783259451389313,9.545083999633789,-5.401611328125,-0.213623046875,-0.213623046875
0.3124999,0.606930136680603,-0.33518823981285095,9.874884605407715,5.279541015625,-0.244140625,-2.0751953125
0.3174999,0.3513490855693817,-0.2454056739807129,9.905410766601562,-0.946044921875,0.30517578125,2.01416015625
0.3224999,0.31184476613998413,-0.2603694200515747,9.822212219238281,-4.33349609375,-0.213623046875,1.861572265625
0.3274999,0.5566518902778625,-0.32680854201316833,9.625887870788574,-1.52587890625,-0.91552734375,-2.13623046875
0.3324999,0.46088382601737976,-0.30705636739730835,10.01075553894043,5.828857421875,0.274658203125,-0.1220703125
0.3374999,0.3429693877696991,-0.2735375463962555,9.72285270690918,-5.43212890625,-0.152587890625,1.861572265625
0.3424999,0.5488707423210144,-0.2950853705406189,9.61451530456543,0.6103515625,-0.152587890625,-2.44140625
0.34749990000000003,0.42197805643081665,-0.26096799969673157,9.96945571899414,5.096435546875,0.48828125,0.396728515625
0.35249990000000003,0.32022446393966675,-0.24779987335205078,9.623494148254395,-6.256103515625,0.1220703125,1.251220703125
0.3574999,0.4967968463897705,-0.2651578485965729,9.661202430725098,2.410888671875,0.30517578125,-2.593994140625
0.3624999,0.37469255924224854,-0.2454056739807129,9.993996620178223,3.997802734375,0.640869140625,0.946044921875
0.3674999,0.5249287486076355,-0.31543606519699097,9.693524360656738,3.631591796875,-0.732421875,-2.471923828125
0.3724999,0.35494041442871094,-0.24899697303771973,9.951498985290527,2.0751953125,0.091552734375,1.373291015625
0.3774999,0.3477577865123749,-0.2902969419956207,9.518148422241211,-6.256103515625,-0.6103515625,0.1220703125
0.3824999,0.545877993106842,-0.333991140127182,9.810839653015137,5.218505859375,-0.244140625,-2.410888671875
0.3874999,0.3232172429561615,-0.26336219906806946,9.938331604003906,0.1220703125,-0.030517578125,1.708984375
0.3924999,0.42676645517349243,-0.30047231912612915,9.50498104095459,-5.584716796875,-0.42724609375,-0.732421875
0.3974999,0.5644330382347107,-0.3687070608139038,9.85034465789795,6.134033203125,-0.1220703125,-2.01416015625
0.4024999,0.5153518915176392,-0.3447650372982025,10.002376556396484,6.65283203125,0.18310546875,-1.40380859375
0.4074999,0.27054479718208313,-0.25498247146606445,9.889249801635742,-3.021240234375,0.091552734375,2.288818359375
0.41249990000000003,0.5237316489219666,-0.3076549172401428,9.651026725769043,-2.9296875,-0.579833984375,-2.01416015625
0.41749990000000003,0.444722980260849,-0.29209262132644653,10.000580787658691,5.859375,-0.1220703125,-0.244140625
0.4224999,0.333991140127182,-0.2717418968677521,9.675567626953125,-5.645751953125,-0.335693359375,1.953125
0.4274999,0.535702645778656,-0.30526071786880493,9.61212158203125,1.0986328125,0.1220703125,-2.38037109375
0.4324999,0.38965633511543274,-0.25498247146606445,9.980828285217285,4.94384765625,0.213623046875,0.396728515625
0.4374999,0.2968810200691223,-0.2495955228805542,9.640851974487305,-6.317138671875,-0.274658203125,0.9765625
0.4424999,0.4770447015762329,-0.27413609623908997,9.695320129394531,2.532958984375,-0.274658203125,-2.716064453125
0.4474999,0.37169981002807617,-0.2454056739807129,9.999382972717285,3.60107421875,0.54931640625,1.0986328125
0.4524999,0.31603461503982544,-0.25737667083740234,9.576208114624023,-6.439208984375,-0.06103515625,0.701904296875
0.4574999,0.5416881442070007,-0.314238965511322,9.710882186889648,3.96728515625,-0.396728515625,-2.74658203125
0.4624999,0.35254621505737305,-0.2322375625371933,9.96825885772705,2.0751953125,0.274658203125,1.556396484375
0.4674999,0.31364041566848755,-0.22625206410884857,9.892841339111328,-1.953125,-0.091552734375,1.89208984375
0.47249990000000003,0.49559974670410156,-0.28550854325294495,9.57979965209961,-4.2724609375,-0.48828125,-1.373291015625
0.47749990000000003,0.5380968451499939,-0.3256114423274994,10.020332336425781,6.866455078125,0.701904296875,-1.220703125
0.4824999,0.31124621629714966,-0.26336219906806946,9.8599214553833,-3.41796875,0.42724609375,2.105712890625
0.4874999,0.5620388388633728,-0.33039984107017517,9.638457298278809,-2.25830078125,0.06103515625,-2.044677734375
0.4924999,0.4800374507904053,-0.3363853394985199,10.031106948852539,6.40869140625,0.30517578125,-0.67138671875
0.4974999,0.30945056676864624,-0.27234044671058655,9.803657531738281,-4.730224609375,0.213623046875,2.166748046875
0.5024999,0.5363011956214905,-0.33039984107017517,9.622296333312988,-0.457763671875,-0.152587890625,-2.44140625
0.5074999,0.3274070918560028,-0.2825157940387726,9.648633003234863,-5.92041015625,-0.030517578125,1.64794921875
0.5124999,0.5117605924606323,-0.2777273952960968,9.624092102050781,1.03759765625,-0.457763671875,-2.5634765625
0.5174999,0.3728969097137451,-0.23163901269435883,10.005369186401367,4.5166015625,0.18310546875,0.518798828125
0.5224999,0.2867056429386139,-0.21128830313682556,9.650428771972656,-6.40869140625,-0.1220703125,1.312255859375
0.5274999,0.4908113479614258,-0.2753331959247589,9.706093788146973,3.11279296875,0.091552734375,-2.838134765625
0.5324999,0.38127660751342773,-0.2519897222518921,9.9772367477417,3.11279296875,0.335693359375,1.129150390625
0.5374999,0.33997663855552673,-0.3010708689689636,9.543288230895996,-6.439208984375,-0.335693359375,0.42724609375
0.5424999,0.5488707423210144,-0.3411737382411957,9.719860076904297,4.302978515625,-0.152587890625,-2.5634765625
0.5474999,0.3477577865123749,-0.27054479718208313,9.962273597717285,1.434326171875,0.3662109375,1.89208984375
0.5524999,0.3968389332294464,-0.29388827085494995,9.528324127197266,-5.7373046875,-0.152587890625,-0.030517578125
0.5574999,0.5913678407669067,-0.33997663855552673,9.836577415466309,5.31005859375,-0.274658203125,-2.44140625
0.5624999,0.5608417391777039,-0.3315969407558441,9.911396026611328,6.28662109375,0.54931640625,-1.922607421875
0.5674999000000001,0.27054479718208313,-0.22086510062217712,9.895833969116211,-1.922607421875,0.396728515625,1.983642578125
0.5724999000000001,0.4728548228740692,-0.28072014451026917,9.63187313079834,-3.35693359375,-0.18310546875,-1.46484375
0.5774999000000001,0.48063600063323975,-0.31842881441116333,10.045472145080566,6.16455078125,0,-1.0986328125
0.5824999,0.28072014451026917,-0.2711433470249176,9.841365814208984,-4.0283203125,-0.091552734375,2.13623046875
0.5874999,0.5351040959358215,-0.34356793761253357,9.619303703308105,-1.861572265625,-0.152587890625,-2.166748046875
0.5924999,0.45489832758903503,-0.32202014327049255,9.985017776489258,6.2255859375,0.701904296875,-0.6103515625
0.5974999,0.3232172429561615,-0.26336219906806946,9.740211486816406,-4.82177734375,-0.06103515625,1.739501953125
0.6024999,0.5554547905921936,-0.2932897210121155,9.598953247070312,-0.274658203125,-0.091552734375,-2.38037109375
0.6074999,0.44592007994651794,-0.23523031175136566,9.955689430236816,5.401611328125,0.18310546875,0.091552734375
0.6124999,0.3357867896556854,-0.23582886159420013,9.631275177001953,-6.04248046875,-0.42724609375,1.556396484375
0.6174999,0.5033808946609497,-0.22385786473751068,9.647436141967773,1.617431640625,0.274658203125,-2.593994140625
0.6224999,0.28311434388160706,-0.19033902883529663,9.638457298278809,-6.195068359375,-0.030517578125,1.068115234375
0.6274999,0.49799394607543945,-0.284311443567276,9.710882186889648,3.11279296875,-0.030517578125,-2.838134765625
0.6324999,0.49799394607543945,-0.284311443567276,9.710882186889648,3.11279296875,-0.030517578125,-2.838134765625
0.6374999,0.36571431159973145,-0.2322375625371933,9.96825885772705,2.777099609375,-0.18310546875,1.129150390625
0.6424999,0.3447650372982025,-0.2603694200515747,9.967061996459961,0.946044921875,0.244140625,1.617431640625
0.6474999,0.3447650372982025,-0.2603694200515747,9.967061996459961,0.946044921875,0.244140625,1.617431640625
0.6524999,0.44173020124435425,-0.3076549172401428,9.544485092163086,-5.401611328125,0.30517578125,-0.213623046875
0.6574999,0.6177040338516235,-0.36750996112823486,9.86770248413086,5.645751953125,-0.42724609375,-1.953125
0.6624999,0.3794809579849243,-0.27653029561042786,9.904812812805176,-1.0986328125,0.1220703125,1.983642578125
0.6674999,0.5099649429321289,-0.3076549172401428,9.520543098449707,-4.82177734375,-0.18310546875,-1.220703125
0.6724999,0.5758054852485657,-0.3357867896556854,9.972448348999023,6.89697265625,0.8544921875,-1.5869140625
0.6774999,0.5279214978218079,-0.31124621629714966,9.61571216583252,-2.960205078125,-0.213623046875,-1.8310546875
0.6824999,0.5279214978218079,-0.31124621629714966,9.61571216583252,-2.960205078125,-0.213623046875,-1.8310546875
0.6874999,0.49380409717559814,-0.33758243918418884,10.013150215148926,6.7138671875,0.457763671875,-1.15966796875
0.6924999000000001,0.2902969419956207,-0.27413609623908997,9.798270225524902,-4.2724609375,0,2.105712890625
0.6974999000000001,0.5279214978218079,-0.3280056416988373,9.610325813293457,-1.739501953125,-0.91552734375,-2.105712890625
0.7024999000000001,0.4213795065879822,-0.2908954918384552,10.005967140197754,6.103515625,0.48828125,-0.457763671875
0.7074999,0.3010708689689636,-0.2537853717803955,9.709685325622559,-5.218505859375,-0.213623046875,1.77001953125
0.7124999,0.5111620426177979,-0.28371289372444153,9.601945877075195,0.732421875,0.06103515625,-2.38037109375
0.7174999,0.38965633511543274,-0.24181437492370605,9.9586820602417,4.974365234375,0.54931640625,0.42724609375
0.7224999,0.30286651849746704,-0.2454056739807129,9.607333183288574,-6.134033203125,-0.3662109375,1.15966796875
0.7274999,0.4908113479614258,-0.26396074891090393,9.651026725769043,2.044677734375,-0.30517578125,-2.655029296875
0.7324999,0.37888240814208984,-0.23523031175136566,9.993996620178223,3.936767578125,0.30517578125,1.129150390625
0.7374999,0.3256114423274994,-0.2406172752380371,9.573814392089844,-6.317138671875,-0.274658203125,0.579833984375
0.7424999,0.3705027103424072,-0.2406172752380371,9.951498985290527,2.3193359375,0.6103515625,1.52587890625
0.7474999,0.375291109085083,-0.2885012924671173,9.52353572845459,-6.134033203125,-0.030517578125,0
0.7524999,0.5692214369773865,-0.3172317147254944,9.821614265441895,5.31005859375,0.48828125,-2.44140625
0.7574999,0.345363587141037,-0.25498247146606445,9.946112632751465,0.3662109375,0.1220703125,2.044677734375
0.7624999,0.43754035234451294,-0.2819172441959381,9.527725219726562,-5.4931640625,-0.396728515625,-0.457763671875
0.7674999,0.5614402890205383,-0.34835633635520935,9.899425506591797,6.53076171875,0.30517578125,-2.13623046875
0.7724999,0.2801215946674347,-0.23762452602386475,9.907206535339355,-1.373291015625,0.213623046875,2.01416015625
0.7774999,0.444722980260849,-0.2968810200691223,9.586383819580078,-4.150390625,0.091552734375,-1.03759765625
0.7824999,0.5015852451324463,-0.3357867896556854,10.033500671386719,6.591796875,0.244140625,-1.312255859375
0.7874999,0.2801215946674347,-0.26994624733924866,9.882067680358887,-3.173828125,0.152587890625,2.105712890625
0.7924999,0.5434837937355042,-0.3357867896556854,9.64564037322998,-2.471923828125,-0.18310546875,-2.0751953125
0.7974999,0.507570743560791,-0.2561795711517334,9.626486778259277,1.068115234375,0.030517578125,-2.685546875
0.8024999,0.28311434388160706,-0.2148796021938324,9.649829864501953,-6.256103515625,-0.152587890625,1.129150390625
0.8074999,0.4842272996902466,-0.28072014451026917,9.692327499389648,3.082275390625,0.30517578125,-2.62451171875
0.8124999,0.38307225704193115,-0.2346317619085312,9.970054626464844,3.509521484375,0.48828125,1.220703125
0.8174999000000001,0.3423708379268646,-0.28790274262428284,9.530119895935059,-6.28662109375,-0.152587890625,0.518798828125
0.8224999000000001,0.5644330382347107,-0.3172317147254944,9.707889556884766,4.0283203125,-0.18310546875,-2.410888671875
0.8274999000000001,0.3711012601852417,-0.243011474609375,9.959280967712402,1.617431640625,0.18310546875,1.556396484375
0.8324999000000001,0.5650315880775452,-0.33758243918418884,9.907805442810059,6.500244140625,0.3662109375,-1.8310546875
0.8374999,0.27712884545326233,-0.2322375625371933,9.888052940368652,-2.38037109375,0.06103515625,2.0751953125
0.8424999,0.47165772318840027,-0.2998737692832947,9.606734275817871,-3.662109375,-0.1220703125,-1.495361328125
0.8474999,0.48602294921875,-0.3166331648826599,10.029909133911133,6.744384765625,0,-1.190185546875
0.8524999,0.28072014451026917,-0.28371289372444153,9.820416450500488,-3.7841796875,-0.030517578125,1.953125
0.8574999,0.5345055460929871,-0.35494041442871094,9.607333183288574,-1.678466796875,0.06103515625,-2.197265625
0.8624999,0.45669397711753845,-0.30047231912612915,9.974244117736816,5.9814453125,0.244140625,-0.42724609375
0.8674999,0.3232172429561615,-0.26994624733924866,9.730035781860352,-5.279541015625,-0.244140625,1.89208984375
0.8724999,0.5602431893348694,-0.3124433159828186,9.593565940856934,-0.396728515625,-0.732421875,-2.471923828125
0.8774999,0.34835633635520935,-0.2890998423099518,9.635464668273926,-5.7373046875,0.030517578125,1.312255859375
0.8824999,0.37229835987091064,-0.23523031175136566,10.022128105163574,4.5166015625,0.823974609375,0.885009765625
0.8874999,0.2890998423099518,-0.2406172752380371,9.625288963317871,-6.378173828125,0.06103515625,0.946044921875
0.8924999,0.49320554733276367,-0.2932897210121155,9.707290649414062,3.448486328125,0.18310546875,-2.838134765625
0.8974999,0.3513490855693817,-0.2346317619085312,9.97364616394043,2.62451171875,0.274658203125,1.190185546875
0.9024999,0.32441434264183044,-0.30705636739730835,9.541492462158203,-6.439208984375,-0.640869140625,0.274658203125
0.9074999,0.5321113467216492,-0.30885201692581177,9.807847023010254,4.852294921875,0.152587890625,-2.471923828125
0.9124999,0.33099839091300964,-0.2555810213088989,9.996989250183105,1.03759765625,0.18310546875,1.64794921875
0.9174999,0.4124012291431427,-0.2849099934101105,9.553462982177734,-5.645751953125,-0.396728515625,-0.396728515625
0.9224999,0.5949591398239136,-0.3172317147254944,9.864709854125977,5.828857421875,0.335693359375,-2.13623046875
0.9274999,0.35494041442871094,-0.2555810213088989,9.889848709106445,-0.91552734375,0,1.861572265625
0.9324999,0.5644330382347107,-0.3106476664543152,9.943717956542969,6.65283203125,0.6103515625,-1.52587890625
0.9374999,0.3016694188117981,-0.2663549482822418,9.88386344909668,-2.62451171875,0.244140625,2.227783203125
0.9424999000000001,0.5321113467216492,-0.3250128924846649,9.616909980773926,-3.204345703125,-0.48828125,-1.52587890625
0.9474999000000001,0.5195417404174805,-0.2849099934101105,10.032901763916016,6.40869140625,0,-1.068115234375
0.9524999000000001,0.30885201692581177,-0.2717418968677521,9.838373184204102,-4.364013671875,-0.18310546875,1.953125
0.9574999000000001,0.5446808934211731,-0.3016694188117981,9.636063575744629,-1.52587890625,-0.518798828125,-2.044677734375
0.9624999,0.4423287510871887,-0.21966800093650818,10.031106948852539,5.767822265625,0.091552734375,-0.396728515625
0.9674999,0.30526071786880493,-0.2561795711517334,9.751583099365234,-5.4931640625,-0.518798828125,1.861572265625
0.9724999,0.5207388401031494,-0.2555810213088989,9.625887870788574,0.42724609375,-0.3662109375,-2.410888671875
0.9774999,0.4016273319721222,-0.21308395266532898,9.990405082702637,4.974365234375,0.06103515625,0.244140625
0.9824999,0.3100491166114807,-0.2621650993824005,9.638457298278809,-6.2255859375,-0.3662109375,1.251220703125
0.9874999,0.4902127981185913,-0.21667525172233582,9.674968719482422,2.197265625,0.18310546875,-2.471923828125
0.9924999,0.32441434264183044,-0.2388216257095337,9.618705749511719,-6.04248046875,-0.213623046875,0.67138671875
0.9974999,0.5524620413780212,-0.31124621629714966,9.715670585632324,3.570556640625,-0.18310546875,-2.9296875
1.0024999,0.40521863102912903,-0.28790274262428284,9.970054626464844,2.3193359375,0.579833984375,1.556396484375
1.0074999000000002,0.383670836687088,-0.3190273642539978,9.544485092163086,-6.195068359375,0.152587890625,0.396728515625
1.0124999000000001,0.586579442024231,-0.33339259028434753,9.807249069213867,5.157470703125,0.48828125,-2.50244140625
1.0174999000000002,0.3555389642715454,-0.2867056429386139,9.956287384033203,0.6103515625,0.42724609375,1.861572265625
1.0224999000000001,0.43335050344467163,-0.292691171169281,9.513958930969238,-5.645751953125,-0.213623046875,-0.244140625
1.0274999,0.5805938839912415,-0.3387795388698578,9.845556259155273,5.79833984375,-0.3662109375,-2.25830078125
1.0324999000000001,0.31783026456832886,-0.25019407272338867,9.86351203918457,-0.885009765625,-0.3662109375,1.800537109375
1.0374999,0.4423287510871887,-0.27473464608192444,9.522936820983887,-4.364013671875,-0.030517578125,-0.91552734375
1.0424999000000001,0.5207388401031494,-0.3010708689689636,9.989806175231934,6.439208984375,0.30517578125,-1.495361328125
1.0474999,0.27653029561042786,-0.23582886159420013,9.910199165344238,-2.86865234375,-0.213623046875,2.044677734375
1.0524999000000002,0.5668272376060486,-0.33698388934135437,9.670180320739746,-1.52587890625,-0.823974609375,-2.288818359375
1.0574999,0.45908817648887634,-0.3100491166114807,10.04188060760498,5.828857421875,0.335693359375,-0.152587890625
1.0624999000000002,0.33039984107017517,-0.28131869435310364,9.748590469360352,-5.37109375,-0.06103515625,1.77001953125
1.0674999,0.535702645778656,-0.2992752194404602,9.624691009521484,0.152587890625,-0.244140625,-2.685546875
1.0724999000000002,0.4010287821292877,-0.26396074891090393,9.988609313964844,5.462646484375,0.457763671875,0.18310546875
1.0774999,0.2968810200691223,-0.26096799969673157,9.653421401977539,-6.04248046875,-0.152587890625,1.373291015625
1.0824999000000002,0.47165772318840027,-0.2472013235092163,9.692327499389648,1.861572265625,-0.244140625,-2.777099609375
1.0874999,0.36092591285705566,-0.23523031175136566,10.041281700134277,3.90625,-0.274658203125,0.823974609375
1.0924999000000002,0.30945056676864624,-0.22625206410884857,9.63187313079834,-6.622314453125,-0.8544921875,0.823974609375
1.0974999,0.5309142470359802,-0.29388827085494995,9.709086418151855,3.326416015625,-0.1220703125,-2.5634765625
1.1024999000000002,0.3603273630142212,-0.3016694188117981,9.528923034667969,-6.134033203125,-0.640869140625,0.244140625
1.1074999,0.5650315880775452,-0.32202014327049255,9.808445930480957,5.096435546875,0.030517578125,-2.3193359375
1.1124999000000002,0.3447650372982025,-0.2825157940387726,9.971850395202637,0.762939453125,0.518798828125,1.8310546875
1.1174999,0.436343252658844,-0.3064578175544739,9.53849983215332,-5.2490234375,0.30517578125,-0.335693359375
1.1224999000000002,0.456095427274704,-0.28730419278144836,9.544485092163086,-4.638671875,-0.30517578125,-1.0986328125
1.1274999,0.5201402902603149,-0.30526071786880493,9.999981880187988,6.072998046875,0.30517578125,-1.5869140625
1.1324999000000002,0.26156654953956604,-0.2406172752380371,9.905410766601562,-2.716064453125,-0.06103515625,2.01416015625
1.1374999000000001,0.5093663930892944,-0.2992752194404602,9.645041465759277,-3.11279296875,-0.701904296875,-1.64794921875
1.1424999000000002,0.5003881454467773,-0.3196259140968323,10.026318550109863,6.4697265625,0.091552734375,-0.91552734375
1.1474999000000001,0.3172317147254944,-0.2687491476535797,9.792284965515137,-4.302978515625,-0.213623046875,1.953125
1.1524999000000002,0.5638344883918762,-0.28131869435310364,9.603142738342285,0.152587890625,-0.274658203125,-2.593994140625
1.1574999000000001,0.4345476031303406,-0.24600422382354736,9.983820915222168,5.0048828125,0.457763671875,0.091552734375
1.1624999,0.32680854201316833,-0.26336219906806946,9.6618013381958,-5.706787109375,-0.18310546875,1.3427734375
1.1674999000000001,0.48243165016174316,-0.2645592987537384,9.683348655700684,1.8310546875,-0.518798828125,-2.8076171875
1.1724999,0.3561375141143799,-0.23523031175136566,10.02811336517334,3.936767578125,0.18310546875,0.640869140625
1.1774999000000002,0.2849099934101105,-0.243011474609375,9.609726905822754,-6.561279296875,-0.1220703125,0.6103515625
1.1824999,0.4991910457611084,-0.30047231912612915,9.688735961914062,3.41796875,0.091552734375,-2.777099609375
1.1874999000000002,0.36152446269989014,-0.24899697303771973,9.936535835266113,2.532958984375,0.18310546875,1.220703125
1.1924999,0.3405751883983612,-0.29867666959762573,9.509170532226562,-6.256103515625,-0.518798828125,0.18310546875
1.1974999000000002,0.5494692921638489,-0.3082534670829773,9.777320861816406,5.06591796875,0.3662109375,-2.50244140625
1.2024999,0.5817909836769104,-0.3411737382411957,9.854534149169922,5.828857421875,-0.213623046875,-1.983642578125
1.2074999000000002,0.33698388934135437,-0.2759317457675934,9.890447616577148,-0.823974609375,0.18310546875,2.13623046875
1.2124999,0.46148237586021423,-0.32022446393966675,9.515754699707031,-4.547119140625,0.1220703125,-1.190185546875
1.2174999000000002,0.5351040959358215,-0.33698388934135437,9.9772367477417,6.28662109375,0.457763671875,-1.678466796875
1.2224999,0.272938996553421,-0.2693476974964142,9.914987564086914,-2.655029296875,0.06103515625,2.227783203125
1.2274999000000002,0.5063736438751221,-0.3214215636253357,9.651026725769043,-3.173828125,-0.579833984375,-1.5869140625
1.2324999,0.5057750940322876,-0.3190273642539978,10.055646896362305,6.500244140625,0.06103515625,-1.15966796875
1.2374999000000002,0.5057750940322876,-0.3190273642539978,10.055646896362305,6.500244140625,0.06103515625,-1.15966796875
1.2424999,0.30286651849746704,-0.2801215946674347,9.848548889160156,-4.21142578125,0,2.197265625
1.2474999000000002,0.5494692921638489,-0.3357867896556854,9.639056205749512,-1.77001953125,-0.213623046875,-2.13623046875
1.2524999,0.44831427931785583,-0.27712884545326233,10.013748168945312,6.256103515625,0.48828125,-0.54931640625
1.2574999000000002,0.536899745464325,-0.2998737692832947,9.594164848327637,0.18310546875,-0.06103515625,-2.38037109375
1.2624999000000001,0.42676645517349243,-0.23702596127986908,9.950302124023438,5.2490234375,0.244140625,-0.030517578125
1.2674999000000002,0.3256114423274994,-0.2669534981250763,9.606135368347168,-6.256103515625,-0.30517578125,1.40380859375
1.2724999000000001,0.5045779943466187,-0.26336219906806946,9.624691009521484,1.77001953125,0.18310546875,-2.50244140625
1.2774999000000002,0.37828385829925537,-0.21667525172233582,9.99339771270752,4.119873046875,0.06103515625,0.54931640625
1.2824999000000001,0.3076549172401428,-0.24361002445220947,9.598953247070312,-6.317138671875,-0.274658203125,0.823974609375
1.2874999,0.5231330990791321,-0.2801215946674347,9.686341285705566,3.570556640625,0.3662109375,-2.62451171875
1.2924999000000001,0.38965633511543274,-0.22924481332302094,9.941922187805176,2.62451171875,0.42724609375,1.3427734375
1.2974999,0.3585317134857178,-0.28730419278144836,9.525930404663086,-6.439208984375,-0.335693359375,0.274658203125
1.3024999000000002,0.5608417391777039,-0.28550854325294495,9.769539833068848,4.94384765625,0.152587890625,-2.532958984375
1.3074999,0.3489548861980438,-0.2406172752380371,9.980229377746582,1.190185546875,0.1220703125,1.800537109375
1.3124999000000002,0.4118026793003082,-0.29209262132644653,9.546280860900879,-5.615234375,0.030517578125,-0.213623046875
1.3174999,0.28371289372444153,-0.27892449498176575,9.898826599121094,-2.410888671875,0.06103515625,2.0751953125
1.3224999000000002,0.49320554733276367,-0.30466216802597046,9.619303703308105,-3.265380859375,-0.3662109375,-1.708984375
1.3274999,0.5201402902603149,-0.3298012912273407,10.044873237609863,6.40869140625,0.3662109375,-1.190185546875
1.3324999000000002,0.314238965511322,-0.3076549172401428,9.833584785461426,-3.662109375,0.18310546875,2.0751953125
1.3374999,0.5596446394920349,-0.32680854201316833,9.616311073303223,-2.044677734375,-0.06103515625,-2.197265625
1.3424999000000002,0.46746787428855896,-0.29628247022628784,9.998186111450195,6.317138671875,0.091552734375,-0.701904296875
1.3474999,0.3076549172401428,-0.25438392162323,9.767744064331055,-4.8828125,0,1.861572265625
1.3524999000000002,0.5327098965644836,-0.3076549172401428,9.621698379516602,-0.244140625,0.213623046875,-2.410888671875
1.3574999,0.48303020000457764,-0.2974795699119568,9.652822494506836,1.739501953125,0,-2.471923828125
1.3624999000000002,0.2849099934101105,-0.24181437492370605,9.655815124511719,-6.195068359375,-0.457763671875,0.91552734375
1.3674999,0.507570743560791,-0.27473464608192444,9.710283279418945,3.173828125,0.6103515625,-2.62451171875
1.3724999000000002,0.4034229815006256,-0.23283611238002777,9.985017776489258,3.143310546875,0.823974609375,1.373291015625
1.3774999,0.3603273630142212,-0.3058592677116394,9.555258750915527,-6.4697265625,0,0.396728515625
1.3824999000000002,0.5668272376060486,-0.31184476613998413,9.764751434326172,4.33349609375,0,-2.716064453125
1.3874999000000001,0.3603273630142212,-0.26815059781074524,10.02571964263916,1.64794921875,0.152587890625,1.739501953125
1.3924999000000002,0.3998316824436188,-0.2974795699119568,9.602544784545898,-5.767822265625,-0.274658203125,-0.18310546875
1.3974999000000001,0.5907692909240723,-0.32022446393966675,9.920374870300293,5.2490234375,-0.152587890625,-2.50244140625
1.4024999000000002,0.36750996112823486,-0.2663549482822418,9.973047256469727,-0.48828125,-0.152587890625,2.044677734375
1.4074999000000001,0.5620388388633728,-0.30885201692581177,9.937732696533203,6.53076171875,0.67138671875,-1.89208984375
1.4124999,0.2885012924671173,-0.24420857429504395,9.911994934082031,-1.617431640625,0,1.953125
1.4174999000000001,0.4626794755458832,-0.29807811975479126,9.59596061706543,-3.84521484375,-0.3662109375,-1.434326171875
1.4224999,0.5201402902603149,-0.30226796865463257,10.011354446411133,6.622314453125,-0.18310546875,-1.28173828125
1.4274999000000002,0.29568392038345337,-0.2753331959247589,9.851541519165039,-3.47900390625,-0.30517578125,2.25830078125
1.4324999,0.5512649416923523,-0.32441434264183044,9.633070945739746,-2.5634765625,-0.42724609375,-2.044677734375
1.4374999000000002,0.49619829654693604,-0.2711433470249176,10.006566047668457,6.16455078125,0.30517578125,-0.732421875
1.4424999,0.3429693877696991,-0.29209262132644653,9.668983459472656,-5.584716796875,-0.30517578125,2.01416015625
1.4474999000000002,0.5345055460929871,-0.2944868206977844,9.601346969604492,0.8544921875,-0.42724609375,-2.349853515625
1.4524999,0.30047231912612915,-0.24779987335205078,9.650428771972656,-6.34765625,-0.335693359375,1.373291015625
1.4574999000000002,0.4967968463897705,-0.2406172752380371,9.708487510681152,2.655029296875,0.030517578125,-2.62451171875
1.4624999,0.39205053448677063,-0.21128830313682556,10.013150215148926,3.265380859375,0.457763671875,0.885009765625
1.4674999000000002,0.3495534360408783,-0.2759317457675934,9.580398559570312,-6.4697265625,0.030517578125,0.6103515625
1.4724999,0.5560533404350281,-0.2777273952960968,9.694122314453125,4.302978515625,0.91552734375,-2.593994140625
1.4774999000000002,0.38486793637275696,-0.25438392162323,9.923367500305176,1.983642578125,0.6103515625,1.678466796875
1.4824999,0.3669114112854004,-0.2890998423099518,9.509170532226562,-6.011962890625,-0.335693359375,0.06103515625
1.4874999000000002,0.5662286877632141,-0.3010708689689636,9.775525093078613,5.0048828125,-0.091552734375,-2.655029296875
1.4924999,0.3423708379268646,-0.28311434388160706,9.930550575256348,0.457763671875,0,1.953125
1.4974999000000002,0.4321534037590027,-0.3064578175544739,9.511565208435059,-5.279541015625,-0.54931640625,-0.54931640625
1.5024999,0.5758054852485657,-0.34656068682670593,9.86770248413086,5.706787109375,-0.1220703125,-2.197265625
1.5074999000000002,0.3148375153541565,-0.27413609623908997,9.86889934539795,-1.190185546875,0.152587890625,1.983642578125
1.5124999000000001,0.26815059781074524,-0.2555810213088989,9.862914085388184,-2.86865234375,-0.3662109375,1.8310546875
1.5174999000000002,0.5141547918319702,-0.3148375153541565,9.624092102050781,-2.899169921875,-0.244140625,-1.46484375
1.5224999000000001,0.3190273642539978,-0.29388827085494995,9.801262855529785,-3.96728515625,-0.213623046875,1.739501953125
1.5274999000000002,0.5596446394920349,-0.3298012912273407,9.632472038269043,-1.5869140625,0.091552734375,-2.13623046875
1.5324999000000001,0.45190557837486267,-0.2950853705406189,9.986215591430664,6.134033203125,0.48828125,-0.335693359375
1.5374999000000003,0.32441434264183044,-0.2783259451389313,9.747992515563965,-5.218505859375,-0.213623046875,1.556396484375
1.5424999000000001,0.5285200476646423,-0.3016694188117981,9.620500564575195,-0.244140625,-0.30517578125,-2.593994140625
1.5474999,0.40880993008613586,-0.272938996553421,9.995193481445312,5.279541015625,0.18310546875,0.244140625
1.5524999000000002,0.3058592677116394,-0.2777273952960968,9.655217170715332,-6.2255859375,-0.518798828125,1.52587890625
1.5574999,0.48063600063323975,-0.2454056739807129,9.679757118225098,1.64794921875,-0.18310546875,-2.8076171875
1.5624999000000002,0.39624038338661194,-0.24839842319488525,9.961075782775879,2.716064453125,0.30517578125,1.220703125
1.5674999,0.3663128614425659,-0.29807811975479126,9.556455612182617,-5.706787109375,0.30517578125,0.518798828125
1.5724999000000002,0.5638344883918762,-0.30705636739730835,9.766547203063965,5.035400390625,0.946044921875,-2.288818359375
1.5774999,0.3531447649002075,-0.24660277366638184,9.992799758911133,1.40380859375,0.67138671875,1.77001953125
1.5824999000000002,0.40222588181495667,-0.27712884545326233,9.549273490905762,-5.55419921875,0.30517578125,-0.244140625
1.5874999,0.5817909836769104,-0.3106476664543152,9.844358444213867,5.279541015625,-0.1220703125,-2.105712890625
1.5924999000000002,0.3513490855693817,-0.2579752206802368,9.908403396606445,-0.274658203125,0.06103515625,2.044677734375
1.5974999,0.4531026780605316,-0.2819172441959381,9.529520988464355,-4.39453125,0.06103515625,-0.762939453125
1.6024999000000002,0.26994624733924866,-0.22385786473751068,9.943717956542969,-1.89208984375,0.091552734375,2.25830078125
1.6074999,0.31603461503982544,-0.2890998423099518,9.868300437927246,-3.2958984375,0.213623046875,2.3193359375
1.6124999000000002,0.5644330382347107,-0.3363853394985199,9.64803409576416,-2.532958984375,-0.18310546875,-1.5869140625
1.6174999,0.4920084476470947,-0.3208230137825012,10.031704902648926,6.28662109375,0.67138671875,-0.91552734375
1.6224999000000002,0.3292027413845062,-0.2711433470249176,9.79527759552002,-4.486083984375,0.213623046875,1.861572265625
1.6274999,0.5602431893348694,-0.32381579279899597,9.627084732055664,-0.946044921875,0,-1.89208984375
1.6324999000000002,0.45848962664604187,-0.27234044671058655,9.99100399017334,5.462646484375,0.18310546875,-0.091552734375
1.6374999000000001,0.3429693877696991,-0.29867666959762573,9.68155288696289,-5.79833984375,-0.762939453125,1.220703125
1.6424999000000002,0.5183446407318115,-0.2711433470249176,9.654618263244629,1.8310546875,0.579833984375,-2.62451171875
1.6474999000000001,0.3705027103424072,-0.228047713637352,10.026318550109863,4.791259765625,0.3662109375,0.732421875
1.6524999000000002,0.26994624733924866,-0.2017114907503128,9.662399291992188,-6.28662109375,-0.152587890625,1.068115234375
1.6574999000000001,0.45669397711753845,-0.22206220030784607,9.710882186889648,2.288818359375,-0.518798828125,-2.960205078125
1.6624999000000003,0.3010708689689636,-0.2777273952960968,9.588179588317871,-6.4697265625,-0.152587890625,0.701904296875
1.6674999000000001,0.5201402902603149,-0.3381809890270233,9.723451614379883,3.936767578125,0.335693359375,-2.716064453125
1.6724999,0.34656068682670593,-0.2944868206977844,9.983222961425781,2.044677734375,0.152587890625,1.556396484375
1.6774999000000002,0.3669114112854004,-0.3232172429561615,9.570222854614258,-6.28662109375,-0.823974609375,0.213623046875
1.6824999,0.5764040350914001,-0.3280056416988373,9.848548889160156,4.94384765625,-0.457763671875,-2.38037109375
1.6874999000000002,0.36092591285705566,-0.26994624733924866,9.972448348999023,0.244140625,0.030517578125,1.77001953125
1.6924999,0.46567222476005554,-0.2825157940387726,9.542689323425293,-5.035400390625,-0.06103515625,-0.518798828125
1.6974999000000002,0.5907692909240723,-0.32381579279899597,9.890447616577148,5.950927734375,0.48828125,-2.044677734375
1.7024999,0.32620999217033386,-0.2364274114370346,9.906009674072266,-1.312255859375,0.457763671875,2.3193359375
1.7074999000000002,0.4554968774318695,-0.2968810200691223,9.566631317138672,-3.814697265625,0.274658203125,-1.15966796875
1.7124999,0.5153518915176392,-0.31543606519699097,10.017938613891602,6.65283203125,0.48828125,-1.678466796875
1.7174999000000002,0.26815059781074524,-0.27473464608192444,9.917980194091797,-2.74658203125,-0.1220703125,2.197265625
1.7224999,0.557250440120697,-0.314238965511322,9.659406661987305,-0.67138671875,0.42724609375,-1.89208984375
1.7274999000000002,0.4465186297893524,-0.2663549482822418,10.020931243896484,6.195068359375,0.79345703125,-0.274658203125
1.7324999,0.3298012912273407,-0.2669534981250763,9.745597839355469,-5.126953125,0.30517578125,1.52587890625
1.7374999000000002,0.5333084464073181,-0.27712884545326233,9.620500564575195,0.3662109375,-0.274658203125,-2.38037109375
1.7424999,0.41359832882881165,-0.23702596127986908,9.988011360168457,5.157470703125,0.54931640625,0.457763671875
1.7474999000000002,0.3130418658256531,-0.24361002445220947,9.631275177001953,-5.7373046875,0.152587890625,1.220703125
1.7524999,0.48243165016174316,-0.22445641458034515,9.670180320739746,1.89208984375,-0.9765625,-2.685546875
1.7574999000000002,0.36571431159973145,-0.20231004059314728,10.013748168945312,4.150390625,-0.091552734375,0.885009765625
1.7624999000000001,0.36571431159973145,-0.29149407148361206,9.515155792236328,-6.439208984375,-0.244140625,0.3662109375
1.7674999000000002,0.5752069354057312,-0.30945056676864624,9.716269493103027,4.669189453125,0.396728515625,-2.471923828125
1.7724999000000001,0.36990416049957275,-0.26575639843940735,9.909601211547852,1.0986328125,0.274658203125,1.77001953125
1.7774999000000002,0.4429273009300232,-0.3076549172401428,9.484031677246094,-5.43212890625,0.030517578125,-0.48828125
1.7824999000000001,0.6087257862091064,-0.3477577865123749,9.814431190490723,6.011962890625,0.640869140625,-2.166748046875
1.7874999000000003,0.3627215623855591,-0.2801215946674347,9.883264541625977,-0.518798828125,0.3662109375,1.922607421875
1.7924999000000001,0.4602852761745453,-0.31543606519699097,9.537900924682617,-4.852294921875,-0.1220703125,-1.15966796875
1.7974999,0.5249287486076355,-0.333991140127182,9.968857765197754,6.2255859375,0.42724609375,-1.739501953125
1.8024999000000002,0.24839842319488525,-0.2669534981250763,9.93593692779541,-2.349853515625,0.091552734375,1.983642578125
1.8074999,0.45908817648887634,-0.32620999217033386,9.636661529541016,-3.84521484375,-0.732421875,-1.434326171875
1.8124999000000002,0.4854243993759155,-0.32860419154167175,10.051457405090332,6.4697265625,0.152587890625,-1.129150390625
1.8174999,0.2902969419956207,-0.28790274262428284,9.855133056640625,-3.936767578125,-0.335693359375,2.105712890625
1.8224999000000002,0.5422866940498352,-0.3345896899700165,9.655217170715332,-2.13623046875,-0.6103515625,-2.0751953125
1.8274999,0.4638765752315521,-0.3034650683403015,10.035895347595215,5.828857421875,-0.396728515625,-0.67138671875
1.8324999000000002,0.3190273642539978,-0.28131869435310364,9.789292335510254,-5.06591796875,-0.732421875,1.8310546875
1.8374999,0.5614402890205383,-0.32860419154167175,9.62947940826416,-0.06103515625,0.030517578125,-2.5634765625
1.8424999000000002,0.5141547918319702,-0.27892449498176575,9.637260437011719,1.373291015625,0,-2.62451171875
1.8474999,0.36810851097106934,-0.23283611238002777,10.014945983886719,4.486083984375,0.457763671875,0.518798828125
1.8524999000000002,0.2819172441959381,-0.228047713637352,9.642647743225098,-6.072998046875,-0.091552734375,1.007080078125
1.8574999,0.48482584953308105,-0.2717418968677521,9.696516990661621,2.5634765625,-0.579833984375,-2.8076171875
1.8624999000000002,0.3818751573562622,-0.2406172752380371,9.979032516479492,3.021240234375,0.18310546875,1.03759765625
1.8674999,0.38965633511543274,-0.2908954918384552,9.564835548400879,-6.2255859375,-0.3662109375,-0.091552734375
1.8724999000000002,0.586579442024231,-0.3196259140968323,9.869498252868652,5.18798828125,-0.030517578125,-2.197265625
1.8774999,0.3627215623855591,-0.2753331959247589,9.948506355285645,0.06103515625,0.152587890625,1.861572265625
1.8824999000000002,0.46088382601737976,-0.30466216802597046,9.543288230895996,-5.157470703125,-1.007080078125,-0.91552734375
1.8874999000000001,0.5638344883918762,-0.3387795388698578,9.920374870300293,6.591796875,0.518798828125,-1.922607421875
1.8924999000000002,0.29568392038345337,-0.24181437492370605,9.910798072814941,-1.495361328125,0.213623046875,2.105712890625
1.8974999000000001,0.45908817648887634,-0.29388827085494995,9.59596061706543,-4.241943359375,-0.6103515625,-1.3427734375
1.9024999000000002,0.5207388401031494,-0.30526071786880493,10.027515411376953,6.28662109375,0.1220703125,-1.312255859375
1.9074999000000001,0.2932897210121155,-0.2645592987537384,9.879075050354004,-3.265380859375,-0.030517578125,2.0751953125
1.9124999000000003,0.5464765429496765,-0.3166331648826599,9.646238327026367,-2.44140625,0.1220703125,-1.922607421875
1.9174999000000001,0.5566518902778625,-0.29388827085494995,9.567230224609375,-0.8544921875,-0.274658203125,-2.25830078125
1.9224999,0.4602852761745453,-0.228047713637352,9.934141159057617,5.859375,0.244140625,-0.244140625
1.9274999000000002,0.3471592366695404,-0.28131869435310364,9.662399291992188,-5.859375,0.030517578125,1.678466796875
1.9324999,0.5452794432640076,-0.29209262132644653,9.616311073303223,0.67138671875,-0.18310546875,-2.50244140625
1.9374999000000002,0.41778820753097534,-0.22924481332302094,10.003573417663574,4.82177734375,0.48828125,0.48828125
1.9424999,0.3190273642539978,-0.25977087020874023,9.654618263244629,-6.103515625,-0.06103515625,1.220703125
1.9474999000000002,0.5045779943466187,-0.2579752206802368,9.708487510681152,2.13623046875,-0.640869140625,-2.777099609375
1.9524999,0.4010287821292877,-0.2214636504650116,10.038289070129395,3.47900390625,-0.030517578125,0.885009765625
1.9574999000000002,0.34177228808403015,-0.2861070930957794,9.63187313079834,-6.744384765625,-0.8544921875,0.640869140625
1.9624999,0.5512649416923523,-0.3232172429561615,9.750985145568848,4.119873046875,0,-2.62451171875
1.9674999000000002,0.3860650360584259,-0.27473464608192444,9.997588157653809,2.288818359375,0.457763671875,1.556396484375
1.9724999,0.5674257874488831,-0.31124621629714966,9.818621635437012,4.7607421875,-0.244140625,-2.471923828125
1.9774999000000002,0.34356793761253357,-0.2519897222518921,9.962871551513672,0.518798828125,0.244140625,2.13623046875
1.9824999,0.4273650050163269,-0.28371289372444153,9.518747329711914,-5.2490234375,-0.396728515625,-0.67138671875
1.9874999000000002,0.5746083855628967,-0.30885201692581177,9.856329917907715,6.072998046875,0.152587890625,-2.166748046875
1.9924999,0.3274070918560028,-0.2669534981250763,9.882067680358887,-1.0986328125,0.030517578125,2.105712890625
1.9974999000000002,0.4572925269603729,-0.34416648745536804,9.545681953430176,-4.302978515625,-0.244140625,-1.190185546875
2.0024999,0.5410895943641663,-0.3357867896556854,9.995792388916016,6.591796875,0.244140625,-1.8310546875
2.0074999,0.27892449498176575,-0.2992752194404602,9.910199165344238,-2.838134765625,0.213623046875,2.25830078125
2.0124999000000003,0.5237316489219666,-0.3561375141143799,9.65222454071045,-3.23486328125,-0.518798828125,-1.678466796875
2.0174999000000002,0.5105634927749634,-0.2998737692832947,10.031106948852539,5.859375,0.030517578125,-1.28173828125
2.0224999,0.30885201692581177,-0.30885201692581177,9.833584785461426,-4.39453125,-0.274658203125,1.983642578125
2.0274999,0.5452794432640076,-0.3477577865123749,9.637859344482422,-1.28173828125,0.244140625,-2.044677734375
2.0324999000000004,0.4854243993759155,-0.181959331035614,9.717466354370117,0.9765625,-0.457763671875,-2.716064453125
2.0374999000000003,0.4854243993759155,-0.181959331035614,9.717466354370117,0.9765625,-0.457763671875,-2.716064453125
2.0424999,0.35015198588371277,-0.2555810213088989,10.078990936279297,4.2724609375,0.396728515625,0.762939453125
2.0474999,0.2783259451389313,-0.18914192914962769,9.694721221923828,-5.67626953125,0.18310546875,0.946044921875
2.0524999,0.4836287498474121,-0.2717418968677521,9.75397777557373,2.960205078125,-0.396728515625,-2.74658203125
2.0574999000000003,0.3776853084564209,-0.272938996553421,9.976638793945312,3.021240234375,0.244140625,1.251220703125
2.0624999,0.3513490855693817,-0.25079262256622314,9.560047149658203,-6.317138671875,-0.274658203125,0.274658203125
2.0674999,0.5596446394920349,-0.3124433159828186,9.720458984375,4.058837890625,-0.396728515625,-2.3193359375
2.0724999,0.3513490855693817,-0.2585737705230713,9.941324234008789,1.40380859375,0.244140625,1.678466796875
2.0774999000000003,0.45250412821769714,-0.24001872539520264,9.476250648498535,-4.7607421875,-0.457763671875,-0.9765625
2.0824999,0.5422866940498352,-0.3172317147254944,9.865307807922363,5.9814453125,0.274658203125,-2.044677734375
2.0874999,0.27712884545326233,-0.19931729137897491,9.876680374145508,-1.678466796875,0.1220703125,2.3193359375
2.0924999,0.4734533727169037,-0.24600422382354736,9.5624418258667,-3.570556640625,-0.274658203125,-1.46484375
2.0974999000000003,0.517746090888977,-0.3555389642715454,10.004770278930664,6.2255859375,-0.091552734375,-1.556396484375
2.1024999,0.3082534670829773,-0.2555810213088989,9.840767860412598,-3.23486328125,0.091552734375,2.0751953125
2.1074999,0.5602431893348694,-0.3148375153541565,9.62828254699707,-2.349853515625,0.244140625,-1.77001953125
2.1124999,0.4818331003189087,-0.353743314743042,10.031106948852539,5.859375,0.152587890625,-0.762939453125
2.1174999000000003,0.3166331648826599,-0.2406172752380371,9.800664901733398,-4.69970703125,-0.18310546875,1.800537109375
2.1224999,0.5488707423210144,-0.30286651849746704,9.655815124511719,-0.54931640625,0.152587890625,-2.01416015625
2.1274999,0.50876784324646,-0.28131869435310364,9.655217170715332,1.190185546875,0.335693359375,-2.38037109375
2.1324999,0.36152446269989014,-0.26575639843940735,10.033500671386719,4.730224609375,0.3662109375,0.67138671875
2.1374999000000003,0.26994624733924866,-0.2082955539226532,9.676764488220215,-6.16455078125,-0.030517578125,1.068115234375
2.1424999000000002,0.45489832758903503,-0.25019407272338867,9.73661994934082,2.227783203125,-0.18310546875,-2.74658203125
2.1474999,0.3555389642715454,-0.2555810213088989,10.020931243896484,3.41796875,0.152587890625,1.15966796875
2.1524999,0.30945056676864624,-0.25258827209472656,9.589975357055664,-6.53076171875,-0.6103515625,0.762939453125
2.1574999000000004,0.5321113467216492,-0.3561375141143799,9.725846290588379,3.753662109375,0.030517578125,-2.74658203125
2.1624999000000003,0.5680243372917175,-0.353743314743042,9.822811126708984,5.31005859375,0.457763671875,-2.227783203125
2.1674999,0.3555389642715454,-0.25737667083740234,9.968857765197754,0.79345703125,0.396728515625,1.800537109375
2.1724999,0.5764040350914001,-0.3603273630142212,9.901819229125977,6.04248046875,0.213623046875,-2.01416015625
2.1774999000000004,0.31543606519699097,-0.21787235140800476,9.928155899047852,-1.220703125,0.213623046875,1.861572265625
2.1824999000000003,0.44831427931785583,-0.2753331959247589,9.586383819580078,-4.547119140625,0.091552734375,-1.373291015625
2.1874999,0.5135562419891357,-0.3196259140968323,10.04188060760498,6.317138671875,0.54931640625,-1.251220703125
2.1924999,0.2663549482822418,-0.2322375625371933,9.93354320526123,-2.838134765625,0.152587890625,2.227783203125
2.1974999,0.5117605924606323,-0.31603461503982544,9.667187690734863,-2.838134765625,-0.030517578125,-1.8310546875
2.2024999000000003,0.49799394607543945,-0.33339259028434753,10.061034202575684,6.622314453125,-0.30517578125,-0.946044921875
2.2074999,0.3172317147254944,-0.2645592987537384,9.818022727966309,-4.0283203125,-0.48828125,2.25830078125
2.2124999,0.5656301379203796,-0.3214215636253357,9.609128952026367,-1.129150390625,-0.06103515625,-2.25830078125
2.2174999,0.46567222476005554,-0.26096799969673157,9.97364616394043,5.92041015625,0.030517578125,-0.48828125
2.2224999000000003,0.33518823981285095,-0.25498247146606445,9.710882186889648,-5.523681640625,-0.396728515625,1.77001953125
2.2274999,0.5374982953071594,-0.2795230448246002,9.59057331085205,0.3662109375,0.030517578125,-2.50244140625
2.2324999,0.2885012924671173,-0.2106897532939911,9.621698379516602,-6.927490234375,-0.885009765625,0.579833984375
2.2374999,0.5183446407318115,-0.2783259451389313,9.710283279418945,3.5400390625,-0.06103515625,-2.655029296875
2.2424999000000003,0.3693056106567383,-0.322618693113327,9.543886184692383,-6.622314453125,-0.946044921875,0.335693359375
2.2474999,0.5716156363487244,-0.3190273642539978,9.785101890563965,4.94384765625,0.30517578125,-2.532958984375
2.2524999,0.36332011222839355,-0.27413609623908997,9.98681354522705,1.129150390625,0.3662109375,1.617431640625
2.2574999,0.4273650050163269,-0.30526071786880493,9.549273490905762,-5.828857421875,-0.244140625,0
2.2624999000000003,0.5979518890380859,-0.33937808871269226,9.853935241699219,5.92041015625,0.701904296875,-1.983642578125
2.2674999000000002,0.35673606395721436,-0.292691171169281,9.898228645324707,-0.48828125,0.30517578125,1.861572265625
2.2724999,0.2801215946674347,-0.2735375463962555,9.948506355285645,-2.105712890625,0.152587890625,1.89208984375
2.2774999,0.48602294921875,-0.3250128924846649,9.653421401977539,-3.5400390625,-0.457763671875,-1.64794921875
2.2824999000000004,0.5135562419891357,-0.2944868206977844,10.091560363769531,6.439208984375,-0.030517578125,-1.03759765625
2.2874999000000003,0.30466216802597046,-0.2992752194404602,9.898826599121094,-3.72314453125,-0.1220703125,2.0751953125
2.2924999,0.5440823435783386,-0.32202014327049255,9.683947563171387,-1.3427734375,0.335693359375,-2.25830078125
2.2974999,0.4602852761745453,-0.2717418968677521,10.0580415725708,6.256103515625,0.579833984375,-0.3662109375
2.3024999000000004,0.30526071786880493,-0.28371289372444153,9.828198432922363,-4.669189453125,0.244140625,2.0751953125
2.3074999000000003,0.5380968451499939,-0.27234044671058655,9.643245697021484,-0.762939453125,-0.213623046875,-2.410888671875
2.3124999,0.43514615297317505,-0.284311443567276,10.00955867767334,5.706787109375,0.457763671875,-0.030517578125
2.3174999,0.3274070918560028,-0.28550854325294495,9.678560256958008,-5.462646484375,0.213623046875,1.8310546875
2.3224999,0.5093663930892944,-0.2783259451389313,9.650428771972656,1.15966796875,-0.030517578125,-2.777099609375
2.3274999000000003,0.37169981002807617,-0.26336219906806946,10.023923873901367,4.638671875,0.701904296875,0.54931640625
2.3324999,0.2861070930957794,-0.2232593148946762,9.658209800720215,-5.9814453125,0,1.251220703125
2.3374999,0.4728548228740692,-0.25438392162323,9.717466354370117,2.685546875,0.1220703125,-2.74658203125
2.3424999,0.3728969097137451,-0.26336219906806946,9.988011360168457,3.570556640625,0.3662109375,1.007080078125
2.3474999000000003,0.314238965511322,-0.2819172441959381,9.588179588317871,-5.79833984375,-0.54931640625,0.48828125
2.3524999,0.5291185975074768,-0.3232172429561615,9.707290649414062,4.180908203125,-0.244140625,-2.62451171875
2.3574999,0.3471592366695404,-0.2687491476535797,9.970054626464844,2.105712890625,0.18310546875,1.52587890625
2.3624999,0.3669114112854004,-0.26336219906806946,9.54209041595459,-5.828857421875,-0.335693359375,-0.1220703125
2.3674999000000003,0.5626373887062073,-0.30286651849746704,9.833584785461426,5.06591796875,-0.213623046875,-2.227783203125
2.3724999,0.3579331636428833,-0.2513911724090576,9.965266227722168,0.48828125,0,1.8310546875
2.3774999,0.45848962664604187,-0.27413609623908997,9.549872398376465,-5.035400390625,-0.244140625,-0.91552734375
2.3824999,0.5871779918670654,-0.33518823981285095,9.909601211547852,6.011962890625,0.396728515625,-1.89208984375
2.3874999000000003,0.3256114423274994,-0.228047713637352,9.923367500305176,-1.190185546875,0.335693359375,2.288818359375
2.3924999000000002,0.45489832758903503,-0.2561795711517334,9.581595420837402,-4.425048828125,0.213623046875,-1.190185546875
2.3974999,0.5135562419891357,-0.30286651849746704,10.04068374633789,6.103515625,0.48828125,-1.495361328125
2.4024999,0.2603694200515747,-0.23702596127986908,9.913790702819824,-2.716064453125,0.396728515625,2.25830078125
2.4074999000000004,0.5123591423034668,-0.2968810200691223,9.667786598205566,-2.99072265625,0.06103515625,-1.739501953125
2.4124999000000003,0.47644615173339844,-0.333991140127182,10.04427433013916,6.256103515625,0,-1.0986328125
2.4174999,0.2944868206977844,-0.2603694200515747,9.84256362915039,-4.08935546875,0,1.922607421875
2.4224999,0.524330198764801,-0.2968810200691223,9.643844604492188,-1.46484375,-0.030517578125,-2.01416015625
2.4274999000000004,0.524330198764801,-0.2968810200691223,9.643844604492188,-1.46484375,-0.030517578125,-2.01416015625
2.4324999000000003,0.4225766062736511,-0.28371289372444153,10.033500671386719,6.134033203125,0.42724609375,-0.244140625
2.4374999,0.3064578175544739,-0.25079262256622314,9.774328231811523,-5.035400390625,0.1220703125,1.89208984375
2.4424999,0.5291185975074768,-0.28730419278144836,9.633070945739746,0.30517578125,-0.091552734375,-2.62451171875
2.4474999,0.4124012291431427,-0.28072014451026917,9.995792388916016,5.706787109375,0.213623046875,0.335693359375
2.4524999000000003,0.5129576921463013,-0.29628247022628784,9.703699111938477,2.86865234375,-0.213623046875,-2.777099609375
2.4574999,0.5129576921463013,-0.29628247022628784,9.703699111938477,2.86865234375,-0.213623046875,-2.777099609375
2.4624999,0.39205053448677063,-0.28311434388160706,9.961075782775879,2.8076171875,0.54931640625,1.190185546875
2.4674999,0.3597288131713867,-0.3064578175544739,9.567828178405762,-6.34765625,0.091552734375,0.579833984375
2.4724999000000003,0.5560533404350281,-0.3387795388698578,9.758766174316406,4.486083984375,0.244140625,-2.532958984375
2.4774999,0.33997663855552673,-0.262763649225235,9.980828285217285,1.007080078125,0.3662109375,1.708984375
2.4824999,0.5626373887062073,-0.3274070918560028,9.82879638671875,4.791259765625,-0.335693359375,-2.197265625
2.4874999,0.5626373887062073,-0.3274070918560028,9.82879638671875,4.791259765625,-0.335693359375,-2.197265625
2.4924999000000003,0.3387795388698578,-0.27054479718208313,9.90361499786377,-0.457763671875,0.213623046875,2.044677734375
2.4974999,0.44592007994651794,-0.2932897210121155,9.537900924682617,-4.33349609375,-0.06103515625,-0.91552734375
2.5024999,0.46806642413139343,-0.28311434388160706,9.647436141967773,-3.509521484375,0,-1.373291015625
2.5074999,0.46806642413139343,-0.28311434388160706,9.647436141967773,-3.509521484375,0,-1.373291015625
2.5124999000000003,0.5093663930892944,-0.33279404044151306,10.066421508789062,6.317138671875,-0.3662109375,-1.28173828125
2.5174999000000002,0.30047231912612915,-0.2735375463962555,9.88625717163086,-3.692626953125,-0.274658203125,1.983642578125
2.5224999,0.5404910445213318,-0.33698388934135437,9.64923095703125,-2.471923828125,-0.762939453125,-2.0751953125
2.5274999,0.4668693244457245,-0.3411737382411957,10.02811336517334,6.439208984375,0.67138671875,-0.67138671875
2.5324999000000004,0.2932897210121155,-0.2711433470249176,9.783307075500488,-4.45556640625,0,1.739501953125
2.5374999000000003,0.5291185975074768,-0.314238965511322,9.61331844329834,-1.373291015625,-0.762939453125,-2.471923828125
2.5424999,0.4183867573738098,-0.27653029561042786,9.97364616394043,5.645751953125,0.30517578125,0.091552734375
2.5474999,0.3196259140968323,-0.26396074891090393,9.685144424438477,-5.7373046875,-0.091552734375,1.77001953125
2.5524999000000004,0.5039794445037842,-0.27054479718208313,9.639056205749512,0.67138671875,-0.48828125,-2.777099609375
2.5574999000000003,0.3758896589279175,-0.23762452602386475,10.000580787658691,4.913330078125,0.396728515625,0.42724609375
2.5624999,0.375291109085083,-0.28790274262428284,9.576807022094727,-6.134033203125,0,-0.091552734375
2.5674999,0.569819986820221,-0.31364041566848755,9.877279281616211,5.06591796875,0.54931640625,-2.227783203125
2.5724999,0.3489548861980438,-0.2621650993824005,10.014347076416016,0.518798828125,0.335693359375,1.739501953125
2.5774999000000003,0.4381389021873474,-0.28311434388160706,9.573814392089844,-5.43212890625,-0.42724609375,-0.6103515625
2.5824999,0.5764040350914001,-0.3405751883983612,9.88506031036377,5.889892578125,0.030517578125,-1.953125
2.5874999,0.32202014327049255,-0.243011474609375,9.877279281616211,-1.0986328125,-0.30517578125,2.044677734375
2.5924999,0.46567222476005554,-0.27712884545326233,9.510367393493652,-4.302978515625,-0.518798828125,-1.220703125
2.5974999000000003,0.5093663930892944,-0.34356793761253357,10.054450035095215,6.011962890625,0.18310546875,-1.0986328125
2.6024999,0.32202014327049255,-0.27234044671058655,9.853935241699219,-4.5166015625,0.335693359375,2.044677734375
2.6074999,0.5518634915351868,-0.3232172429561615,9.678560256958008,-1.28173828125,1.03759765625,-2.105712890625
2.6124999,0.44532153010368347,-0.2950853705406189,10.058639526367188,6.072998046875,0.42724609375,-0.518798828125
2.6174999000000003,0.31842881441116333,-0.2759317457675934,9.79288387298584,-5.06591796875,-0.42724609375,1.46484375
2.6224999,0.5225345492362976,-0.3130418658256531,9.653421401977539,0.457763671875,-0.030517578125,-2.5634765625
2.6274999,0.4058171808719635,-0.26575639843940735,10.016142845153809,5.828857421875,0.518798828125,0.30517578125
2.6324999,0.3010708689689636,-0.25019407272338867,9.660005569458008,-5.7373046875,-0.18310546875,1.5869140625
2.6374999000000003,0.4704606235027313,-0.22206220030784607,9.673172950744629,1.556396484375,-0.030517578125,-2.838134765625
2.6424999000000002,0.5596446394920349,-0.3429693877696991,9.767146110534668,4.638671875,0.335693359375,-2.62451171875
2.6474999,0.3495534360408783,-0.2645592987537384,9.985616683959961,1.28173828125,0.18310546875,1.434326171875
2.6524999,0.4040215313434601,-0.2950853705406189,9.548674583435059,-5.67626953125,0.244140625,-0.091552734375
2.6574999000000004,0.5740098357200623,-0.3405751883983612,9.854534149169922,5.92041015625,0.67138671875,-1.953125
2.6624999000000003,0.33937808871269226,-0.27054479718208313,9.888052940368652,-0.3662109375,0.518798828125,1.89208984375
2.6674999,0.4405331015586853,-0.29568392038345337,9.514557838439941,-4.852294921875,-0.274658203125,-0.91552734375
2.6724999,0.5273229479789734,-0.3214215636253357,9.923367500305176,6.439208984375,0.335693359375,-1.495361328125
2.6774999000000004,0.25438392162323,-0.21667525172233582,9.900622367858887,-2.0751953125,0.06103515625,2.13623046875
2.6824999000000003,0.46327802538871765,-0.28072014451026917,9.611522674560547,-2.960205078125,-0.06103515625,-1.77001953125
2.6874999,0.30526071786880493,-0.26156654953956604,9.786299705505371,-4.94384765625,0,1.983642578125
2.6924999,0.5392939448356628,-0.3034650683403015,9.624691009521484,-0.640869140625,0.30517578125,-2.25830078125
2.6974999,0.4291606545448303,-0.2537853717803955,9.98681354522705,5.79833984375,0.42724609375,-0.030517578125
2.7024999000000003,0.31842881441116333,-0.27892449498176575,9.66958236694336,-5.4931640625,-0.274658203125,1.556396484375
2.7074999,0.4800374507904053,-0.27473464608192444,9.635464668273926,1.40380859375,0.244140625,-2.3193359375
2.7124999,0.34835633635520935,-0.2214636504650116,10.013150215148926,4.608154296875,0.152587890625,0.79345703125
2.7174999,0.25977087020874023,-0.21308395266532898,9.643844604492188,-6.7138671875,-0.274658203125,1.0986328125
2.7224999000000003,0.6021417379379272,-0.3214215636253357,9.805453300476074,5.126953125,-0.213623046875,-2.471923828125
2.7274999,0.37469255924224854,-0.28969839215278625,9.922768592834473,-0.213623046875,0.18310546875,1.800537109375
2.7324999,0.47644615173339844,-0.33039984107017517,9.52473258972168,-5.218505859375,0.1220703125,-0.518798828125
2.7374999,0.5901707410812378,-0.33937808871269226,9.932944297790527,5.67626953125,-0.335693359375,-2.01416015625
2.7424999000000003,0.3190273642539978,-0.2621650993824005,9.938331604003906,-1.953125,0.06103515625,1.922607421875
2.7474999,0.4728548228740692,-0.3124433159828186,9.625288963317871,-3.936767578125,-0.335693359375,-1.129150390625
2.7524999,0.5237316489219666,-0.28969839215278625,10.053851127624512,6.561279296875,0.274658203125,-1.28173828125
2.7574999,0.284311443567276,-0.2801215946674347,9.910798072814941,-3.23486328125,-0.152587890625,1.953125
2.7624999000000003,0.5249287486076355,-0.3298012912273407,9.655217170715332,-2.86865234375,-1.190185546875,-1.89208984375
2.7674999000000002,0.30286651849746704,-0.28969839215278625,9.818022727966309,-4.57763671875,-0.244140625,1.708984375
2.7724999,0.5494692921638489,-0.3124433159828186,9.644442558288574,-1.03759765625,-0.335693359375,-2.25830078125
2.7774999,0.45429977774620056,-0.2687491476535797,10.005369186401367,5.889892578125,0.244140625,-0.274658203125
2.7824999000000004,0.33698388934135437,-0.3130418658256531,9.710882186889648,-5.31005859375,-0.244140625,1.739501953125
2.7874999000000003,0.5333084464073181,-0.2777273952960968,9.624691009521484,0.79345703125,0.335693359375,-2.5634765625
2.7924999,0.4010287821292877,-0.2669534981250763,9.980229377746582,5.157470703125,0.48828125,0.3662109375
2.7974999,0.29149407148361206,-0.2472013235092163,9.633070945739746,-5.706787109375,-0.3662109375,1.373291015625
2.8024999000000004,0.46986207365989685,-0.228047713637352,9.675567626953125,2.3193359375,-0.152587890625,-2.8076171875
2.8074999000000003,0.35494041442871094,-0.24420857429504395,10.00716495513916,3.7841796875,0,0.67138671875
2.8124999,0.29807811975479126,-0.23403321206569672,9.606734275817871,-6.77490234375,-0.579833984375,0.762939453125
2.8174999,0.5135562419891357,-0.30945056676864624,9.713874816894531,3.509521484375,-0.18310546875,-2.593994140625
2.8224999,0.3794809579849243,-0.2753331959247589,9.981427192687988,2.288818359375,0.244140625,1.0986328125
2.8274999000000003,0.3687070608139038,-0.2651578485965729,10.019734382629395,0.8544921875,0.213623046875,1.678466796875
2.8324999,0.45250412821769714,-0.292691171169281,9.568427085876465,-5.157470703125,-0.335693359375,-0.67138671875
2.8374999,0.6075286865234375,-0.33518823981285095,9.872490882873535,5.92041015625,0,-2.105712890625
2.8424999,0.3627215623855591,-0.2579752206802368,9.906009674072266,-0.79345703125,0.18310546875,1.800537109375
2.8474999000000003,0.47465047240257263,-0.28072014451026917,9.534309387207031,-4.364013671875,-0.030517578125,-1.190185546875
2.8524999,0.5428852438926697,-0.29628247022628784,9.979631423950195,6.591796875,0.6103515625,-1.46484375
2.8574999,0.2801215946674347,-0.22266076505184174,9.932345390319824,-2.410888671875,0.48828125,2.25830078125
2.8624999,0.5009866952896118,-0.28311434388160706,9.650428771972656,-3.326416015625,-0.091552734375,-1.739501953125
2.8674999000000003,0.5171475410461426,-0.30226796865463257,10.052654266357422,6.195068359375,0.244140625,-1.068115234375
2.8724999,0.3196259140968323,-0.2669534981250763,9.865307807922363,-3.936767578125,-0.030517578125,2.227783203125
2.8774999,0.5662286877632141,-0.3250128924846649,9.653421401977539,-1.89208984375,-0.152587890625,-2.01416015625
2.8824999,0.3274070918560028,-0.27473464608192444,9.788095474243164,-4.730224609375,-0.152587890625,2.0751953125
2.8874999000000003,0.5578489899635315,-0.33339259028434753,9.625887870788574,-0.274658203125,-0.6103515625,-2.471923828125
2.8924999000000002,0.45669397711753845,-0.272938996553421,9.992799758911133,5.462646484375,-0.06103515625,-0.244140625
2.8974999,0.3621230125427246,-0.31842881441116333,9.642048835754395,-5.950927734375,-0.67138671875,1.46484375
2.9024999,0.5398924946784973,-0.2968810200691223,9.622895240783691,1.52587890625,-0.274658203125,-2.410888671875
2.9074999000000004,0.40462008118629456,-0.22744916379451752,9.979032516479492,4.608154296875,0.823974609375,0.640869140625
2.9124999000000003,0.314238965511322,-0.24779987335205078,9.585186958312988,-6.04248046875,0.30517578125,0.8544921875
2.9174999,0.5063736438751221,-0.2669534981250763,9.664793968200684,2.685546875,-0.54931640625,-2.838134765625
2.9224999,0.3944447338581085,-0.24600422382354736,9.952696800231934,2.685546875,0.091552734375,1.373291015625
2.9274999000000004,0.33997663855552673,-0.3214215636253357,9.551069259643555,-6.8359375,-0.67138671875,0.274658203125
2.9324999000000003,0.5506663918495178,-0.3124433159828186,9.7605619430542,4.45556640625,0.18310546875,-2.86865234375
2.9374999,0.345363587141037,-0.2717418968677521,10.006566047668457,1.678466796875,0.274658203125,1.8310546875
2.9424999,0.38067805767059326,-0.3058592677116394,9.587580680847168,-5.828857421875,-0.42724609375,-0.091552734375
2.9474999,0.5746083855628967,-0.2950853705406189,9.88506031036377,5.06591796875,-0.42724609375,-2.44140625
2.9524999000000003,0.363918662071228,-0.2968810200691223,9.959878921508789,-0.335693359375,-0.244140625,1.8310546875
2.9574999,0.46148237586021423,-0.31124621629714966,9.558850288391113,-5.462646484375,-0.42724609375,-0.396728515625
2.9624999,0.586579442024231,-0.33339259028434753,9.907206535339355,5.9814453125,0.42724609375,-1.922607421875
2.9674999,0.3100491166114807,-0.27892449498176575,9.898826599121094,-1.617431640625,0.06103515625,1.983642578125
2.9724999000000003,0.4752490520477295,-0.2867056429386139,9.549273490905762,-3.875732421875,-0.48828125,-1.251220703125
2.9774999,0.5231330990791321,-0.3274070918560028,9.974244117736816,6.744384765625,0.213623046875,-1.373291015625
2.9824999,0.29149407148361206,-0.27712884545326233,9.848548889160156,-2.838134765625,-0.1220703125,1.800537109375
2.9874999,0.5345055460929871,-0.31842881441116333,9.61571216583252,-2.8076171875,-0.701904296875,-2.044677734375
2.9924999000000003,0.4866214990615845,-0.30705636739730835,10.016741752624512,6.500244140625,0.274658203125,-0.579833984375
2.9974999,0.4866214990615845,-0.30705636739730835,10.016741752624512,6.500244140625,0.274658203125,-0.579833984375
3.0024999,0.4345476031303406,-0.28371289372444153,9.983820915222168,6.011962890625,-0.213623046875,-0.335693359375
3.0074999,0.4345476031303406,-0.28371289372444153,9.983820915222168,6.011962890625,-0.213623046875,-0.335693359375
3.0124999000000003,0.3214215636253357,-0.2944868206977844,9.715071678161621,-5.035400390625,-0.640869140625,1.556396484375
3.0174999000000002,0.5309142470359802,-0.3106476664543152,9.627683639526367,0.42724609375,-0.579833984375,-2.471923828125
3.0224999,0.4159925580024719,-0.2651578485965729,10.00955867767334,4.913330078125,0.18310546875,0.335693359375
3.0274999,0.32022446393966675,-0.26336219906806946,9.672574996948242,-6.40869140625,-0.335693359375,1.251220703125
3.0324999000000004,0.4991910457611084,-0.24480712413787842,9.709685325622559,1.800537109375,-0.48828125,-2.62451171875
3.0374999000000003,0.38307225704193115,-0.2298433631658554,10.05923843383789,4.150390625,0.457763671875,0.9765625
3.0424999,0.52552729845047,-0.3010708689689636,9.721057891845703,3.7841796875,0.30517578125,-2.655029296875
3.0474999,0.52552729845047,-0.3010708689689636,9.721057891845703,3.7841796875,0.30517578125,-2.655029296875
3.0524999000000004,0.3884592354297638,-0.2519897222518921,9.972448348999023,2.50244140625,0.6103515625,1.5869140625
3.0574999000000003,0.35015198588371277,-0.30226796865463257,9.550470352172852,-6.28662109375,-0.54931640625,0.091552734375
3.0624999,0.33099839091300964,-0.24001872539520264,10.008959770202637,0.79345703125,0.18310546875,1.89208984375
3.0674999,0.4058171808719635,-0.28072014451026917,9.575610160827637,-5.889892578125,-0.6103515625,-0.030517578125
3.0724999000000004,0.5811924338340759,-0.3082534670829773,9.880271911621094,5.706787109375,0.152587890625,-2.349853515625
3.0774999000000003,0.36152446269989014,-0.2759317457675934,9.915586471557617,-0.79345703125,0.091552734375,2.044677734375
3.0824999,0.47644615173339844,-0.3082534670829773,9.526528358459473,-4.730224609375,-0.6103515625,-0.885009765625
3.0874999,0.5722141861915588,-0.30047231912612915,9.946710586547852,6.04248046875,0.3662109375,-1.953125
3.0924999,0.3034650683403015,-0.2519897222518921,9.912593841552734,-2.38037109375,0.30517578125,2.166748046875
3.0974999000000003,0.507570743560791,-0.30226796865463257,9.625288963317871,-3.082275390625,0.30517578125,-1.40380859375
3.1024999,0.536899745464325,-0.30286651849746704,10.030508041381836,6.256103515625,0.06103515625,-1.373291015625
3.1074999,0.32441434264183044,-0.3148375153541565,9.851541519165039,-3.753662109375,-0.091552734375,1.983642578125
3.1124999,0.5620388388633728,-0.31603461503982544,9.634267807006836,-2.166748046875,0.091552734375,-1.953125
3.1174999000000003,0.47225627303123474,-0.30047231912612915,10.001777648925781,6.011962890625,0.1220703125,-0.701904296875
3.1224999,0.424970805644989,-0.2537853717803955,9.950302124023438,5.584716796875,0.244140625,-0.244140625
3.1274999,0.32680854201316833,-0.2801215946674347,9.651625633239746,-5.79833984375,-0.18310546875,1.617431640625
3.1324999,0.5123591423034668,-0.27473464608192444,9.61331844329834,0.79345703125,0,-2.349853515625
3.1374999000000003,0.3776853084564209,-0.2513911724090576,9.982624053955078,4.5166015625,0.244140625,0.335693359375
3.1424999000000002,0.284311443567276,-0.24420857429504395,9.627084732055664,-6.2255859375,-0.3662109375,1.068115234375
3.1474999,0.4668693244457245,-0.23822307586669922,9.692327499389648,2.3193359375,0.152587890625,-2.38037109375
3.1524999,0.3693056106567383,-0.23762452602386475,9.990405082702637,3.35693359375,0.274658203125,0.946044921875
3.1574999000000004,0.3100491166114807,-0.2663549482822418,9.603142738342285,-6.7138671875,-0.640869140625,0.396728515625
3.1624999000000003,0.5351040959358215,-0.314238965511322,9.734225273132324,3.662109375,-0.06103515625,-2.5634765625
3.1674999,0.3687070608139038,-0.28790274262428284,10.005369186401367,2.044677734375,0.48828125,1.5869140625
3.1724999,0.37229835987091064,-0.3166331648826599,9.604340553283691,-6.195068359375,0.030517578125,-0.030517578125
3.1774999000000004,0.3663128614425659,-0.2693476974964142,10.031106948852539,0.457763671875,0.244140625,1.922607421875
3.1824999000000003,0.4495113790035248,-0.2819172441959381,9.586383819580078,-5.584716796875,-0.701904296875,-0.6103515625
3.1874999,0.5985504388809204,-0.32620999217033386,9.900622367858887,5.92041015625,0.640869140625,-1.953125
3.1924999,0.34416648745536804,-0.262763649225235,9.914987564086914,-0.732421875,0.457763671875,1.89208984375
3.1974999000000004,0.45848962664604187,-0.29388827085494995,9.557653427124023,-4.82177734375,-0.6103515625,-1.312255859375
3.2024999000000003,0.5021837949752808,-0.29867666959762573,9.679159164428711,-2.899169921875,0.30517578125,-1.678466796875
3.2074999,0.5099649429321289,-0.314238965511322,10.075998306274414,6.04248046875,-0.06103515625,-1.220703125
3.2124999,0.3172317147254944,-0.28131869435310364,9.82999324798584,-3.84521484375,-0.244140625,2.0751953125
3.2174999,0.5536591410636902,-0.31124621629714966,9.59715747833252,-1.739501953125,-0.06103515625,-1.953125
3.2224999000000003,0.45489832758903503,-0.28131869435310364,9.942521095275879,5.92041015625,0.274658203125,-0.579833984375
3.2274999,0.5333084464073181,-0.27473464608192444,9.575011253356934,-0.30517578125,-0.091552734375,-2.227783203125
3.2324999,0.42856210470199585,-0.2513911724090576,9.974244117736816,5.43212890625,0.213623046875,0.213623046875
3.2374999,0.3345896899700165,-0.26336219906806946,9.64923095703125,-5.7373046875,-0.244140625,1.495361328125
3.2424999000000003,0.49978959560394287,-0.2454056739807129,9.626486778259277,1.3427734375,-0.152587890625,-2.410888671875
3.2474999,0.36571431159973145,-0.2232593148946762,9.981427192687988,4.45556640625,0,0.67138671875
3.2524999,0.2825157940387726,-0.21607670187950134,9.615114212036133,-6.40869140625,-0.6103515625,0.9765625
3.2574999,0.48063600063323975,-0.24899697303771973,9.671976089477539,2.5634765625,-0.42724609375,-2.655029296875
3.2624999000000003,0.3878606855869293,-0.2513911724090576,9.967659950256348,3.204345703125,0,1.312255859375
3.2674999000000002,0.34835633635520935,-0.29807811975479126,9.566631317138672,-6.591796875,-0.6103515625,0.6103515625
3.2724999,0.5626373887062073,-0.33698388934135437,9.741408348083496,4.08935546875,0.457763671875,-2.593994140625
3.2774999,0.3728969097137451,-0.2908954918384552,9.996390342712402,1.922607421875,0.3662109375,1.556396484375
3.2824999000000004,0.4381389021873474,-0.2663549482822418,9.5408935546875,-4.33349609375,-0.67138671875,-1.312255859375
3.2874999000000003,0.4967968463897705,-0.29209262132644653,9.982025146484375,6.256103515625,-0.06103515625,-1.46484375
3.2924999,0.25737667083740234,-0.24899697303771973,9.891644477844238,-2.685546875,-0.244140625,2.288818359375
3.2974999,0.5057750940322876,-0.3130418658256531,9.636661529541016,-3.326416015625,-0.732421875,-1.678466796875
3.3024999000000004,0.49799394607543945,-0.33937808871269226,10.032901763916016,6.7138671875,0.54931640625,-0.8544921875
3.3074999000000003,0.3082534670829773,-0.2944868206977844,9.817423820495605,-4.058837890625,0.213623046875,2.0751953125
3.3124999,0.5512649416923523,-0.32860419154167175,9.633668899536133,-1.312255859375,0.42724609375,-2.044677734375
3.3174999,0.44771572947502136,-0.2801215946674347,10.015543937683105,5.950927734375,0.3662109375,-0.457763671875
3.3224999000000004,0.42018240690231323,-0.2561795711517334,10.021530151367188,5.218505859375,0.579833984375,0.091552734375
3.3274999000000003,0.31124621629714966,-0.27234044671058655,9.679159164428711,-5.950927734375,0.152587890625,1.251220703125
3.3324999,0.4776432514190674,-0.24361002445220947,9.700706481933594,1.03759765625,-0.67138671875,-2.655029296875
3.3374999,0.35434186458587646,-0.22924481332302094,10.0580415725708,3.936767578125,0.457763671875,0.885009765625
3.3424999,0.2801215946674347,-0.2124854028224945,9.667786598205566,-6.2255859375,-0.152587890625,0.91552734375
3.3474999000000003,0.5063736438751221,-0.2651578485965729,9.734225273132324,2.38037109375,-0.823974609375,-2.716064453125
3.3524999,0.3974374830722809,-0.25917232036590576,9.983820915222168,2.593994140625,0.48828125,1.40380859375
3.3574999,0.3669114112854004,-0.3034650683403015,9.55705451965332,-6.134033203125,0.18310546875,0.54931640625
3.3624999,0.5740098357200623,-0.3130418658256531,9.746794700622559,4.45556640625,0.244140625,-2.74658203125
3.3674999000000003,0.3687070608139038,-0.2621650993824005,9.983820915222168,1.312255859375,0.274658203125,1.708984375
3.3724999,0.40701428055763245,-0.27473464608192444,9.548076629638672,-5.645751953125,-0.030517578125,-0.06103515625
3.3774999,0.29149407148361206,-0.22266076505184174,9.934141159057617,-1.556396484375,0.091552734375,1.983642578125
3.3824999,0.45908817648887634,-0.2753331959247589,9.622296333312988,-4.119873046875,-0.91552734375,-1.434326171875
3.3874999000000003,0.5051765441894531,-0.30466216802597046,10.04427433013916,6.439208984375,-0.152587890625,-1.46484375
3.3924999000000002,0.28311434388160706,-0.27473464608192444,9.883264541625977,-3.265380859375,-0.48828125,2.13623046875
3.3974999,0.5351040959358215,-0.3208230137825012,9.640851974487305,-2.532958984375,-0.54931640625,-1.800537109375
3.4024999,0.4818331003189087,-0.32022446393966675,10.023923873901367,6.134033203125,0.06103515625,-0.91552734375
3.4074999000000004,0.31603461503982544,-0.27473464608192444,9.785101890563965,-4.669189453125,-0.06103515625,1.983642578125
3.4124999000000003,0.5548562407493591,-0.3172317147254944,9.61212158203125,-0.9765625,-0.67138671875,-2.166748046875
3.4174999,0.45908817648887634,-0.28311434388160706,9.976638793945312,5.92041015625,0.640869140625,-0.091552734375
3.4224999,0.3405751883983612,-0.2992752194404602,9.701904296875,-5.218505859375,0.274658203125,1.800537109375
3.4274999000000004,0.5345055460929871,-0.3076549172401428,9.639654159545898,0.518798828125,-0.091552734375,-2.50244140625
3.4324999000000003,0.3992331326007843,-0.2783259451389313,10.017339706420898,5.035400390625,0.54931640625,0.30517578125
3.4374999,0.29388827085494995,-0.262763649225235,9.6618013381958,-6.16455078125,0.091552734375,1.312255859375
3.4424999,0.47225627303123474,-0.2537853717803955,9.70549488067627,2.349853515625,0.213623046875,-2.685546875
3.4474999000000004,0.3645172119140625,-0.23762452602386475,10.014347076416016,3.631591796875,0.518798828125,0.946044921875
3.4524999000000003,0.30705636739730835,-0.2687491476535797,9.61212158203125,-6.28662109375,0.091552734375,0.79345703125
3.4574999,0.5380968451499939,-0.32381579279899597,9.717466354370117,3.631591796875,0.06103515625,-2.532958984375
3.4624999,0.3878606855869293,-0.2968810200691223,9.979631423950195,2.655029296875,0.48828125,1.434326171875
3.4674999,0.37828385829925537,-0.32202014327049255,9.566631317138672,-5.9814453125,0.18310546875,0.42724609375
3.4724999000000003,0.5817909836769104,-0.3208230137825012,9.847949981689453,4.669189453125,0.1220703125,-2.410888671875
3.4774999,0.3663128614425659,-0.2663549482822418,10.018536567687988,0.579833984375,0.091552734375,1.678466796875
3.4824999,0.44412440061569214,-0.284311443567276,9.583391189575195,-5.950927734375,-0.732421875,-0.54931640625
3.4874999,0.46746787428855896,-0.3124433159828186,9.533711433410645,-4.547119140625,-0.732421875,-1.007080078125
3.4924999000000003,0.5345055460929871,-0.3274070918560028,9.97065258026123,6.40869140625,0.06103515625,-1.678466796875
3.4974999,0.27054479718208313,-0.25977087020874023,9.925761222839355,-2.227783203125,-0.18310546875,2.044677734375
3.5024999,0.49799394607543945,-0.30226796865463257,9.647436141967773,-3.11279296875,0.030517578125,-1.129150390625
3.5074999,0.5135562419891357,-0.3064578175544739,10.04846477508545,6.500244140625,0.30517578125,-1.068115234375
3.5124999000000003,0.3166331648826599,-0.27413609623908997,9.853337287902832,-3.84521484375,-0.030517578125,1.739501953125
3.5174999000000002,0.558447539806366,-0.314238965511322,9.643245697021484,-2.01416015625,-0.274658203125,-1.89208984375
3.5224999,0.31124621629714966,-0.2621650993824005,9.802460670471191,-5.31005859375,-0.244140625,1.708984375
3.5274999,0.5482721924781799,-0.28730419278144836,9.646238327026367,-0.48828125,-0.152587890625,-2.62451171875
3.5324999000000004,0.38486793637275696,-0.2124854028224945,9.998785018920898,4.638671875,0.54931640625,0.732421875
3.5374999000000003,0.29807811975479126,-0.20949265360832214,9.628880500793457,-6.40869140625,-0.396728515625,1.129150390625
3.5424999,0.5015852451324463,-0.2555810213088989,9.679757118225098,3.0517578125,0.030517578125,-2.593994140625
3.5474999,0.38965633511543274,-0.2388216257095337,9.955090522766113,3.23486328125,0.152587890625,1.068115234375
3.5524999000000004,0.3315969407558441,-0.30526071786880493,9.53849983215332,-6.16455078125,-0.335693359375,0.640869140625
3.5574999000000003,0.5380968451499939,-0.32022446393966675,9.731232643127441,4.5166015625,-0.06103515625,-2.44140625
3.5624999,0.3411737382411957,-0.262763649225235,9.999981880187988,1.64794921875,0.18310546875,1.52587890625
3.5674999,0.3734954595565796,-0.30286651849746704,9.599552154541016,-6.011962890625,-0.30517578125,-0.030517578125
3.5724999000000004,0.5907692909240723,-0.31543606519699097,9.904812812805176,4.94384765625,-0.274658203125,-2.288818359375
3.5774999000000003,0.3770867586135864,-0.272938996553421,10.002974510192871,-0.213623046875,-0.1220703125,1.861572265625
3.5824999,0.3172317147254944,-0.24121582508087158,9.929951667785645,-1.89208984375,0.274658203125,2.288818359375
3.5874999,0.4620809257030487,-0.2992752194404602,9.586383819580078,-4.08935546875,-0.396728515625,-1.46484375
3.5924999,0.4620809257030487,-0.2992752194404602,9.586383819580078,-4.08935546875,-0.396728515625,-1.46484375
3.5974999000000003,0.5111620426177979,-0.3208230137825012,10.026318550109863,6.53076171875,0.1220703125,-1.52587890625
3.6024999,0.5231330990791321,-0.34656068682670593,9.65222454071045,-2.593994140625,-0.091552734375,-1.983642578125
3.6074999,0.4854243993759155,-0.3190273642539978,10.055646896362305,6.378173828125,0.18310546875,-0.885009765625
3.6124999,0.29209262132644653,-0.2825157940387726,9.834183692932129,-4.2724609375,-0.30517578125,2.166748046875
3.6174999000000003,0.5345055460929871,-0.32860419154167175,9.659406661987305,-1.15966796875,-0.18310546875,-2.471923828125
3.6224999,0.42437225580215454,-0.2663549482822418,10.011354446411133,6.072998046875,0.396728515625,-0.579833984375
3.6274999,0.3100491166114807,-0.2944868206977844,9.729436874389648,-5.06591796875,-0.42724609375,1.89208984375
3.6324999,0.4602852761745453,-0.26575639843940735,9.690531730651855,2.25830078125,-0.091552734375,-2.655029296875
3.6374999000000003,0.35254621505737305,-0.228047713637352,10.033500671386719,3.692626953125,0.48828125,0.79345703125
3.6424999000000002,0.2932897210121155,-0.27054479718208313,9.64803409576416,-6.378173828125,-0.396728515625,0.823974609375
3.6474999,0.5183446407318115,-0.3172317147254944,9.739612579345703,3.60107421875,0.6103515625,-2.410888671875
3.6524999,0.3776853084564209,-0.2753331959247589,9.996989250183105,2.50244140625,0.732421875,1.5869140625
3.6574999000000004,0.3555389642715454,-0.3315969407558441,9.575610160827637,-6.103515625,-0.152587890625,0.3662109375
3.6624999000000003,0.5542576909065247,-0.3010708689689636,9.803657531738281,4.94384765625,0.396728515625,-2.44140625
3.6674999,0.34177228808403015,-0.243011474609375,9.999981880187988,0.885009765625,0.152587890625,1.739501953125
3.6724999,0.4141969084739685,-0.2687491476535797,9.551667213439941,-6.2255859375,-0.9765625,-0.3662109375
3.6774999000000004,0.5889736413955688,-0.304063618183136,9.865307807922363,6.072998046875,0.457763671875,-2.166748046875
3.6824999000000003,0.5554547905921936,-0.32022446393966675,9.97364616394043,6.622314453125,0.518798828125,-1.64794921875
3.6874999,0.28969839215278625,-0.26096799969673157,9.958083152770996,-1.983642578125,0.3662109375,2.044677734375
3.6924999,0.4985924959182739,-0.3190273642539978,9.656414031982422,-3.448486328125,0.18310546875,-1.678466796875
3.6974999000000004,0.5219359993934631,-0.3016694188117981,10.0765962600708,6.622314453125,0.091552734375,-1.129150390625
3.7024999000000003,0.3172317147254944,-0.28072014451026917,9.853337287902832,-3.631591796875,-0.06103515625,2.105712890625
3.7074999,0.5500678420066833,-0.3256114423274994,9.62828254699707,-1.77001953125,0.640869140625,-2.0751953125
3.7124999,0.47165772318840027,-0.25737667083740234,9.978434562683105,6.34765625,0.54931640625,-0.732421875
3.7174999,0.2974795699119568,-0.2603694200515747,9.739013671875,-4.913330078125,-0.213623046875,2.166748046875
3.7224999000000003,0.5380968451499939,-0.3076549172401428,9.571419715881348,-0.244140625,-0.030517578125,-2.410888671875
3.7274999,0.4411316514015198,-0.24121582508087158,9.947309494018555,5.523681640625,0,-0.335693359375
3.7324999,0.3447650372982025,-0.31184476613998413,9.641449928283691,-5.859375,-0.54931640625,1.708984375
3.7374999,0.40940847992897034,-0.2256535142660141,10.014945983886719,4.364013671875,0.396728515625,0.335693359375
3.7424999000000003,0.3100491166114807,-0.25677812099456787,9.652822494506836,-6.40869140625,-0.030517578125,1.28173828125
3.7474999,0.49559974670410156,-0.21368250250816345,9.73781681060791,2.50244140625,0.244140625,-2.410888671875
3.7524999,0.3842693865299225,-0.26994624733924866,10.016142845153809,3.84521484375,0.823974609375,0.946044921875
3.7574999,0.3232172429561615,-0.2651578485965729,9.593565940856934,-5.645751953125,0.396728515625,0.457763671875
3.7624999000000003,0.3519476354122162,-0.27712884545326233,9.947309494018555,1.8310546875,0.1220703125,1.861572265625
3.7674999000000002,0.35015198588371277,-0.26396074891090393,9.551667213439941,-6.2255859375,-0.457763671875,-0.091552734375
3.7724999,0.5518634915351868,-0.33039984107017517,9.808445930480957,4.8828125,-0.030517578125,-2.410888671875
3.7774999,0.3321954905986786,-0.2998737692832947,9.925761222839355,0.6103515625,0.06103515625,1.983642578125
3.7824999000000004,0.43335050344467163,-0.3130418658256531,9.507973670959473,-5.218505859375,-0.640869140625,-0.518798828125
3.7874999000000003,0.5776011347770691,-0.3645172119140625,9.84256362915039,6.04248046875,-0.091552734375,-2.197265625
3.7924999,0.5105634927749634,-0.28730419278144836,9.66958236694336,-2.685546875,0,-1.708984375
3.7974999,0.5021837949752808,-0.35913026332855225,10.069414138793945,6.561279296875,0.06103515625,-1.0986328125
3.8024999000000004,0.30526071786880493,-0.26096799969673157,9.819818496704102,-3.814697265625,-0.244140625,2.13623046875
3.8074999000000003,0.5404910445213318,-0.30047231912612915,9.616311073303223,-1.800537109375,-0.457763671875,-2.197265625
3.8124999,0.4429273009300232,-0.2998737692832947,9.987412452697754,5.67626953125,0.335693359375,-0.701904296875
3.8174999,0.30705636739730835,-0.24241292476654053,9.75278091430664,-5.035400390625,-0.396728515625,1.953125
3.8224999000000004,0.5386953949928284,-0.28131869435310364,9.640851974487305,-0.18310546875,-0.54931640625,-2.471923828125
3.8274999000000003,0.4213795065879822,-0.292691171169281,10.00716495513916,5.340576171875,0.244140625,0.091552734375
3.8324999,0.3250128924846649,-0.26096799969673157,9.688735961914062,-5.43212890625,-0.18310546875,1.495361328125
3.8374999,0.3926490843296051,-0.2693476974964142,10.000580787658691,3.021240234375,0.732421875,1.251220703125
3.8424999,0.3531447649002075,-0.2753331959247589,9.993996620178223,1.46484375,0.457763671875,1.495361328125
3.8474999000000003,0.3932476341724396,-0.2579752206802368,9.59057331085205,-5.859375,-0.06103515625,-0.091552734375
3.8524999,0.5752069354057312,-0.31124621629714966,9.873687744140625,4.852294921875,-0.152587890625,-2.13623046875
3.8574999,0.3405751883983612,-0.243011474609375,9.956287384033203,-0.213623046875,-0.06103515625,1.800537109375
3.8624999,0.44831427931785583,-0.25677812099456787,9.546878814697266,-4.425048828125,0.274658203125,-0.67138671875
3.8674999000000003,0.5488707423210144,-0.32441434264183044,9.90361499786377,6.2255859375,-0.274658203125,-1.953125
3.8724999,0.4638765752315521,-0.25498247146606445,9.560047149658203,-3.204345703125,0.244140625,-1.251220703125
3.8774999,0.5249287486076355,-0.33758243918418884,9.998186111450195,6.4697265625,0.48828125,-1.220703125
3.8824999,0.30286651849746704,-0.2579752206802368,9.84376049041748,-3.11279296875,0.3662109375,2.105712890625
3.8874999000000003,0.557250440120697,-0.3064578175544739,9.613917350769043,-2.44140625,0.152587890625,-1.89208984375
3.8924999000000002,0.5015852451324463,-0.35075053572654724,10.019135475158691,6.4697265625,0.335693359375,-1.0986328125
3.8974999,0.3208230137825012,-0.25318682193756104,9.782109260559082,-4.364013671875,-0.152587890625,1.861572265625
3.9024999,0.5536591410636902,-0.30286651849746704,9.644442558288574,-1.28173828125,-0.762939453125,-1.983642578125
3.9074999000000004,0.44592007994651794,-0.30885201692581177,10.022128105163574,5.706787109375,0.152587890625,-0.152587890625
3.9124999000000003,0.3280056416988373,-0.28072014451026917,9.75278091430664,-5.55419921875,-0.335693359375,1.495361328125
3.9174999,0.5339069962501526,-0.29568392038345337,9.68574333190918,0.091552734375,-0.3662109375,-2.50244140625
3.9224999,0.39145198464393616,-0.29568392038345337,10.038887977600098,4.791259765625,0.091552734375,0.42724609375
3.9274999000000004,0.30526071786880493,-0.243011474609375,9.68574333190918,-6.256103515625,-0.54931640625,1.15966796875
3.9324999000000003,0.4752490520477295,-0.24779987335205078,9.697115898132324,2.471923828125,0.762939453125,-2.593994140625
3.9374999,0.3705027103424072,-0.2555810213088989,10.01075553894043,3.936767578125,0.579833984375,1.129150390625
3.9424999,0.30526071786880493,-0.23403321206569672,9.57979965209961,-6.28662109375,-0.1220703125,0.640869140625
3.9474999000000004,0.5404910445213318,-0.30945056676864624,9.684545516967773,3.35693359375,-0.396728515625,-2.899169921875
3.9524999000000003,0.3860650360584259,-0.2777273952960968,9.937732696533203,2.655029296875,0.152587890625,1.495361328125
3.9574999,0.3878606855869293,-0.2890998423099518,9.546280860900879,-5.7373046875,-0.42724609375,0.213623046875
3.9624999,0.5859808921813965,-0.3405751883983612,9.807847023010254,5.157470703125,0.030517578125,-2.62451171875
3.9674999000000004,0.3770867586135864,-0.2795230448246002,9.996390342712402,1.220703125,0.091552734375,1.52587890625
3.9724999000000003,0.4465186297893524,-0.284311443567276,9.569623947143555,-5.31005859375,-0.213623046875,-0.18310546875
3.9774999,0.6087257862091064,-0.35434186458587646,9.892242431640625,5.43212890625,-0.335693359375,-2.197265625
3.9824999,0.3579331636428833,-0.2555810213088989,9.936535835266113,-0.9765625,0.152587890625,1.678466796875
3.9874999,0.4770447015762329,-0.27054479718208313,9.578003883361816,-4.547119140625,0.48828125,-0.91552734375
3.9924999000000003,0.5500678420066833,-0.3387795388698578,10.002974510192871,6.04248046875,0.06103515625,-1.46484375
3.9974999,0.5141547918319702,-0.34596213698387146,10.051457405090332,6.317138671875,-0.030517578125,-1.03759765625
4.0024999,0.4495113790035248,-0.29628247022628784,10.000580787658691,5.889892578125,0.396728515625,0.1220703125
4.0074999,0.34656068682670593,-0.2669534981250763,9.693524360656738,-5.401611328125,0.1220703125,1.40380859375
4.0124999,0.5159504413604736,-0.26336219906806946,9.687539100646973,0.91552734375,-0.274658203125,-2.532958984375
4.0174999,0.3734954595565796,-0.24660277366638184,10.050260543823242,4.5166015625,0.8544921875,0.732421875
4.022499900000001,0.2974795699119568,-0.1885433793067932,9.665990829467773,-5.859375,0.030517578125,0.9765625
4.0274999000000005,0.497395396232605,-0.23582886159420013,9.713275909423828,2.38037109375,-0.579833984375,-2.62451171875
4.0324999,0.39863458275794983,-0.23582886159420013,9.9586820602417,3.23486328125,0.396728515625,1.251220703125
4.0374999,0.35673606395721436,-0.25677812099456787,9.53849983215332,-5.79833984375,-0.274658203125,0.274658203125
4.0424999,0.5770025849342346,-0.33339259028434753,9.71926212310791,4.425048828125,0.1220703125,-2.5634765625
4.0474999,0.375291109085083,-0.28790274262428284,9.9586820602417,1.64794921875,0.244140625,1.739501953125
4.0524999,0.4183867573738098,-0.3034650683403015,9.550470352172852,-5.55419921875,-0.030517578125,-0.06103515625
4.0574999,0.6093243360519409,-0.3627215623855591,9.838373184204102,5.096435546875,-0.030517578125,-2.3193359375
4.062499900000001,0.3776853084564209,-0.2801215946674347,9.924564361572266,-0.06103515625,0.457763671875,1.800537109375
4.0674999000000005,0.4794389009475708,-0.2849099934101105,9.52473258972168,-4.852294921875,-0.030517578125,-0.67138671875
4.0724999,0.569819986820221,-0.3405751883983612,9.9185791015625,5.706787109375,-0.48828125,-1.89208984375
4.0774999,0.2950853705406189,-0.21428105235099792,9.91977596282959,-1.953125,-0.244140625,1.953125
4.0824999,0.4644751250743866,-0.2651578485965729,9.627084732055664,-4.302978515625,-0.9765625,-1.495361328125
4.0874999,0.30945056676864624,-0.2513911724090576,9.815628051757812,-4.302978515625,-0.06103515625,1.983642578125
4.0924999,0.5440823435783386,-0.31124621629714966,9.662399291992188,-1.46484375,-0.457763671875,-2.166748046875
4.0974999,0.4429273009300232,-0.2867056429386139,10.025120735168457,5.584716796875,0.152587890625,-0.1220703125
4.1024999,0.3381809890270233,-0.26994624733924866,9.72165584564209,-5.4931640625,-0.518798828125,1.495361328125
4.1074999000000005,0.535702645778656,-0.2867056429386139,9.643844604492188,0.396728515625,-0.54931640625,-2.3193359375
4.1124999,0.40222588181495667,-0.2669534981250763,10.014945983886719,5.035400390625,0.030517578125,0.6103515625
4.1174999,0.30286651849746704,-0.23702596127986908,9.64803409576416,-6.2255859375,-0.274658203125,1.0986328125
4.1224999,0.4836287498474121,-0.25917232036590576,9.701904296875,2.0751953125,0.030517578125,-2.50244140625
4.1274999,0.3669114112854004,-0.2454056739807129,9.998186111450195,3.7841796875,0.8544921875,1.129150390625
4.1324999,0.34656068682670593,-0.2585737705230713,10.002974510192871,0.8544921875,0.48828125,1.739501953125
4.1374999,0.436343252658844,-0.26156654953956604,9.556455612182617,-5.462646484375,-0.396728515625,-0.42724609375
4.1424999,0.5770025849342346,-0.3405751883983612,9.901819229125977,5.92041015625,0.274658203125,-1.800537109375
4.147499900000001,0.3280056416988373,-0.20949265360832214,9.926360130310059,-0.762939453125,0.030517578125,1.77001953125
4.1524999000000005,0.3280056416988373,-0.20949265360832214,9.926360130310059,-0.762939453125,0.030517578125,1.77001953125
4.1574999,0.4572925269603729,-0.272938996553421,9.575011253356934,-4.058837890625,0.152587890625,-1.0986328125
4.1624999,0.2711433470249176,-0.22445641458034515,9.930550575256348,-2.899169921875,0,2.01416015625
4.1674999,0.2711433470249176,-0.22445641458034515,9.930550575256348,-2.899169921875,0,2.01416015625
4.1724999,0.4279635548591614,-0.27054479718208313,10.027515411376953,6.34765625,0.48828125,-0.457763671875
4.1774999,0.3076549172401428,-0.2561795711517334,9.740809440612793,-5.218505859375,0.1220703125,2.01416015625
4.1824999,0.517746090888977,-0.2944868206977844,9.600749015808105,-0.152587890625,-0.244140625,-2.25830078125
4.187499900000001,0.41359832882881165,-0.24600422382354736,9.97364616394043,4.82177734375,0.1220703125,0.091552734375
4.1924999000000005,0.3166331648826599,-0.27712884545326233,9.633070945739746,-6.103515625,-0.6103515625,1.251220703125
4.1974999,0.4944026470184326,-0.2717418968677521,9.660603523254395,2.288818359375,0.18310546875,-2.62451171875
4.2024999,0.3824737071990967,-0.24600422382354736,10.020931243896484,4.2724609375,0.67138671875,0.823974609375
4.2074999,0.314238965511322,-0.262763649225235,9.615114212036133,-5.950927734375,0.3662109375,0.823974609375
4.2124999,0.5333084464073181,-0.3100491166114807,9.700108528137207,3.5400390625,0.396728515625,-2.62451171875
4.2174999,0.5650315880775452,-0.3172317147254944,9.815030097961426,4.5166015625,-0.48828125,-2.50244140625
4.2224999,0.5650315880775452,-0.3172317147254944,9.815030097961426,4.5166015625,-0.48828125,-2.50244140625
4.2274999,0.3477577865123749,-0.2693476974964142,9.992799758911133,0.640869140625,0.30517578125,1.77001953125
4.2324999000000005,0.4213795065879822,-0.29807811975479126,9.549273490905762,-5.096435546875,0.42724609375,-0.335693359375
4.2374999,0.5829881429672241,-0.33039984107017517,9.873088836669922,5.767822265625,-0.396728515625,-2.25830078125
4.2424999,0.3363853394985199,-0.2669534981250763,9.910199165344238,-1.0986328125,-0.274658203125,1.922607421875
4.2474999,0.45908817648887634,-0.30466216802597046,9.55466079711914,-4.425048828125,0.244140625,-0.762939453125
4.2524999,0.535702645778656,-0.30226796865463257,9.985017776489258,6.317138671875,0.54931640625,-1.495361328125
4.2574999,0.28371289372444153,-0.262763649225235,9.932345390319824,-2.62451171875,0.274658203125,1.922607421875
4.2624999,0.5171475410461426,-0.33339259028434753,9.64923095703125,-2.593994140625,0.3662109375,-1.5869140625
4.2674999,0.5219359993934631,-0.31364041566848755,10.051457405090332,6.317138671875,-0.030517578125,-1.129150390625
4.272499900000001,0.32620999217033386,-0.304063618183136,9.847352027893066,-4.180908203125,-0.274658203125,1.922607421875
4.2774999000000005,0.5321113467216492,-0.2902969419956207,9.600150108337402,0.213623046875,-0.48828125,-2.593994140625
4.2824999,0.41539400815963745,-0.23104046285152435,9.97603988647461,5.157470703125,0.152587890625,0.06103515625
4.2874999,0.31364041566848755,-0.29867666959762573,9.650428771972656,-5.9814453125,-0.335693359375,1.556396484375
4.2924999,0.49140989780426025,-0.228047713637352,9.676166534423828,1.495361328125,-0.3662109375,-2.8076171875
4.2974999,0.375291109085083,-0.22086510062217712,10.047266960144043,4.119873046875,0.18310546875,0.67138671875
4.3024999,0.3076549172401428,-0.21787235140800476,9.651026725769043,-6.16455078125,-0.48828125,1.0986328125
4.3074999,0.518943190574646,-0.2693476974964142,9.709086418151855,3.021240234375,-0.518798828125,-2.655029296875
4.312499900000001,0.4016273319721222,-0.26575639843940735,9.974244117736816,2.716064453125,0.3662109375,1.190185546875
4.3174999000000005,0.3603273630142212,-0.30466216802597046,9.552266120910645,-6.256103515625,-0.06103515625,0.335693359375
4.3224999,0.27653029561042786,-0.22385786473751068,9.877877235412598,-1.8310546875,0.335693359375,2.288818359375
4.3274999,0.4884171485900879,-0.28131869435310364,9.583391189575195,-3.662109375,-0.30517578125,-1.678466796875
4.3324999,0.5165489912033081,-0.2968810200691223,10.005967140197754,6.65283203125,0.42724609375,-1.251220703125
4.3374999,0.31364041566848755,-0.28730419278144836,9.825204849243164,-3.60107421875,0.457763671875,2.44140625
4.3424999,0.5602431893348694,-0.3405751883983612,9.62828254699707,-1.800537109375,0.518798828125,-1.8310546875
4.3474999,0.4794389009475708,-0.3016694188117981,10.022727012634277,5.79833984375,-0.030517578125,-0.823974609375
4.352499900000001,0.3250128924846649,-0.28072014451026917,9.799467086791992,-5.06591796875,-0.30517578125,2.044677734375
4.3574999000000005,0.45669397711753845,-0.25318682193756104,10.001178741455078,5.55419921875,0,-0.030517578125
4.3624999,0.35254621505737305,-0.30466216802597046,9.679757118225098,-6.072998046875,-0.244140625,1.373291015625
4.3674999,0.5141547918319702,-0.27712884545326233,9.643245697021484,1.068115234375,-0.18310546875,-2.38037109375
4.3724999,0.37169981002807617,-0.23283611238002777,10.005967140197754,4.57763671875,0.396728515625,0.640869140625
4.3774999,0.2777273952960968,-0.2364274114370346,9.625887870788574,-6.34765625,-0.335693359375,0.9765625
4.3824999,0.48243165016174316,-0.25737667083740234,9.677363395690918,2.86865234375,0.244140625,-2.5634765625
4.3874999,0.3693056106567383,-0.23163901269435883,9.965266227722168,3.204345703125,0.335693359375,1.40380859375
4.3924999,0.32381579279899597,-0.2974795699119568,9.545083999633789,-6.378173828125,-0.640869140625,0.457763671875
4.397499900000001,0.5363011956214905,-0.3082534670829773,9.746794700622559,4.39453125,-0.244140625,-2.777099609375
4.4024999000000005,0.34177228808403015,-0.25977087020874023,9.998186111450195,1.739501953125,0.244140625,1.678466796875
4.4074999,0.3818751573562622,-0.3100491166114807,9.581595420837402,-5.859375,-0.030517578125,-0.1220703125
4.4124999,0.5889736413955688,-0.3148375153541565,9.891045570373535,5.126953125,-0.213623046875,-2.471923828125
4.4174999,0.48961424827575684,-0.333991140127182,9.551069259643555,-5.157470703125,0.457763671875,-0.42724609375
4.4224999,0.6093243360519409,-0.32860419154167175,9.92097282409668,6.28662109375,0.640869140625,-2.01416015625
4.4274999,0.32680854201316833,-0.26815059781074524,9.906607627868652,-1.40380859375,-0.030517578125,1.953125
4.4324999,0.4776432514190674,-0.30047231912612915,9.5809965133667,-3.997802734375,-0.457763671875,-1.312255859375
4.437499900000001,0.5195417404174805,-0.28790274262428284,10.003573417663574,6.53076171875,0.06103515625,-1.495361328125
4.4424999000000005,0.27712884545326233,-0.2902969419956207,9.864709854125977,-3.11279296875,-0.1220703125,2.197265625
4.4474999,0.5225345492362976,-0.3190273642539978,9.617507934570312,-2.38037109375,0.091552734375,-1.77001953125
4.4524999,0.4710591733455658,-0.29867666959762573,9.991601943969727,6.2255859375,0.3662109375,-0.91552734375
4.4574999,0.2950853705406189,-0.2717418968677521,9.750386238098145,-4.57763671875,-0.091552734375,1.922607421875
4.4624999,0.5446808934211731,-0.292691171169281,9.570222854614258,-0.8544921875,-0.335693359375,-2.105712890625
4.4674999,0.4531026780605316,-0.25079262256622314,9.93593692779541,5.79833984375,0.030517578125,-0.3662109375
4.4724999,0.3411737382411957,-0.2795230448246002,9.678560256958008,-5.37109375,-0.335693359375,1.556396484375
4.477499900000001,0.48243165016174316,-0.1951274424791336,9.71926212310791,2.288818359375,-0.18310546875,-2.38037109375
4.4824999000000005,0.5327098965644836,-0.3010708689689636,9.757569313049316,3.35693359375,-0.640869140625,-2.5634765625
4.4874999,0.3758896589279175,-0.2902969419956207,10.027515411376953,2.13623046875,-0.091552734375,1.556396484375
4.4924999,0.3758896589279175,-0.30945056676864624,9.615114212036133,-6.103515625,-0.67138671875,-0.030517578125
4.4974999,0.5811924338340759,-0.3130418658256531,9.890447616577148,4.82177734375,0.152587890625,-2.532958984375
4.5024999,0.37409400939941406,-0.272938996553421,10.041281700134277,0.762939453125,0.152587890625,1.739501953125
4.5074999,0.45489832758903503,-0.2932897210121155,9.59596061706543,-5.55419921875,-0.396728515625,-0.213623046875
4.5124999,0.6171054840087891,-0.33339259028434753,9.905410766601562,5.950927734375,0.06103515625,-2.13623046875
4.5174999,0.3621230125427246,-0.2735375463962555,9.9185791015625,-1.0986328125,0.213623046875,2.01416015625
4.522499900000001,0.48243165016174316,-0.292691171169281,9.55585765838623,-4.2724609375,0.244140625,-1.068115234375
4.5274999000000005,0.5494692921638489,-0.31543606519699097,10.00716495513916,6.072998046875,0.54931640625,-1.708984375
4.5324999,0.2885012924671173,-0.26815059781074524,9.9371337890625,-2.593994140625,0.091552734375,1.861572265625
4.5374999,0.5105634927749634,-0.31184476613998413,9.664793968200684,-3.60107421875,-0.67138671875,-1.495361328125
4.5424999,0.5141547918319702,-0.33698388934135437,10.064026832580566,6.439208984375,0.030517578125,-1.129150390625
4.5474999,0.31124621629714966,-0.3058592677116394,9.851541519165039,-3.72314453125,-0.457763671875,1.64794921875
4.5524999,0.5512649416923523,-0.3148375153541565,9.653421401977539,-1.678466796875,-0.30517578125,-2.13623046875
4.5574999,0.4489128291606903,-0.3058592677116394,10.046070098876953,6.011962890625,0.396728515625,-0.244140625
4.562499900000001,0.5404910445213318,-0.28311434388160706,9.673771858215332,-0.244140625,-0.1220703125,-2.410888671875
4.5674999000000005,0.42676645517349243,-0.2861070930957794,10.032303810119629,5.462646484375,0.457763671875,0.244140625
4.5724999,0.3280056416988373,-0.27413609623908997,9.68813705444336,-5.706787109375,0,1.5869140625
4.5774999,0.365115761756897,-0.25438392162323,10.033500671386719,4.2724609375,-0.06103515625,0.762939453125
4.5824999,0.2867056429386139,-0.21667525172233582,9.654618263244629,-6.195068359375,-0.396728515625,0.9765625
4.5874999,0.4944026470184326,-0.272938996553421,9.709086418151855,2.99072265625,-0.396728515625,-2.899169921875
4.5924999,0.37469255924224854,-0.2867056429386139,9.956886291503906,2.899169921875,0.152587890625,1.007080078125
4.5974999,0.3387795388698578,-0.2885012924671173,9.543288230895996,-6.65283203125,-0.457763671875,0.48828125
4.602499900000001,0.5494692921638489,-0.33758243918418884,9.744400978088379,4.302978515625,0.335693359375,-2.532958984375
4.6074999000000005,0.34416648745536804,-0.2735375463962555,9.978434562683105,1.40380859375,0.396728515625,1.3427734375
4.6124999,0.39145198464393616,-0.2711433470249176,9.568427085876465,-5.523681640625,-0.30517578125,-0.213623046875
4.6174999,0.5752069354057312,-0.3292027413845062,9.854534149169922,5.462646484375,0.274658203125,-1.861572265625
4.6224999,0.34835633635520935,-0.2561795711517334,9.931148529052734,0.06103515625,0.335693359375,1.861572265625
4.6274999,0.4531026780605316,-0.262763649225235,9.533711433410645,-4.608154296875,-0.18310546875,-0.885009765625
4.6324999,0.27892449498176575,-0.21188685297966003,9.925761222839355,-1.983642578125,0.1220703125,1.953125
4.6374999,0.4644751250743866,-0.24660277366638184,9.627084732055664,-3.509521484375,0.42724609375,-1.617431640625
4.6424999,0.5045779943466187,-0.31364041566848755,10.035895347595215,6.591796875,0.457763671875,-1.220703125
4.647499900000001,0.28730419278144836,-0.243011474609375,9.873687744140625,-3.173828125,0.06103515625,1.983642578125
4.6524999000000005,0.5363011956214905,-0.292691171169281,9.642048835754395,-2.25830078125,-0.579833984375,-2.0751953125
4.6574999,0.46567222476005554,-0.3250128924846649,10.046070098876953,6.744384765625,0.518798828125,-0.823974609375
4.6624999,0.3010708689689636,-0.23942017555236816,9.804255485534668,-4.302978515625,0.06103515625,1.800537109375
4.6674999,0.5386953949928284,-0.2777273952960968,9.655217170715332,-1.03759765625,-0.54931640625,-2.0751953125
4.6724999,0.4339490532875061,-0.27473464608192444,10.019734382629395,5.462646484375,0.79345703125,0.091552734375
4.6774999,0.32381579279899597,-0.25258827209472656,9.712677955627441,-5.584716796875,0.091552734375,1.5869140625
4.6824999,0.50876784324646,-0.272938996553421,9.663596153259277,0.9765625,0.518798828125,-2.5634765625
4.687499900000001,0.36571431159973145,-0.2717418968677521,10.037092208862305,5.279541015625,0.54931640625,0.518798828125
4.6924999000000005,0.46567222476005554,-0.24899697303771973,9.725247383117676,2.685546875,-0.18310546875,-2.86865234375
4.6974999,0.3645172119140625,-0.24480712413787842,10.00955867767334,3.509521484375,0.518798828125,1.129150390625
4.7024999,0.3214215636253357,-0.24839842319488525,9.615114212036133,-6.04248046875,0.244140625,0.946044921875
4.7074999,0.5476736426353455,-0.3274070918560028,9.750386238098145,3.72314453125,0.335693359375,-2.777099609375
4.7124999,0.3800795078277588,-0.29209262132644653,9.996390342712402,1.739501953125,0.335693359375,1.495361328125
4.7174999,0.38486793637275696,-0.30945056676864624,9.57860279083252,-6.16455078125,-0.67138671875,0.213623046875
4.7224999,0.34596213698387146,-0.2801215946674347,9.964667320251465,0.640869140625,-0.030517578125,1.556396484375
4.727499900000001,0.4357447028160095,-0.2819172441959381,9.540295600891113,-5.4931640625,-0.579833984375,-0.3662109375
4.7324999000000005,0.5518634915351868,-0.34356793761253357,9.874884605407715,5.950927734375,0.244140625,-2.13623046875
4.7374999,0.292691171169281,-0.228047713637352,9.888052940368652,-1.434326171875,0.091552734375,1.861572265625
4.7424999,0.4345476031303406,-0.27413609623908997,9.561244010925293,-4.638671875,-0.518798828125,-1.129150390625
4.7474999,0.5285200476646423,-0.3010708689689636,9.653421401977539,-2.9296875,-0.54931640625,-1.922607421875
4.7524999,0.5045779943466187,-0.3471592366695404,10.059837341308594,6.7138671875,0.30517578125,-0.946044921875
4.7574999,0.33099839091300964,-0.2555810213088989,9.838972091674805,-3.997802734375,0.18310546875,1.89208984375
4.7624999,0.5614402890205383,-0.30885201692581177,9.654618263244629,-1.495361328125,0.030517578125,-2.349853515625
4.7674999,0.45429977774620056,-0.3130418658256531,10.031106948852539,6.04248046875,0.885009765625,-0.18310546875
4.772499900000001,0.32680854201316833,-0.26336219906806946,9.758167266845703,-5.218505859375,0.1220703125,1.800537109375
4.7774999000000005,0.5321113467216492,-0.30705636739730835,9.641449928283691,-0.335693359375,-1.0986328125,-2.838134765625
4.7824999,0.4082113802433014,-0.2902969419956207,10.013748168945312,5.279541015625,0.030517578125,0.48828125
4.7874999,0.3100491166114807,-0.26096799969673157,9.673771858215332,-5.79833984375,-0.244140625,1.434326171875
4.7924999,0.4878185987472534,-0.25079262256622314,9.70429801940918,2.044677734375,0.30517578125,-2.74658203125
4.7974999,0.30226796865463257,-0.20709845423698425,9.639654159545898,-6.28662109375,0.152587890625,1.190185546875
4.8024999,0.3693056106567383,-0.27892449498176575,9.561244010925293,-5.67626953125,-0.3662109375,0.152587890625
4.8074999,0.3693056106567383,-0.27892449498176575,9.561244010925293,-5.67626953125,-0.3662109375,0.152587890625
4.812499900000001,0.5752069354057312,-0.34416648745536804,9.808445930480957,4.974365234375,0.091552734375,-2.62451171875
4.8174999000000005,0.3561375141143799,-0.2687491476535797,10.005369186401367,0.762939453125,0.213623046875,1.89208984375
4.8224999,0.4297592043876648,-0.28311434388160706,9.565434455871582,-5.79833984375,-0.579833984375,-0.42724609375
4.8274999,0.5907692909240723,-0.3429693877696991,9.882665634155273,6.04248046875,0.732421875,-1.983642578125
4.8324999,0.3477577865123749,-0.2364274114370346,9.919178009033203,-0.6103515625,0.18310546875,1.89208984375
4.8374999,0.4644751250743866,-0.25977087020874023,9.543886184692383,-5.096435546875,-0.8544921875,-1.007080078125
4.8424999,0.5404910445213318,-0.3208230137825012,9.981427192687988,6.439208984375,0.640869140625,-1.495361328125
4.8474999,0.27712884545326233,-0.2190694510936737,9.930550575256348,-2.288818359375,0.396728515625,2.0751953125
4.852499900000001,0.5662286877632141,-0.333991140127182,9.63187313079834,-1.617431640625,-0.152587890625,-2.044677734375
4.8574999000000005,0.46806642413139343,-0.34356793761253357,10.001777648925781,5.859375,-0.030517578125,-0.6103515625
4.8624999,0.3387795388698578,-0.2825157940387726,9.759963035583496,-5.157470703125,-0.54931640625,1.556396484375
4.8674999,0.5536591410636902,-0.3256114423274994,9.619303703308105,-0.152587890625,-0.30517578125,-2.593994140625
4.8724999,0.4429273009300232,-0.30226796865463257,9.990405082702637,5.340576171875,0.152587890625,0.213623046875
4.8774999,0.3381809890270233,-0.2753331959247589,9.676764488220215,-6.04248046875,-0.42724609375,1.3427734375
4.8824999,0.49978959560394287,-0.25737667083740234,9.683348655700684,1.64794921875,0.762939453125,-2.716064453125
4.8874999,0.36332011222839355,-0.25019407272338867,10.058639526367188,4.425048828125,0.701904296875,0.91552734375
4.8924999,0.2801215946674347,-0.20290859043598175,9.670180320739746,-5.9814453125,-0.274658203125,0.823974609375
4.897499900000001,0.49140989780426025,-0.28072014451026917,9.743802070617676,2.99072265625,-0.244140625,-2.716064453125
4.9024999000000005,0.33279404044151306,-0.2885012924671173,9.583391189575195,-6.40869140625,-0.18310546875,0.3662109375
4.9074999,0.5410895943641663,-0.3387795388698578,9.801861763000488,4.547119140625,-0.091552734375,-2.593994140625
4.9124999,0.33698388934135437,-0.2777273952960968,10.019135475158691,1.220703125,-0.457763671875,1.678466796875
4.9174999,0.4129997789859772,-0.28790274262428284,9.59177017211914,-6.072998046875,-0.8544921875,-0.335693359375
4.9224999,0.5997475385665894,-0.3489548861980438,9.891045570373535,5.4931640625,0.030517578125,-2.105712890625
4.9274999,0.36571431159973145,-0.2561795711517334,9.946112632751465,-0.457763671875,-0.091552734375,1.953125
4.9324999,0.47824180126190186,-0.27653029561042786,9.567828178405762,-4.7607421875,-0.244140625,-0.91552734375
4.937499900000001,0.5536591410636902,-0.32381579279899597,9.983222961425781,6.011962890625,-0.030517578125,-1.922607421875
4.9424999000000005,0.27473464608192444,-0.21607670187950134,9.95748519897461,-2.38037109375,0.06103515625,2.25830078125
4.9474999,0.4926069974899292,-0.26815059781074524,9.649829864501953,-3.387451171875,0.1220703125,-1.46484375
4.9524999,0.5051765441894531,-0.3250128924846649,10.047266960144043,6.4697265625,0.244140625,-1.28173828125
4.9574999,0.30885201692581177,-0.25737667083740234,9.837176322937012,-3.662109375,0.1220703125,2.166748046875
4.9624999,0.4686649739742279,-0.3298012912273407,9.985616683959961,6.317138671875,0.30517578125,-0.762939453125
4.9674999,0.32860419154167175,-0.2585737705230713,9.747992515563965,-4.791259765625,-0.1220703125,1.922607421875
4.9724999,0.5656301379203796,-0.31842881441116333,9.600749015808105,-0.30517578125,-0.42724609375,-2.3193359375
4.977499900000001,0.4602852761745453,-0.2795230448246002,9.973047256469727,5.18798828125,0.030517578125,0
4.9824999000000005,0.35673606395721436,-0.272938996553421,9.668983459472656,-5.9814453125,-0.640869140625,1.64794921875
4.9874999,0.517746090888977,-0.2561795711517334,9.676764488220215,1.708984375,-0.244140625,-2.685546875
4.9924999,0.37409400939941406,-0.23822307586669922,10.055048942565918,4.180908203125,0.54931640625,0.79345703125
4.9974999,0.2795230448246002,-0.20231004059314728,9.668384552001953,-6.2255859375,-0.213623046875,1.15966796875
5.0024999,0.4842272996902466,-0.27653029561042786,9.713275909423828,3.204345703125,-0.152587890625,-2.716064453125
5.0074999,0.3555389642715454,-0.23702596127986908,9.971251487731934,2.960205078125,0.396728515625,1.251220703125
5.0124999,0.3232172429561615,-0.27054479718208313,9.541492462158203,-6.256103515625,-0.274658203125,0.457763671875
5.0174999,0.5339069962501526,-0.31184476613998413,9.73542308807373,4.486083984375,-0.30517578125,-2.44140625
5.022499900000001,0.39564183354377747,-0.2777273952960968,9.496002197265625,-5.340576171875,0.335693359375,-0.1220703125
5.0274999000000005,0.5823895931243896,-0.3447650372982025,9.814431190490723,5.767822265625,0.335693359375,-2.0751953125
5.0324999,0.3531447649002075,-0.26575639843940735,9.889848709106445,-0.42724609375,0.274658203125,1.678466796875
5.0374999,0.4752490520477295,-0.2890998423099518,9.530718803405762,-4.364013671875,0.1220703125,-0.885009765625
5.0424999,0.5596446394920349,-0.3447650372982025,9.980229377746582,6.53076171875,0.67138671875,-1.52587890625
5.0474999,0.2974795699119568,-0.24121582508087158,9.947309494018555,-2.38037109375,-0.30517578125,1.953125
5.0524999,0.52552729845047,-0.30526071786880493,9.654019355773926,-4.058837890625,-0.8544921875,-1.617431640625
5.0574999,0.5309142470359802,-0.34416648745536804,10.053253173828125,6.4697265625,0.3662109375,-1.28173828125
5.062499900000001,0.34177228808403015,-0.27712884545326233,9.840767860412598,-3.662109375,-0.274658203125,1.8310546875
5.0674999000000005,0.5740098357200623,-0.3357867896556854,9.627683639526367,-2.349853515625,-0.518798828125,-1.861572265625
5.0724999,0.47225627303123474,-0.3058592677116394,10.00836181640625,6.072998046875,0.8544921875,-0.3662109375
5.0774999,0.32620999217033386,-0.2651578485965729,9.762357711791992,-4.974365234375,-0.06103515625,1.8310546875
5.0824999,0.40940847992897034,-0.25498247146606445,9.989806175231934,5.18798828125,0.42724609375,0.152587890625
5.0874999,0.30286651849746704,-0.2585737705230713,9.658209800720215,-6.2255859375,-0.518798828125,1.40380859375
5.0924999,0.47644615173339844,-0.2669534981250763,9.673172950744629,1.678466796875,-0.701904296875,-2.777099609375
5.0974999,0.35015198588371277,-0.21847090125083923,10.031704902648926,3.84521484375,0,0.946044921875
5.102499900000001,0.2890998423099518,-0.23582886159420013,9.628880500793457,-6.500244140625,-0.79345703125,0.762939453125
5.1074999000000005,0.5117605924606323,-0.30047231912612915,9.706093788146973,3.143310546875,-0.6103515625,-2.838134765625
5.1124999,0.383670836687088,-0.25318682193756104,9.981427192687988,2.532958984375,0.335693359375,1.312255859375
5.1174999,0.37469255924224854,-0.3124433159828186,9.557653427124023,-6.04248046875,-0.457763671875,0.1220703125
5.1224999,0.43335050344467163,-0.3010708689689636,9.572616577148438,-5.706787109375,-0.6103515625,-0.3662109375
5.1274999,0.5841852426528931,-0.33758243918418884,9.895833969116211,6.04248046875,0.152587890625,-2.349853515625
5.1324999,0.5309142470359802,-0.2902969419956207,9.9772367477417,6.317138671875,0.335693359375,-1.5869140625
5.1374999,0.2717418968677521,-0.24480712413787842,9.87967300415039,-2.62451171875,-0.06103515625,2.13623046875
5.1424999,0.5117605924606323,-0.31842881441116333,9.634267807006836,-2.716064453125,-0.213623046875,-1.861572265625
5.147499900000001,0.48482584953308105,-0.3010708689689636,10.028712272644043,6.317138671875,0.396728515625,-0.946044921875
5.1524999000000005,0.3034650683403015,-0.2711433470249176,9.78869342803955,-4.364013671875,-0.091552734375,2.01416015625
5.1574999,0.5410895943641663,-0.3130418658256531,9.606135368347168,-1.46484375,-0.54931640625,-2.197265625
5.1624999,0.4423287510871887,-0.2495955228805542,9.979631423950195,6.072998046875,0.518798828125,-0.274658203125
5.1674999,0.31842881441116333,-0.2801215946674347,9.733627319335938,-5.126953125,-0.18310546875,1.64794921875
5.1724999,0.5195417404174805,-0.30047231912612915,9.64683723449707,0.91552734375,0.1220703125,-2.593994140625
5.1774999,0.39863458275794983,-0.23762452602386475,10.043676376342773,5.035400390625,0.640869140625,0.396728515625
5.1824999,0.304063618183136,-0.2579752206802368,9.668983459472656,-6.2255859375,-0.213623046875,1.3427734375
5.187499900000001,0.33518823981285095,-0.2687491476535797,9.625887870788574,-6.439208984375,-0.152587890625,0.67138671875
5.1924999000000005,0.5608417391777039,-0.29388827085494995,9.727641105651855,3.5400390625,-0.152587890625,-2.532958984375
5.1974999,0.395043283700943,-0.262763649225235,9.965266227722168,2.197265625,0.701904296875,1.556396484375
5.2024999,0.3968389332294464,-0.30945056676864624,9.511565208435059,-5.523681640625,0.091552734375,0.091552734375
5.2074999,0.5925649404525757,-0.2950853705406189,9.793481826782227,5.096435546875,0,-2.288818359375
5.2124999,0.3645172119140625,-0.2663549482822418,9.913790702819824,0.30517578125,0.18310546875,1.922607421875
5.2174999,0.44412440061569214,-0.31184476613998413,9.501389503479004,-5.401611328125,-0.18310546875,-0.457763671875
5.2224999,0.5704185366630554,-0.322618693113327,9.87967300415039,6.256103515625,0.213623046875,-1.953125
5.227499900000001,0.2950853705406189,-0.3034650683403015,9.886856079101562,-1.556396484375,0,1.983642578125
5.2324999000000005,0.43514615297317505,-0.29807811975479126,9.566033363342285,-3.936767578125,-0.091552734375,-1.220703125
5.2374999,0.2519897222518921,-0.26815059781074524,9.895833969116211,-3.0517578125,0.54931640625,2.13623046875
5.2424999,0.5117605924606323,-0.29867666959762573,9.659406661987305,-2.50244140625,-0.030517578125,-1.861572265625
5.2474999,0.4770447015762329,-0.31184476613998413,10.0765962600708,6.439208984375,0.335693359375,-0.91552734375
5.2524999,0.3106476664543152,-0.26156654953956604,9.855133056640625,-4.425048828125,0.30517578125,2.13623046875
5.2574999,0.5578489899635315,-0.3076549172401428,9.683348655700684,-1.129150390625,0.152587890625,-2.227783203125
