# Time (seconds),Accel_X,Accel_Y,Accel_Z,Gyro_X,Gyro_Y,Gyro_Z
0.0024999,1.8183962106704712,-10.317214012145996,5.920860767364502,3.265380859375,7.537841796875,-51.483154296875
0.0074999,1.8183962106704712,-10.317214012145996,5.920860767364502,3.265380859375,7.537841796875,-51.483154296875
0.012499900000000001,2.625242233276367,-8.382699012756348,6.500856399536133,11.077880859375,14.373779296875,-11.688232421875
0.0174999,2.589329242706299,-5.920262336730957,8.47786808013916,23.86474609375,33.111572265625,13.946533203125
0.0224999,1.88782799243927,-3.314772367477417,9.808445930480957,29.9072265625,36.80419921875,8.026123046875
0.0274999,0.7422025203704834,-0.8445546627044678,10.465055465698242,20.172119140625,10.80322265625,14.2822265625
0.0324999,-0.3423708379268646,0.7266402244567871,10.051457405090332,-6.561279296875,-1.312255859375,8.697509765625
0.0374999,-1.2689268589019775,1.8531121015548706,9.477447509765625,-6.04248046875,-2.593994140625,-2.288818359375
0.0424999,-1.0271124839782715,0.8319851160049438,9.80904483795166,-13.18359375,-28.25927734375,9.429931640625
0.0474999,-0.41778820753097534,-0.19572599232196808,9.730634689331055,-22.491455078125,-25.787353515625,1.495361328125
0.0524999,0.3208230137825012,-0.8337807655334473,9.667786598205566,-1.0986328125,-20.477294921875,-3.326416015625
0.0574999,1.035492181777954,-1.2198457717895508,10.15021800994873,-5.43212890625,-17.27294921875,3.96728515625
0.0624999,1.5029600858688354,-1.523909330368042,9.873088836669922,-9.002685546875,1.007080078125,-4.2724609375
0.0674999,1.8722656965255737,-1.4598644971847534,10.027515411376953,13.275146484375,4.33349609375,0.030517578125
0.0724999,1.8830395936965942,-1.2976573705673218,10.122684478759766,0.1220703125,4.150390625,7.14111328125
0.0774999,1.6286556720733643,-1.213860273361206,9.821015357971191,0.091552734375,11.29150390625,-4.45556640625
0.0824999,1.236605167388916,-0.811634361743927,9.93593692779541,14.7705078125,8.97216796875,-1.739501953125
0.0874999,0.7643488645553589,-0.6302735805511475,9.9586820602417,-3.570556640625,7.171630859375,0.640869140625
0.0924999,0.10055647045373917,-0.3100491166114807,9.743802070617676,8.758544921875,2.105712890625,2.105712890625
0.0974999,-0.12270283699035645,-0.36990416049957275,9.6618013381958,-9.94873046875,-1.52587890625,2.593994140625
0.1024999,-0.24779987335205078,-0.424970805644989,9.473855972290039,1.556396484375,-1.220703125,-4.730224609375
0.1074999,-0.1909375786781311,-0.3429693877696991,9.75278091430664,3.387451171875,-5.92041015625,4.486083984375
0.1124999,-0.090979665517807,-0.5171475410461426,9.709086418151855,-11.505126953125,-4.21142578125,0.823974609375
0.1174999,0.10594342648983002,-0.5392939448356628,9.57860279083252,4.5166015625,-2.899169921875,-3.0517578125
0.1224999,0.3926490843296051,-0.5231330990791321,9.875483512878418,0.579833984375,-4.82177734375,5.950927734375
0.1274999,0.45669397711753845,-0.6823474764823914,9.6803560256958,-10.07080078125,-1.129150390625,-1.495361328125
0.1324999,0.6141127347946167,-0.6117185354232788,9.662399291992188,8.97216796875,-0.30517578125,-3.143310546875
0.1374999,0.689530074596405,-0.6003460884094238,9.92097282409668,-1.190185546875,-1.03759765625,4.791259765625
0.1424999,0.6206967830657959,-0.6554127335548401,9.668384552001953,-6.34765625,2.471923828125,-4.302978515625
0.1474999,0.679354727268219,-0.5506663918495178,9.779715538024902,10.589599609375,1.46484375,-1.678466796875
0.1524999,0.4967968463897705,-0.6584054827690125,9.702502250671387,-3.448486328125,2.0751953125,-5.096435546875
0.1574999,0.42856210470199585,-0.5530605912208557,9.886856079101562,9.58251953125,-0.9765625,0.640869140625
0.1624999,0.3321954905986786,-0.6386532783508301,9.938929557800293,-7.26318359375,-1.0986328125,3.509521484375
0.1674999,0.30466216802597046,-0.7098808288574219,9.651026725769043,-0.946044921875,0.42724609375,-5.218505859375
0.1724999,0.3082534670829773,-0.579995334148407,9.86111831665039,7.049560546875,-2.9296875,2.74658203125
0.17749990000000002,0.3190273642539978,-0.6338648796081543,9.832986831665039,-9.3994140625,-1.64794921875,1.800537109375
0.1824999,0.3429693877696991,-0.6613982319831848,9.622296333312988,2.838134765625,0.48828125,-5.340576171875
0.1874999,0.4345476031303406,-0.5285200476646423,9.896432876586914,5.157470703125,-2.50244140625,4.150390625
0.1924999,0.43275195360183716,-0.6374561786651611,9.797672271728516,-9.490966796875,0.79345703125,-0.213623046875
0.1974999,0.4465186297893524,-0.6165069341659546,9.63067626953125,6.744384765625,2.044677734375,-4.57763671875
0.2024999,0.5201402902603149,-0.536899745464325,9.908403396606445,3.204345703125,-1.3427734375,4.791259765625
0.20749990000000001,0.4016273319721222,-0.6248866319656372,9.661202430725098,-8.36181640625,1.800537109375,-2.166748046875
0.2124999,0.4058171808719635,-0.4752490520477295,9.850942611694336,-1.434326171875,-2.532958984375,5.035400390625
0.2174999,0.30226796865463257,-0.536899745464325,9.59177017211914,-7.568359375,1.129150390625,-3.753662109375
0.2224999,0.3860650360584259,-0.4908113479614258,9.725247383117676,9.33837890625,-0.335693359375,-1.312255859375
0.2274999,0.37409400939941406,-0.507570743560791,9.921571731567383,-4.730224609375,-2.50244140625,4.547119140625
0.2324999,0.41958385705947876,-0.6500257849693298,9.6989107131958,-4.69970703125,0.762939453125,-4.852294921875
0.2374999,0.48482584953308105,-0.558447539806366,9.877877235412598,9.82666015625,-1.434326171875,0.48828125
0.2424999,0.4836287498474121,-0.6428431272506714,9.968857765197754,-8.056640625,-2.01416015625,3.72314453125
0.2474999,0.49140989780426025,-0.7164648771286011,9.688735961914062,-1.312255859375,1.77001953125,-5.523681640625
0.2524999,0.49619829654693604,-0.6105214357376099,9.874286651611328,8.7890625,-0.579833984375,2.227783203125
0.2574999,0.44831427931785583,-0.645237386226654,9.85034465789795,-8.514404296875,0.54931640625,2.227783203125
0.2624999,0.5476736426353455,-0.6919242739677429,9.558850288391113,2.471923828125,1.64794921875,-5.79833984375
0.2674999,0.5404910445213318,-0.5422866940498352,9.824606895446777,4.150390625,-3.814697265625,2.105712890625
0.2724999,0.50876784324646,-0.6613982319831848,9.641449928283691,8.392333984375,6.072998046875,-6.195068359375
0.2774999,0.47405192255973816,-0.5662286877632141,9.955689430236816,5.279541015625,0.30517578125,5.523681640625
0.2824999,0.25258827209472656,-0.6362590789794922,9.7605619430542,-7.50732421875,3.11279296875,-1.15966796875
0.28749990000000003,0.1646013706922531,-0.5279214978218079,9.588179588317871,8.30078125,1.739501953125,-3.84521484375
0.2924999,0.12030863761901855,-0.4106055796146393,9.84495735168457,-1.52587890625,-5.31005859375,6.072998046875
0.2974999,0.013766659423708916,-0.45250412821769714,9.531915664672852,-10.223388671875,-3.326416015625,-1.953125
0.3024999,0.15263035893440247,-0.3908534348011017,9.61571216583252,6.7138671875,-4.547119140625,-1.861572265625
0.3074999,0.28371289372444153,-0.4345476031303406,9.827000617980957,-5.0048828125,-6.103515625,4.7607421875
0.3124999,0.4231751561164856,-0.5913678407669067,9.634865760803223,-7.965087890625,-1.373291015625,-4.058837890625
0.3174999,0.6458359360694885,-0.5997475385665894,9.831191062927246,9.33837890625,-1.708984375,-0.06103515625
0.3224999,0.7152677774429321,-0.6763619780540466,10.037092208862305,-5.340576171875,-1.15966796875,4.150390625
0.3274999,0.7445967197418213,-0.8098387122154236,9.782109260559082,-2.01416015625,3.41796875,-5.340576171875
0.3324999,0.7362170219421387,-0.7134721279144287,9.995193481445312,10.528564453125,1.89208984375,1.0986328125
0.3374999,0.6248866319656372,-0.7362170219421387,9.974244117736816,-7.232666015625,1.251220703125,2.899169921875
0.3424999,0.5488707423210144,-0.7320271730422974,9.679757118225098,1.5869140625,3.5400390625,-5.584716796875
0.34749990000000003,0.44831427931785583,-0.5410895943641663,9.833584785461426,8.056640625,-0.30517578125,2.8076171875
0.35249990000000003,0.3321954905986786,-0.5446808934211731,9.77253246307373,-9.552001953125,0.457763671875,1.312255859375
0.3574999,0.2472013235092163,-0.5195417404174805,9.566631317138672,3.2958984375,1.46484375,-5.31005859375
0.3624999,0.2513911724090576,-0.40462008118629456,9.836577415466309,5.0048828125,-2.471923828125,4.302978515625
0.3674999,0.20051439106464386,-0.49619829654693604,9.73542308807373,-10.19287109375,-1.251220703125,-0.244140625
0.3724999,0.25079262256622314,-0.524330198764801,9.580398559570312,5.706787109375,-0.48828125,-4.730224609375
0.3774999,0.3794809579849243,-0.50876784324646,9.851541519165039,1.40380859375,-3.692626953125,4.913330078125
0.3824999,0.36750996112823486,-0.6374561786651611,9.662399291992188,-9.124755859375,0.79345703125,-1.953125
0.3874999,0.47225627303123474,-0.6147112846374512,9.618106842041016,8.48388671875,0.885009765625,-3.326416015625
0.3924999,1.1204863786697388,-1.0091559886932373,9.64803409576416,4.852294921875,19.927978515625,-4.57763671875
0.3974999,1.2509703636169434,-0.9510966539382935,9.93354320526123,20.904541015625,22.64404296875,-1.556396484375
0.4024999,1.1432312726974487,-0.7948749661445618,10.418967247009277,23.956298828125,36.80419921875,-0.732421875
0.4074999,1.0875661373138428,-0.7691373229026794,10.362703323364258,10.223388671875,42.41943359375,-1.52587890625
0.41249990000000003,1.138442873954773,-0.71766197681427,10.357914924621582,23.681640625,47.271728515625,-14.2822265625
0.41749990000000003,1.184531331062317,-0.42377370595932007,10.60272216796875,24.5361328125,51.33056640625,-10.894775390625
0.4224999,1.184531331062317,-0.42377370595932007,10.60272216796875,24.5361328125,51.33056640625,-10.894775390625
0.4274999,1.4317326545715332,-0.02753331884741783,10.939705848693848,27.52685546875,69.915771484375,-22.979736328125
0.4324999,1.4317326545715332,-0.02753331884741783,10.939705848693848,27.52685546875,69.915771484375,-22.979736328125
0.4374999,1.3880383968353271,-0.19033902883529663,10.76852035522461,20.111083984375,71.77734375,-34.36279296875
0.4424999,1.2677297592163086,-0.1364694982767105,10.700884819030762,38.665771484375,73.05908203125,-44.3115234375
0.4474999,1.1264718770980835,-0.002394201699644327,10.496180534362793,32.073974609375,73.028564453125,-43.426513671875
0.4524999,0.8571242094039917,-0.32381579279899597,9.943717956542969,29.11376953125,74.188232421875,-54.99267578125
0.4574999,0.5045779943466187,-0.2585737705230713,9.700108528137207,40.863037109375,73.760986328125,-55.511474609375
0.4624999,0.15801730751991272,-0.25258827209472656,9.21707820892334,23.0712890625,65.155029296875,-44.98291015625
0.4674999,-0.363918662071228,-0.5548562407493591,8.621520042419434,23.468017578125,58.135986328125,-53.28369140625
0.47249990000000003,-0.7870938181877136,-0.2950853705406189,8.400056838989258,29.84619140625,44.769287109375,-51.788330078125
0.47749990000000003,-1.2324153184890747,-0.2687491476535797,8.010400772094727,6.744384765625,33.3251953125,-42.327880859375
0.4824999,-1.6304513216018677,-0.3196259140968323,7.695562839508057,3.509521484375,20.93505859375,-44.98291015625
0.4874999,-2.1140801906585693,-0.002992752008140087,7.598597526550293,-22.674560546875,-10.25390625,-27.008056640625
0.4924999,-2.1954829692840576,0.008379706181585789,7.591414928436279,-22.27783203125,-21.942138671875,-27.191162109375
0.4974999,-2.252943754196167,0.2783259451389313,7.776965618133545,-28.3203125,-33.14208984375,-13.3056640625
0.5024999,-2.278681516647339,0.15801730751991272,7.711723804473877,-50.29296875,-43.5791015625,-6.439208984375
0.5074999,-2.313995838165283,0.19692309200763702,7.91283655166626,-44.921875,-49.8046875,-7.14111328125
0.5124999,-2.448669672012329,0.42377370595932007,8.371326446533203,-51.8798828125,-54.6875,5.7373046875
0.5174999,-2.5911247730255127,0.19153612852096558,8.686761856079102,-63.568115234375,-64.3310546875,7.568359375
0.5224999,-2.8592753410339355,0.09457096457481384,9.513360023498535,-38.848876953125,-84.9609375,4.180908203125
0.5274999,-2.9891607761383057,-0.13587094843387604,10.317214012145996,-17.486572265625,-114.07470703125,9.033203125
0.5324999,-2.934094190597534,-0.8547300100326538,10.821192741394043,-12.054443359375,-116.485595703125,-0.091552734375
0.5374999,-2.6216509342193604,-1.2461819648742676,11.13842487335205,0.732421875,-103.057861328125,-4.486083984375
0.5424999,-1.8393454551696777,-1.502361536026001,11.28806209564209,-11.23046875,-89.2333984375,6.439208984375
0.5474999,0.32022446393966675,-1.2647370100021362,11.151593208312988,-7.659912109375,-58.868408203125,13.36669921875
0.5524999,1.6202759742736816,-0.829590916633606,11.203666687011719,-15.228271484375,-35.21728515625,18.951416015625
0.5574999,2.4875755310058594,-0.7026981711387634,10.886435508728027,-11.474609375,-13.97705078125,18.585205078125
0.5624999,3.0831332206726074,-0.6763619780540466,10.773907661437988,10.55908203125,-11.505126953125,29.388427734375
0.5674999000000001,3.1681272983551025,-0.828393816947937,10.348937034606934,0.42724609375,1.251220703125,41.68701171875
0.5724999000000001,2.787449359893799,-1.3060370683670044,9.936535835266113,6.2255859375,16.90673828125,28.3203125
0.5774999000000001,2.3756465911865234,-1.1492167711257935,9.897629737854004,17.88330078125,17.39501953125,17.486572265625
0.5824999,1.8387469053268433,-1.0564415454864502,9.849146842956543,0.42724609375,12.908935546875,8.697509765625
0.5874999,1.4562731981277466,-0.7846996188163757,9.542689323425293,3.875732421875,9.185791015625,-9.246826171875
0.5924999,1.1019313335418701,-0.314238965511322,9.675567626953125,8.36181640625,10.040283203125,-6.103515625
0.5974999,0.7745242714881897,-0.11252748221158981,9.551667213439941,-9.033203125,12.115478515625,-5.523681640625
0.6024999,0.5171475410461426,-0.053270988166332245,9.555258750915527,-0.3662109375,12.237548828125,-13.48876953125
0.6074999,-0.48482584953308105,-0.3926490843296051,9.849146842956543,0.946044921875,-0.823974609375,0.762939453125
0.6124999,-0.6230909824371338,-0.6913257241249084,9.572616577148438,-11.505126953125,-6.04248046875,-4.486083984375
0.6174999,-0.729034423828125,-0.7170634269714355,9.371503829956055,2.471923828125,-11.322021484375,-8.941650390625
0.6224999,-0.6482301354408264,-0.5512649416923523,9.43135929107666,-5.615234375,-17.51708984375,-0.579833984375
0.6274999,-0.6835445761680603,-0.5973533391952515,9.263765335083008,-15.472412109375,-20.56884765625,-5.37109375
0.6324999,-0.6416460275650024,-0.37828385829925537,9.379284858703613,-2.105712890625,-26.18408203125,-4.2724609375
0.6374999,-0.5015852451324463,-0.2585737705230713,9.667786598205566,-14.129638671875,-31.951904296875,5.584716796875
0.6424999,1.4688427448272705,-1.0414776802062988,9.97065258026123,10.68115234375,5.950927734375,0.091552734375
0.6474999,1.1971008777618408,-0.9744400978088379,9.890447616577148,-5.06591796875,7.415771484375,2.471923828125
0.6524999,0.8720879554748535,-0.9050082564353943,9.701305389404297,3.72314453125,8.544921875,-5.55419921875
0.6574999,0.4908113479614258,-0.6093243360519409,9.809642791748047,9.063720703125,4.669189453125,2.0751953125
0.6624999,0.1628057211637497,-0.5303156971931458,9.739013671875,-7.6904296875,3.448486328125,1.0986328125
0.6674999,-0.07481880486011505,-0.4686649739742279,9.61571216583252,3.84521484375,1.3427734375,-5.401611328125
0.6724999,-0.19033902883529663,-0.2974795699119568,9.815628051757812,3.570556640625,-3.753662109375,3.509521484375
0.6774999,-0.18375498056411743,-0.41718965768814087,9.728838920593262,-11.474609375,-4.180908203125,0.244140625
0.6824999,-0.11851298063993454,-0.46088382601737976,9.68694019317627,4.302978515625,-4.33349609375,-4.45556640625
0.6874999,0.262763649225235,-0.6200982332229614,9.744999885559082,-10.345458984375,-2.593994140625,-0.67138671875
0.6924999000000001,0.4644751250743866,-0.6655880808830261,9.687539100646973,7.38525390625,-1.28173828125,-3.2958984375
0.6974999000000001,0.656609833240509,-0.6392518281936646,9.909601211547852,-0.3662109375,-1.953125,5.0048828125
0.7024999000000001,0.6440402865409851,-0.7841010689735413,9.634267807006836,-6.77490234375,1.983642578125,-2.5634765625
0.7074999,0.7086837291717529,-0.7110779285430908,9.755773544311523,10.162353515625,2.227783203125,-2.593994140625
0.7124999,0.6631938815116882,-0.6973112225532532,9.871294021606445,-2.593994140625,0.762939453125,4.94384765625
0.7174999,0.5386953949928284,-0.7362170219421387,9.68813705444336,-4.7607421875,2.593994140625,-3.936767578125
0.7224999,0.48901569843292236,-0.6147112846374512,9.832387924194336,10.284423828125,0.67138671875,-1.220703125
0.7274999,0.3555389642715454,-0.5608417391777039,9.88386344909668,-5.279541015625,-0.67138671875,4.2724609375
0.7324999,0.2932897210121155,-0.6458359360694885,9.697713851928711,-3.570556640625,0.213623046875,-4.8828125
0.7374999,0.2908954918384552,-0.5333084464073181,9.870096206665039,8.60595703125,-1.617431640625,0.457763671875
0.7424999,0.2944868206977844,-0.6099228858947754,9.888052940368652,-7.354736328125,-1.495361328125,3.72314453125
0.7474999,0.39564183354377747,-0.6206967830657959,9.917980194091797,7.38525390625,-1.434326171875,2.105712890625
0.7524999,0.41778820753097534,-0.667982280254364,9.844358444213867,-8.72802734375,-0.640869140625,2.5634765625
0.7574999,0.4710591733455658,-0.7356184720993042,9.698312759399414,2.5634765625,1.220703125,-5.31005859375
0.7624999,0.46507367491722107,-0.6159083843231201,9.84256362915039,7.110595703125,0.1220703125,3.11279296875
0.7674999,0.46627077460289,-0.6883329749107361,9.77133560180664,-9.002685546875,1.190185546875,1.03759765625
0.7724999,0.41359832882881165,-0.6751648783683777,9.690531730651855,5.157470703125,1.3427734375,-5.157470703125
0.7774999,0.3908534348011017,-0.5566518902778625,9.897629737854004,3.84521484375,-1.0986328125,3.96728515625
0.7824999,0.33518823981285095,-0.5997475385665894,9.802460670471191,-9.21630859375,0.6103515625,-0.335693359375
0.7874999,0.2861070930957794,-0.6057330369949341,9.701305389404297,7.049560546875,0.213623046875,-4.33349609375
0.7924999,0.3663128614425659,-0.5530605912208557,9.874884605407715,1.800537109375,-1.46484375,4.852294921875
0.7974999,0.2998737692832947,-0.667982280254364,9.640851974487305,-8.85009765625,0,-1.617431640625
0.8024999,0.37648820877075195,-0.6302735805511475,9.632472038269043,8.453369140625,-0.091552734375,-3.41796875
0.8074999,0.3926490843296051,-0.6889315247535706,9.578003883361816,-7.598876953125,0.396728515625,-2.9296875
0.8124999,0.4944026470184326,-0.6494272351264954,9.754576683044434,9.27734375,0.335693359375,-1.922607421875
0.8174999000000001,0.4818331003189087,-0.6524199843406677,9.835380554199219,-2.74658203125,-0.152587890625,4.791259765625
0.8224999000000001,0.4752490520477295,-0.7314286231994629,9.698312759399414,-4.7607421875,1.64794921875,-4.150390625
0.8274999000000001,0.4920084476470947,-0.6308721303939819,9.838972091674805,10.040283203125,0.457763671875,-0.762939453125
0.8324999000000001,0.4165911078453064,-0.5979518890380859,9.936535835266113,-5.37109375,0.030517578125,4.180908203125
0.8374999,0.38965633511543274,-0.6817489266395569,9.742605209350586,-2.777099609375,0.91552734375,-4.730224609375
0.8424999,0.3711012601852417,-0.5805938839912415,9.945513725280762,9.124755859375,-1.3427734375,0.823974609375
0.8474999,0.33698388934135437,-0.645237386226654,9.91738224029541,-8.453369140625,-1.220703125,3.47900390625
0.8524999,0.36152446269989014,-0.7200561761856079,9.740809440612793,-0.79345703125,0.213623046875,-5.2490234375
0.8574999,0.36152446269989014,-0.6189011335372925,9.895833969116211,7.6904296875,-1.800537109375,2.13623046875
0.8624999,0.36092591285705566,-0.6404489278793335,9.82640266418457,-9.3994140625,-0.8544921875,2.25830078125
0.8674999,0.44592007994651794,-0.6619967818260193,9.73542308807373,-9.368896484375,0.396728515625,0.823974609375
0.8724999,0.4165911078453064,-0.6548141837120056,9.637260437011719,5.096435546875,1.03759765625,-5.0048828125
0.8774999,0.436343252658844,-0.5674257874488831,9.852738380432129,4.241943359375,-1.068115234375,4.241943359375
0.8824999,0.3878606855869293,-0.6153098344802856,9.783905029296875,-9.063720703125,0.67138671875,-0.54931640625
0.8874999,0.3561375141143799,-0.6171054840087891,9.692327499389648,7.232666015625,0.885009765625,-4.364013671875
0.8924999,0.4213795065879822,-0.5602431893348694,9.894038200378418,1.495361328125,-0.91552734375,4.57763671875
0.8974999,0.33698388934135437,-0.6602011322975159,9.643844604492188,-9.002685546875,0,-1.8310546875
0.9024999,0.3794809579849243,-0.6057330369949341,9.654019355773926,8.6669921875,-0.06103515625,-3.173828125
0.9074999,0.4100070297718048,-0.5710170865058899,9.838373184204102,-0.9765625,-1.28173828125,4.791259765625
0.9124999,0.33997663855552673,-0.6506243348121643,9.613917350769043,-7.293701171875,0.42724609375,-3.204345703125
0.9174999,0.4345476031303406,-0.619499683380127,9.783307075500488,9.307861328125,-0.1220703125,-1.89208984375
0.9224999,1.1450269222259521,-0.9421183466911316,9.721057891845703,-4.45556640625,-3.509521484375,2.899169921875
0.9274999,1.6657658815383911,-1.1791443824768066,9.504382133483887,-8.514404296875,0.640869140625,-26.702880859375
0.9324999,2.0661959648132324,-1.225232720375061,9.73661994934082,10.955810546875,33.3251953125,-34.24072265625
0.9374999,1.679532527923584,-1.1390414237976074,10.018536567687988,16.66259765625,48.88916015625,-20.294189453125
0.9424999000000001,0.4842272996902466,-0.7751228213310242,10.08198356628418,13.641357421875,35.70556640625,-10.650634765625
0.9474999000000001,-0.9283517003059387,-0.2124854028224945,10.253169059753418,11.41357421875,12.786865234375,4.69970703125
0.9524999000000001,-1.9961656332015991,0.046088382601737976,9.922170639038086,-10.040283203125,-0.30517578125,7.598876953125
0.9574999000000001,-2.518700122833252,0.22026655077934265,9.421183586120605,-7.8125,-16.632080078125,-0.42724609375
0.9624999,-2.564788579940796,0.3076549172401428,9.336189270019531,-5.615234375,-34.5458984375,7.2021484375
0.9674999,-2.162562608718872,0.15143325924873352,9.406818389892578,-22.216796875,-36.895751953125,6.7138671875
0.9724999,-1.313219666481018,-0.08439560979604721,9.519944190979004,-9.3994140625,-32.562255859375,-0.8544921875
0.9774999,-0.1693897694349289,-0.13946224749088287,9.926360130310059,-5.706787109375,-26.092529296875,4.302978515625
0.9824999,1.139639973640442,-0.4866214990615845,9.944316864013672,-19.95849609375,-12.51220703125,-2.197265625
0.9874999,2.936488389968872,-0.9091981053352356,10.037092208862305,2.86865234375,10.7421875,-1.617431640625
0.9924999,3.230376720428467,-1.2144588232040405,9.910798072814941,-9.124755859375,22.52197265625,-14.678955078125
0.9974999,3.0555999279022217,-1.2886791229248047,9.93593692779541,12.8173828125,36.7431640625,-21.240234375
1.0024999,2.5983073711395264,-1.080383539199829,9.950302124023438,13.214111328125,33.172607421875,-8.36181640625
1.0074999000000002,1.7764976024627686,-0.9498994946479797,9.831191062927246,0,28.533935546875,-16.448974609375
1.0124999000000001,0.8457517623901367,-0.4884171485900879,9.678560256958008,7.50732421875,19.439697265625,-23.49853515625
1.0174999000000002,0.0586579404771328,0.10953472554683685,9.496601104736328,-13.702392578125,8.697509765625,-22.003173828125
1.0224999000000001,-0.47884035110473633,0.35913026332855225,9.005789756774902,-26.275634765625,5.18798828125,-30.70068359375
1.0274999,-0.5985504388809204,0.6883329749107361,9.032724380493164,-19.53125,8.880615234375,-27.801513671875
1.0324999000000001,-0.47824180126190186,0.5626373887062073,9.14345645904541,-32.53173828125,26.702880859375,-13.092041015625
1.0374999,-0.2753331959247589,-0.05147533491253853,9.704896926879883,-21.42333984375,33.447265625,-8.4228515625
1.0424999000000001,-0.5015852451324463,-1.854907751083374,10.385448455810547,-6.988525390625,6.072998046875,-1.739501953125
1.0474999,-0.8457517623901367,-1.9853917360305786,9.938929557800293,9.429931640625,-4.82177734375,3.997802734375
1.0524999000000002,-1.1025298833847046,-2.203263998031616,9.577404975891113,-2.655029296875,-9.3994140625,8.270263671875
1.0574999,-1.146224021911621,-2.2373814582824707,9.442132949829102,4.08935546875,-9.27734375,2.105712890625
1.0624999000000002,-1.0773907899856567,-1.9506758451461792,9.595361709594727,13.336181640625,-10.31494140625,11.3525390625
1.0674999,-0.7577648162841797,-1.745373010635376,9.678560256958008,-1.739501953125,-11.41357421875,12.87841796875
1.0724999000000002,-0.34596213698387146,-1.4089876413345337,9.694721221923828,10.55908203125,-10.3759765625,6.561279296875
1.0774999,-0.004788403399288654,-0.8798691034317017,9.860519409179688,12.481689453125,-11.749267578125,12.786865234375
1.0824999000000002,0.3669114112854004,-0.6153098344802856,9.864110946655273,-4.241943359375,-12.542724609375,9.3994140625
1.0874999,0.5871779918670654,-0.28311434388160706,9.907206535339355,8.056640625,-10.1318359375,1.007080078125
1.0924999000000002,0.5871779918670654,-0.28311434388160706,9.907206535339355,8.056640625,-10.1318359375,1.007080078125
1.0974999,0.9253589510917664,0.011372458189725876,9.841964721679688,-9.58251953125,-4.5166015625,6.317138671875
1.1024999000000002,0.9361328482627869,-0.050876785069704056,9.763554573059082,6.103515625,-0.274658203125,3.11279296875
1.1074999,0.9929951429367065,-0.14903905987739563,9.807847023010254,0.3662109375,3.5400390625,8.9111328125
1.1124999000000002,0.8469488620758057,-0.46627077460289,9.685144424438477,-9.94873046875,3.570556640625,0.946044921875
1.1174999,0.7122750282287598,-0.6206967830657959,9.716269493103027,7.32421875,4.364013671875,-2.62451171875
1.1224999000000002,0.24361002445220947,-0.8361749649047852,9.785700798034668,9.521484375,3.387451171875,-2.99072265625
1.1274999,0.13287819921970367,-0.8415619134902954,9.840168952941895,-3.448486328125,1.434326171875,4.547119140625
1.1324999000000002,0.058059390634298325,-0.8816647529602051,9.766547203063965,-4.94384765625,-0.152587890625,-3.35693359375
1.1374999000000001,0.07422025501728058,-0.7559691667556763,9.876680374145508,9.70458984375,-0.3662109375,-0.48828125
1.1424999000000002,0.07422025501728058,-0.7080851793289185,9.882067680358887,-5.767822265625,-1.03759765625,4.57763671875
1.1474999000000001,0.37409400939941406,-0.7942764163017273,9.704896926879883,1.46484375,0.6103515625,-5.340576171875
1.1524999000000002,0.37409400939941406,-0.7942764163017273,9.704896926879883,1.46484375,0.6103515625,-5.340576171875
1.1574999000000001,0.3082534670829773,-0.6434416770935059,9.784503936767578,6.65283203125,1.190185546875,2.685546875
1.1624999,0.2902969419956207,-0.6745663285255432,9.728240013122559,-9.33837890625,0.518798828125,1.678466796875
1.1674999000000001,0.2454056739807129,-0.6919242739677429,9.697115898132324,3.60107421875,0.54931640625,-4.7607421875
1.1724999,0.1951274424791336,-0.5913678407669067,9.833584785461426,4.7607421875,0.42724609375,3.936767578125
1.1774999000000002,0.2172738015651703,-0.6841431260108948,9.73781681060791,-9.613037109375,-0.335693359375,0.3662109375
1.1824999,0.17417816817760468,-0.729034423828125,9.724050521850586,5.950927734375,0.42724609375,-4.425048828125
1.1874999000000002,0.24839842319488525,-0.7613561153411865,9.751583099365234,7.568359375,0.79345703125,-3.7841796875
1.1924999,0.304063618183136,-0.6853402256965637,9.864709854125977,0.18310546875,0.48828125,5.340576171875
1.1974999000000002,0.24420857429504395,-0.7972691655158997,9.687539100646973,-7.87353515625,-0.6103515625,-1.8310546875
1.2024999,0.2849099934101105,-0.7200561761856079,9.769539833068848,8.514404296875,0.701904296875,-3.11279296875
1.2074999000000002,0.29867666959762573,-0.6919242739677429,9.845556259155273,-2.50244140625,-0.213623046875,4.82177734375
1.2124999,0.26575639843940735,-0.7649474143981934,9.72165584564209,-6.40869140625,-0.54931640625,-2.9296875
1.2174999000000002,0.3250128924846649,-0.7026981711387634,9.835380554199219,9.21630859375,0.885009765625,-1.3427734375
1.2224999,0.29867666959762573,-0.7068880796432495,9.799467086791992,-4.45556640625,-0.42724609375,4.94384765625
1.2274999000000002,0.3280056416988373,-0.7864952683448792,9.695918083190918,-3.84521484375,-0.213623046875,-3.936767578125
1.2324999,0.3345896899700165,-0.7015010714530945,9.7791166305542,9.6435546875,1.495361328125,-0.579833984375
1.2374999000000002,0.3082534670829773,-0.6817489266395569,9.814431190490723,-6.866455078125,-0.396728515625,4.21142578125
1.2424999,0.25737667083740234,-0.7374141216278076,9.876680374145508,-7.781982421875,-0.244140625,3.662109375
1.2474999000000002,0.2783259451389313,-0.8050503134727478,9.769539833068848,0.640869140625,-0.18310546875,-5.035400390625
1.2524999,0.24600422382354736,-0.6841431260108948,9.845556259155273,7.537841796875,1.0986328125,1.800537109375
1.2574999000000002,0.24779987335205078,-0.690727174282074,9.741408348083496,-9.552001953125,-0.946044921875,2.288818359375
1.2624999000000001,0.27653029561042786,-0.7422025203704834,9.667786598205566,2.685546875,-0.030517578125,-4.7607421875
1.2674999000000002,0.25318682193756104,-0.6224924325942993,9.782109260559082,5.7373046875,1.3427734375,3.387451171875
1.2724999000000001,0.2950853705406189,-0.7134721279144287,9.707290649414062,-9.979248046875,-0.762939453125,1.373291015625
1.2774999000000002,0.24420857429504395,-0.7350199222564697,9.684545516967773,5.0048828125,0.091552734375,-4.791259765625
1.2824999000000001,0.2579752206802368,-0.6655880808830261,9.81263542175293,4.058837890625,0.823974609375,3.631591796875
1.2874999,0.23283611238002777,-0.7182605266571045,9.743204116821289,-9.552001953125,-0.67138671875,-0.244140625
1.2924999000000001,0.1909375786781311,-0.7266402244567871,9.736021041870117,6.77490234375,0.457763671875,-3.875732421875
1.2974999,0.2777273952960968,-0.6613982319831848,9.856928825378418,-1.03759765625,0.30517578125,4.669189453125
1.3024999000000002,0.23104046285152435,-0.7493851184844971,9.665990829467773,-7.354736328125,-0.67138671875,-2.593994140625
1.3074999,0.29628247022628784,-0.6763619780540466,9.814431190490723,9.674072265625,0.885009765625,-1.89208984375
1.3124999000000002,0.3076549172401428,-0.6991068720817566,9.82999324798584,-2.899169921875,0.701904296875,4.913330078125
1.3174999,0.29209262132644653,-0.7649474143981934,9.718064308166504,-5.828857421875,-0.701904296875,-3.570556640625
1.3224999000000002,0.3232172429561615,-0.7098808288574219,9.827000617980957,9.796142578125,0.518798828125,-0.640869140625
1.3274999,0.16579847037792206,-0.7445967197418213,9.895833969116211,-4.8828125,0.274658203125,4.547119140625
1.3324999000000002,-0.08499415963888168,-0.9397241473197937,9.840767860412598,-3.082275390625,-4.058837890625,-4.974365234375
1.3374999,-0.48901569843292236,-1.0229226350784302,10.0580415725708,13.885498046875,-14.251708984375,-0.274658203125
1.3424999000000002,-0.9187749028205872,-1.2306196689605713,10.047266960144043,0.030517578125,-27.03857421875,3.570556640625
1.3474999,-1.445499300956726,-1.4838064908981323,10.190919876098633,18.00537109375,-40.10009765625,1.15966796875
1.3524999000000002,-1.4460978507995605,-1.6077064275741577,10.182539939880371,3.692626953125,-50.10986328125,3.11279296875
1.3574999,-1.3850456476211548,-1.834557056427002,10.234015464782715,16.4794921875,-53.77197265625,-3.631591796875
1.3624999000000002,-0.536899745464325,-2.3301568031311035,10.140042304992676,42.724609375,-32.745361328125,0.91552734375
1.3674999,0.12030863761901855,-2.2828712463378906,10.311826705932617,57.342529296875,-20.263671875,12.176513671875
1.3724999000000002,0.6787561774253845,-2.691082715988159,10.128071784973145,56.488037109375,-20.81298828125,20.01953125
1.3774999,1.4203602075576782,-3.139396905899048,10.43692398071289,89.2333984375,-8.85009765625,22.3388671875
1.3824999000000002,2.02848744392395,-2.962226152420044,10.72602367401123,98.419189453125,-6.65283203125,39.520263671875
1.3874999000000001,2.6653449535369873,-3.442862033843994,10.972027778625488,115.325927734375,-8.72802734375,23.162841796875
1.3924999000000002,2.978985548019409,-3.1681272983551025,11.346121788024902,147.94921875,4.94384765625,14.373779296875
1.3974999000000001,2.912546396255493,-2.408566951751709,11.337143898010254,177.6123046875,24.96337890625,16.357421875
1.4024999000000002,2.5480291843414307,-1.6944962739944458,11.307814598083496,212.09716796875,27.4658203125,8.97216796875
1.4074999000000001,2.1314380168914795,-0.7116764783859253,11.011531829833984,211.73095703125,25.2685546875,11.8408203125
1.4124999,1.5975310802459717,-0.005386953707784414,10.401010513305664,214.691162109375,22.03369140625,1.8310546875
1.4174999000000001,1.269525408744812,0.9570821523666382,10.050858497619629,221.98486328125,17.76123046875,2.62451171875
1.4224999,1.0887632369995117,1.8986018896102905,9.09377670288086,195.343017578125,9.185791015625,7.598876953125
1.4274999000000002,0.950498104095459,2.47560453414917,8.105569839477539,180.633544921875,1.89208984375,-12.786865234375
1.4324999,0.921169102191925,3.422511339187622,7.338826656341553,160.003662109375,-6.317138671875,-21.575927734375
1.4374999000000002,0.8990227580070496,4.016871929168701,6.542754650115967,108.612060546875,-11.444091796875,-21.697998046875
1.4424999,0.7805097699165344,4.276642799377441,6.014833450317383,78.887939453125,-11.016845703125,-30.731201171875
1.4474999000000002,0.6260837316513062,4.720767021179199,5.873575210571289,52.978515625,-10.7421875,-26.67236328125
1.4524999,0.47884035110473633,4.763862609863281,5.581482887268066,9.185791015625,-6.591796875,-23.284912109375
1.4574999000000002,-0.005985504016280174,4.869806289672852,5.382165431976318,-51.45263671875,-8.941650390625,-5.462646484375
1.4624999,-0.17238251864910126,4.996100425720215,5.304952621459961,-99.7314453125,-1.40380859375,5.31005859375
1.4674999000000002,-0.39803603291511536,5.330689907073975,5.530605792999268,-118.438720703125,12.420654296875,5.67626953125
1.4724999,-0.3860650360584259,6.1321492195129395,6.0872578620910645,-147.39990234375,19.561767578125,20.751953125
1.4774999000000002,-0.23343466222286224,6.542754650115967,6.648099422454834,-187.1337890625,23.0712890625,29.6630859375
1.4824999,-0.0867898091673851,6.722319602966309,7.048529624938965,-198.699951171875,30.029296875,35.430908203125
1.4874999000000002,0.16998831927776337,6.693589210510254,7.470507621765137,-220.245361328125,32.5927734375,51.971435546875
1.4924999,0.26815059781074524,5.907692909240723,7.3232645988464355,-249.08447265625,36.376953125,53.77197265625
1.4974999000000002,0.3100491166114807,4.994304656982422,7.069478988647461,-255.2490234375,41.107177734375,55.145263671875
1.5024999,0.3058592677116394,4.294599533081055,7.029974937438965,-288.787841796875,37.567138671875,66.131591796875
1.5074999000000002,0.11312603205442429,3.0627825260162354,6.403292655944824,-329.65087890625,34.24072265625,61.798095703125
1.5124999000000001,-0.8774749040603638,1.1994950771331787,7.505223751068115,-324.310302734375,25.665283203125,52.581787109375
1.5174999000000002,-1.9949685335159302,-4.783016681671143,9.1260986328125,21.78955078125,-106.536865234375,-20.5078125
1.5224999000000001,-0.19692309200763702,-8.656834602355957,6.3518171310424805,49.407958984375,-3.387451171875,-14.404296875
1.5274999000000002,1.6178817749023438,-8.9680814743042,4.314949989318848,36.4990234375,27.52685546875,-14.6484375
1.5324999000000001,3.0873231887817383,-7.629123687744141,3.557185173034668,-41.412353515625,52.30712890625,17.181396484375
1.5374999000000003,3.5919010639190674,-6.3482255935668945,5.696404457092285,-63.8427734375,13.61083984375,31.036376953125
1.5424999000000001,3.20404052734375,-4.839878559112549,8.231863975524902,18.98193359375,-8.60595703125,-4.302978515625
1.5474999,2.1972784996032715,-3.202244758605957,10.594342231750488,42.694091796875,16.815185546875,-16.021728515625
1.5524999000000002,1.083974838256836,-2.1338322162628174,11.636418342590332,-3.173828125,4.33349609375,-10.92529296875
1.5574999,0.5632359385490417,-1.1982979774475098,11.210250854492188,12.939453125,7.171630859375,-18.1884765625
1.5624999000000002,0.4159925580024719,-0.13766659796237946,10.386645317077637,14.007568359375,21.759033203125,-12.969970703125
1.5674999,0.33698388934135437,0.5728127360343933,9.849745750427246,-7.32421875,16.143798828125,-5.035400390625
1.5724999000000002,0.010175357572734356,1.3946224451065063,9.913790702819824,3.143310546875,0.518798828125,-2.685546875
1.5774999,-0.30047231912612915,1.0145429372787476,9.710283279418945,-13.3056640625,1.953125,-6.072998046875
1.5824999000000002,-0.5392939448356628,0.5512649416923523,9.507973670959473,0.701904296875,-0.274658203125,-7.354736328125
1.5874999,-0.5428852438926697,0.03232172131538391,9.633668899536133,-1.89208984375,-9.307861328125,4.486083984375
1.5924999000000002,-0.5991489887237549,-0.5734112858772278,9.503783226013184,-13.427734375,-11.505126953125,-0.946044921875
1.5974999,-0.3974374830722809,-0.8062474131584167,9.55466079711914,4.547119140625,-12.359619140625,-3.41796875
1.6024999000000002,-0.02753331884741783,-0.8696937561035156,9.88625717163086,-3.84521484375,-11.8408203125,4.791259765625
1.6074999,0.31842881441116333,-0.9582792520523071,9.700706481933594,-10.589599609375,-4.974365234375,-1.89208984375
1.6124999000000002,0.7811083197593689,-0.8248024582862854,9.864709854125977,6.561279296875,-2.105712890625,-0.91552734375
1.6174999,1.0708067417144775,-0.7248445749282837,10.02811336517334,-3.997802734375,-1.495361328125,5.523681640625
1.6224999000000002,1.095347285270691,-0.8008604645729065,9.813234329223633,-5.37109375,3.082275390625,-4.7607421875
1.6274999,1.0743980407714844,-0.6883329749107361,9.873687744140625,10.68115234375,2.38037109375,-2.410888671875
1.6324999000000002,0.8732850551605225,-0.6889315247535706,9.980229377746582,-4.119873046875,1.8310546875,2.410888671875
1.6374999000000001,0.6733692288398743,-0.7625532150268555,9.689932823181152,-1.190185546875,4.7607421875,-6.28662109375
1.6424999000000002,0.5207388401031494,-0.5949591398239136,9.877279281616211,10.6201171875,1.8310546875,0.640869140625
1.6474999000000001,0.35913026332855225,-0.5937620401382446,9.873088836669922,-7.232666015625,0.54931640625,3.082275390625
1.6524999000000002,0.25318682193756104,-0.6009446382522583,9.633668899536133,-0.579833984375,1.03759765625,-5.4931640625
1.6574999000000001,0.19572599232196808,-0.42856210470199585,9.81143856048584,6.77490234375,-2.197265625,2.288818359375
1.6624999000000003,0.17178396880626678,-0.45190557837486267,9.813833236694336,-9.429931640625,-1.8310546875,1.739501953125
1.6674999000000001,0.21308395266532898,-0.5045779943466187,9.637260437011719,1.861572265625,-0.274658203125,-5.615234375
1.6724999,0.3250128924846649,-0.3926490843296051,9.88745403289795,5.401611328125,-2.838134765625,3.265380859375
1.6774999000000002,0.4183867573738098,-0.5596446394920349,9.823410034179688,-9.82666015625,-0.48828125,0.579833984375
1.6824999,0.4626794755458832,-0.6230909824371338,9.905410766601562,0.8544921875,-1.46484375,4.669189453125
1.6874999000000002,0.35075053572654724,-0.6991068720817566,9.628880500793457,-8.514404296875,0.701904296875,-2.716064453125
1.6924999,0.4076128304004669,-0.5770025849342346,9.700108528137207,8.392333984375,0.213623046875,-2.9296875
1.6974999000000002,0.4423287510871887,-0.5321113467216492,9.910798072814941,-2.777099609375,-2.99072265625,5.035400390625
1.7024999,0.40043023228645325,-0.5943605899810791,9.727641105651855,-6.9580078125,0.030517578125,-3.753662109375
1.7074999000000002,0.4991910457611084,-0.5524620413780212,9.841365814208984,9.490966796875,-0.79345703125,-1.434326171875
1.7124999,0.5165489912033081,-0.5644330382347107,9.990405082702637,-4.364013671875,-1.03759765625,4.638671875
1.7174999000000002,0.5285200476646423,-0.6955155730247498,9.72165584564209,-4.547119140625,1.52587890625,-4.669189453125
1.7224999,0.5841852426528931,-0.585382342338562,9.864110946655273,9.613037109375,0,-0.091552734375
1.7274999000000002,0.5315127968788147,-0.6147112846374512,9.948506355285645,-6.04248046875,-0.244140625,3.72314453125
1.7324999,0.4967968463897705,-0.6805518269538879,9.713275909423828,-1.40380859375,2.01416015625,-5.340576171875
1.7374999000000002,0.36990416049957275,-0.6440402865409851,9.616909980773926,1.495361328125,2.13623046875,-5.67626953125
1.7424999,0.35673606395721436,-0.5105634927749634,9.813833236694336,7.537841796875,-1.129150390625,2.5634765625
1.7474999000000002,0.3357867896556854,-0.569819986820221,9.77013874053955,-10.101318359375,-0.79345703125,1.312255859375
1.7524999,0.3280056416988373,-0.6033388376235962,9.622296333312988,3.143310546875,0.762939453125,-5.37109375
1.7574999000000002,0.36990416049957275,-0.5225345492362976,9.874884605407715,4.486083984375,-2.471923828125,3.875732421875
1.7624999000000001,0.4776432514190674,-0.6416460275650024,9.904213905334473,2.349853515625,-2.105712890625,4.57763671875
1.7674999000000002,0.395043283700943,-0.7206547260284424,9.733028411865234,-8.941650390625,1.03759765625,-1.46484375
1.7724999000000001,0.444722980260849,-0.6554127335548401,9.637260437011719,8.148193359375,1.373291015625,-3.753662109375
1.7774999000000002,0.4668693244457245,-0.5309142470359802,9.703699111938477,9.09423828125,0.48828125,-2.349853515625
1.7824999000000001,0.4668693244457245,-0.5309142470359802,9.703699111938477,9.09423828125,0.48828125,-2.349853515625
1.7874999000000003,0.4842272996902466,-0.5291185975074768,9.88745403289795,-2.471923828125,-1.52587890625,4.8828125
1.7924999000000001,0.42676645517349243,-0.6159083843231201,9.6618013381958,-6.072998046875,0.701904296875,-4.180908203125
1.7974999,0.49978959560394287,-0.5590460896492004,9.800664901733398,9.307861328125,-0.3662109375,-1.03759765625
1.8024999000000002,0.4554968774318695,-0.558447539806366,9.95209789276123,-5.55419921875,-1.8310546875,4.45556640625
1.8074999,0.4465186297893524,-0.6673837304115295,9.713874816894531,-3.35693359375,1.556396484375,-5.06591796875
1.8124999000000002,0.46327802538871765,-0.5776011347770691,9.895236015319824,9.82666015625,-0.152587890625,0.335693359375
1.8174999,0.436343252658844,-0.6518214344978333,9.990405082702637,-7.75146484375,-1.77001953125,3.570556640625
1.8224999000000002,0.30466216802597046,-0.7553706169128418,9.786897659301758,-0.79345703125,0.732421875,-4.69970703125
1.8274999,0.20949265360832214,-0.6721721291542053,9.964667320251465,9.70458984375,-4.913330078125,4.180908203125
1.8324999000000002,0.046088382601737976,-0.6757634282112122,9.906009674072266,-9.1552734375,-6.89697265625,5.37109375
1.8374999,0.09636662155389786,-0.48722004890441895,9.762955665588379,5.126953125,-7.99560546875,4.82177734375
1.8424999000000002,0.2687491476535797,-0.6099228858947754,9.583391189575195,3.84521484375,-6.439208984375,-2.105712890625
1.8474999,0.2687491476535797,-0.6099228858947754,9.583391189575195,3.84521484375,-6.439208984375,-2.105712890625
1.8524999000000002,0.2753331959247589,-0.6206967830657959,9.94970417022705,4.486083984375,-9.46044921875,6.988525390625
1.8574999,0.1759738177061081,-0.8637082576751709,9.862914085388184,-6.7138671875,-11.04736328125,3.84521484375
1.8624999000000002,-0.0071826050989329815,-1.07379949092865,9.868300437927246,11.077880859375,-12.237548828125,0.030517578125
1.8674999,-0.0933738648891449,-1.1037269830703735,10.159794807434082,7.38525390625,-16.2353515625,10.07080078125
1.8724999000000002,-0.2944868206977844,-1.3455413579940796,9.996989250183105,0.91552734375,-19.561767578125,6.2255859375
1.8774999,-0.40282443165779114,-1.3766659498214722,10.146626472473145,20.263671875,-23.3154296875,4.791259765625
1.8824999000000002,-0.37888240814208984,-1.2641384601593018,10.446500778198242,16.845703125,-30.548095703125,15.777587890625
1.8874999000000001,-0.4159925580024719,-1.3120225667953491,10.311227798461914,20.660400390625,-29.72412109375,18.1884765625
1.8924999000000002,-0.3387795388698578,-1.1617863178253174,10.611102104187012,45.166015625,-26.336669921875,30.609130859375
1.8974999000000001,-0.19153612852096558,-1.1647791862487793,10.642226219177246,52.6123046875,-26.885986328125,49.25537109375
1.9024999000000002,-0.0867898091673851,-1.1851298809051514,10.825981140136719,74.005126953125,-28.50341796875,57.373046875
1.9074999000000001,0.0017956512747332454,-1.3090298175811768,10.848128318786621,66.95556640625,-35.21728515625,63.3544921875
1.9124999000000003,0.08619125932455063,-1.5873557329177856,10.560823440551758,77.0263671875,-37.841796875,51.116943359375
1.9174999000000001,0.30047231912612915,-1.5628151893615723,10.690709114074707,91.888427734375,-42.327880859375,50.35400390625
1.9224999,1.245583415031433,-1.1629834175109863,10.172364234924316,100.4638671875,-43.9453125,32.1044921875
1.9274999000000002,1.6065093278884888,-0.8601169586181641,9.825803756713867,86.517333984375,-43.121337890625,29.052734375
1.9324999,1.9410990476608276,-0.5847837924957275,9.50737476348877,96.099853515625,-34.24072265625,17.822265625
1.9374999000000002,2.2810757160186768,0.055665191262960434,9.363722801208496,93.292236328125,-29.72412109375,20.416259765625
1.9424999,2.5450363159179688,0.43754035234451294,8.910619735717773,72.8759765625,-22.52197265625,16.448974609375
1.9474999000000002,2.8574798107147217,1.5861586332321167,8.221688270568848,62.286376953125,4.7607421875,16.326904296875
1.9524999,2.920926094055176,2.012925148010254,7.691372871398926,34.97314453125,17.974853515625,14.801025390625
1.9574999000000002,2.9227216243743896,2.4869771003723145,7.299322605133057,29.632568359375,35.491943359375,10.3759765625
1.9624999,3.0125043392181396,3.1232361793518066,7.060500621795654,0.06103515625,45.196533203125,16.815185546875
1.9674999000000002,2.8772318363189697,3.4344823360443115,6.675632953643799,-34.11865234375,54.779052734375,9.246826171875
1.9724999,2.718017578125,3.8534677028656006,6.503250598907471,-46.966552734375,63.29345703125,2.74658203125
1.9774999000000002,2.5133132934570312,4.271854400634766,6.596025466918945,-83.953857421875,64.14794921875,5.340576171875
1.9824999,2.1380221843719482,4.244919776916504,6.417058944702148,-114.593505859375,67.56591796875,-6.622314453125
1.9874999000000002,1.8477251529693604,4.217386245727539,6.597222805023193,-126.556396484375,70.892333984375,-11.65771484375
1.9924999,1.5855600833892822,4.076726913452148,6.7923502922058105,-165.252685546875,71.77734375,-10.8642578125
1.9974999000000002,1.3174095153808594,3.5709519386291504,6.716932773590088,-189.94140625,75.164794921875,-22.27783203125
2.0024999,-2.913144826889038,-4.897938251495361,10.576984405517578,-16.998291015625,-7.9345703125,-61.8896484375
2.0074999,-2.363675594329834,-7.282563209533691,9.025542259216309,4.150390625,21.8505859375,-66.802978515625
2.0124999000000003,-0.8876502513885498,-7.950545310974121,6.810306549072266,23.92578125,20.538330078125,-53.741455078125
2.0174999000000002,0.5644330382347107,-7.60637903213501,6.10401725769043,-12.02392578125,24.71923828125,-27.923583984375
2.0224999,1.247977614402771,-6.272210121154785,7.1706342697143555,12.20703125,20.44677734375,-6.04248046875
2.0274999,1.3227964639663696,-4.244919776916504,9.14225959777832,37.9638671875,15.93017578125,9.27734375
2.0324999000000004,0.7990648150444031,-2.44747257232666,10.244190216064453,6.378173828125,13.336181640625,1.8310546875
2.0374999000000003,0.1825578808784485,-0.7709329724311829,10.356119155883789,15.625,3.448486328125,-6.805419921875
2.0424999,-0.13587094843387604,0.5835866928100586,9.958083152770996,3.936767578125,4.364013671875,-2.74658203125
2.0474999,-0.4686649739742279,1.3287819623947144,9.61212158203125,-15.899658203125,0.823974609375,-3.997802734375
2.0524999,-0.5081692934036255,1.7363947629928589,10.012551307678223,-5.615234375,-14.801025390625,2.593994140625
2.0574999000000003,-0.46986207365989685,1.0492589473724365,9.740211486816406,-15.07568359375,-10.528564453125,-3.387451171875
2.0624999,-0.1322796493768692,0.3866635859012604,9.724648475646973,-0.335693359375,-10.55908203125,-0.91552734375
2.0674999,0.25079262256622314,-0.4100070297718048,9.834183692932129,-6.988525390625,-11.810302734375,6.2255859375
2.0724999,0.569819986820221,-1.026513934135437,9.64564037322998,-9.765625,-3.997802734375,-4.39453125
2.0774999000000003,0.9068039059638977,-1.2701239585876465,9.838972091674805,9.70458984375,-2.25830078125,-1.0986328125
2.0824999,1.0444705486297607,-0.9546879529953003,9.932345390319824,11.383056640625,4.364013671875,-0.701904296875
2.0874999,0.8888474106788635,-0.750582218170166,10.02811336517334,-5.218505859375,2.471923828125,1.40380859375
2.0924999,0.7224503755569458,-0.6320692300796509,9.761159896850586,0,6.195068359375,-7.415771484375
2.0974999000000003,0.536899745464325,-0.4010287821292877,9.92097282409668,9.033203125,3.173828125,0.640869140625
2.1024999,0.19692309200763702,-0.5147533416748047,9.5624418258667,1.52587890625,1.77001953125,-6.40869140625
2.1074999,0.13048399984836578,-0.4513070285320282,9.782708168029785,6.65283203125,-2.25830078125,2.532958984375
2.1124999,0.14185644686222076,-0.5841852426528931,9.734824180603027,-10.6201171875,-3.60107421875,1.220703125
2.1174999000000003,0.2017114907503128,-0.5991489887237549,9.577404975891113,3.387451171875,-0.640869140625,-4.45556640625
2.1224999,0.38486793637275696,-0.5171475410461426,9.906009674072266,3.204345703125,-3.60107421875,4.69970703125
2.1274999,0.4405331015586853,-0.5847837924957275,9.783307075500488,-10.040283203125,-0.79345703125,-0.1220703125
2.1324999,0.5273229479789734,-0.6045359373092651,9.639056205749512,6.53076171875,1.129150390625,-4.150390625
2.1374999000000003,0.6422445774078369,-0.5740098357200623,9.924564361572266,1.46484375,-2.105712890625,4.69970703125
2.1424999000000002,0.5404910445213318,-0.6943184733390808,9.636063575744629,-8.23974609375,1.495361328125,-2.593994140625
2.1474999,0.5776011347770691,-0.6254851818084717,9.630077362060547,8.9111328125,2.197265625,-3.875732421875
2.1524999,0.5722141861915588,-0.5901707410812378,9.904812812805176,-0.79345703125,-0.9765625,4.486083984375
2.1574999000000004,0.436343252658844,-0.6380547285079956,9.627084732055664,-6.53076171875,2.3193359375,-3.814697265625
2.1624999000000003,0.4692635238170624,-0.5961562395095825,10.006566047668457,-6.622314453125,-2.0751953125,3.7841796875
2.1674999,0.4644751250743866,-0.6823474764823914,9.734225273132324,-2.349853515625,1.617431640625,-5.218505859375
2.1724999,0.497395396232605,-0.6009446382522583,9.961674690246582,9.27734375,-0.3662109375,1.28173828125
2.1774999000000004,0.48243165016174316,-0.6613982319831848,9.947908401489258,-7.781982421875,-0.9765625,2.899169921875
2.1824999000000003,0.5129576921463013,-0.7266402244567871,9.655815124511719,0.91552734375,2.25830078125,-5.645751953125
2.1874999,0.5309142470359802,-0.5883750915527344,9.846753120422363,8.209228515625,-0.335693359375,2.25830078125
2.1924999,0.49140989780426025,-0.6105214357376099,9.77013874053955,-9.490966796875,-0.54931640625,1.434326171875
2.1974999,0.47165772318840027,-0.6051344871520996,9.550470352172852,3.23486328125,2.105712890625,-5.43212890625
2.2024999000000003,0.47225627303123474,-0.4776432514190674,9.839570045471191,6.16455078125,-1.46484375,3.72314453125
2.2074999,0.39384618401527405,-0.5674257874488831,9.621698379516602,5.462646484375,1.312255859375,-5.218505859375
2.2124999,0.4752490520477295,-0.5213374495506287,9.913191795349121,2.655029296875,-3.0517578125,4.302978515625
2.2174999,0.37469255924224854,-0.6045359373092651,9.758766174316406,-9.521484375,0,-1.373291015625
2.2224999000000003,0.42018240690231323,-0.6063315868377686,9.604938507080078,7.293701171875,0.42724609375,-3.997802734375
2.2274999,0.4854243993759155,-0.5530605912208557,9.883264541625977,-0.152587890625,-3.204345703125,4.69970703125
2.2324999,0.4124012291431427,-0.6763619780540466,9.558850288391113,-8.544921875,1.007080078125,-2.9296875
2.2374999,0.5129576921463013,-0.6147112846374512,9.606734275817871,8.941650390625,0.701904296875,-2.5634765625
2.2424999000000003,0.558447539806366,-0.6494272351264954,9.786299705505371,9.8876953125,0.244140625,-1.3427734375
2.2474999,0.5027823448181152,-0.606930136680603,9.9772367477417,-5.218505859375,-2.288818359375,4.45556640625
2.2524999,0.49320554733276367,-0.6637924313545227,9.730634689331055,-4.364013671875,1.52587890625,-5.06591796875
2.2574999,0.5237316489219666,-0.5416881442070007,9.899425506591797,9.124755859375,-0.701904296875,0.244140625
2.2624999000000003,0.47584760189056396,-0.5752069354057312,10.00955867767334,-6.866455078125,-1.0986328125,3.814697265625
2.2674999000000002,0.47584760189056396,-0.6446388363838196,9.716867446899414,-1.556396484375,1.678466796875,-5.523681640625
2.2724999,0.48063600063323975,-0.5620388388633728,9.922170639038086,8.392333984375,-1.46484375,1.556396484375
2.2774999,0.43993455171585083,-0.5985504388809204,9.892841339111328,-8.9111328125,-1.89208984375,2.471923828125
2.2824999000000004,0.48243165016174316,-0.669179379940033,9.619303703308105,1.15966796875,2.044677734375,-5.645751953125
2.2874999000000003,0.4728548228740692,-0.5626373887062073,9.812037467956543,7.476806640625,-1.617431640625,2.9296875
2.2924999,0.47165772318840027,-0.6422445774078369,9.750985145568848,-9.521484375,0.06103515625,1.15966796875
2.2974999,0.4554968774318695,-0.6548141837120056,9.563039779663086,3.936767578125,2.349853515625,-5.462646484375
2.3024999000000004,0.47584760189056396,-0.568622887134552,9.853935241699219,5.157470703125,-1.739501953125,3.875732421875
2.3074999000000003,0.43335050344467163,-0.6129156351089478,9.766547203063965,-10.25390625,-0.579833984375,-0.1220703125
2.3124999,0.406415730714798,-0.6266822814941406,9.604938507080078,6.011962890625,1.495361328125,-4.669189453125
2.3174999,0.4878185987472534,-0.558447539806366,9.891045570373535,2.227783203125,-2.50244140625,4.638671875
2.3224999,0.4704606235027313,-0.5620388388633728,9.971850395202637,0,-1.617431640625,4.974365234375
2.3274999000000003,0.39145198464393616,-0.6242880821228027,9.637859344482422,-7.9345703125,0.640869140625,-3.0517578125
2.3324999,0.49978959560394287,-0.5817909836769104,9.733627319335938,8.819580078125,0.213623046875,-2.3193359375
2.3374999,0.5225345492362976,-0.6003460884094238,9.90122127532959,-2.86865234375,-2.349853515625,4.608154296875
2.3424999,0.5081692934036255,-0.6494272351264954,9.64683723449707,-5.645751953125,1.434326171875,-4.241943359375
2.3474999000000003,0.5877765417098999,-0.5937620401382446,9.77133560180664,9.8876953125,0.1220703125,-0.91552734375
2.3524999,0.5351040959358215,-0.5542576909065247,9.939528465270996,-5.126953125,-0.946044921875,4.33349609375
2.3574999,0.5117605924606323,-0.6338648796081543,9.671976089477539,-3.509521484375,1.64794921875,-5.18798828125
2.3624999,0.5291185975074768,-0.5506663918495178,9.873088836669922,9.429931640625,-1.03759765625,0.518798828125
2.3674999000000003,0.47584760189056396,-0.6117185354232788,9.919178009033203,-7.32421875,-0.823974609375,3.387451171875
2.3724999,0.47584760189056396,-0.6117185354232788,9.919178009033203,-7.32421875,-0.823974609375,3.387451171875
2.3774999,0.46746787428855896,-0.6147112846374512,9.819818496704102,8.544921875,-1.5869140625,1.983642578125
2.3824999,0.42197805643081665,-0.6314706802368164,9.78989028930664,-8.9111328125,-0.274658203125,2.349853515625
2.3874999000000003,0.44532153010368347,-0.6697779297828674,9.55466079711914,1.861572265625,2.105712890625,-5.584716796875
2.3924999000000002,0.4411316514015198,-0.5440823435783386,9.797672271728516,6.622314453125,-1.77001953125,3.021240234375
2.3974999,0.4423287510871887,-0.5901707410812378,9.738415718078613,-9.979248046875,-0.518798828125,0.946044921875
2.4024999,0.39564183354377747,-0.5883750915527344,9.804854393005371,-9.27734375,0.274658203125,-0.6103515625
2.4074999000000004,0.40940847992897034,-0.6063315868377686,9.637859344482422,6.65283203125,1.556396484375,-4.608154296875
2.4124999000000003,0.49559974670410156,-0.5776011347770691,9.937732696533203,1.89208984375,-1.953125,4.852294921875
2.4174999,0.4100070297718048,-0.6530185341835022,9.657610893249512,-8.575439453125,0.8544921875,-2.13623046875
2.4224999,0.43275195360183716,-0.628477931022644,9.61331844329834,-7.232666015625,1.373291015625,-3.326416015625
2.4274999000000004,0.43275195360183716,-0.628477931022644,9.61331844329834,-7.232666015625,1.373291015625,-3.326416015625
2.4324999000000003,0.5374982953071594,-0.5931634902954102,9.712677955627441,9.3994140625,0.457763671875,-2.0751953125
2.4374999,0.5267243981361389,-0.6242880821228027,9.88745403289795,-2.62451171875,-1.3427734375,4.7607421875
2.4424999,0.5159504413604736,-0.6859387755393982,9.616311073303223,-5.31005859375,1.678466796875,-4.5166015625
2.4474999,0.5668272376060486,-0.6320692300796509,9.785700798034668,9.796142578125,-0.274658203125,-0.6103515625
2.4524999000000003,0.5021837949752808,-0.5997475385665894,9.9586820602417,-4.913330078125,-1.15966796875,4.2724609375
2.4574999,0.4626794755458832,-0.6799532771110535,9.692925453186035,-2.685546875,1.983642578125,-5.126953125
2.4624999,0.4728548228740692,-0.5973533391952515,9.906607627868652,9.490966796875,-0.885009765625,1.220703125
2.4674999,0.4279635548591614,-0.6308721303939819,9.93354320526123,-7.2021484375,-1.190185546875,3.60107421875
2.4724999000000003,0.45250412821769714,-0.7158663272857666,9.623494148254395,-0.18310546875,2.25830078125,-5.55419921875
2.4774999,0.46507367491722107,-0.6021417379379272,9.830592155456543,8.392333984375,-1.220703125,2.471923828125
2.4824999,0.48482584953308105,-0.6153098344802856,9.703699111938477,-8.97216796875,0.030517578125,1.0986328125
2.4874999,0.4513070285320282,-0.6308721303939819,9.585784912109375,4.82177734375,1.678466796875,-4.5166015625
2.4924999000000003,0.5051765441894531,-0.5446808934211731,9.854534149169922,3.631591796875,-2.01416015625,4.974365234375
2.4974999,0.4291606545448303,-0.5943605899810791,9.801262855529785,-9.368896484375,0.274658203125,-0.274658203125
2.5024999,0.43335050344467163,-0.5961562395095825,9.618106842041016,6.591796875,1.129150390625,-3.814697265625
2.5074999,0.4985924959182739,-0.5428852438926697,9.926360130310059,1.3427734375,-2.410888671875,5.096435546875
2.5124999000000003,0.41120412945747375,-0.6230909824371338,9.6618013381958,-9.063720703125,0.213623046875,-1.89208984375
2.5174999000000002,0.49978959560394287,-0.5578489899635315,9.66958236694336,7.965087890625,0.48828125,-3.265380859375
2.5224999,1.1414356231689453,-0.4040215313434601,10.448894500732422,-5.096435546875,0.946044921875,7.598876953125
2.5274999,2.3086090087890625,-0.3627215623855591,11.135432243347168,-38.57421875,29.327392578125,26.153564453125
2.5324999000000004,-0.5566518902778625,-1.8579005002975464,6.472724437713623,42.083740234375,19.34814453125,-13.48876953125
2.5374999000000003,-2.7527334690093994,-2.1727380752563477,7.330447196960449,10.101318359375,0.152587890625,-37.322998046875
2.5424999,-4.033631324768066,-1.8405425548553467,9.132083892822266,16.937255859375,-24.566650390625,-32.2265625
2.5474999,-4.160523891448975,-1.1827356815338135,10.293272018432617,-12.908935546875,-32.04345703125,-29.022216796875
2.5524999000000004,-3.309983968734741,-0.3250128924846649,10.56680965423584,-8.758544921875,-28.472900390625,-29.327392578125
2.5574999000000003,-1.9063831567764282,0.6458359360694885,10.439916610717773,-4.638671875,-26.06201171875,-11.1083984375
2.5624999,-0.5602431893348694,1.0133458375930786,10.292673110961914,-19.927978515625,-25.726318359375,1.434326171875
2.5674999,0.46148237586021423,1.0857704877853394,10.087369918823242,-12.87841796875,-24.993896484375,-1.495361328125
2.5724999,1.1079168319702148,0.7936778664588928,10.35252857208252,-7.568359375,-25.238037109375,5.67626953125
2.5774999000000003,1.5795745849609375,-1.722628116607666,9.64564037322998,-6.927490234375,1.312255859375,-2.99072265625
2.5824999,1.3521254062652588,-1.653794765472412,9.635464668273926,12.969970703125,4.5166015625,-7.4462890625
2.5874999,1.2066776752471924,-1.2539631128311157,9.916783332824707,4.364013671875,6.591796875,1.77001953125
2.5924999,0.9307458996772766,-0.9588778018951416,9.702502250671387,-3.997802734375,10.589599609375,-4.150390625
2.5974999000000003,0.7829039692878723,-0.5111620426177979,9.764153480529785,11.505126953125,9.82666015625,-3.96728515625
2.6024999,0.5979518890380859,-0.29149407148361206,9.944915771484375,-1.312255859375,4.69970703125,4.425048828125
2.6074999,0.28550854325294495,-0.30945056676864624,9.709086418151855,-5.4931640625,3.41796875,-3.936767578125
2.6124999,0.12330138683319092,-0.2974795699119568,9.801861763000488,8.758544921875,-0.244140625,-1.8310546875
2.6174999000000003,-0.055665191262960434,-0.40462008118629456,9.881468772888184,-4.730224609375,-4.21142578125,4.5166015625
2.6224999,-0.06703764945268631,-0.579995334148407,9.651026725769043,-5.0048828125,-3.326416015625,-3.7841796875
2.6274999,0.6350619792938232,-0.6338648796081543,9.934141159057617,8.1787109375,-1.617431640625,0.762939453125
2.6324999,0.7218518257141113,-0.6625953316688538,9.908403396606445,-9.09423828125,-0.6103515625,1.495361328125
2.6374999000000003,0.7876923680305481,-0.7386112213134766,9.66419506072998,1.556396484375,3.173828125,-6.683349609375
2.6424999000000002,0.7637503147125244,-0.6206967830657959,9.820416450500488,8.23974609375,1.617431640625,2.0751953125
2.6474999,0.7003039717674255,-0.6985083222389221,9.713275909423828,-7.537841796875,2.86865234375,1.46484375
2.6524999,0.5764040350914001,-0.6949170231819153,9.555258750915527,5.523681640625,3.7841796875,-4.7607421875
2.6574999000000004,0.47884035110473633,-0.5596446394920349,9.814431190490723,5.92041015625,0.396728515625,3.96728515625
2.6624999000000003,0.3597288131713867,-0.5817909836769104,9.733627319335938,-9.33837890625,0.335693359375,-0.213623046875
2.6674999,0.2603694200515747,-0.5404910445213318,9.624092102050781,6.103515625,0.030517578125,-4.69970703125
2.6724999,0.33339259028434753,-0.48961424827575684,9.88625717163086,1.800537109375,-2.74658203125,4.364013671875
2.6774999000000004,0.383670836687088,-0.579995334148407,9.638457298278809,7.415771484375,-0.67138671875,-3.47900390625
2.6824999000000003,0.5027823448181152,-0.5734112858772278,9.91977596282959,-0.152587890625,-1.800537109375,4.913330078125
2.6874999,0.47884035110473633,-0.7003039717674255,9.596558570861816,-7.904052734375,0.8544921875,-3.021240234375
2.6924999,0.6003460884094238,-0.6847416758537292,9.718663215637207,9.58251953125,0.823974609375,-2.44140625
2.6974999,0.6159083843231201,-0.7044938206672668,9.867103576660156,-2.349853515625,-0.30517578125,4.486083984375
2.7024999000000003,0.5913678407669067,-0.7314286231994629,9.624092102050781,-5.279541015625,2.410888671875,-4.33349609375
2.7074999,0.5650315880775452,-0.6362590789794922,9.780313491821289,9.21630859375,-1.922607421875,-1.40380859375
2.7124999,0.4118026793003082,-0.5554547905921936,9.870695114135742,-7.720947265625,-7.8125,2.593994140625
2.7174999,0.2454056739807129,-0.6009446382522583,9.658209800720215,-6.011962890625,-6.011962890625,-5.7373046875
2.7224999000000003,0.1430535465478897,-0.5165489912033081,9.877279281616211,6.500244140625,-11.322021484375,1.89208984375
2.7274999,0.0999579206109047,-0.5793967843055725,9.929951667785645,-10.833740234375,-12.359619140625,7.537841796875
2.7324999,0.23163901269435883,-0.6937199234962463,9.67077922821045,-2.838134765625,-9.09423828125,-0.762939453125
2.7374999,0.9540894031524658,-0.8595184087753296,9.733028411865234,-7.781982421875,-1.46484375,8.4228515625
2.7424999000000003,0.811634361743927,-0.8475474119186401,9.617507934570312,6.04248046875,-0.42724609375,1.5869140625
2.7474999,0.7577648162841797,-0.690727174282074,9.91977596282959,5.584716796875,-2.410888671875,10.589599609375
2.7524999,0.608127236366272,-0.667982280254364,9.857526779174805,-8.331298828125,-0.762939453125,6.4697265625
2.7574999,0.4967968463897705,-0.6117185354232788,9.698312759399414,7.14111328125,0.48828125,2.777099609375
2.7624999000000003,0.5422866940498352,-0.536899745464325,9.960477828979492,2.777099609375,-2.25830078125,11.749267578125
2.7674999000000002,0.43694180250167847,-0.6033388376235962,9.729436874389648,-8.636474609375,-0.9765625,5.279541015625
2.7724999,0.47465047240257263,-0.5416881442070007,9.657610893249512,7.843017578125,-0.91552734375,2.960205078125
2.7774999,0.5171475410461426,-0.5309142470359802,9.943120002746582,-0.518798828125,-2.9296875,10.284423828125
2.7824999000000004,0.4967968463897705,-0.5135562419891357,9.9185791015625,-3.692626953125,-2.685546875,5.06591796875
2.7874999000000003,0.3926490843296051,-0.5147533416748047,9.690531730651855,-6.34765625,-1.617431640625,-6.439208984375
2.7924999,0.37648820877075195,-0.4213795065879822,9.80904483795166,7.99560546875,-3.753662109375,-4.608154296875
2.7974999,0.35015198588371277,-0.3734954595565796,10.005369186401367,-8.331298828125,-6.40869140625,-0.42724609375
2.8024999000000004,0.3603273630142212,-0.4908113479614258,9.722254753112793,-5.43212890625,-1.068115234375,-9.27734375
2.8074999000000003,0.7422025203704834,-0.40462008118629456,10.409390449523926,6.622314453125,-1.64794921875,-2.86865234375
2.8124999,1.9183541536331177,-0.10474632680416107,11.277288436889648,-34.24072265625,18.829345703125,8.60595703125
2.8174999,3.2363622188568115,-0.06823474913835526,12.594697952270508,-69.3359375,52.154541015625,37.261962890625
2.8224999,4.35684871673584,0.6099228858947754,14.159308433532715,-106.903076171875,49.4384765625,81.329345703125
2.8274999000000003,4.656123638153076,0.7380126714706421,14.949994087219238,-148.49853515625,56.94580078125,74.15771484375
2.8324999,3.4985272884368896,0.6458359360694885,14.384364128112793,-151.3671875,61.309814453125,42.05322265625
2.8374999,0.15502455830574036,-0.37409400939941406,10.0765962600708,-124.81689453125,73.05908203125,-8.087158203125
2.8424999,-1.0935516357421875,-1.3634978532791138,7.196371555328369,-58.77685546875,75.592041015625,-31.31103515625
2.8474999000000003,-1.6011223793029785,-2.184110403060913,4.596268653869629,-7.62939453125,68.17626953125,-30.364990234375
2.8524999,-1.7609353065490723,-3.19865345954895,2.697666883468628,40.6494140625,55.72509765625,-38.238525390625
2.8574999,-1.8393454551696777,-3.5895068645477295,1.499967336654663,106.109619140625,42.41943359375,-49.8046875
2.8624999,-1.9039889574050903,-3.473388195037842,0.8583213090896606,144.989013671875,12.87841796875,-60.9130859375
2.8674999000000003,-2.229600429534912,-3.47039532661438,0.811634361743927,187.1337890625,-40.8935546875,-87.921142578125
2.8724999,-2.7030537128448486,-2.914940595626831,1.4383167028427124,215.301513671875,-82.427978515625,-103.546142578125
2.8774999,-2.897582530975342,-2.3564929962158203,3.4961330890655518,194.061279296875,-121.307373046875,-104.98046875
2.8824999,-1.1827356815338135,1.4832079410552979,12.38101577758789,-66.864013671875,-55.999755859375,12.542724609375
2.8874999000000003,1.6292542219161987,1.7423802614212036,8.959102630615234,-15.106201171875,3.2958984375,26.397705078125
2.8924999000000002,2.43011474609375,0.790086567401886,8.201337814331055,-30.70068359375,12.939453125,25.726318359375
2.8974999,2.9011738300323486,0.3627215623855591,8.85555362701416,-3.448486328125,0.640869140625,21.881103515625
2.9024999,2.8987796306610107,-0.5620388388633728,9.531915664672852,-11.627197265625,-11.077880859375,10.467529296875
2.9074999000000004,2.428318977355957,-1.425148606300354,9.938929557800293,2.3193359375,-1.373291015625,-0.54931640625
2.9124999000000003,1.778891921043396,-1.9159599542617798,10.10173511505127,10.162353515625,6.9580078125,5.767822265625
2.9174999,1.2779051065444946,-2.3122003078460693,9.889848709106445,-1.3427734375,13.73291015625,1.0986328125
2.9224999,0.8798691034317017,-2.054224967956543,9.667187690734863,10.711669921875,13.97705078125,-8.941650390625
2.9274999000000004,0.6823474764823914,-1.4646528959274292,9.95748519897461,9.002685546875,9.33837890625,0.3662109375
2.9324999000000003,0.5225345492362976,-0.9331400990486145,9.880870819091797,-4.82177734375,13.61083984375,-1.8310546875
2.9374999,0.24600422382354736,-0.406415730714798,9.814431190490723,9.490966796875,11.1083984375,-3.753662109375
2.9424999,0.09696517139673233,-0.03531447425484657,9.876680374145508,1.983642578125,1.5869140625,3.23486328125
2.9474999,-0.2041056901216507,-0.090979665517807,9.62828254699707,-11.16943359375,-0.732421875,-5.31005859375
2.9524999000000003,-0.32441434264183044,-0.08918401598930359,9.639654159545898,5.645751953125,-4.119873046875,-5.279541015625
2.9574999,-0.28131869435310364,-0.243011474609375,9.816226959228516,-3.997802734375,-7.904052734375,5.18798828125
2.9624999,-0.16759411990642548,-0.5339069962501526,9.636063575744629,-8.11767578125,-6.256103515625,-2.838134765625
2.9674999,0.17717093229293823,-0.669179379940033,9.791686058044434,8.36181640625,-6.134033203125,-2.197265625
2.9724999000000003,0.5171475410461426,-0.7894880175590515,9.88625717163086,-5.31005859375,-4.5166015625,4.45556640625
2.9774999,0.8313865661621094,-0.9540894031524658,9.720458984375,-3.570556640625,0.396728515625,-3.662109375
2.9824999,1.0396820306777954,-0.8403648138046265,9.8784761428833,10.711669921875,2.3193359375,0.1220703125
2.9874999,1.0767922401428223,-0.8152256608009338,9.9371337890625,-6.40869140625,3.509521484375,3.7841796875
2.9924999000000003,0.9929951429367065,-0.8403648138046265,9.791088104248047,-0.30517578125,5.67626953125,-5.18798828125
2.9974999,0.9929951429367065,-0.8403648138046265,9.791088104248047,-0.30517578125,5.67626953125,-5.18798828125
3.0024999,0.7727286219596863,-0.6859387755393982,9.978434562683105,10.07080078125,3.021240234375,1.220703125
3.0074999,0.33997663855552673,-0.71766197681427,9.713275909423828,2.105712890625,1.77001953125,-5.18798828125
3.0124999000000003,0.33997663855552673,-0.71766197681427,9.713275909423828,2.105712890625,1.77001953125,-5.18798828125
3.0174999000000002,0.166995570063591,-0.5428852438926697,9.824007987976074,7.14111328125,-1.861572265625,2.685546875
3.0224999,0.14484919607639313,-0.5805938839912415,9.726444244384766,-10.528564453125,-2.044677734375,1.15966796875
3.0274999,0.17657238245010376,-0.5877765417098999,9.625288963317871,2.899169921875,-1.739501953125,-5.340576171875
3.0324999000000004,0.30226796865463257,-0.5153518915176392,9.856928825378418,3.082275390625,-3.41796875,3.96728515625
3.0374999000000003,0.4620809257030487,-0.6266822814941406,9.742605209350586,-9.82666015625,-0.274658203125,-0.030517578125
3.0424999,0.641047477722168,-0.7475894689559937,9.695320129394531,9.796142578125,1.983642578125,-3.90625
3.0474999,0.6153098344802856,-0.629675030708313,9.882665634155273,0.244140625,0.6103515625,4.45556640625
3.0524999000000004,0.46148237586021423,-0.5901707410812378,9.831191062927246,9.521484375,-1.220703125,-0.579833984375
3.0574999000000003,0.46148237586021423,-0.5901707410812378,9.831191062927246,9.521484375,-1.220703125,-0.579833984375
3.0624999,0.47584760189056396,-0.6033388376235962,9.907805442810059,-6.65283203125,-0.8544921875,4.119873046875
3.0674999,0.5213374495506287,-0.7194576263427734,9.723451614379883,-2.166748046875,0.67138671875,-4.852294921875
3.0724999000000004,0.5446808934211731,-0.6542156338691711,9.91977596282959,9.307861328125,-0.79345703125,1.007080078125
3.0774999000000003,0.5554547905921936,-0.7098808288574219,9.873088836669922,-8.087158203125,0.18310546875,3.173828125
3.0824999,0.5817909836769104,-0.8074445128440857,9.68694019317627,1.068115234375,1.708984375,-5.55419921875
3.0874999,0.5333084464073181,-0.6488286852836609,9.838373184204102,8.23974609375,-0.6103515625,2.13623046875
3.0924999,0.49978959560394287,-0.6619967818260193,9.742605209350586,-9.8876953125,-0.091552734375,1.617431640625
3.0974999000000003,0.4704606235027313,-0.6572083830833435,9.615114212036133,3.11279296875,0.91552734375,-5.462646484375
3.1024999,0.45190557837486267,-0.5931634902954102,9.726444244384766,-10.1318359375,-0.244140625,0.48828125
3.1074999,0.4016273319721222,-0.6242880821228027,9.677363395690918,5.859375,0.3662109375,-4.791259765625
3.1124999,0.48482584953308105,-0.5668272376060486,9.874884605407715,3.2958984375,-1.983642578125,4.21142578125
3.1174999000000003,0.4423287510871887,-0.6350619792938232,9.743204116821289,-9.735107421875,-0.18310546875,-1.190185546875
3.1224999,0.4596867263317108,-0.6386532783508301,9.653421401977539,7.6904296875,0.3662109375,-3.753662109375
3.1274999,0.5225345492362976,-0.5716156363487244,9.865307807922363,-0.335693359375,-0.823974609375,5.0048828125
3.1324999,0.35015198588371277,-0.7691373229026794,9.64683723449707,-8.4228515625,0.6103515625,-2.593994140625
3.1374999000000003,0.32381579279899597,-0.8349778652191162,9.756970405578613,5.401611328125,-3.631591796875,-8.697509765625
3.1424999000000002,0.2041056901216507,-0.9876081943511963,9.8784761428833,-5.828857421875,-8.209228515625,-9.124755859375
3.1474999,-0.047884032130241394,-1.2407950162887573,9.816226959228516,-1.220703125,-8.331298828125,-18.280029296875
3.1524999,-0.23762452602386475,-1.3138182163238525,10.055048942565918,16.357421875,-15.167236328125,-9.70458984375
3.1574999000000004,-0.5752069354057312,-1.3880383968353271,10.20528507232666,-3.60107421875,-27.34375,-3.753662109375
3.1624999000000003,-1.4281413555145264,-2.4420857429504395,11.082160949707031,24.23095703125,-94.085693359375,-47.18017578125
3.1674999,-1.1420341730117798,-2.7329812049865723,11.227608680725098,21.05712890625,-106.0791015625,-49.774169921875
3.1724999,-0.7122750282287598,-3.022081136703491,11.475408554077148,60.11962890625,-115.66162109375,-51.1474609375
3.1774999000000004,-0.20231004059314728,-2.8622682094573975,11.568782806396484,74.127197265625,-112.12158203125,-43.701171875
3.1824999000000003,0.3621230125427246,-3.156156301498413,11.453861236572266,67.32177734375,-86.97509765625,-35.430908203125
3.1874999,0.6518214344978333,-3.175309896469116,11.258134841918945,100.372314453125,-64.14794921875,-25.665283203125
3.1924999,0.8170213103294373,-2.7940332889556885,10.897209167480469,126.434326171875,-52.276611328125,-0.457763671875
3.1974999000000004,0.8960300087928772,-2.539649486541748,10.614693641662598,146.331787109375,-56.243896484375,17.059326171875
3.2024999000000003,1.755548357963562,0.44352585077285767,10.94569206237793,195.953369140625,-59.295654296875,75.927734375
3.2074999,2.1350293159484863,1.2419921159744263,10.967838287353516,227.081298828125,-52.1240234375,85.5712890625
3.2124999,2.4157495498657227,1.7729063034057617,10.62007999420166,219.482421875,-44.43359375,98.6328125
3.2174999,2.454056739807129,1.6238672733306885,9.743204116821289,215.33203125,-36.224365234375,93.6279296875
3.2224999000000003,2.3558945655822754,1.5921441316604614,9.007585525512695,219.42138671875,-36.68212890625,90.545654296875
3.2274999,2.345120668411255,1.3880383968353271,8.059481620788574,190.97900390625,-43.45703125,88.653564453125
3.2324999,2.2888567447662354,1.146224021911621,7.222109317779541,172.760009765625,-38.848876953125,73.822021484375
3.2374999,2.428917646408081,1.2779051065444946,6.769006729125977,158.966064453125,-20.111083984375,72.540283203125
3.2424999000000003,2.7988216876983643,1.5418659448623657,6.3715691566467285,124.08447265625,0.9765625,79.986572265625
3.2474999,3.1280245780944824,1.8399440050125122,6.048352241516113,114.959716796875,24.383544921875,77.57568359375
3.2524999,3.7696704864501953,2.7317841053009033,6.039373874664307,103.485107421875,47.79052734375,85.174560546875
3.2574999,4.276642799377441,3.5889084339141846,6.036979675292969,62.744140625,65.61279296875,91.064453125
3.2624999000000003,4.665102005004883,5.361216068267822,6.467337131500244,20.751953125,78.216552734375,87.371826171875
3.2674999000000002,4.279036998748779,5.923853397369385,6.719925403594971,-16.66259765625,79.498291015625,79.559326171875
3.2724999,3.693654775619507,6.034585475921631,6.742072105407715,-26.947021484375,84.564208984375,62.5
3.2774999,3.1741127967834473,6.22731876373291,6.938994884490967,-56.854248046875,82.305908203125,58.4716796875
3.2824999000000004,2.632424831390381,5.9771246910095215,6.648099422454834,-98.541259765625,81.60400390625,44.097900390625
3.2874999000000003,2.344521999359131,5.650914669036865,6.271611213684082,-114.288330078125,87.921142578125,29.60205078125
3.2924999,2.3277626037597656,5.450998783111572,6.189610004425049,-150.81787109375,92.4072265625,30.303955078125
3.2974999,2.205059766769409,4.902127742767334,5.782595634460449,-188.995361328125,97.320556640625,18.1884765625
3.3024999000000004,2.2870612144470215,4.614225387573242,5.817910194396973,-201.507568359375,101.50146484375,6.866455078125
3.3074999000000003,2.2254104614257812,4.40233850479126,6.04655647277832,-238.311767578125,99.79248046875,3.509521484375
3.3124999,2.055422067642212,3.9905357360839844,6.030993938446045,-264.678955078125,100.860595703125,-13.916015625
3.3174999,1.9255367517471313,3.6571431159973145,6.35301399230957,-271.087646484375,103.57666015625,-20.599365234375
3.3224999000000004,1.6502034664154053,2.5133132934570312,6.4846954345703125,-317.840576171875,117.645263671875,-29.72412109375
3.3274999000000003,1.6633716821670532,1.9345149993896484,6.802525520324707,-322.998046875,127.13623046875,-28.839111328125
3.3324999,0.28790274262428284,-0.3579331636428833,7.99184513092041,-320.9228515625,98.419189453125,-28.228759765625
3.3374999,-0.8158242106437683,-3.4075474739074707,8.829216957092285,-33.477783203125,-88.897705078125,-39.61181640625
3.3424999,-2.140416383743286,-6.343437194824219,8.403648376464844,45.928955078125,-47.9736328125,-66.253662109375
3.3474999000000003,-2.4127566814422607,-9.408614158630371,6.982689380645752,29.327392578125,-20.355224609375,-80.841064453125
3.3524999,-1.5741876363754272,-10.619482040405273,4.746504783630371,42.29736328125,-21.97265625,-90.88134765625
3.3574999,-0.1149216815829277,-9.940725326538086,3.0831332206726074,-39.73388671875,11.962890625,-66.436767578125
3.3624999,0.8373720645904541,-8.309077262878418,4.159327030181885,-82.122802734375,35.46142578125,-47.515869140625
3.3674999000000003,0.9528923034667969,-5.794566631317139,6.892308235168457,26.702880859375,43.15185546875,-30.2734375
3.3724999,0.414795458316803,-3.0394389629364014,9.378686904907227,53.22265625,20.172119140625,1.28173828125
3.3774999,-0.5590460896492004,-1.0432734489440918,10.926538467407227,-11.932373046875,-21.575927734375,-8.60595703125
3.3824999,-0.5003881454467773,1.5364789962768555,9.697115898132324,5.584716796875,-3.2958984375,-1.617431640625
3.3874999000000003,0.15981295704841614,1.0899603366851807,10.127472877502441,-6.195068359375,-10.009765625,10.711669921875
3.3924999000000002,0.524330198764801,0.42018240690231323,9.889848709106445,-7.720947265625,-4.180908203125,-0.91552734375
3.3974999,0.8313865661621094,-0.24899697303771973,9.852140426635742,3.326416015625,-2.25830078125,-1.129150390625
3.4024999,0.9516952037811279,-0.8254010081291199,9.931747436523438,-7.14111328125,-3.448486328125,2.410888671875
3.4074999000000004,0.9145850539207458,-1.2617442607879639,9.638457298278809,-2.3193359375,-0.6103515625,-7.049560546875
3.4124999000000003,0.9181763529777527,-1.3341689109802246,9.88506031036377,11.474609375,-1.0986328125,-1.007080078125
3.4174999,0.823006808757782,-1.3329718112945557,9.899425506591797,-7.32421875,-2.044677734375,1.495361328125
3.4224999,0.74040687084198,-1.1210849285125732,9.625288963317871,0.457763671875,1.922607421875,-6.744384765625
3.4274999000000004,0.7445967197418213,-0.7565677165985107,9.817423820495605,7.843017578125,0.54931640625,1.708984375
3.4324999000000003,0.5650315880775452,-0.5841852426528931,9.784503936767578,-9.70458984375,0.79345703125,-0.457763671875
3.4374999,0.5614402890205383,-0.750582218170166,9.622296333312988,7.62939453125,3.692626953125,-5.035400390625
3.4424999,0.657806932926178,-0.7565677165985107,9.914987564086914,3.0517578125,0.396728515625,3.936767578125
3.4474999000000004,0.524330198764801,-0.8439561128616333,9.745597839355469,-8.7890625,1.3427734375,-2.50244140625
3.4524999000000003,0.5704185366630554,-0.7697358727455139,9.679159164428711,9.1552734375,3.23486328125,-2.99072265625
3.4574999,0.5752069354057312,-0.6955155730247498,9.961075782775879,-0.335693359375,-0.30517578125,5.7373046875
3.4624999,0.4638765752315521,-0.6877344250679016,9.701305389404297,-7.080078125,1.434326171875,-2.166748046875
3.4674999,0.5482721924781799,-0.6434416770935059,9.746196746826172,10.223388671875,2.227783203125,-0.152587890625
3.4724999000000003,0.5452794432640076,-0.6111199855804443,9.916184425354004,-4.486083984375,-1.739501953125,5.462646484375
3.4774999,0.5135562419891357,-0.6805518269538879,9.668384552001953,-4.791259765625,0.91552734375,-4.180908203125
3.4824999,0.5374982953071594,-0.6775590777397156,9.906607627868652,8.7890625,-0.67138671875,3.47900390625
3.4874999,0.5051765441894531,-0.689530074596405,9.862914085388184,-9.124755859375,-2.105712890625,3.96728515625
3.4924999000000003,0.5267243981361389,-0.7194576263427734,9.59057331085205,2.01416015625,1.5869140625,-4.39453125
3.4974999,0.5680243372917175,-0.618302583694458,9.79647445678711,7.293701171875,-1.251220703125,3.814697265625
3.5024999,0.5662286877632141,-0.6787561774253845,9.761159896850586,-10.223388671875,-2.25830078125,1.678466796875
3.5074999,0.5153518915176392,-0.6847416758537292,9.569623947143555,4.82177734375,0.823974609375,-4.119873046875
3.5124999000000003,0.6123170852661133,-0.6727706789970398,9.868300437927246,4.669189453125,-2.044677734375,5.0048828125
3.5174999000000002,0.48303020000457764,-0.679354727268219,9.810839653015137,-10.406494140625,-2.532958984375,-0.640869140625
3.5224999,0.6218938827514648,-0.6189011335372925,9.9772367477417,1.373291015625,-2.3193359375,4.302978515625
3.5274999,1.357512354850769,-0.5776011347770691,10.186729431152344,6.2255859375,8.30078125,3.72314453125
3.5324999000000004,2.183511972427368,-0.4596867263317108,10.74996566772461,-24.444580078125,18.73779296875,37.29248046875
3.5374999000000003,3.1040825843811035,-0.40701428055763245,11.604695320129395,-44.464111328125,35.400390625,56.82373046875
3.5424999,3.8295257091522217,-0.2017114907503128,12.594697952270508,-66.070556640625,32.40966796875,71.47216796875
3.5474999,3.9827544689178467,0.020949264988303185,13.776835441589355,-115.41748046875,43.45703125,81.695556640625
3.5524999000000004,3.513490915298462,-0.055665191262960434,14.517840385437012,-139.923095703125,67.840576171875,76.47705078125
3.5574999000000003,2.8209681510925293,0.03172317147254944,14.575301170349121,-152.77099609375,83.648681640625,73.6083984375
3.5624999,1.9273324012756348,-0.365115761756897,14.096461296081543,-180.633544921875,93.231201171875,59.356689453125
3.5674999,0.99479079246521,-1.1318588256835938,12.931681632995605,-181.884765625,105.04150390625,36.712646484375
3.5724999000000004,0.28730419278144836,-1.868674397468567,11.525687217712402,-189.178466796875,102.6611328125,33.8134765625
3.5774999000000003,-0.2693476974964142,-2.919130325317383,10.530896186828613,-220.184326171875,100.738525390625,27.191162109375
3.5824999,-0.8236053586006165,-3.867234230041504,9.484031677246094,-229.278564453125,100.372314453125,10.80322265625
3.5874999,-2.1517887115478516,-4.939836502075195,7.553706169128418,-249.481201171875,71.47216796875,-25.634765625
3.5924999,-2.3768436908721924,-4.599261283874512,7.2322845458984375,-260.467529296875,55.84716796875,-25.634765625
3.5974999000000003,-2.846705913543701,-4.268861770629883,6.841431140899658,-272.003173828125,43.487548828125,-34.85107421875
3.6024999,-2.9981391429901123,-3.600879430770874,6.477512836456299,-257.32421875,33.5693359375,-41.107177734375
3.6074999,-3.1214404106140137,-2.8215668201446533,6.510433197021484,-261.199951171875,21.17919921875,-35.247802734375
3.6124999,-3.3189620971679688,-2.342726469039917,6.540958881378174,-247.772216796875,17.51708984375,-44.097900390625
3.6174999000000003,-3.309983968734741,-1.7633295059204102,6.658873558044434,-209.808349609375,11.993408203125,-44.586181640625
3.6224999,-3.2800562381744385,-1.3670891523361206,7.083844184875488,-191.40625,1.617431640625,-36.4990234375
3.6274999,-3.287238836288452,-1.5765818357467651,7.241262912750244,-156.6162109375,-1.5869140625,-40.008544921875
3.6324999,-3.287238836288452,-1.5765818357467651,7.241262912750244,-156.6162109375,-1.5869140625,-40.008544921875
3.6374999000000003,-3.1316158771514893,-1.6340426206588745,7.442376136779785,-121.612548828125,-11.65771484375,-33.447265625
3.6424999000000002,-2.498948097229004,-2.5270798206329346,7.180809497833252,-86.212158203125,-31.79931640625,-38.14697265625
3.6474999,-1.777096152305603,-2.337938070297241,6.688202381134033,-41.44287109375,-49.62158203125,-30.731201171875
3.6524999,-0.7793126702308655,-2.1571757793426514,6.037578105926514,0.48828125,-74.676513671875,-30.059814453125
3.6574999000000004,0.32860419154167175,-1.9081788063049316,5.206191539764404,59.326171875,-83.770751953125,-42.96875
3.6624999000000003,1.2006921768188477,-1.5741876363754272,5.0876784324646,92.132568359375,-84.747314453125,-41.778564453125
3.6674999,1.9081788063049316,-2.544437885284424,5.561131954193115,98.724365234375,-75.836181640625,-43.731689453125
3.6724999,2.099116325378418,-4.354454517364502,7.215525150299072,120.147705078125,-71.441650390625,-46.08154296875
3.6774999000000004,2.1972784996032715,-6.212953567504883,8.727463722229004,123.809814453125,-58.16650390625,-29.205322265625
3.6824999000000003,2.228403329849243,-8.678382873535156,8.672995567321777,179.229736328125,-13.0615234375,12.054443359375
3.6874999,2.228403329849243,-8.678382873535156,8.672995567321777,179.229736328125,-13.0615234375,12.054443359375
3.6924999,2.034472942352295,-7.927201747894287,7.340023994445801,191.741943359375,-10.1318359375,7.568359375
3.6974999000000004,0.9846154451370239,-5.093664169311523,5.867589950561523,223.236083984375,-4.33349609375,6.561279296875
3.7024999000000003,0.4387374520301819,-4.365228176116943,5.913678169250488,239.654541015625,-8.544921875,-9.3994140625
3.7074999,0.01496376097202301,-3.5721490383148193,6.373963356018066,258.697509765625,-11.444091796875,-12.420654296875
3.7124999,-0.14903905987739563,-3.1669301986694336,6.881534099578857,250.48828125,-11.90185546875,-7.26318359375
3.7174999,-0.2908954918384552,-3.1884782314300537,7.7201032638549805,254.302978515625,-17.9443359375,-16.204833984375
3.7224999000000003,-0.2406172752380371,-2.7347769737243652,8.652645111083984,252.166748046875,-28.533935546875,-9.796142578125
3.7274999,0.02454056777060032,-2.536058187484741,9.383475303649902,226.287841796875,-33.3251953125,7.598876953125
3.7324999,0.4818331003189087,-2.0901381969451904,10.256759643554688,230.95703125,-34.515380859375,12.176513671875
3.7374999,0.8960300087928772,-1.2228385210037231,10.81820011138916,232.635498046875,-31.585693359375,24.23095703125
3.7424999000000003,1.3569138050079346,-0.5183446407318115,10.87446403503418,204.986572265625,-13.763427734375,24.139404296875
3.7474999,1.4927847385406494,0.1759738177061081,10.951677322387695,199.371337890625,-17.7001953125,21.240234375
3.7524999,0.9876081943511963,1.4179660081863403,11.416152000427246,164.794921875,-25.054931640625,51.81884765625
3.7574999,0.9876081943511963,1.4179660081863403,11.416152000427246,164.794921875,-25.054931640625,51.81884765625
3.7624999000000003,0.29807811975479126,4.513070106506348,12.919711112976074,-31.341552734375,-5.279541015625,-0.152587890625
3.7674999000000002,0.29807811975479126,4.513070106506348,12.919711112976074,-31.341552734375,-5.279541015625,-0.152587890625
3.7724999,0.3315969407558441,3.9845502376556396,11.28447151184082,-13.031005859375,1.52587890625,-1.678466796875
3.7774999,0.6147112846374512,2.804208755493164,9.743204116821289,-28.656005859375,11.8408203125,7.843017578125
3.7824999000000004,0.8930372595787048,1.2515689134597778,9.05606746673584,-29.96826171875,17.63916015625,7.232666015625
3.7874999000000003,1.1725603342056274,-0.29388827085494995,8.96389102935791,-18.463134765625,23.3154296875,18.524169921875
3.7924999,1.4233529567718506,-1.2521674633026123,8.991424560546875,-23.529052734375,19.71435546875,29.144287109375
3.7974999,1.183334231376648,-2.5701754093170166,9.258378028869629,7.598876953125,17.51708984375,27.801513671875
3.8024999000000004,0.8649053573608398,-2.744353771209717,9.03511905670166,-2.38037109375,16.326904296875,26.947021484375
3.8074999000000003,0.42437225580215454,-2.7976245880126953,9.178771018981934,13.580322265625,17.9443359375,13.5498046875
3.8124999,-0.03232172131538391,-2.339733600616455,9.239224433898926,18.49365234375,20.172119140625,12.26806640625
3.8174999,-0.314238965511322,-2.1972784996032715,9.431957244873047,4.5166015625,15.777587890625,3.692626953125
3.8224999000000004,-0.6039373874664307,-1.790264368057251,9.803058624267578,18.49365234375,13.12255859375,-8.148193359375
3.8274999000000003,-0.6919242739677429,-1.1869255304336548,10.023923873901367,14.556884765625,10.406494140625,-2.288818359375
3.8324999,-0.6159083843231201,-0.8822633028030396,10.159195899963379,1.220703125,2.593994140625,-6.317138671875
3.8374999,-0.6332663297653198,-0.4291606545448303,10.234015464782715,14.678955078125,1.03759765625,-8.1787109375
3.8424999,-0.1496376097202301,0.2041056901216507,10.071807861328125,7.01904296875,-4.82177734375,-0.54931640625
3.8474999000000003,0.18076223134994507,-0.24241292476654053,9.874286651611328,-8.30078125,-7.293701171875,-2.166748046875
3.8524999,0.33937808871269226,-0.39624038338661194,9.90241813659668,5.828857421875,-2.838134765625,-0.885009765625
3.8574999,0.4842272996902466,-0.6721721291542053,9.749788284301758,-8.30078125,-2.227783203125,3.47900390625
3.8624999,0.558447539806366,-1.0492589473724365,9.720458984375,-2.3193359375,-2.50244140625,-5.279541015625
3.8674999000000003,0.585382342338562,-0.993593692779541,9.77791976928711,8.758544921875,2.25830078125,-0.335693359375
3.8724999,0.606930136680603,-1.1336544752120972,9.634267807006836,-7.01904296875,1.220703125,2.0751953125
3.8774999,0.5692214369773865,-1.1893197298049927,9.753378868103027,3.23486328125,0.885009765625,-5.767822265625
3.8824999,0.45250412821769714,-0.9409212470054626,9.753378868103027,8.026123046875,4.57763671875,2.166748046875
3.8874999000000003,0.44592007994651794,-0.9247604012489319,9.702502250671387,-7.781982421875,1.495361328125,2.0751953125
3.8924999000000002,0.31124621629714966,-0.8182184100151062,9.816825866699219,5.462646484375,1.77001953125,-4.39453125
3.8974999,0.2298433631658554,-0.5345055460929871,9.822212219238281,3.631591796875,3.72314453125,4.0283203125
3.9024999,0.25079262256622314,-0.5590460896492004,9.79288387298584,-9.70458984375,-0.67138671875,0.3662109375
3.9074999000000004,0.33518823981285095,-0.8523358106613159,9.765350341796875,-2.197265625,-1.861572265625,-4.119873046875
3.9124999000000003,0.32202014327049255,-0.6524199843406677,9.90122127532959,9.246826171875,1.434326171875,0.030517578125
3.9174999,0.32680854201316833,-0.7080851793289185,9.821015357971191,-7.62939453125,-0.152587890625,3.448486328125
3.9224999,0.35673606395721436,-0.7924807667732239,9.682151794433594,-9.1552734375,-1.312255859375,0.640869140625
3.9274999000000004,0.2717418968677521,-0.7667431235313416,9.774328231811523,6.622314453125,0,-4.364013671875
3.9324999000000003,0.3196259140968323,-0.6470330357551575,9.743204116821289,2.044677734375,2.38037109375,4.45556640625
3.9374999,0.33279404044151306,-0.7422025203704834,9.724050521850586,-8.1787109375,-1.373291015625,-0.8544921875
3.9424999,0.21009120345115662,-0.7044938206672668,9.768941879272461,8.636474609375,0.762939453125,-3.662109375
3.9474999000000004,0.3016694188117981,-0.5949591398239136,9.738415718078613,-1.373291015625,1.953125,4.669189453125
3.9524999000000003,0.22924481332302094,-0.7422025203704834,9.652822494506836,-6.622314453125,-1.556396484375,-2.50244140625
3.9574999,0.20769700407981873,-0.6290764808654785,9.781511306762695,9.58251953125,1.15966796875,-2.227783203125
3.9624999,0.28730419278144836,-0.6260837316513062,9.689932823181152,-4.39453125,1.220703125,4.8828125
3.9674999000000004,0.2687491476535797,-0.7775170207023621,9.740809440612793,-3.96728515625,-1.64794921875,-3.631591796875
3.9724999000000003,-1.711255669593811,-1.5275006294250488,10.322600364685059,21.636962890625,-61.34033203125,5.859375
3.9774999,-2.18770170211792,-1.4401123523712158,10.382455825805664,24.96337890625,-71.197509765625,5.43212890625
3.9824999,-2.12485408782959,-1.2982559204101562,10.125079154968262,8.087158203125,-79.89501953125,4.7607421875
3.9874999,-1.710058569908142,-1.0606313943862915,10.013150215148926,15.411376953125,-83.3740234375,-4.57763671875
3.9924999000000003,-1.095347285270691,-0.568622887134552,10.044873237609863,16.54052734375,-82.794189453125,2.44140625
3.9974999,-0.25079262256622314,-0.39564183354377747,10.068216323852539,2.044677734375,-83.892822265625,3.96728515625
4.0024999,1.6585832834243774,-0.3214215636253357,9.75397777557373,8.11767578125,-59.906005859375,12.725830078125
4.0074999,1.9357120990753174,-0.4381389021873474,9.50857162475586,23.4375,-47.210693359375,12.20703125
4.0124999,2.1912930011749268,-0.363918662071228,9.29069995880127,15.533447265625,-37.53662109375,23.834228515625
4.0174999,2.4402899742126465,-0.13048399984836578,8.762179374694824,-5.0048828125,2.899169921875,20.5078125
4.022499900000001,2.3977930545806885,0.15083470940589905,8.963293075561523,1.983642578125,8.575439453125,15.960693359375
4.0274999000000005,2.4013843536376953,0.383670836687088,9.115922927856445,-18.5546875,9.033203125,16.143798828125
4.0324999,2.213439464569092,0.27054479718208313,9.160215377807617,-20.20263671875,13.092041015625,2.227783203125
4.0374999,2.0697872638702393,0.3531447649002075,9.513360023498535,-10.3759765625,16.571044921875,0.67138671875
4.0424999,1.9590555429458618,0.22625206410884857,9.709685325622559,-21.270751953125,19.1650390625,7.965087890625
4.0474999,1.854907751083374,-0.14185644686222076,9.925761222839355,-7.50732421875,27.984619140625,13.12255859375
4.0524999,1.6867151260375977,-0.1975216418504715,10.176554679870605,-2.01416015625,31.890869140625,22.94921875
4.0574999,1.6065093278884888,-0.4866214990615845,10.02811336517334,-19.073486328125,35.186767578125,23.193359375
4.062499900000001,1.4724340438842773,-0.7625532150268555,9.851541519165039,-8.453369140625,40.740966796875,12.39013671875
4.0674999000000005,1.5203180313110352,-0.943913996219635,9.43255615234375,-21.331787109375,53.131103515625,10.223388671875
4.0724999,1.5095441341400146,-1.0833762884140015,9.567828178405762,-5.55419921875,59.722900390625,0.213623046875
4.0774999,1.5610195398330688,-1.0809820890426636,9.694122314453125,-6.927490234375,63.53759765625,4.364013671875
4.0824999,1.4933832883834839,-1.3239935636520386,9.730634689331055,-18.4326171875,62.8662109375,-7.32421875
4.0874999,1.157596468925476,-1.426345705986023,9.81143856048584,0.030517578125,66.95556640625,-14.129638671875
4.0924999,0.9145850539207458,-1.30543851852417,9.685144424438477,-4.791259765625,67.047119140625,-7.568359375
4.0974999,0.4920084476470947,-1.4221558570861816,9.519944190979004,-6.805419921875,62.6220703125,-11.23046875
4.1024999,0.1412578970193863,-1.1378443241119385,9.651026725769043,9.429931640625,59.783935546875,-7.50732421875
4.1074999000000005,-0.19273324310779572,-0.8954314589500427,9.812037467956543,-3.11279296875,52.734375,2.227783203125
4.1124999,-0.6625953316688538,-0.8026561141014099,10.052654266357422,-5.706787109375,35.552978515625,-6.805419921875
4.1174999,-1.0540473461151123,-0.45848962664604187,10.42076301574707,6.866455078125,24.169921875,-6.34765625
4.1224999,-1.5197194814682007,-0.36810851097106934,10.48061752319336,-8.697509765625,7.171630859375,-1.556396484375
4.1274999,-1.6065093278884888,-0.6416460275650024,9.913191795349121,-9.613037109375,-14.892578125,1.89208984375
4.1324999,-1.1186907291412354,-0.8906430602073669,9.818621635437012,1.678466796875,-19.53125,-4.547119140625
4.1374999,-0.5530605912208557,-0.8810662031173706,9.801861763000488,9.27734375,-16.998291015625,2.8076171875
4.1424999,0.06703764945268631,-1.0606313943862915,9.682151794433594,-6.378173828125,-18.85986328125,2.25830078125
4.147499900000001,0.5309142470359802,-1.0881646871566772,9.746196746826172,7.568359375,-17.242431640625,-5.9814453125
4.1524999000000005,0.8451532125473022,-0.8661024570465088,9.746794700622559,7.50732421875,-10.3759765625,1.46484375
4.1574999,1.0983400344848633,-0.851138710975647,9.632472038269043,-6.4697265625,-9.82666015625,-1.40380859375
4.1624999,1.0654197931289673,-0.702099621295929,9.744400978088379,8.453369140625,-5.401611328125,-5.859375
4.1674999,1.1683704853057861,-0.45848962664604187,9.774328231811523,2.471923828125,1.8310546875,3.265380859375
4.1724999,1.103128433227539,-0.4836287498474121,9.680954933166504,-9.3994140625,5.55419921875,-1.64794921875
4.1774999,0.960673451423645,-0.414795458316803,9.731831550598145,5.462646484375,9.1552734375,-2.716064453125
4.1824999,0.021547814831137657,-0.7876923680305481,9.885659217834473,9.33837890625,2.3193359375,-0.762939453125
4.187499900000001,-0.0293289702385664,-0.8451532125473022,9.812037467956543,-5.828857421875,-0.3662109375,4.608154296875
4.1924999000000005,-0.05267243832349777,-0.9385270476341248,9.857526779174805,0.030517578125,-4.7607421875,-4.302978515625
4.1974999,-0.020350715145468712,-0.7876923680305481,10.011354446411133,9.27734375,-1.89208984375,0.457763671875
4.2024999,0.10893617570400238,-0.8068459630012512,9.861717224121094,-7.965087890625,-3.326416015625,1.678466796875
4.2074999,0.10893617570400238,-0.8068459630012512,9.861717224121094,-7.965087890625,-3.326416015625,1.678466796875
4.2124999,0.26336219906806946,-0.8325836658477783,9.86231517791748,2.0751953125,-3.96728515625,-5.767822265625
4.2174999,0.353743314743042,-0.6326677799224854,9.825204849243164,6.561279296875,0.518798828125,2.655029296875
4.2224999,0.49320554733276367,-0.6745663285255432,9.7605619430542,5.035400390625,-0.701904296875,-4.180908203125
4.2274999,0.48961424827575684,-0.5500678420066833,9.79288387298584,3.2958984375,2.532958984375,3.5400390625
4.2324999000000005,0.5428852438926697,-0.6548141837120056,9.740211486816406,-9.27734375,-0.091552734375,-0.701904296875
4.2374999,0.37828385829925537,-0.6661866307258606,9.802460670471191,6.89697265625,0.732421875,-4.94384765625
4.2424999,0.23582886159420013,-0.690727174282074,9.737217903137207,9.33837890625,0.274658203125,-3.082275390625
4.2474999,0.2693476974964142,-0.6374561786651611,9.723451614379883,-1.8310546875,2.349853515625,4.39453125
4.2524999,0.19692309200763702,-0.7224503755569458,9.66299819946289,-6.317138671875,-2.410888671875,-3.448486328125
4.2574999,0.23523031175136566,-0.6428431272506714,9.845556259155273,9.521484375,-0.54931640625,-2.0751953125
4.2624999,0.28969839215278625,-0.6428431272506714,9.77791976928711,-4.852294921875,0.457763671875,4.913330078125
4.2674999,0.3148375153541565,-0.7960720658302307,9.757569313049316,-3.387451171875,-3.326416015625,-3.814697265625
4.272499900000001,0.40880993008613586,-0.7428010702133179,9.821015357971191,-7.14111328125,0.274658203125,3.448486328125
4.2774999000000005,0.42377370595932007,-0.8349778652191162,9.864709854125977,-0.42724609375,-1.77001953125,-5.06591796875
4.2824999,0.39863458275794983,-0.7116764783859253,9.956287384033203,8.209228515625,2.3193359375,1.220703125
4.2874999,0.39863458275794983,-0.7583633661270142,9.821015357971191,-9.033203125,0.885009765625,2.99072265625
4.2924999,0.37409400939941406,-0.8259995579719543,9.817423820495605,2.197265625,-0.48828125,-5.0048828125
4.2974999,0.29568392038345337,-0.6649895310401917,9.809642791748047,5.79833984375,2.62451171875,2.62451171875
4.3024999,0.3411737382411957,-0.729034423828125,9.658209800720215,-9.429931640625,0.244140625,1.251220703125
4.3074999,0.2495955228805542,-0.7050924301147461,9.723451614379883,5.340576171875,-0.274658203125,-4.913330078125
4.312499900000001,0.24660277366638184,-0.595557689666748,9.743204116821289,3.204345703125,0.9765625,4.2724609375
4.3174999000000005,0.29628247022628784,-0.6530185341835022,9.724050521850586,-8.72802734375,-1.251220703125,0.091552734375
4.3224999,-0.9624691009521484,-1.0923545360565186,10.195708274841309,18.829345703125,-37.78076171875,4.974365234375
4.3274999,-0.9624691009521484,-1.0923545360565186,10.195708274841309,18.829345703125,-37.78076171875,4.974365234375
4.3324999,-1.3084312677383423,-1.14742112159729,10.123283386230469,0.54931640625,-48.33984375,5.218505859375
4.3374999,-1.4071919918060303,-1.1749545335769653,9.97603988647461,6.378173828125,-56.0302734375,-6.683349609375
4.3424999,-1.2330138683319092,-0.9080010056495667,10.075399398803711,18.890380859375,-58.41064453125,-2.5634765625
4.3474999,-0.8092401623725891,-0.7972691655158997,10.099940299987793,2.685546875,-67.5048828125,4.0283203125
4.352499900000001,-0.4423287510871887,-0.7823054194450378,10.259154319763184,12.0849609375,-72.44873046875,-1.068115234375
4.3574999000000005,-0.1909375786781311,-0.6009446382522583,10.506954193115234,19.439697265625,-77.5146484375,6.591796875
4.3624999,0.04728548228740692,-0.5877765417098999,10.408193588256836,6.805419921875,-81.573486328125,9.918212890625
4.3674999,0.3250128924846649,-0.4776432514190674,10.16637897491455,27.984619140625,-71.502685546875,25.20751953125
4.3724999,0.6159083843231201,-0.5033808946609497,9.808445930480957,19.34814453125,-62.19482421875,35.7666015625
4.3774999,0.8966285586357117,-0.45489832758903503,9.535507202148438,36.31591796875,-40.0390625,45.95947265625
4.3824999,1.3221979141235352,-0.2555810213088989,9.294290542602539,36.0107421875,-18.1884765625,73.822021484375
4.3874999,1.4778209924697876,-0.5817909836769104,8.888473510742188,14.95361328125,13.0615234375,74.798583984375
4.3924999,1.6041151285171509,-0.8924387097358704,8.477270126342773,14.09912109375,-12.115478515625,39.154052734375
4.397499900000001,1.489791989326477,-1.0923545360565186,8.078635215759277,-10.92529296875,-3.47900390625,22.125244140625
4.4024999000000005,1.400607943534851,-1.5316904783248901,7.4782891273498535,-32.28759765625,36.56005859375,7.32421875
4.4074999,1.9165585041046143,-0.7948749661445618,7.408857345581055,-28.25927734375,49.37744140625,-1.5869140625
4.4124999,2.956839084625244,0.08619125932455063,7.971494674682617,-42.96875,48.370361328125,2.0751953125
4.4174999,4.353855609893799,1.0690110921859741,8.974066734313965,-36.529541015625,64.5751953125,-1.52587890625
4.4224999,5.569511890411377,1.6651673316955566,10.44470500946045,0.457763671875,77.056884765625,1.495361328125
4.4274999,5.349843502044678,0.9265560507774353,11.18092155456543,-16.937255859375,74.676513671875,3.326416015625
4.4324999,3.9923312664031982,0.2932897210121155,10.611102104187012,-8.270263671875,89.141845703125,3.387451171875
4.437499900000001,2.470816135406494,-0.5494692921638489,9.791088104248047,-22.8271484375,99.212646484375,2.99072265625
4.4424999000000005,1.082777738571167,-1.3545196056365967,9.490615844726562,-13.73291015625,99.853515625,-5.828857421875
4.4474999,-0.07661445438861847,-1.725022315979004,9.636063575744629,-2.349853515625,91.73583984375,-0.42724609375
4.4524999,-1.0271124839782715,-2.0919337272644043,10.117298126220703,-9.674072265625,63.446044921875,-3.90625
4.4574999,-1.9279309511184692,-2.2014684677124023,10.475829124450684,8.636474609375,29.571533203125,-17.059326171875
4.4624999,-2.6575639247894287,-1.7507599592208862,10.569802284240723,9.002685546875,3.631591796875,-15.655517578125
4.4674999,-3.050811529159546,-1.4987702369689941,10.087369918823242,-10.894775390625,-13.336181640625,-22.674560546875
4.4724999,-3.118447780609131,-0.9971849918365479,9.730634689331055,2.349853515625,-12.054443359375,-24.749755859375
4.477499900000001,-2.67372465133667,-0.5590460896492004,9.506776809692383,5.06591796875,-11.5966796875,-7.659912109375
4.4824999000000005,-2.0219032764434814,-0.545877993106842,9.556455612182617,-7.4462890625,-14.068603515625,-2.74658203125
4.4874999,-0.43514615297317505,-0.49619829654693604,9.926959037780762,-1.983642578125,-16.845703125,7.32421875
4.4924999,0.16101007163524628,-0.7266402244567871,9.781511306762695,-5.523681640625,-19.561767578125,-1.89208984375
4.4974999,0.6548141837120056,-0.6829460263252258,9.847949981689453,11.29150390625,-15.68603515625,-4.5166015625
4.5024999,1.0582371950149536,-0.7691373229026794,9.800664901733398,-1.556396484375,-11.16943359375,1.708984375
4.5074999,1.2617442607879639,-1.843535304069519,9.79527759552002,-14.373779296875,-6.866455078125,2.685546875
4.5124999,1.5999252796173096,-2.3145945072174072,9.066243171691895,19.500732421875,25.0244140625,55.694580078125
4.5174999,1.3533225059509277,-3.026270866394043,8.721478462219238,67.07763671875,30.76171875,84.808349609375
4.522499900000001,1.2210428714752197,-3.7199909687042236,7.457339763641357,59.4482421875,20.233154296875,34.5458984375
4.5274999000000005,0.8906430602073669,-2.7910406589508057,7.127538681030273,46.173095703125,4.638671875,28.25927734375
4.5324999,0.3860650360584259,-2.1320366859436035,6.86716890335083,-12.0849609375,-15.2587890625,42.938232421875
4.5374999,-0.2298433631658554,-1.1186907291412354,6.0417680740356445,12.725830078125,-19.439697265625,40.924072265625
4.5424999,-0.5446808934211731,0.7032967209815979,6.130951881408691,5.4931640625,-25.054931640625,33.935546875
4.5474999,-1.4939818382263184,2.012925148010254,5.306149482727051,0.823974609375,-18.585205078125,46.905517578125
4.5524999,-1.4227544069290161,0.8942343592643738,4.955399036407471,-16.9677734375,-21.97265625,25.57373046875
4.5574999,-1.5089455842971802,2.5935189723968506,5.0703206062316895,26.763916015625,-17.852783203125,45.71533203125
4.562499900000001,-1.624465823173523,4.026448726654053,3.556586742401123,48.004150390625,-40.679931640625,18.585205078125
4.5674999000000005,-0.706289529800415,4.448426723480225,4.41969633102417,-32.806396484375,-54.5654296875,12.054443359375
4.5724999,-1.01753568649292,4.103063106536865,3.997119665145874,20.721435546875,-67.9931640625,-0.18310546875
4.5774999,-0.09876082092523575,4.129997730255127,5.1152119636535645,61.03515625,-48.919677734375,-13.671875
4.5824999,-0.13527239859104156,3.0603883266448975,4.769848346710205,-52.67333984375,-35.70556640625,16.632080078125
4.5874999,0.18315643072128296,2.890998601913452,5.503671169281006,-16.937255859375,-34.881591796875,-11.8408203125
4.5924999,0.6063315868377686,1.5292962789535522,5.495890140533447,-41.32080078125,-42.1142578125,-8.636474609375
4.5974999,2.6856956481933594,1.3940238952636719,6.610390663146973,-78.369140625,23.193359375,4.0283203125
4.602499900000001,3.311779499053955,1.7812861204147339,7.217320919036865,-26.214599609375,49.285888671875,5.157470703125
4.6074999000000005,3.5428199768066406,1.4227544069290161,8.7083101272583,12.5732421875,56.82373046875,-5.157470703125
4.6124999,3.4967315196990967,0.5614402890205383,9.79647445678711,-28.106689453125,55.694580078125,14.739990234375
4.6174999,3.0837318897247314,-0.8601169586181641,10.773308753967285,-22.552490234375,55.17578125,-4.57763671875
4.6224999,2.316390037536621,-1.6867151260375977,10.713454246520996,-26.18408203125,71.59423828125,4.150390625
4.6274999,1.4221558570861816,-2.647987127304077,10.345345497131348,-10.589599609375,61.920166015625,-18.218994140625
4.6324999,0.5518634915351868,-2.6665420532226562,9.616311073303223,-7.965087890625,66.83349609375,-2.3193359375
4.6374999,-0.16519992053508759,-3.1483752727508545,9.383475303649902,-6.011962890625,56.365966796875,-18.524169921875
4.6424999,-1.20368492603302,-3.0783448219299316,9.825803756713867,-7.6904296875,31.280517578125,-16.326904296875
4.647499900000001,-1.9991583824157715,-2.293046712875366,10.070611000061035,-6.805419921875,-7.14111328125,-14.70947265625
4.6524999000000005,-2.1721394062042236,-1.4778209924697876,10.011354446411133,20.8740234375,-7.476806640625,-6.195068359375
4.6574999,-2.0679917335510254,-1.1007342338562012,9.604340553283691,-9.6435546875,-16.7236328125,-10.345458984375
4.6624999,-1.6873136758804321,-0.5919663906097412,9.859322547912598,22.705078125,-16.754150390625,-3.875732421875
4.6674999,-1.0313023328781128,-0.42018240690231323,9.68813705444336,-15.594482421875,-17.120361328125,0.9765625
4.6724999,-0.3884592354297638,-0.304063618183136,10.170568466186523,19.500732421875,-18.585205078125,-1.77001953125
4.6774999,0.26156654953956604,-0.3058592677116394,9.95748519897461,-15.2587890625,-18.798828125,3.7841796875
4.6824999,0.6428431272506714,-0.3728969097137451,10.096348762512207,16.29638671875,-16.510009765625,-7.843017578125
4.687499900000001,0.9977835416793823,-0.4297592043876648,9.894637107849121,-11.199951171875,-10.1318359375,3.41796875
4.6924999000000005,1.0696096420288086,-0.628477931022644,9.848548889160156,9.735107421875,-11.04736328125,-10.498046875
4.6974999,1.1438298225402832,-0.6326677799224854,9.77791976928711,-5.0048828125,-0.67138671875,6.8359375
4.7024999,1.062427043914795,-0.8523358106613159,9.675567626953125,3.326416015625,-6.317138671875,-8.97216796875
4.7074999,0.9145850539207458,-0.8607155084609985,9.628880500793457,-5.523681640625,2.3193359375,-7.598876953125
4.7124999,0.812831461429596,-0.5776011347770691,9.758766174316406,8.453369140625,14.09912109375,6.2255859375
4.7174999,0.6811503767967224,-0.7577648162841797,9.658807754516602,-14.22119140625,0.3662109375,-4.425048828125
4.7224999,0.07182604819536209,-0.6039373874664307,9.764751434326172,-17.88330078125,3.0517578125,2.3193359375
4.727499900000001,0.005985504016280174,-0.6739677786827087,9.962871551513672,13.580322265625,0.274658203125,-6.53076171875
4.7324999000000005,0.06224924325942993,-0.6955155730247498,9.810839653015137,-10.986328125,2.3193359375,6.65283203125
4.7374999,0.041299980133771896,-0.828393816947937,9.803657531738281,7.38525390625,-4.0283203125,-7.62939453125
4.7424999,0.08918401598930359,-0.7266402244567871,9.757569313049316,-1.708984375,3.0517578125,8.026123046875
4.7474999,0.12210428714752197,-0.9127894043922424,9.709086418151855,-1.678466796875,-6.7138671875,-8.880615234375
4.7524999,0.26815059781074524,-0.8571242094039917,9.697115898132324,-10.31494140625,-7.4462890625,-5.889892578125
4.7574999,0.3010708689689636,-0.6200982332229614,9.893440246582031,15.838623046875,0.701904296875,2.593994140625
4.7624999,0.3561375141143799,-0.6991068720817566,9.655217170715332,-16.265869140625,-5.218505859375,-1.434326171875
4.7674999,0.3531447649002075,-0.6189011335372925,9.967659950256348,16.9677734375,-0.732421875,-2.471923828125
4.772499900000001,0.42856210470199585,-0.5889736413955688,9.661202430725098,-15.0146484375,-1.40380859375,3.143310546875
4.7774999000000005,0.414795458316803,-0.6200982332229614,9.899425506591797,12.51220703125,-2.25830078125,-6.77490234375
4.7824999,0.4818331003189087,-0.595557689666748,9.761758804321289,-8.270263671875,4.69970703125,7.049560546875
4.7874999,0.40521863102912903,-0.7098808288574219,9.764153480529785,2.3193359375,-3.204345703125,-8.026123046875
4.7924999,0.41778820753097534,-0.5650315880775452,9.81143856048584,3.143310546875,6.195068359375,7.50732421875
4.7974999,0.39803603291511536,-0.8032546639442444,9.694721221923828,-8.60595703125,-2.044677734375,-6.561279296875
4.8024999,0.304063618183136,-0.6607996821403503,9.642048835754395,-15.411376953125,1.190185546875,2.99072265625
4.8074999,0.2454056739807129,-0.7050924301147461,9.912593841552734,11.77978515625,-0.48828125,-6.4697265625
4.812499900000001,0.26755204796791077,-0.6446388363838196,9.78869342803955,-6.8359375,3.5400390625,6.927490234375
4.8174999000000005,0.1933317929506302,-0.7571662664413452,9.797672271728516,1.434326171875,-4.21142578125,-8.056640625
4.8224999,0.20350714027881622,-0.5793967843055725,9.843161582946777,4.730224609375,3.72314453125,6.805419921875
4.8274999,0.21009120345115662,-0.8110358119010925,9.709685325622559,-9.46044921875,-5.401611328125,-5.7373046875
4.8324999,0.23702596127986908,-0.6308721303939819,9.880271911621094,14.34326171875,1.922607421875,2.74658203125
4.8374999,0.23702596127986908,-0.6308721303939819,9.880271911621094,14.34326171875,1.922607421875,2.74658203125
4.8424999,0.3106476664543152,-0.7577648162841797,9.648633003234863,-15.472412109375,-3.173828125,0.030517578125
4.8474999,0.30286651849746704,-0.6997054219245911,9.901819229125977,15.716552734375,-0.9765625,-3.11279296875
4.852499900000001,0.3555389642715454,-0.6542156338691711,9.695320129394531,-11.71875,0.1220703125,5.37109375
4.8574999000000005,0.31842881441116333,-0.7158663272857666,9.799467086791992,7.6904296875,-3.814697265625,-7.476806640625
4.8624999,0.33339259028434753,-0.7625532150268555,9.655217170715332,-14.190673828125,-2.716064453125,-2.3193359375
4.8674999,0.2932897210121155,-0.6619967818260193,9.96945571899414,15.625,1.64794921875,-1.739501953125
4.8724999,0.33039984107017517,-0.6596025824546814,9.68155288696289,-13.85498046875,0.885009765625,3.7841796875
4.8774999,0.3010708689689636,-0.7015010714530945,9.888651847839355,9.6435546875,-1.556396484375,-6.683349609375
4.8824999,0.3166331648826599,-0.7649474143981934,9.79647445678711,-2.8076171875,-3.84521484375,-7.32421875
4.8874999,0.3166331648826599,-0.7649474143981934,9.79647445678711,-2.8076171875,-3.84521484375,-7.32421875
4.8924999,0.28969839215278625,-0.579995334148407,9.914987564086914,9.002685546875,4.669189453125,5.096435546875
4.897499900000001,0.3232172429561615,-0.727837324142456,9.699509620666504,-13.12255859375,-2.74658203125,-2.86865234375
4.9024999000000005,0.3082534670829773,-0.645237386226654,9.972448348999023,15.07568359375,1.739501953125,-1.3427734375
4.9074999,0.3645172119140625,-0.657806932926178,9.666589736938477,-13.885498046875,0.42724609375,3.35693359375
4.9124999,0.35733461380004883,-0.6033388376235962,9.729436874389648,-2.9296875,3.84521484375,6.805419921875
4.9174999,0.32620999217033386,-0.7733271718025208,9.697713851928711,-3.5400390625,-4.302978515625,-7.171630859375
4.9224999,0.284311443567276,-0.5871779918670654,9.835979461669922,9.735107421875,4.150390625,4.241943359375
4.9274999,0.2902969419956207,-0.7428010702133179,9.64683723449707,-13.763427734375,-2.532958984375,-1.983642578125
4.9324999,0.25677812099456787,-0.6631938815116882,9.955689430236816,14.46533203125,1.28173828125,-1.983642578125
4.937499900000001,0.2819172441959381,-0.6500257849693298,9.718064308166504,-12.39013671875,1.007080078125,4.608154296875
4.9424999000000005,0.243011474609375,-0.7463923692703247,9.86889934539795,7.32421875,-2.716064453125,-7.080078125
4.9474999,0.3100491166114807,-0.5997475385665894,9.847352027893066,0.152587890625,3.5400390625,6.683349609375
4.9524999,0.3034650683403015,-0.823006808757782,9.743204116821289,-6.77490234375,-4.33349609375,-5.9814453125
4.9574999,0.31603461503982544,-0.6380547285079956,9.88625717163086,12.451171875,3.021240234375,2.655029296875
4.9624999,0.37828385829925537,-0.7529764175415039,9.6989107131958,-14.190673828125,-1.89208984375,0.244140625
4.9674999,0.3256114423274994,-0.6967126727104187,9.8599214553833,13.580322265625,-0.335693359375,-3.753662109375
4.9724999,0.2908954918384552,-0.7314286231994629,9.744999885559082,2.01416015625,-3.509521484375,-7.26318359375
4.977499900000001,0.30226796865463257,-0.5776011347770691,9.79647445678711,5.279541015625,3.90625,5.828857421875
4.9824999000000005,0.3100491166114807,-0.7254431247711182,9.635464668273926,-11.260986328125,-3.35693359375,-3.753662109375
4.9874999,0.32620999217033386,-0.6189011335372925,9.910798072814941,14.129638671875,2.288818359375,-0.18310546875
4.9924999,0.39145198464393616,-0.6667851805686951,9.673771858215332,-13.153076171875,0.18310546875,3.265380859375
4.9974999,0.32680854201316833,-0.727837324142456,9.867103576660156,9.21630859375,-1.64794921875,-6.256103515625
5.0024999,0.3758896589279175,-0.6075286865234375,9.78989028930664,-1.800537109375,3.60107421875,6.439208984375
5.0074999,0.3256114423274994,-0.8080430626869202,9.739013671875,-5.340576171875,-3.570556640625,-6.2255859375
5.0124999,0.2968810200691223,-0.6129156351089478,9.880271911621094,11.505126953125,3.23486328125,2.960205078125
5.0174999,0.33339259028434753,-0.7356184720993042,9.747393608093262,-13.641357421875,-1.953125,0.18310546875
5.022499900000001,0.25498247146606445,-0.6763619780540466,9.916783332824707,12.5732421875,-0.518798828125,-4.08935546875
5.0274999000000005,0.2513911724090576,-0.7487865686416626,9.840168952941895,0.640869140625,-3.753662109375,-6.988525390625
5.0324999,0.2454056739807129,-0.5913678407669067,9.921571731567383,7.049560546875,3.509521484375,4.913330078125
5.0374999,0.2651578485965729,-0.7212532758712769,9.660603523254395,-12.02392578125,-2.86865234375,-2.655029296875
5.0424999,0.27892449498176575,-0.6189011335372925,9.876082420349121,13.85498046875,0.91552734375,-1.983642578125
5.0474999,0.3076549172401428,-0.6123170852661133,9.619902610778809,-10.7421875,0.9765625,4.486083984375
5.0524999,0.29149407148361206,-0.7080851793289185,9.749788284301758,5.035400390625,-2.62451171875,-6.89697265625
5.0574999,0.35254621505737305,-0.5602431893348694,9.754576683044434,2.8076171875,3.997802734375,5.859375
5.062499900000001,0.3447650372982025,-0.7374141216278076,9.635464668273926,-9.46044921875,-3.082275390625,-4.2724609375
5.0674999000000005,0.3705027103424072,-0.6153098344802856,9.90122127532959,13.458251953125,2.166748046875,0.18310546875
5.0724999,0.41778820753097534,-0.6805518269538879,9.700108528137207,-12.603759765625,0.18310546875,2.960205078125
5.0774999,0.31783026456832886,-0.7565677165985107,9.894637107849121,8.1787109375,-1.922607421875,-6.28662109375
5.0824999,0.3519476354122162,-0.6093243360519409,9.847352027893066,-0.457763671875,3.509521484375,6.256103515625
5.0874999,0.3345896899700165,-0.5943605899810791,9.749189376831055,-2.593994140625,2.960205078125,6.195068359375
5.0924999,0.3208230137825012,-0.7661445140838623,9.692327499389648,-4.791259765625,-3.7841796875,-5.79833984375
5.0974999,0.32860419154167175,-0.6003460884094238,9.849745750427246,11.23046875,2.62451171875,2.50244140625
5.102499900000001,0.3794809579849243,-0.690727174282074,9.707290649414062,-13.214111328125,-1.312255859375,0.79345703125
5.1074999000000005,0.30705636739730835,-0.6655880808830261,9.859322547912598,10.711669921875,-0.946044921875,-4.852294921875
5.1124999,0.35075053572654724,-0.5416881442070007,9.778518676757812,-4.0283203125,2.716064453125,5.950927734375
5.1174999,0.3214215636253357,-0.739209771156311,9.75397777557373,-3.90625,-3.631591796875,-6.103515625
5.1224999,0.32441434264183044,-0.6063315868377686,9.8599214553833,10.8642578125,3.0517578125,3.0517578125
5.1274999,0.3621230125427246,-0.7200561761856079,9.72285270690918,-12.939453125,-1.3427734375,0.06103515625
5.1324999,0.345363587141037,-0.7374141216278076,9.73781681060791,-13.18359375,-1.3427734375,-0.335693359375
5.1374999,0.28311434388160706,-0.7056909799575806,9.847352027893066,10.7421875,-0.3662109375,-4.241943359375
5.1424999,0.3489548861980438,-0.6051344871520996,9.776124000549316,-3.570556640625,3.11279296875,5.828857421875
5.147499900000001,0.31184476613998413,-0.7996633648872375,9.723451614379883,-4.119873046875,-2.960205078125,-5.584716796875
5.1524999000000005,0.3010708689689636,-0.629675030708313,9.832986831665039,11.016845703125,3.2958984375,2.532958984375
5.1574999,0.35075053572654724,-0.7511807680130005,9.710283279418945,-13.275146484375,-0.885009765625,0.42724609375
5.1624999,0.2645592987537384,-0.7068880796432495,9.81143856048584,9.82666015625,-0.701904296875,-4.638671875
5.1674999,0.3196259140968323,-0.5710170865058899,9.798869132995605,-2.685546875,3.021240234375,5.615234375
5.1724999,0.2454056739807129,-0.7535749673843384,9.700706481933594,-5.828857421875,-3.570556640625,-5.0048828125
5.1774999,0.28550854325294495,-0.761954665184021,9.718064308166504,-12.847900390625,-0.8544921875,1.190185546875
5.1824999,0.2148796021938324,-0.7751228213310242,9.851541519165039,8.72802734375,-1.953125,-4.82177734375
5.187499900000001,0.29388827085494995,-0.6422445774078369,9.838373184204102,-0.152587890625,3.082275390625,5.43212890625
5.1924999000000005,0.25318682193756104,-0.8086416125297546,9.708487510681152,-7.568359375,-3.082275390625,-4.425048828125
5.1974999,0.31364041566848755,-0.5746083855628967,9.916184425354004,12.63427734375,2.105712890625,1.068115234375
5.2024999,0.8463503122329712,-2.5456349849700928,8.35097599029541,15.045166015625,12.75634765625,53.314208984375
5.2074999,1.5245078802108765,-4.927267074584961,7.602189064025879,76.59912109375,20.355224609375,102.325439453125
5.2124999,0.2041056901216507,-6.5696892738342285,6.457760334014893,-3.936767578125,48.919677734375,106.903076171875
5.2174999,-1.294066071510315,-4.253897666931152,6.333860397338867,76.507568359375,-13.946533203125,144.012451171875
