# Time (seconds),Accel_X,Accel_Y,Accel_Z,Gyro_X,Gyro_Y,Gyro_Z
0.0024999,0.7583633661270142,-0.6248866319656372,9.476250648498535,8.514404296875,1.3427734375,-6.2255859375
0.0074999,0.7583633661270142,-0.6248866319656372,9.476250648498535,8.514404296875,1.3427734375,-6.2255859375
0.012499900000000001,0.6721721291542053,-0.5261258482933044,10.006566047668457,-5.340576171875,-1.129150390625,6.378173828125
0.0174999,0.7374141216278076,-0.6817489266395569,9.517550468444824,2.716064453125,1.52587890625,-6.988525390625
0.0224999,0.6661866307258606,-0.6649895310401917,10.141240119934082,0.30517578125,-1.46484375,6.866455078125
0.0274999,0.6883329749107361,-0.6961141228675842,9.545083999633789,-3.875732421875,1.190185546875,-7.50732421875
0.0324999,0.7056909799575806,-0.6542156338691711,10.136451721191406,6.2255859375,-1.861572265625,6.8359375
0.0374999,0.6332663297653198,-0.5847837924957275,9.528923034667969,-9.552001953125,0.9765625,-6.34765625
0.0424999,0.5811924338340759,-0.49140989780426025,9.50737476348877,-12.969970703125,1.800537109375,-4.730224609375
0.0474999,0.7320271730422974,-0.5674257874488831,9.81263542175293,14.678955078125,-1.3427734375,2.74658203125
0.0524999,0.5811924338340759,-0.5578489899635315,9.655815124511719,-15.899658203125,-0.213623046875,-1.617431640625
0.0574999,0.7535749673843384,-0.7613561153411865,9.782708168029785,14.95361328125,-1.007080078125,-0.30517578125
0.0624999,0.619499683380127,-0.6458359360694885,9.880870819091797,-14.7705078125,-0.6103515625,1.3427734375
0.0674999,0.7553706169128418,-0.8529343605041504,9.70429801940918,12.939453125,0.579833984375,-3.662109375
0.0724999,0.6536170840263367,-0.595557689666748,9.982624053955078,-9.70458984375,-1.03759765625,4.150390625
0.0774999,0.7451952695846558,-0.7428010702133179,9.530119895935059,6.7138671875,1.03759765625,-5.92041015625
0.0824999,0.6889315247535706,-0.5506663918495178,10.02811336517334,-2.471923828125,-1.40380859375,6.011962890625
0.0874999,0.7457938194274902,-0.6637924313545227,9.437943458557129,-1.617431640625,1.617431640625,-6.927490234375
0.0924999,0.7469909191131592,-0.557250440120697,10.0765962600708,4.8828125,-1.15966796875,6.439208984375
0.0974999,0.6877344250679016,-0.568622887134552,9.504382133483887,-9.27734375,1.3427734375,-6.16455078125
0.1024999,0.6123170852661133,-0.4531026780605316,9.622296333312988,-14.312744140625,0.701904296875,-3.448486328125
0.1074999,0.7535749673843384,-0.5374982953071594,9.819219589233398,14.6484375,-0.823974609375,1.434326171875
0.1124999,0.5937620401382446,-0.5171475410461426,9.808445930480957,-14.617919921875,-0.518798828125,0.18310546875
0.1174999,0.727837324142456,-0.7643488645553589,9.68155288696289,13.3056640625,0.335693359375,-2.166748046875
0.1224999,0.6224924325942993,-0.5997475385665894,9.993996620178223,-10.009765625,-0.823974609375,3.692626953125
0.1274999,0.7098808288574219,-0.8092401623725891,9.535507202148438,6.7138671875,1.861572265625,-5.79833984375
0.1324999,0.645237386226654,-0.6254851818084717,10.054450035095215,-2.197265625,-1.434326171875,5.859375
0.1374999,0.6739677786827087,-0.7433996200561523,9.453505516052246,-2.5634765625,1.312255859375,-6.439208984375
0.1424999,0.6913257241249084,-0.6111199855804443,10.022727012634277,6.317138671875,-1.8310546875,5.523681640625
0.1474999,0.5823895931243896,-0.5979518890380859,9.55466079711914,-10.68115234375,1.373291015625,-5.4931640625
0.1524999,0.7182605266571045,-0.5207388401031494,9.8784761428833,13.580322265625,-0.732421875,3.11279296875
0.1574999,0.5674257874488831,-0.4465186297893524,9.73661994934082,-13.702392578125,0.6103515625,-1.46484375
0.1624999,0.7493851184844971,-0.7218518257141113,9.569623947143555,7.9345703125,0.79345703125,-4.913330078125
0.1674999,0.7056909799575806,-0.557250440120697,10.023324966430664,-3.84521484375,-2.166748046875,5.645751953125
0.1724999,0.7625532150268555,-0.7242460250854492,9.460089683532715,-2.50244140625,0.732421875,-6.16455078125
0.17749990000000002,0.8212111592292786,-0.6117185354232788,10.022727012634277,5.79833984375,-1.922607421875,5.279541015625
0.1824999,0.727837324142456,-0.6230909824371338,9.576208114624023,-10.55908203125,1.220703125,-4.913330078125
0.1874999,0.862511157989502,-0.5931634902954102,9.898228645324707,13.458251953125,-0.152587890625,2.685546875
0.1924999,0.6835445761680603,-0.4854243993759155,9.797672271728516,-13.36669921875,1.220703125,-0.6103515625
0.1974999,0.7852981686592102,-0.6655880808830261,9.689932823181152,12.0849609375,1.129150390625,-2.105712890625
0.2024999,0.6554127335548401,-0.5099649429321289,9.946710586547852,-9.33837890625,-0.244140625,3.570556640625
0.20749990000000001,0.6817489266395569,-0.7601590156555176,9.517550468444824,4.425048828125,1.77001953125,-5.31005859375
0.2124999,0.6236895322799683,-0.6218938827514648,10.019135475158691,0.30517578125,-1.190185546875,5.767822265625
0.2174999,0.5027823448181152,-0.6338648796081543,9.658209800720215,-12.847900390625,-0.244140625,-2.9296875
0.2224999,0.6823474764823914,-0.6500257849693298,9.79647445678711,13.36669921875,-0.79345703125,-0.244140625
0.2274999,0.6015431880950928,-0.5111620426177979,9.923966407775879,-11.627197265625,-0.67138671875,1.983642578125
0.2324999,0.7338228225708008,-0.7320271730422974,9.616311073303223,7.659912109375,1.0986328125,-4.5166015625
0.2374999,0.7254431247711182,-0.5530605912208557,10.052654266357422,-2.44140625,-1.220703125,4.974365234375
0.2424999,0.727837324142456,-0.7284358739852905,9.468469619750977,-3.0517578125,1.556396484375,-5.9814453125
0.2474999,0.8008604645729065,-0.5548562407493591,9.981427192687988,8.148193359375,-1.434326171875,4.608154296875
0.2524999,0.6775590777397156,-0.5776011347770691,9.62828254699707,-11.627197265625,1.129150390625,-3.265380859375
0.2574999,0.821809709072113,-0.5464765429496765,9.82759952545166,13.00048828125,0.457763671875,0.518798828125
0.2624999,0.6751648783683777,-0.4124012291431427,9.86889934539795,-11.90185546875,-0.1220703125,1.739501953125
0.2674999,0.7709329724311829,-0.6314706802368164,9.565434455871582,7.75146484375,0.244140625,-4.241943359375
0.2724999,0.7164648771286011,-0.5937620401382446,9.976638793945312,8.056640625,-1.46484375,4.33349609375
0.2774999,0.595557689666748,-0.6470330357551575,9.662399291992188,-11.3525390625,1.28173828125,-3.173828125
0.2824999,0.730231523513794,-0.6404489278793335,9.824007987976074,13.153076171875,-0.30517578125,-0.152587890625
0.28749990000000003,0.6015431880950928,-0.49380409717559814,9.935338973999023,-10.1318359375,0.030517578125,2.197265625
0.2924999,0.6937199234962463,-0.6973112225532532,9.594164848327637,6.866455078125,0.885009765625,-4.608154296875
0.2974999,0.667982280254364,-0.5303156971931458,10.013150215148926,-0.91552734375,-1.77001953125,5.06591796875
0.3024999,0.6075286865234375,-0.7469909191131592,9.485228538513184,-4.974365234375,1.068115234375,-5.31005859375
0.3074999,0.7398083209991455,-0.5776011347770691,9.880271911621094,9.490966796875,-1.495361328125,3.72314453125
0.3124999,0.619499683380127,-0.5985504388809204,9.666589736938477,-12.20703125,0.396728515625,-1.5869140625
0.3174999,0.7823054194450378,-0.6230909824371338,9.6803560256958,11.65771484375,-0.06103515625,-1.64794921875
0.3224999,0.6853402256965637,-0.6817489266395569,9.631275177001953,-8.4228515625,1.495361328125,-4.45556640625
0.3274999,0.8200140595436096,-0.6039373874664307,9.893440246582031,11.627197265625,-0.823974609375,1.556396484375
0.3324999,0.6643909811973572,-0.5291185975074768,9.82640266418457,-11.749267578125,0.67138671875,0.885009765625
0.3374999,0.7595604658126831,-0.6745663285255432,9.597756385803223,8.97216796875,1.0986328125,-3.631591796875
0.3424999,0.6913257241249084,-0.4884171485900879,9.960477828979492,-3.23486328125,-0.732421875,4.7607421875
0.34749990000000003,0.6087257862091064,-0.7445967197418213,9.465476036071777,-3.0517578125,1.77001953125,-5.37109375
0.35249990000000003,0.6925228238105774,-0.5877765417098999,9.922768592834473,8.209228515625,-1.312255859375,3.90625
0.3574999,0.5542576909065247,-0.6278793811798096,9.660603523254395,-11.749267578125,0.701904296875,-1.89208984375
0.3624999,0.6961141228675842,-0.6823474764823914,9.722254753112793,11.23046875,-0.457763671875,-1.495361328125
0.3674999,0.6189011335372925,-0.5285200476646423,9.97364616394043,-7.965087890625,-0.9765625,3.35693359375
0.3724999,0.6739677786827087,-0.750582218170166,9.566631317138672,2.166748046875,1.03759765625,-5.340576171875
0.3774999,0.6512228846549988,-0.6865373253822327,9.695918083190918,-9.521484375,1.03759765625,-3.692626953125
0.3824999,0.7882909178733826,-0.6123170852661133,9.871294021606445,11.1083984375,-0.79345703125,0.396728515625
0.3874999,0.6655880808830261,-0.49799394607543945,9.895833969116211,-10.589599609375,-0.06103515625,1.861572265625
0.3924999,0.7314286231994629,-0.6350619792938232,9.569623947143555,5.889892578125,0.9765625,-4.364013671875
0.3974999,0.7026981711387634,-0.4495113790035248,9.9401273727417,0.244140625,-1.312255859375,4.8828125
0.4024999,0.6147112846374512,-0.7032967209815979,9.52353572845459,-6.256103515625,1.5869140625,-4.7607421875
0.4074999,0.7601590156555176,-0.5973533391952515,9.82879638671875,10.25390625,-1.15966796875,1.77001953125
0.41249990000000003,0.6470330357551575,-0.6117185354232788,9.767744064331055,-11.23046875,0.244140625,0.396728515625
0.41749990000000003,0.7637503147125244,-0.6937199234962463,9.57441234588623,8.148193359375,0.579833984375,-3.41796875
0.4224999,0.727837324142456,-0.5195417404174805,9.963470458984375,-2.471923828125,-1.3427734375,4.69970703125
0.4274999,0.6362590789794922,-0.7577648162841797,9.532513618469238,-3.936767578125,1.373291015625,-5.2490234375
0.4324999,0.7260416746139526,-0.6039373874664307,9.897629737854004,8.72802734375,-0.9765625,2.86865234375
0.4374999,0.706289529800415,-0.6655880808830261,9.685144424438477,9.796142578125,0.67138671875,-2.899169921875
0.4424999,0.6811503767967224,-0.5129576921463013,10.049661636352539,-3.875732421875,-0.823974609375,4.21142578125
0.4474999,0.6458359360694885,-0.71766197681427,9.556455612182617,-1.800537109375,1.861572265625,-5.37109375
0.4524999,0.7523778676986694,-0.5518634915351868,9.936535835266113,7.9345703125,-1.556396484375,3.448486328125
0.4574999,0.6314706802368164,-0.5626373887062073,9.715670585632324,-11.199951171875,0.518798828125,-1.129150390625
0.4624999,0.7583633661270142,-0.6224924325942993,9.686341285705566,9.735107421875,-0.091552734375,-2.166748046875
0.4674999,0.70090252161026,-0.46507367491722107,10.013748168945312,-5.279541015625,-0.9765625,4.150390625
0.47249990000000003,0.667982280254364,-0.6967126727104187,9.542689323425293,-1.190185546875,1.15966796875,-5.43212890625
0.47749990000000003,0.760757565498352,-0.5482721924781799,9.934141159057617,7.080078125,-1.52587890625,3.387451171875
0.4824999,0.6458359360694885,-0.5877765417098999,9.683947563171387,-10.650634765625,0.79345703125,-1.64794921875
0.4874999,0.7793126702308655,-0.6685808300971985,9.68933391571045,9.735107421875,-0.18310546875,-1.983642578125
0.4924999,0.7230489253997803,-0.6584054827690125,9.68155288696289,9.490966796875,-0.457763671875,-2.13623046875
0.4974999,0.7230489253997803,-0.6584054827690125,9.68155288696289,9.490966796875,-0.457763671875,-2.13623046875
0.5024999,0.6643909811973572,-0.5195417404174805,10.004171371459961,-4.974365234375,-0.79345703125,4.0283203125
0.5074999,0.629675030708313,-0.7344213724136353,9.542689323425293,-1.220703125,1.5869140625,-5.157470703125
0.5124999,0.7212532758712769,-0.586579442024231,9.904213905334473,7.476806640625,-1.556396484375,3.2958984375
0.5174999,0.6147112846374512,-0.6033388376235962,9.708487510681152,-10.528564453125,0.518798828125,-1.007080078125
0.5224999,0.7439981698989868,-0.6649895310401917,9.62828254699707,9.21630859375,0.091552734375,-2.593994140625
0.5274999,0.71766197681427,-0.5261258482933044,9.988011360168457,-3.662109375,-0.9765625,3.997802734375
0.5324999,0.6739677786827087,-0.7422025203704834,9.55705451965332,-3.021240234375,0.701904296875,-5.126953125
0.5374999,0.6482301354408264,-0.5823895931243896,9.746794700622559,-10.406494140625,0.579833984375,-0.06103515625
0.5424999,0.7457938194274902,-0.6554127335548401,9.606135368347168,7.8125,-0.030517578125,-3.35693359375
0.5474999,0.7104793787002563,-0.5027823448181152,9.980828285217285,-2.288818359375,-1.007080078125,4.119873046875
0.5524999,0.6572083830833435,-0.7475894689559937,9.604340553283691,-4.974365234375,1.068115234375,-4.730224609375
0.5574999,0.7715315222740173,-0.6171054840087891,9.900622367858887,9.185791015625,-1.40380859375,1.800537109375
0.5624999,0.739209771156311,-0.6506243348121643,9.633668899536133,6.195068359375,1.007080078125,-4.150390625
0.5674999000000001,0.7314286231994629,-0.4776432514190674,9.997588157653809,0.67138671875,-0.67138671875,4.45556640625
0.5724999000000001,0.6841431260108948,-0.7128735780715942,9.664793968200684,-7.171630859375,1.03759765625,-3.84521484375
0.5774999000000001,0.7739257216453552,-0.6721721291542053,9.859322547912598,9.94873046875,-0.732421875,0.48828125
0.5824999,0.6877344250679016,-0.6117185354232788,9.880870819091797,-8.575439453125,-0.152587890625,1.64794921875
0.5874999,0.7116764783859253,-0.7098808288574219,9.548076629638672,3.326416015625,0.518798828125,-4.5166015625
0.5924999,0.5835866928100586,-0.639850378036499,9.603142738342285,-8.60595703125,1.434326171875,-3.0517578125
0.5974999,0.6955155730247498,-0.6613982319831848,9.752182006835938,9.796142578125,-0.30517578125,-0.9765625
0.6024999,0.6033388376235962,-0.5620388388633728,9.938929557800293,-6.40869140625,-0.18310546875,3.021240234375
0.6074999,0.6141127347946167,-0.6841431260108948,9.521739959716797,0.1220703125,1.0986328125,-5.096435546875
0.6124999,0.7110779285430908,-0.5039794445037842,9.917980194091797,6.500244140625,-1.8310546875,3.448486328125
0.6174999,0.6099228858947754,-0.5261258482933044,9.733627319335938,-9.735107421875,0.67138671875,-1.28173828125
0.6224999,0.7565677165985107,-0.608127236366272,9.660005569458008,8.056640625,-0.1220703125,-2.62451171875
0.6274999,0.730231523513794,-0.5111620426177979,10.011953353881836,-3.082275390625,-1.190185546875,3.997802734375
0.6324999,0.7015010714530945,-0.7535749673843384,9.623494148254395,-3.875732421875,0.885009765625,-4.730224609375
0.6374999,0.8200140595436096,-0.606930136680603,9.877279281616211,8.85009765625,-1.220703125,1.739501953125
0.6424999,0.6955155730247498,-0.5674257874488831,9.812037467956543,-9.246826171875,0.3662109375,0.396728515625
0.6474999,0.7733271718025208,-0.629675030708313,9.604938507080078,5.67626953125,0.3662109375,-4.119873046875
0.6524999,0.7679402232170105,-0.6242880821228027,9.799467086791992,9.521484375,-0.823974609375,0
0.6574999,0.7679402232170105,-0.6242880821228027,9.799467086791992,9.521484375,-0.823974609375,0
0.6624999,0.6685808300971985,-0.5488707423210144,9.93593692779541,-7.32421875,-0.42724609375,2.62451171875
0.6674999,0.6440402865409851,-0.6362590789794922,9.509769439697266,0.9765625,0.946044921875,-5.035400390625
0.6724999,0.7122750282287598,-0.46567222476005554,9.877279281616211,6.011962890625,-1.3427734375,3.448486328125
0.6774999,0.596754789352417,-0.5249287486076355,9.716867446899414,-9.246826171875,0.762939453125,-1.190185546875
0.6824999,0.7284358739852905,-0.6200982332229614,9.66539192199707,8.1787109375,-0.30517578125,-2.197265625
0.6874999,0.6979097723960876,-0.5345055460929871,10.011354446411133,-2.74658203125,-0.701904296875,3.936767578125
0.6924999000000001,0.6721721291542053,-0.7631517648696899,9.642048835754395,-4.119873046875,1.190185546875,-4.486083984375
0.6974999000000001,0.7793126702308655,-0.619499683380127,9.8599214553833,8.880615234375,-0.8544921875,1.678466796875
0.7024999000000001,0.6572083830833435,-0.5644330382347107,9.818022727966309,-8.60595703125,0,1.03759765625
0.7074999,0.729034423828125,-0.6314706802368164,9.583391189575195,4.364013671875,0.6103515625,-4.119873046875
0.7124999,0.6458359360694885,-0.7846996188163757,9.52353572845459,-1.556396484375,0.79345703125,-4.852294921875
0.7174999,0.7362170219421387,-0.5817909836769104,9.821015357971191,7.598876953125,-0.946044921875,2.62451171875
0.7224999,0.7003039717674255,-0.690727174282074,9.697115898132324,-6.8359375,1.0986328125,-3.41796875
0.7274999,0.7882909178733826,-0.6991068720817566,9.834183692932129,9.063720703125,-0.732421875,0.274658203125
0.7324999,0.6871358752250671,-0.5590460896492004,9.951498985290527,-6.591796875,0.244140625,3.082275390625
0.7374999,0.6446388363838196,-0.6715735793113708,9.515155792236328,0.42724609375,1.007080078125,-4.425048828125
0.7424999,0.5817909836769104,-0.50876784324646,9.709086418151855,-9.307861328125,0.79345703125,-0.6103515625
0.7474999,0.6817489266395569,-0.6386532783508301,9.621099472045898,6.9580078125,0.3662109375,-2.685546875
0.7524999,0.6955155730247498,-0.5195417404174805,10.023324966430664,-0.42724609375,-0.48828125,4.058837890625
0.7574999,0.6847416758537292,-0.7667431235313416,9.710283279418945,-5.92041015625,0.885009765625,-3.84521484375
0.7624999,0.760757565498352,-0.6841431260108948,9.829395294189453,9.3994140625,-1.129150390625,0.244140625
0.7674999,0.7032967209815979,-0.6189011335372925,9.9185791015625,-6.591796875,0.518798828125,2.44140625
0.7724999,0.6661866307258606,-0.6709750294685364,9.516353607177734,0.396728515625,0.18310546875,-4.2724609375
0.7774999,0.7260416746139526,-0.4812345504760742,9.834781646728516,5.7373046875,-1.129150390625,3.173828125
0.7824999,0.6212953329086304,-0.5159504413604736,9.709086418151855,-9.09423828125,0.762939453125,-1.03759765625
0.7874999,0.730231523513794,-0.6326677799224854,9.624092102050781,7.232666015625,-0.152587890625,-2.74658203125
0.7924999,0.7218518257141113,-0.5273229479789734,10.004171371459961,-0.79345703125,-0.91552734375,4.119873046875
0.7974999,0.7104793787002563,-0.7829039692878723,9.689932823181152,-5.79833984375,0.9765625,-3.72314453125
0.8024999,0.667982280254364,-0.7990648150444031,9.707290649414062,-6.591796875,0.9765625,-3.2958984375
0.8074999,0.767341673374176,-0.7140706777572632,9.801861763000488,8.880615234375,-0.823974609375,-0.06103515625
0.8124999,0.6697779297828674,-0.6266822814941406,9.913790702819824,-5.828857421875,-0.1220703125,2.899169921875
0.8174999000000001,0.667982280254364,-0.669179379940033,9.495404243469238,-0.8544921875,0.6103515625,-4.486083984375
0.8224999000000001,0.7015010714530945,-0.47884035110473633,9.807249069213867,6.8359375,-1.40380859375,2.471923828125
0.8274999000000001,0.6236895322799683,-0.5051765441894531,9.685144424438477,-8.7890625,0.48828125,0.152587890625
0.8324999000000001,0.7320271730422974,-0.5566518902778625,10.014945983886719,1.8310546875,-0.946044921875,3.84521484375
0.8374999,0.6446388363838196,-0.6991068720817566,9.729436874389648,-7.415771484375,0.518798828125,-2.685546875
0.8424999,0.7649474143981934,-0.7691373229026794,9.847352027893066,8.48388671875,-0.6103515625,-1.15966796875
0.8474999,0.7098808288574219,-0.6248866319656372,9.9401273727417,-3.814697265625,0.30517578125,3.265380859375
0.8524999,0.7194576263427734,-0.7721300721168518,9.603741645812988,-3.143310546875,0.823974609375,-4.21142578125
0.8574999,0.8140285611152649,-0.5781996846199036,9.786299705505371,8.1787109375,-0.6103515625,1.64794921875
0.8624999,0.7086837291717529,-0.5219359993934631,9.782109260559082,-7.8125,0.213623046875,1.220703125
0.8674999,0.7308300733566284,-0.5919663906097412,9.55705451965332,3.2958984375,0.640869140625,-4.0283203125
0.8724999,0.718859076499939,-0.4411316514015198,9.906009674072266,4.180908203125,-1.28173828125,3.509521484375
0.8774999,0.6123170852661133,-0.5674257874488831,9.769539833068848,-9.033203125,-0.030517578125,-1.556396484375
0.8824999,0.6901286244392395,-0.6877344250679016,9.707889556884766,7.32421875,-0.518798828125,-2.105712890625
0.8874999,0.6673837304115295,-0.585382342338562,10.015543937683105,-1.495361328125,-0.67138671875,3.814697265625
0.8924999,0.7541735172271729,-0.6745663285255432,9.759963035583496,8.7890625,-0.640869140625,0.244140625
0.8974999,0.7104793787002563,-0.5734112858772278,9.895833969116211,-6.317138671875,-0.213623046875,2.471923828125
0.9024999,0.6979097723960876,-0.6727706789970398,9.486425399780273,0.152587890625,0.79345703125,-4.33349609375
0.9074999,0.7368155717849731,-0.4920084476470947,9.825803756713867,6.622314453125,-0.6103515625,2.655029296875
0.9124999,0.6590040326118469,-0.5147533416748047,9.709685325622559,-8.819580078125,0.18310546875,0.030517578125
0.9174999,0.6919242739677429,-0.6350619792938232,9.606734275817871,4.791259765625,-0.06103515625,-3.47900390625
0.9224999,0.729034423828125,-0.5111620426177979,10.00955867767334,2.25830078125,-1.03759765625,3.753662109375
0.9274999,0.6350619792938232,-0.7158663272857666,9.766547203063965,-7.659912109375,0.91552734375,-2.349853515625
0.9324999,0.7242460250854492,-0.7266402244567871,9.79408073425293,8.514404296875,-0.518798828125,-1.434326171875
0.9374999,0.6883329749107361,-0.6254851818084717,9.94970417022705,-2.685546875,-0.42724609375,3.265380859375
0.9424999000000001,0.7212532758712769,-0.7631517648696899,9.604340553283691,-4.425048828125,0.701904296875,-3.936767578125
0.9474999000000001,0.7823054194450378,-0.5811924338340759,9.728240013122559,8.148193359375,-1.068115234375,0.9765625
0.9524999000000001,1.047463297843933,-1.0576386451721191,9.167996406555176,-5.7373046875,1.190185546875,-2.960205078125
0.9574999000000001,1.548449993133545,-1.6735470294952393,8.53293514251709,2.960205078125,6.04248046875,59.814453125
0.9624999,1.8022353649139404,-2.7766754627227783,7.12155294418335,2.777099609375,13.48876953125,162.322998046875
0.9674999,1.734000563621521,-3.5936968326568604,6.20038366317749,48.88916015625,-47.05810546875,228.759765625
0.9724999,1.3922282457351685,-2.253542423248291,5.522824764251709,192.047119140625,61.248779296875,101.4404296875
0.9774999,0.4297592043876648,-1.1288660764694214,4.774038314819336,131.4697265625,108.978271484375,-16.29638671875
0.9824999,-0.0454898327589035,0.16759411990642548,4.089895248413086,5.2490234375,30.57861328125,51.20849609375
0.9874999,-0.4339490532875061,1.0085574388504028,2.5971102714538574,-209.503173828125,-44.952392578125,236.724853515625
0.9924999,-0.5764040350914001,0.6787561774253845,1.3658920526504517,-218.841552734375,-154.296875,354.248046875
0.9974999,-1.0283095836639404,2.1787235736846924,2.7539305686950684,198.089599609375,-203.79638671875,212.249755859375
1.0024999,-0.5805938839912415,4.0761284828186035,4.211400985717773,88.470458984375,-38.9404296875,26.611328125
1.0074999000000002,-0.6871358752250671,6.5050458908081055,7.007229804992676,-30.670166015625,-53.77197265625,6.134033203125
1.0124999000000001,2.1565771102905273,6.383540153503418,6.695983409881592,-9.246826171875,-74.432373046875,19.683837890625
1.0174999000000002,2.7557260990142822,5.426458358764648,6.119579315185547,-60.943603515625,-73.822021484375,49.98779296875
1.0224999000000001,3.490147590637207,4.37420654296875,5.959766387939453,-46.56982421875,-26.91650390625,46.875
1.0274999,3.950432777404785,3.3943793773651123,6.010045051574707,-96.221923828125,16.387939453125,41.56494140625
1.0324999000000001,4.459200859069824,2.387617588043213,7.296928405761719,-71.441650390625,34.36279296875,51.20849609375
1.0374999,5.10264253616333,0.9756371974945068,8.949525833129883,-50.9033203125,48.675537109375,21.026611328125
1.0424999000000001,5.338471412658691,-0.6739677786827087,11.027692794799805,-42.083740234375,60.72998046875,12.0849609375
1.0474999,5.202600479125977,-2.4199392795562744,12.750919342041016,2.5634765625,44.525146484375,-9.307861328125
1.0524999000000002,4.349067211151123,-3.9396588802337646,13.001712799072266,-37.261962890625,40.52734375,-23.651123046875
1.0574999,2.9879636764526367,-4.705204963684082,12.085929870605469,-16.021728515625,50.262451171875,-18.4326171875
1.0624999000000002,0.272938996553421,-4.677671432495117,8.462306022644043,1.89208984375,50.445556640625,-30.548095703125
1.0674999,-0.46507367491722107,-4.225167274475098,7.541136741638184,41.351318359375,36.834716796875,-26.91650390625
1.0724999000000002,-0.9433154463768005,-3.687669277191162,7.4567413330078125,18.157958984375,18.951416015625,-14.404296875
1.0774999,-0.9917980432510376,-2.8401217460632324,8.513781547546387,46.875,7.537841796875,5.584716796875
1.0824999000000002,-0.9576807022094727,-1.9141643047332764,9.30686092376709,10.711669921875,-3.23486328125,-4.7607421875
1.0874999,-0.7523778676986694,-0.6051344871520996,10.608109474182129,12.908935546875,-9.613037109375,7.843017578125
1.0924999000000002,-0.7523778676986694,-0.6051344871520996,10.608109474182129,12.908935546875,-9.613037109375,7.843017578125
1.0974999,-0.4231751561164856,0.5207388401031494,10.869675636291504,11.260986328125,-16.17431640625,-11.993408203125
1.1024999000000002,-0.07422025501728058,1.3557167053222656,10.979808807373047,-26.3671875,-14.312744140625,0.274658203125
1.1074999,0.46627077460289,1.701080322265625,10.848726272583008,10.589599609375,-14.251708984375,-2.044677734375
1.1124999000000002,0.8487445116043091,1.445499300956726,10.158597946166992,-33.87451171875,-9.21630859375,0.213623046875
1.1174999,1.2228385210037231,0.7751228213310242,10.165780067443848,4.2724609375,-8.4228515625,10.955810546875
1.1224999000000002,1.4574702978134155,-1.601720929145813,9.41400146484375,11.505126953125,-7.87353515625,-11.3525390625
1.1274999,1.4574702978134155,-1.601720929145813,9.41400146484375,11.505126953125,-7.87353515625,-11.3525390625
1.1324999000000002,1.37906014919281,-1.9381062984466553,9.294290542602539,-14.251708984375,3.23486328125,1.129150390625
1.1374999000000001,1.4000093936920166,-1.9967641830444336,9.43135929107666,27.77099609375,-1.129150390625,-3.509521484375
1.1424999000000002,1.3186066150665283,-1.6418237686157227,9.182361602783203,-15.838623046875,5.279541015625,-3.41796875
1.1474999000000001,1.3646949529647827,-1.1953052282333374,9.713275909423828,22.979736328125,6.317138671875,3.326416015625
1.1524999000000002,1.24917471408844,-0.7643488645553589,9.460687637329102,-11.077880859375,3.662109375,-9.27734375
1.1574999000000001,1.1785458326339722,-0.31783026456832886,10.041281700134277,5.706787109375,7.781982421875,7.568359375
1.1624999,1.0504560470581055,-0.2867056429386139,9.825803756713867,1.373291015625,0.213623046875,-9.307861328125
1.1674999000000001,0.8667010068893433,-0.10295066982507706,10.081384658813477,-13.0615234375,4.82177734375,8.270263671875
1.1724999,0.7948749661445618,-0.3645172119140625,9.977835655212402,15.625,-3.204345703125,-5.950927734375
1.1774999000000002,0.6488286852836609,-0.3561375141143799,9.809642791748047,-22.735595703125,2.25830078125,2.50244140625
1.1824999,0.6757634282112122,-0.7709329724311829,9.490615844726562,-20.965576171875,-0.518798828125,-2.9296875
1.1874999000000002,0.8361749649047852,-0.8834604024887085,9.855731010437012,19.989013671875,-1.0986328125,4.425048828125
1.1924999,0.8822633028030396,-1.0181342363357544,9.43494987487793,-13.641357421875,-2.105712890625,-7.476806640625
1.1974999000000002,1.0007762908935547,-0.7984662652015686,9.860519409179688,9.8876953125,2.44140625,7.537841796875
1.2024999,0.922366201877594,-0.5518634915351868,9.627683639526367,-20.69091796875,2.166748046875,3.326416015625
1.2074999000000002,0.9295487999916077,-0.7326257228851318,9.818022727966309,22.0947265625,-2.99072265625,-1.495361328125
1.2124999,0.8164227604866028,-0.7978677153587341,9.576807022094727,-21.484375,0.091552734375,-1.007080078125
1.2174999000000002,0.8355764150619507,-0.9217676520347595,9.570821762084961,-18.98193359375,-1.495361328125,-4.5166015625
1.2224999,0.99479079246521,-0.6979097723960876,9.9772367477417,16.632080078125,0.457763671875,5.096435546875
1.2274999000000002,0.9953893423080444,-0.823006808757782,9.527127265930176,-13.7939453125,-2.25830078125,-6.500244140625
1.2324999,1.1121066808700562,-0.5482721924781799,9.943717956542969,10.07080078125,2.288818359375,6.683349609375
1.2374999000000002,1.0851719379425049,-0.7254431247711182,9.486425399780273,-7.110595703125,-2.227783203125,-8.575439453125
1.2424999,1.081580638885498,-0.5620388388633728,9.947309494018555,2.86865234375,3.5400390625,7.568359375
1.2474999000000002,1.0534487962722778,-0.7745242714881897,9.559449195861816,0.518798828125,-1.556396484375,-8.7890625
1.2524999,0.970848798751831,-0.6500257849693298,9.944316864013672,-3.0517578125,4.150390625,7.781982421875
1.2574999000000002,0.960673451423645,-0.8367735147476196,9.653421401977539,6.439208984375,-2.25830078125,-8.453369140625
1.2624999000000001,0.8984242081642151,-0.6344634294509888,9.868300437927246,-8.60595703125,3.204345703125,6.988525390625
1.2674999000000002,0.8990227580070496,-0.8158242106437683,9.640851974487305,11.322021484375,-2.685546875,-7.354736328125
1.2724999000000001,0.8906430602073669,-0.5315127968788147,9.716867446899414,-13.12255859375,2.62451171875,6.16455078125
1.2774999000000002,0.912190854549408,-0.518943190574646,9.671378135681152,-16.2353515625,2.50244140625,4.913330078125
1.2824999000000001,0.9750386476516724,-0.8325836658477783,9.68694019317627,-19.012451171875,1.15966796875,1.708984375
1.2874999,1.05105459690094,-0.778714120388031,9.838972091674805,19.866943359375,-1.190185546875,-1.739501953125
1.2924999000000001,0.9696516990661621,-0.7924807667732239,9.618705749511719,-19.378662109375,0.79345703125,0.91552734375
1.2974999,1.0283095836639404,-0.6973112225532532,9.812037467956543,19.34814453125,-1.28173828125,-1.312255859375
1.3024999000000002,0.9205705523490906,-0.7529764175415039,9.622895240783691,-19.439697265625,0.701904296875,0.396728515625
1.3074999,0.9762357473373413,-0.6590040326118469,9.834183692932129,19.287109375,-0.823974609375,-1.0986328125
1.3124999000000002,0.8696937561035156,-0.739209771156311,9.651625633239746,-18.98193359375,0.396728515625,0.274658203125
1.3174999,0.9445125460624695,-0.6488286852836609,9.852738380432129,18.768310546875,-0.518798828125,-0.885009765625
1.3224999000000002,0.8637082576751709,-0.730231523513794,9.656414031982422,-18.798828125,0.396728515625,0
1.3274999,0.9552865028381348,-0.6607996821403503,9.855133056640625,18.85986328125,-0.67138671875,-0.885009765625
1.3324999000000002,0.8924387097358704,-0.7583633661270142,9.663596153259277,-18.37158203125,0.67138671875,0.3662109375
1.3374999,0.9816226959228516,-0.6913257241249084,9.86111831665039,18.37158203125,-0.67138671875,-1.251220703125
1.3424999000000002,0.9277531504631042,-0.7691373229026794,9.671976089477539,-18.096923828125,0.8544921875,0.8544921875
1.3474999,1.0157400369644165,-0.6949170231819153,9.854534149169922,18.06640625,-0.457763671875,-1.617431640625
1.3524999000000002,0.950498104095459,-0.7266402244567871,9.693524360656738,-17.913818359375,0.8544921875,1.373291015625
1.3574999,1.0414776802062988,-0.6841431260108948,9.821015357971191,17.486572265625,-0.885009765625,-2.38037109375
1.3624999000000002,0.9564836025238037,-0.6512228846549988,9.729436874389648,-17.27294921875,1.40380859375,2.01416015625
1.3674999,1.0241197347640991,-0.6997054219245911,9.77791976928711,17.181396484375,-1.251220703125,-3.204345703125
1.3724999000000002,0.970848798751831,-0.7218518257141113,9.731232643127441,15.838623046875,-1.28173828125,-3.90625
1.3774999,0.9433154463768005,-0.618302583694458,9.692925453186035,-14.5263671875,1.40380859375,4.0283203125
1.3824999000000002,0.9558850526809692,-0.7631517648696899,9.674968719482422,13.519287109375,-1.556396484375,-5.157470703125
1.3874999000000001,0.9487023949623108,-0.5710170865058899,9.730634689331055,-12.725830078125,1.251220703125,5.096435546875
1.3924999000000002,0.9672574996948242,-0.7715315222740173,9.663596153259277,11.3525390625,-1.922607421875,-5.92041015625
1.3974999000000001,0.9684545993804932,-0.558447539806366,9.795876502990723,-9.58251953125,1.40380859375,5.9814453125
1.4024999000000002,0.960673451423645,-0.7936778664588928,9.64803409576416,7.537841796875,-1.983642578125,-6.683349609375
1.4074999000000001,0.9576807022094727,-0.6278793811798096,9.870695114135742,-5.615234375,1.373291015625,6.500244140625
1.4124999,0.9481038451194763,-0.8439561128616333,9.595361709594727,3.875732421875,-2.044677734375,-7.4462890625
1.4174999000000001,0.9475052952766418,-0.6937199234962463,9.952696800231934,-1.129150390625,1.434326171875,6.591796875
1.4224999,0.945111095905304,-0.8535329103469849,9.585784912109375,-1.28173828125,-2.13623046875,-7.110595703125
1.4274999000000002,0.9882067441940308,-0.702099621295929,10.039485931396484,3.2958984375,1.068115234375,6.2255859375
1.4324999,1.0618284940719604,-0.6458359360694885,9.988011360168457,8.11767578125,1.068115234375,5.279541015625
1.4374999000000002,0.9193734526634216,-0.8439561128616333,9.500192642211914,-10.68115234375,-1.007080078125,-5.035400390625
1.4424999,1.0570400953292847,-0.6039373874664307,9.84495735168457,12.26806640625,1.068115234375,3.7841796875
1.4474999000000002,0.8858546018600464,-0.8589198589324951,9.518148422241211,-13.916015625,0.06103515625,-2.960205078125
1.4524999,1.025316834449768,-0.6458359360694885,9.791686058044434,15.13671875,0.48828125,1.3427734375
1.4574999000000002,0.9097966551780701,-0.8583213090896606,9.604938507080078,-15.350341796875,0.732421875,-0.6103515625
1.4624999,1.0097545385360718,-0.7104793787002563,9.79408073425293,15.9912109375,-0.30517578125,-1.46484375
1.4674999000000002,0.9247604012489319,-0.7212532758712769,9.709086418151855,-14.984130859375,0.79345703125,2.166748046875
1.4724999,0.9672574996948242,-0.6991068720817566,9.747393608093262,14.0380859375,-0.732421875,-3.814697265625
1.4774999000000002,0.9385270476341248,-0.517746090888977,9.778518676757812,-11.566162109375,1.220703125,4.425048828125
1.4824999,0.6314706802368164,-0.5039794445037842,9.223662376403809,9.3994140625,-1.28173828125,-5.950927734375
1.4874999000000002,0.6338648796081543,-1.27191960811615,8.91421127319336,18.798828125,-2.655029296875,2.166748046875
1.4924999,0.8146271109580994,-3.110666513442993,7.956530570983887,69.27490234375,-21.087646484375,-10.101318359375
1.4974999000000002,0.17298106849193573,-3.29502010345459,7.126341342926025,160.125732421875,-5.706787109375,-37.261962890625
1.5024999,1.4646528959274292,-2.252943754196167,7.275380611419678,33.50830078125,-17.333984375,-7.354736328125
1.5074999000000002,0.8050503134727478,0.4225766062736511,6.34643030166626,113.28125,-49.591064453125,-61.065673828125
1.5124999000000001,1.3832499980926514,2.5905263423919678,5.8406548500061035,19.53125,-64.056396484375,-17.486572265625
1.5174999000000002,1.0097545385360718,4.8051629066467285,4.926070213317871,11.04736328125,-51.20849609375,-56.7626953125
1.5224999000000001,1.193509578704834,6.317699909210205,4.793790340423584,4.852294921875,-37.445068359375,-49.9267578125
1.5274999000000002,1.192312479019165,6.539762020111084,4.4705729484558105,-28.62548828125,-23.8037109375,-42.083740234375
1.5324999000000001,1.6352397203445435,6.577470779418945,5.219958305358887,-65.185546875,-6.134033203125,-6.988525390625
1.5374999000000003,1.823184609413147,5.834071159362793,5.329493045806885,-98.480224609375,13.5498046875,3.204345703125
1.5424999000000001,2.1559786796569824,5.390544891357422,6.13633918762207,-113.372802734375,34.576416015625,32.623291015625
1.5474999,2.168548107147217,4.387973308563232,6.262633323669434,-140.411376953125,53.985595703125,35.125732421875
1.5524999000000002,2.758718967437744,0.7296329736709595,10.229227066040039,-81.60400390625,85.784912109375,32.28759765625
1.5574999,2.8604724407196045,-1.8010382652282715,12.959814071655273,8.23974609375,47.05810546875,11.41357421875
1.5624999000000002,2.4169466495513916,-4.432864665985107,14.284405708312988,-19.6533203125,4.974365234375,-5.859375
1.5674999,1.5269020795822144,-5.690418720245361,13.798382759094238,-29.327392578125,3.35693359375,2.25830078125
1.5724999000000002,0.27413609623908997,-5.998073577880859,11.095928192138672,-29.9072265625,4.08935546875,-17.333984375
1.5774999,-0.788889467716217,-5.171475887298584,8.116942405700684,0.732421875,12.115478515625,-13.5498046875
1.5824999000000002,-1.4281413555145264,-4.496310710906982,5.811924457550049,0.30517578125,16.143798828125,-16.357421875
1.5874999,-1.6047136783599854,-3.892971992492676,5.471948146820068,38.787841796875,3.875732421875,-7.415771484375
1.5924999000000002,-1.4323312044143677,-3.6822822093963623,6.296152114868164,30.609130859375,-8.056640625,-7.01904296875
1.5974999,-0.839766263961792,-3.2112231254577637,8.248024940490723,51.177978515625,-18.646240234375,-4.82177734375
1.6024999000000002,-0.2825157940387726,-2.4851813316345215,9.852140426635742,11.53564453125,-16.571044921875,-2.685546875
1.6074999,0.4812345504760742,-1.1743559837341309,11.05283260345459,31.55517578125,-13.946533203125,-5.7373046875
1.6124999000000002,1.6376339197158813,1.3491326570510864,11.253945350646973,6.988525390625,-6.89697265625,-5.7373046875
1.6174999,1.9925743341445923,2.0883424282073975,10.9307279586792,-18.280029296875,-1.251220703125,6.561279296875
1.6224999000000002,2.117072820663452,1.8872294425964355,10.345345497131348,-3.143310546875,1.5869140625,-2.288818359375
1.6274999,2.0171148777008057,1.5304933786392212,10.078990936279297,-22.52197265625,4.669189453125,10.406494140625
1.6324999000000002,1.68970787525177,0.2885012924671173,9.64683723449707,-6.103515625,2.105712890625,-2.899169921875
1.6374999000000001,1.334767460823059,-0.5704185366630554,9.68694019317627,-7.14111328125,3.997802734375,7.568359375
1.6424999000000002,0.9289502501487732,-1.6178817749023438,9.327211380004883,-1.89208984375,-0.091552734375,-7.049560546875
1.6474999000000001,0.7428010702133179,-2.0033483505249023,9.518747329711914,7.9345703125,1.52587890625,4.241943359375
1.6524999000000002,0.545877993106842,-2.167949676513672,9.210494041442871,0.8544921875,-0.335693359375,-7.26318359375
1.6574999000000001,0.6925228238105774,-1.7597382068634033,9.551069259643555,16.754150390625,1.03759765625,2.777099609375
1.6624999000000003,0.6841431260108948,-1.4951789379119873,9.465476036071777,-5.523681640625,-0.06103515625,-4.608154296875
1.6674999000000001,0.9558850526809692,-0.7026981711387634,9.86770248413086,15.777587890625,0.9765625,0.762939453125
1.6724999,1.1103110313415527,-0.02513911761343479,10.04427433013916,12.115478515625,0.244140625,-0.640869140625
1.6774999000000002,1.0660183429718018,-0.02214636653661728,9.935338973999023,-17.2119140625,1.03759765625,3.60107421875
1.6824999,0.9876081943511963,-0.3172317147254944,9.819818496704102,-11.688232421875,0.640869140625,5.035400390625
1.6874999000000002,0.9097966551780701,-0.8553285598754883,9.630077362060547,6.683349609375,-3.0517578125,-6.500244140625
1.6924999,0.8930372595787048,-0.8738836050033569,9.73781681060791,-2.044677734375,0.091552734375,4.852294921875
1.6974999000000002,0.8696937561035156,-1.2156559228897095,9.464279174804688,1.89208984375,-2.3193359375,-6.9580078125
1.7024999,0.9906009435653687,-0.9367313981056213,9.797073364257812,6.561279296875,1.0986328125,5.0048828125
1.7074999000000002,0.9415197968482971,-1.002571940422058,9.514557838439941,-5.92041015625,-0.06103515625,-5.0048828125
1.7124999,1.128267526626587,-0.5716156363487244,9.910798072814941,10.650634765625,1.77001953125,3.387451171875
1.7174999000000002,1.0121487379074097,-0.6320692300796509,9.66419506072998,-13.580322265625,0.885009765625,-1.861572265625
1.7224999,1.1091139316558838,-0.40222588181495667,9.914987564086914,12.237548828125,0.8544921875,-0.030517578125
1.7274999000000002,0.9080010056495667,-0.6189011335372925,9.807847023010254,-9.918212890625,0.701904296875,4.69970703125
1.7324999,0.8517372608184814,-0.9624691009521484,9.642647743225098,6.439208984375,-2.532958984375,-5.950927734375
1.7374999000000002,0.8517372608184814,-0.9624691009521484,9.642647743225098,6.439208984375,-2.532958984375,-5.950927734375
1.7424999,0.9193734526634216,-0.8110358119010925,9.835380554199219,-1.3427734375,0.030517578125,5.615234375
1.7474999000000002,0.8834604024887085,-1.0402805805206299,9.533711433410645,-1.708984375,-1.77001953125,-5.9814453125
1.7524999,1.028908133506775,-0.7745242714881897,9.929352760314941,6.927490234375,0.67138671875,4.302978515625
1.7574999000000002,0.9522937536239624,-0.9510966539382935,9.624691009521484,-9.6435546875,0.030517578125,-3.570556640625
1.7624999000000001,1.0103530883789062,-0.6865373253822327,9.736021041870117,-13.031005859375,1.220703125,0.457763671875
1.7674999000000002,1.0103530883789062,-0.6865373253822327,9.736021041870117,-13.031005859375,1.220703125,0.457763671875
1.7724999000000001,1.0672154426574707,-0.6637924313545227,9.730035781860352,12.237548828125,-0.3662109375,-2.62451171875
1.7774999000000002,1.0283095836639404,-0.5027823448181152,9.77133560180664,-10.406494140625,1.220703125,3.96728515625
1.7824999000000001,1.003769040107727,-0.5949591398239136,9.857526779174805,-2.0751953125,1.15966796875,5.4931640625
1.7874999000000003,0.8858546018600464,-0.8762778043746948,9.565434455871582,-2.50244140625,-1.617431640625,-5.4931640625
1.7924999000000001,0.9864110946655273,-0.6607996821403503,9.917980194091797,7.2021484375,0.244140625,4.058837890625
1.7974999,0.8577227592468262,-0.8708908557891846,9.644442558288574,-10.894775390625,-0.42724609375,-2.44140625
1.8024999000000002,0.9977835416793823,-0.669179379940033,9.880271911621094,12.14599609375,0.030517578125,0.274658203125
1.8074999,0.9582792520523071,-0.6877344250679016,9.758766174316406,-12.725830078125,1.190185546875,1.739501953125
1.8124999000000002,0.993593692779541,-0.7697358727455139,9.724050521850586,10.498046875,-0.8544921875,-3.936767578125
1.8174999,1.0121487379074097,-0.6027402877807617,9.822811126708984,-7.110595703125,1.251220703125,4.730224609375
1.8224999000000002,0.9427168965339661,-0.8822633028030396,9.563039779663086,2.38037109375,-0.732421875,-5.767822265625
1.8274999,1.0313023328781128,-0.6913257241249084,9.890447616577148,3.265380859375,1.007080078125,4.791259765625
1.8324999000000002,0.9301473498344421,-0.9540894031524658,9.569025993347168,-6.89697265625,-0.1220703125,-4.08935546875
1.8374999,1.0564415454864502,-0.6979097723960876,9.815628051757812,11.260986328125,0.244140625,1.495361328125
1.8424999000000002,0.9810241460800171,-0.5285200476646423,9.813833236694336,-8.9111328125,1.190185546875,4.364013671875
1.8474999,0.9810241460800171,-0.5285200476646423,9.813833236694336,-8.9111328125,1.190185546875,4.364013671875
1.8524999000000002,0.9313444495201111,-0.729034423828125,9.64923095703125,3.96728515625,-1.64794921875,-5.584716796875
1.8574999,1.0145429372787476,-0.5267243981361389,9.91977596282959,0.91552734375,0.91552734375,4.974365234375
1.8624999000000002,0.8882488012313843,-0.8242039084434509,9.639056205749512,-6.28662109375,-0.9765625,-4.425048828125
1.8674999,0.9888052940368652,-0.6404489278793335,9.889249801635742,10.040283203125,0.06103515625,2.044677734375
1.8724999000000002,0.8643068075180054,-0.7996633648872375,9.7605619430542,-11.8408203125,-0.18310546875,-0.1220703125
1.8774999,0.9163807034492493,-0.7475894689559937,9.77133560180664,11.444091796875,-0.091552734375,-2.62451171875
1.8824999000000002,0.9139865040779114,-0.628477931022644,9.86770248413086,-8.026123046875,1.312255859375,4.302978515625
1.8874999000000001,0.8774749040603638,-0.8194155097007751,9.665990829467773,3.204345703125,-1.52587890625,-5.55419921875
1.8924999000000002,0.9870096445083618,-0.6093243360519409,9.941922187805176,1.89208984375,0.701904296875,4.791259765625
1.8974999000000001,0.889445960521698,-0.889445960521698,9.649829864501953,-6.89697265625,-0.48828125,-3.997802734375
1.9024999000000002,0.9624691009521484,-0.7930793166160583,9.712079048156738,-11.29150390625,0.335693359375,0.79345703125
1.9074999000000001,1.0013748407363892,-0.7721300721168518,9.633668899536133,10.009765625,-1.28173828125,-3.5400390625
1.9124999000000003,1.025316834449768,-0.6051344871520996,9.775525093078613,-5.859375,0.48828125,4.730224609375
1.9174999000000001,0.9283517003059387,-0.8200140595436096,9.510367393493652,0.67138671875,-0.48828125,-5.401611328125
1.9224999,1.0432734489440918,-0.6099228858947754,9.872490882873535,5.18798828125,0.732421875,3.936767578125
1.9274999000000002,0.921169102191925,-0.8122329115867615,9.588179588317871,-9.246826171875,0.030517578125,-2.349853515625
1.9324999,1.0348936319351196,-0.6955155730247498,9.804255485534668,11.383056640625,0,-0.67138671875
1.9374999000000002,0.9965864419937134,-0.6853402256965637,9.746196746826172,-10.19287109375,1.068115234375,2.777099609375
1.9424999,0.9870096445083618,-0.7960720658302307,9.653421401977539,6.561279296875,-0.946044921875,-4.94384765625
1.9474999000000002,1.05105459690094,-0.6033388376235962,9.874286651611328,-1.0986328125,0.701904296875,4.94384765625
1.9524999,0.9343371987342834,-0.8553285598754883,9.633668899536133,-4.547119140625,0.091552734375,-4.486083984375
1.9574999000000002,1.0348936319351196,-0.6602011322975159,9.850942611694336,8.941650390625,0.244140625,1.89208984375
1.9624999,0.9582792520523071,-0.7667431235313416,9.68933391571045,9.857177734375,-0.518798828125,-3.082275390625
1.9674999000000002,0.9636662006378174,-0.6374561786651611,9.84376049041748,-5.55419921875,1.190185546875,4.2724609375
1.9724999,0.8774749040603638,-0.8559271097183228,9.577404975891113,0.30517578125,-0.79345703125,-5.401611328125
1.9774999000000002,1.0001777410507202,-0.6542156338691711,9.891644477844238,5.950927734375,0.244140625,3.662109375
1.9824999,0.8882488012313843,-0.8170213103294373,9.603741645812988,-9.735107421875,-0.42724609375,-1.708984375
1.9874999000000002,1.0055646896362305,-0.7577648162841797,9.77791976928711,10.650634765625,-0.48828125,-1.373291015625
1.9924999,0.9864110946655273,-0.6757634282112122,9.752182006835938,-8.819580078125,0.67138671875,3.265380859375
1.9974999000000002,0.9481038451194763,-0.8367735147476196,9.633070945739746,4.0283203125,-0.823974609375,-5.18798828125
2.0024999,1.0199298858642578,-0.6757634282112122,9.88745403289795,10.223388671875,0.030517578125,0.091552734375
2.0074999,1.0199298858642578,-0.6757634282112122,9.88745403289795,10.223388671875,0.030517578125,0.091552734375
2.0124999000000003,0.9768342971801758,-0.6949170231819153,9.797672271728516,-10.19287109375,0.701904296875,2.288818359375
2.0174999000000002,0.40940847992897034,-1.6861165761947632,8.58919906616211,26.092529296875,-3.082275390625,-30.670166015625
2.0224999,0.17717093229293823,-2.5695769786834717,7.7446441650390625,67.352294921875,-8.544921875,-28.839111328125
2.0274999,0.4387374520301819,-0.943913996219635,7.193977355957031,84.1064453125,-10.833740234375,-44.036865234375
2.0324999000000004,0.8164227604866028,0.4040215313434601,5.962160587310791,-39.703369140625,-0.79345703125,23.0712890625
2.0374999000000003,1.1773487329483032,3.0585925579071045,5.946000099182129,-54.718017578125,-5.859375,4.730224609375
2.0424999,1.3395558595657349,4.455010890960693,5.480926036834717,2.25830078125,-4.21142578125,-11.505126953125
2.0474999,1.499967336654663,5.21097993850708,6.450577735900879,-2.99072265625,14.16015625,-1.52587890625
2.0524999,1.3856441974639893,4.632780075073242,7.593809127807617,-48.919677734375,16.143798828125,5.92041015625
2.0574999000000003,1.5436615943908691,3.401561975479126,9.767146110534668,-36.590576171875,8.4228515625,18.98193359375
2.0624999,1.3952209949493408,1.5047557353973389,11.211447715759277,-33.63037109375,5.9814453125,17.913818359375
2.0674999,1.1013327836990356,-0.6075286865234375,11.971607208251953,-6.256103515625,-3.204345703125,3.90625
2.0724999,0.3669114112854004,-3.5643677711486816,10.66137981414795,-9.6435546875,-5.950927734375,-4.2724609375
2.0774999000000003,0.3495534360408783,-3.90554141998291,9.545083999633789,13.946533203125,-2.5634765625,-0.06103515625
2.0824999,1.103128433227539,-1.43532395362854,9.197325706481934,11.505126953125,0.640869140625,-8.331298828125
2.0874999,1.3563152551651,-0.21188685297966003,10.02452278137207,8.758544921875,2.62451171875,1.708984375
2.0924999,1.2545616626739502,0.26755204796791077,10.032303810119629,-8.697509765625,2.960205078125,-1.739501953125
2.0974999000000003,1.3419500589370728,0.7709329724311829,10.338761329650879,6.16455078125,3.23486328125,1.251220703125
2.1024999,1.1803414821624756,0.6925228238105774,10.201693534851074,-16.05224609375,3.0517578125,5.0048828125
2.1074999,1.0031704902648926,0.14185644686222076,9.99220085144043,-0.9765625,-0.1220703125,-3.2958984375
2.1124999,0.910993754863739,-0.24241292476654053,10.052056312561035,-4.150390625,-0.396728515625,4.8828125
2.1174999000000003,0.8601169586181641,-1.3449428081512451,9.44752025604248,11.71875,-2.44140625,-4.180908203125
2.1224999,1.0690110921859741,-0.9253589510917664,9.66419506072998,-0.701904296875,0.91552734375,3.72314453125
2.1274999,1.0785878896713257,-0.9481038451194763,9.530119895935059,-2.44140625,1.312255859375,-4.608154296875
2.1324999,1.2461819648742676,-0.4668693244457245,9.860519409179688,7.110595703125,2.716064453125,2.105712890625
2.1374999000000003,1.1534066200256348,-0.44532153010368347,9.759963035583496,-11.90185546875,2.86865234375,0.579833984375
2.1424999000000002,1.0947487354278564,-0.4513070285320282,9.774328231811523,6.927490234375,0.9765625,-2.410888671875
2.1474999,1.0205284357070923,-0.41120412945747375,9.875483512878418,-6.40869140625,1.46484375,4.669189453125
2.1524999,0.7906851172447205,-0.821809709072113,9.627084732055664,-1.64794921875,-1.373291015625,-4.638671875
2.1574999000000004,0.8433575630187988,-0.7553706169128418,9.822212219238281,7.171630859375,-1.129150390625,2.44140625
2.1624999000000003,0.7164648771286011,-0.9074024558067322,9.651026725769043,-8.697509765625,-1.800537109375,-1.007080078125
2.1674999,0.8248024582862854,-0.9570821523666382,9.688735961914062,11.260986328125,-1.922607421875,-2.838134765625
2.1724999,0.9301473498344421,-0.7080851793289185,9.841964721679688,-4.82177734375,-0.213623046875,3.72314453125
2.1774999000000004,0.9181763529777527,-0.872686505317688,9.603741645812988,0.579833984375,-0.823974609375,-4.638671875
2.1824999000000003,1.1288660764694214,-0.5542576909065247,9.914987564086914,5.523681640625,0.701904296875,3.021240234375
2.1874999,1.0408791303634644,-0.6362590789794922,9.713874816894531,-10.955810546875,1.0986328125,-0.579833984375
2.1924999,1.1192892789840698,-0.639850378036499,9.780912399291992,8.85009765625,0.54931640625,-2.01416015625
2.1974999,1.0965443849563599,-0.5596446394920349,9.874884605407715,-6.500244140625,1.953125,3.84521484375
2.2024999000000003,0.9481038451194763,-0.8529343605041504,9.587580680847168,0.3662109375,0,-4.913330078125
2.2074999,1.0444705486297607,-0.6799532771110535,9.847949981689453,6.53076171875,0.67138671875,2.777099609375
2.2124999,0.8774749040603638,-0.7858967185020447,9.625887870788574,-8.6669921875,0.06103515625,-1.03759765625
2.2174999,0.9469067454338074,-0.7966706156730652,9.713275909423828,9.94873046875,-1.007080078125,-2.410888671875
2.2224999000000003,0.9648633003234863,-0.596754789352417,9.843161582946777,-5.828857421875,0.213623046875,3.90625
2.2274999,0.8792705535888672,-0.8236053586006165,9.59835433959961,-0.213623046875,-1.0986328125,-4.39453125
2.2324999,0.9894038438796997,-0.8349778652191162,9.678560256958008,8.7890625,-0.54931640625,-3.173828125
2.2374999,1.0420763492584229,-0.6057330369949341,9.84615421295166,-3.326416015625,0.91552734375,4.08935546875
2.2424999000000003,1.0187327861785889,-0.5979518890380859,9.845556259155273,8.056640625,-0.30517578125,1.40380859375
2.2474999,0.9768342971801758,-0.6751648783683777,9.780912399291992,-10.101318359375,0.274658203125,1.068115234375
2.2524999,1.0528502464294434,-0.5422866940498352,9.87967300415039,-1.220703125,0.67138671875,4.33349609375
2.2574999,0.9283517003059387,-0.828393816947937,9.658807754516602,-5.31005859375,-0.54931640625,-3.35693359375
2.2624999000000003,1.0241197347640991,-0.6745663285255432,9.77133560180664,9.552001953125,0.152587890625,0.06103515625
2.2674999000000002,1.0073603391647339,-0.6805518269538879,9.712079048156738,-8.7890625,1.373291015625,2.166748046875
2.2724999,0.9343371987342834,-0.8361749649047852,9.59177017211914,4.425048828125,-0.701904296875,-4.364013671875
2.2774999,1.0307037830352783,-0.646434485912323,9.852738380432129,1.953125,0.8544921875,3.72314453125
2.2824999000000004,0.8846575021743774,-0.9169792532920837,9.635464668273926,-7.965087890625,0.152587890625,-2.044677734375
2.2874999000000003,0.9546879529953003,-0.8373720645904541,9.82759952545166,9.46044921875,-0.274658203125,-1.251220703125
2.2924999,0.9199720025062561,-0.7260416746139526,9.821614265441895,-6.927490234375,0.30517578125,3.143310546875
2.2974999,0.8559271097183228,-0.8702923059463501,9.610325813293457,1.52587890625,-1.068115234375,-4.5166015625
2.3024999000000004,0.9726444482803345,-0.5883750915527344,9.880271911621094,5.126953125,0.335693359375,2.716064453125
2.3074999000000003,0.8954314589500427,-0.70090252161026,9.691728591918945,-9.063720703125,-0.518798828125,-0.762939453125
2.3124999,1.0301052331924438,-0.5608417391777039,9.84376049041748,-4.150390625,0.732421875,3.90625
2.3174999,0.9720458984375,-0.8595184087753296,9.601945877075195,-2.593994140625,-0.67138671875,-4.119873046875
2.3224999,1.071405291557312,-0.619499683380127,9.786897659301758,7.9345703125,-0.213623046875,1.129150390625
2.3274999000000003,1.0319008827209473,-0.7056909799575806,9.75397777557373,-9.82666015625,0.3662109375,1.434326171875
2.3324999,0.9756371974945068,-0.7882909178733826,9.67077922821045,5.706787109375,-0.91552734375,-3.84521484375
2.3374999,1.0492589473724365,-0.5871779918670654,9.928155899047852,0.579833984375,0.518798828125,3.814697265625
2.3424999,0.8858546018600464,-0.8044517636299133,9.649829864501953,-6.65283203125,0.18310546875,-2.655029296875
2.3474999000000003,0.9923965930938721,-0.7080851793289185,9.786299705505371,9.307861328125,-0.18310546875,-0.91552734375
2.3524999,0.9487023949623108,-0.6099228858947754,9.766547203063965,-7.293701171875,1.129150390625,3.204345703125
2.3574999,0.9056068062782288,-0.7751228213310242,9.547477722167969,1.3427734375,-0.54931640625,-4.45556640625
2.3624999,1.013944387435913,-0.5566518902778625,9.825204849243164,5.279541015625,0.30517578125,2.5634765625
2.3674999000000003,0.9373299479484558,-0.689530074596405,9.66299819946289,-8.636474609375,0.732421875,-0.48828125
2.3724999,0.9678560495376587,-0.7481880187988281,9.692327499389648,8.30078125,-0.457763671875,-3.0517578125
2.3774999,1.0169371366500854,-0.5859808921813965,9.853935241699219,-2.9296875,0.640869140625,3.997802734375
2.3824999,0.9229647517204285,-0.8756792545318604,9.651625633239746,-4.241943359375,-0.518798828125,-3.41796875
2.3874999000000003,0.9762357473373413,-0.6560112833976746,9.809642791748047,8.48388671875,-0.18310546875,0.396728515625
2.3924999000000002,0.9600749015808105,-0.7158663272857666,9.774328231811523,-8.697509765625,0.762939453125,2.166748046875
2.3974999,0.872686505317688,-0.8140285611152649,9.668983459472656,4.5166015625,-0.42724609375,-4.058837890625
2.4024999,0.8732850551605225,-0.8104372620582581,9.724050521850586,-7.99560546875,-0.274658203125,-1.46484375
2.4074999000000004,0.9600749015808105,-0.8092401623725891,9.79288387298584,8.819580078125,-0.885009765625,-2.166748046875
2.4124999000000003,1.0091559886932373,-0.6643909811973572,9.836577415466309,-4.852294921875,0.335693359375,3.509521484375
2.4174999,0.9522937536239624,-0.9115923047065735,9.579200744628906,-1.89208984375,-0.42724609375,-3.875732421875
2.4224999,1.0791864395141602,-0.6619967818260193,9.742605209350586,7.62939453125,0.091552734375,1.3427734375
2.4274999000000004,1.0462661981582642,-0.6212953329086304,9.898228645324707,1.434326171875,0.762939453125,3.448486328125
2.4324999000000003,1.0462661981582642,-0.6212953329086304,9.898228645324707,1.434326171875,0.762939453125,3.448486328125
2.4374999,0.8906430602073669,-0.8565256595611572,9.658209800720215,-7.38525390625,-0.335693359375,-1.922607421875
2.4424999,0.9475052952766418,-0.768538773059845,9.782109260559082,9.033203125,-0.30517578125,-1.52587890625
2.4474999,0.960673451423645,-0.6613982319831848,9.782109260559082,-5.462646484375,1.007080078125,3.2958984375
2.4524999000000003,0.8912416100502014,-0.8445546627044678,9.599552154541016,-1.3427734375,-0.762939453125,-3.997802734375
2.4574999,1.0187327861785889,-0.5871779918670654,9.797672271728516,6.77490234375,0,1.5869140625
2.4624999,0.9068039059638977,-1.028908133506775,9.740809440612793,-8.636474609375,0.30517578125,1.007080078125
2.4674999,0.3585317134857178,-1.7178397178649902,8.833407402038574,18.829345703125,-0.762939453125,-14.95361328125
2.4724999000000003,0.22026655077934265,-2.4133553504943848,8.275558471679688,68.450927734375,-4.608154296875,-11.41357421875
2.4774999,-0.6775590777397156,-3.2632968425750732,7.503427982330322,137.75634765625,-8.148193359375,-23.01025390625
2.4824999,1.0654197931289673,7.8278422355651855,5.948992729187012,-37.078857421875,-5.645751953125,-12.26806640625
2.4874999,1.4101848602294922,6.777386665344238,6.157886981964111,-84.259033203125,7.6904296875,14.739990234375
2.4924999000000003,1.6741455793380737,5.094262599945068,6.5499372482299805,-98.236083984375,23.681640625,26.2451171875
2.4974999,2.121262788772583,3.512892484664917,8.36833381652832,-81.390380859375,39.154052734375,37.78076171875
2.5024999,2.3074119091033936,0.8457517623901367,10.610503196716309,-55.23681640625,38.75732421875,28.228759765625
2.5074999,2.2170307636260986,-1.632246971130371,12.860454559326172,-9.1552734375,14.95361328125,10.833740234375
2.5124999000000003,1.9153614044189453,-3.904344320297241,13.994109153747559,-24.169921875,-1.129150390625,12.603759765625
2.5174999000000002,1.062427043914795,-5.4480061531066895,13.057377815246582,-23.0712890625,-3.448486328125,0.335693359375
2.5224999,0.314238965511322,-5.551555156707764,10.78228759765625,0.091552734375,3.5400390625,-3.96728515625
2.5274999,-0.5764040350914001,-4.243124008178711,6.819284915924072,23.345947265625,3.41796875,-13.580322265625
2.5324999000000004,-0.3489548861980438,-3.3901896476745605,6.919242858886719,33.599853515625,-1.068115234375,-5.859375
2.5374999000000003,-0.013168109580874443,-2.649184226989746,7.873332500457764,20.904541015625,-4.45556640625,-5.950927734375
2.5424999,0.47644615173339844,-1.8399440050125122,9.240421295166016,30.242919921875,-6.744384765625,-4.5166015625
2.5474999,0.9373299479484558,-0.7003039717674255,10.431536674499512,9.063720703125,-8.11767578125,1.03759765625
2.5524999000000004,1.157596468925476,0.16759411990642548,10.718840599060059,1.953125,-5.401611328125,-4.791259765625
2.5574999000000003,1.482010841369629,1.1767501831054688,10.933720588684082,4.7607421875,-1.708984375,0.42724609375
2.5624999,1.1917139291763306,-0.2041056901216507,9.766547203063965,-13.427734375,1.220703125,-0.1220703125
2.5674999,0.9971849918365479,-1.0923545360565186,9.627084732055664,6.256103515625,-0.946044921875,-1.617431640625
2.5724999,0.6476315855979919,-2.0608091354370117,9.21827507019043,5.157470703125,-1.922607421875,-5.06591796875
2.5774999000000003,0.7769184708595276,-1.6813281774520874,9.427168846130371,13.61083984375,-0.030517578125,0.579833984375
2.5824999,0.8804676532745361,-1.4526818990707397,9.498994827270508,-3.5400390625,-0.152587890625,-0.030517578125
2.5874999,0.9654618501663208,-0.9397241473197937,9.645041465759277,8.026123046875,0.579833984375,-4.0283203125
2.5924999,1.1522095203399658,-0.38546648621559143,10.022727012634277,-0.67138671875,2.166748046875,3.570556640625
2.5974999000000003,0.9995791912078857,-0.32381579279899597,9.852140426635742,-9.8876953125,0.762939453125,-1.190185546875
2.6024999,1.0492589473724365,-0.17477671802043915,10.003573417663574,5.79833984375,0.54931640625,0.335693359375
2.6074999,0.9493009448051453,-0.3082534670829773,9.929352760314941,-8.36181640625,0.3662109375,3.692626953125
2.6124999,0.8451532125473022,-0.6811503767967224,9.699509620666504,-1.068115234375,-1.708984375,-4.180908203125
2.6174999000000003,0.9050082564353943,-0.751779317855835,9.781511306762695,6.28662109375,-0.885009765625,1.373291015625
2.6224999,0.8942343592643738,-0.9911994934082031,9.633070945739746,-6.988525390625,-1.678466796875,-0.335693359375
2.6274999,0.889445960521698,-1.1115081310272217,9.559449195861816,8.72802734375,-1.373291015625,-3.84521484375
2.6324999,0.9672574996948242,-0.9103952050209045,9.59835433959961,-4.45556640625,-0.152587890625,-2.50244140625
2.6374999000000003,1.1103110313415527,-0.6751648783683777,9.822212219238281,8.30078125,0.91552734375,-0.701904296875
2.6424999000000002,1.0875661373138428,-0.47225627303123474,9.820416450500488,-7.537841796875,2.01416015625,3.387451171875
2.6474999,1.0127472877502441,-0.5937620401382446,9.6803560256958,-1.678466796875,-0.579833984375,-3.692626953125
2.6524999,1.058835744857788,-0.44532153010368347,9.859322547912598,5.035400390625,1.129150390625,1.983642578125
2.6574999000000004,0.9690531492233276,-0.6368576288223267,9.761159896850586,-8.85009765625,0,0.732421875
2.6624999000000003,0.8738836050033569,-0.8140285611152649,9.708487510681152,6.103515625,-1.556396484375,-3.509521484375
2.6674999,0.9654618501663208,-0.7445967197418213,9.920374870300293,1.068115234375,-0.030517578125,3.2958984375
2.6724999,0.8110358119010925,-0.9612720012664795,9.654618263244629,-6.072998046875,-1.03759765625,-2.410888671875
2.6774999000000004,0.9265560507774353,-0.8601169586181641,9.783307075500488,8.941650390625,-0.79345703125,-1.46484375
2.6824999000000003,0.9642647504806519,-0.7044938206672668,9.750386238098145,-5.340576171875,0.335693359375,3.173828125
2.6874999,0.9564836025238037,-0.8008604645729065,9.59476375579834,-1.434326171875,-0.457763671875,-3.60107421875
2.6924999,0.9044097065925598,-0.8331822156906128,9.744999885559082,-6.866455078125,-0.091552734375,-1.46484375
2.6974999,0.9493009448051453,-0.8265981078147888,9.771934509277344,8.697509765625,-0.823974609375,-2.0751953125
2.7024999000000003,0.9852139949798584,-0.6619967818260193,9.832986831665039,-3.326416015625,0.30517578125,3.387451171875
2.7074999,0.9289502501487732,-0.7858967185020447,9.621099472045898,-3.2958984375,-1.312255859375,-3.41796875
2.7124999,1.0199298858642578,-0.6254851818084717,9.741408348083496,7.049560546875,0.244140625,0.518798828125
2.7174999,1.0091559886932373,-0.5997475385665894,9.732429504394531,-7.965087890625,0.732421875,2.3193359375
2.7224999000000003,0.9828197956085205,-0.8098387122154236,9.830592155456543,8.148193359375,-0.42724609375,-0.885009765625
2.7274999,0.9684545993804932,-0.6853402256965637,9.78989028930664,-5.584716796875,0.335693359375,3.265380859375
2.7324999,0.9498994946479797,-0.7996633648872375,9.61212158203125,-1.312255859375,-1.0986328125,-3.96728515625
2.7374999,1.0432734489440918,-0.6003460884094238,9.774927139282227,7.049560546875,0.244140625,1.03759765625
2.7424999000000003,1.0247182846069336,-0.657806932926178,9.693524360656738,-7.720947265625,0.396728515625,1.46484375
2.7474999,0.9493009448051453,-0.7511807680130005,9.641449928283691,3.47900390625,-0.9765625,-3.814697265625
2.7524999,1.0450690984725952,-0.6177040338516235,9.825803756713867,3.2958984375,0.54931640625,2.838134765625
2.7574999,0.9528923034667969,-0.7823054194450378,9.732429504394531,-7.781982421875,-0.091552734375,-0.701904296875
2.7624999000000003,0.9415197968482971,-0.800261914730072,9.731831550598145,7.080078125,-0.701904296875,-2.716064453125
2.7674999000000002,1.0414776802062988,-0.6985083222389221,9.896432876586914,-1.64794921875,0.79345703125,3.5400390625
2.7724999,0.9768342971801758,-0.7386112213134766,9.785101890563965,7.8125,-0.213623046875,-0.732421875
2.7774999,0.9397241473197937,-0.639850378036499,9.753378868103027,-5.55419921875,0.640869140625,3.204345703125
2.7824999000000004,0.9187749028205872,-0.8301894664764404,9.615114212036133,-0.9765625,-0.9765625,-3.90625
2.7874999000000003,1.0103530883789062,-0.645237386226654,9.778518676757812,6.89697265625,-0.152587890625,1.190185546875
2.7924999,0.983418345451355,-0.7499836683273315,9.693524360656738,-8.087158203125,-0.030517578125,1.46484375
2.7974999,0.9319429993629456,-0.8194155097007751,9.660005569458008,3.326416015625,-1.15966796875,-3.90625
2.8024999000000004,1.0342950820922852,-0.6925228238105774,9.845556259155273,3.5400390625,0.3662109375,2.74658203125
2.8074999000000003,0.973242998123169,-0.8038532137870789,9.762357711791992,-7.87353515625,-0.335693359375,-0.30517578125
2.8124999,0.960673451423645,-0.8373720645904541,9.767744064331055,6.40869140625,-0.54931640625,-3.0517578125
2.8174999,1.0767922401428223,-0.7068880796432495,9.947908401489258,-0.885009765625,0.9765625,3.265380859375
2.8224999,0.9181763529777527,-0.8565256595611572,9.680954933166504,-6.317138671875,-0.640869140625,-2.13623046875
2.8274999000000003,1.0031704902648926,-0.7601590156555176,9.778518676757812,8.36181640625,-0.244140625,-1.373291015625
2.8324999,0.9642647504806519,-0.7882909178733826,9.57979965209961,-2.777099609375,-1.220703125,-3.265380859375
2.8374999,1.0295066833496094,-0.5925649404525757,9.725846290588379,7.32421875,0.091552734375,0.518798828125
2.8424999,1.0043675899505615,-0.6368576288223267,9.709086418151855,-7.080078125,0.335693359375,2.01416015625
2.8474999000000003,0.9289502501487732,-0.74040687084198,9.635464668273926,1.77001953125,-0.701904296875,-3.72314453125
2.8524999,0.9971849918365479,-0.6200982332229614,9.821015357971191,4.8828125,0.518798828125,2.044677734375
2.8574999,0.9498994946479797,-0.730231523513794,9.758167266845703,-7.62939453125,0.701904296875,0.3662109375
2.8624999,0.9068039059638977,-0.8547300100326538,9.761758804321289,5.06591796875,-0.9765625,-3.41796875
2.8674999000000003,1.0420763492584229,-0.7032967209815979,9.955090522766113,1.953125,0.42724609375,3.143310546875
2.8724999,0.9175778031349182,-0.849941611289978,9.777320861816406,-6.805419921875,-0.42724609375,-1.251220703125
2.8774999,0.9600749015808105,-0.8062474131584167,9.765948295593262,7.781982421875,-0.1220703125,-2.25830078125
2.8824999,0.8966285586357117,-0.7864952683448792,9.558850288391113,-5.126953125,-0.457763671875,-2.62451171875
2.8874999000000003,0.9906009435653687,-0.656609833240509,9.724050521850586,-5.401611328125,0.8544921875,3.021240234375
2.8924999000000002,0.9744400978088379,-0.8277952671051025,9.606734275817871,-1.3427734375,-1.15966796875,-3.60107421875
2.8974999,1.0528502464294434,-0.679354727268219,9.786299705505371,6.9580078125,0.518798828125,0.823974609375
2.9024999,1.0324994325637817,-0.7200561761856079,9.75278091430664,-6.439208984375,0.885009765625,1.617431640625
2.9074999000000004,0.9528923034667969,-0.7984662652015686,9.65222454071045,2.288818359375,-0.640869140625,-3.662109375
2.9124999000000003,1.1647791862487793,-1.5879542827606201,9.41519832611084,4.39453125,2.227783203125,-1.0986328125
2.9174999,1.5442601442337036,-2.117072820663452,8.400056838989258,5.767822265625,12.02392578125,-14.58740234375
2.9224999,1.6047136783599854,-2.915539026260376,7.608773231506348,78.7353515625,19.6533203125,-40.83251953125
2.9274999000000004,2.0027496814727783,-1.9387048482894897,7.466916561126709,80.291748046875,19.317626953125,-15.167236328125
2.9324999000000003,1.2779051065444946,-0.821809709072113,7.338228225708008,15.07568359375,21.881103515625,-4.2724609375
2.9374999,0.961870551109314,2.1356279850006104,8.103774070739746,52.24609375,12.298583984375,-16.082763671875
2.9424999,0.6033388376235962,3.8935704231262207,8.607154846191406,4.486083984375,-1.708984375,1.495361328125
2.9474999,-0.3106476664543152,4.555567264556885,7.875726699829102,-74.03564453125,-4.058837890625,13.946533203125
2.9524999000000003,0.010175357572734356,2.8443117141723633,9.061454772949219,-58.9599609375,-6.561279296875,24.810791015625
2.9574999,0.33339259028434753,0.2902969419956207,10.51413631439209,-44.49462890625,-11.383056640625,19.134521484375
2.9624999,0.6607996821403503,-1.9434932470321655,11.872247695922852,-15.93017578125,-19.195556640625,9.521484375
2.9674999,1.0336965322494507,-3.7475242614746094,12.318766593933105,-22.674560546875,-21.17919921875,10.19287109375
2.9724999000000003,1.0342950820922852,-4.855441093444824,11.25334644317627,-18.06640625,-18.341064453125,3.448486328125
2.9774999,1.1534066200256348,-5.08648157119751,9.46727180480957,8.1787109375,-10.894775390625,-1.007080078125
2.9824999,1.1534066200256348,-5.08648157119751,9.46727180480957,8.1787109375,-10.894775390625,-1.007080078125
2.9874999,1.3180080652236938,-4.548983097076416,8.090007781982422,13.73291015625,-0.457763671875,-1.220703125
2.9924999000000003,1.4957774877548218,-3.9851486682891846,7.3418192863464355,21.331787109375,4.638671875,-8.453369140625
2.9974999,1.889025092124939,-1.9764134883880615,8.762179374694824,12.939453125,11.77978515625,-2.838134765625
3.0024999,1.889025092124939,-1.9764134883880615,8.762179374694824,12.939453125,11.77978515625,-2.838134765625
3.0074999,1.756745457649231,-1.0618284940719604,9.626486778259277,17.364501953125,11.627197265625,-6.927490234375
3.0124999000000003,1.5867571830749512,0.09516951441764832,10.4542818069458,11.8408203125,10.345458984375,0.091552734375
3.0174999000000002,1.206079125404358,0.7643488645553589,10.640430450439453,-7.6904296875,7.8125,1.251220703125
3.0224999,0.8122329115867615,1.1150994300842285,10.58775806427002,0.732421875,4.2724609375,-1.15966796875
3.0274999,0.6560112833976746,1.1623848676681519,10.58656120300293,-7.38525390625,1.953125,6.103515625
3.0324999000000004,0.34416648745536804,0.6003460884094238,10.216657638549805,-16.357421875,-2.777099609375,0.946044921875
3.0374999000000003,0.3148375153541565,-0.08259996026754379,9.999382972717285,0.54931640625,-6.40869140625,-1.068115234375
3.0424999,0.3878606855869293,-0.6362590789794922,9.799467086791992,-6.591796875,-6.439208984375,3.173828125
3.0474999,0.44532153010368347,-1.3365631103515625,9.413402557373047,-2.960205078125,-8.1787109375,-3.5400390625
3.0524999000000004,0.7571662664413452,-1.5502456426620483,9.39903736114502,11.322021484375,-5.950927734375,-0.640869140625
3.0574999000000003,1.0336965322494507,-1.4969745874404907,9.41519832611084,-0.885009765625,-1.861572265625,1.89208984375
3.0624999,1.4915876388549805,-0.9564836025238037,9.712079048156738,7.87353515625,3.173828125,0.701904296875
3.0674999,1.4915876388549805,-0.9564836025238037,9.712079048156738,7.87353515625,3.173828125,0.701904296875
3.0724999000000004,1.502361536026001,-0.6901286244392395,9.75936508178711,-7.568359375,4.425048828125,0.8544921875
3.0774999000000003,1.3443442583084106,-0.5291185975074768,9.794678688049316,1.800537109375,4.2724609375,-2.960205078125
3.0824999,1.2725181579589844,-0.30047231912612915,9.980229377746582,0.823974609375,4.241943359375,3.753662109375
3.0874999,0.9630676507949829,-0.5081692934036255,9.849745750427246,-9.368896484375,1.40380859375,0.396728515625
3.0924999,0.7428010702133179,-0.71766197681427,9.799467086791992,6.439208984375,-0.79345703125,-2.74658203125
3.0974999000000003,0.7284358739852905,-0.7439981698989868,9.896432876586914,-0.244140625,-1.922607421875,2.62451171875
3.1024999,0.5638344883918762,-1.0336965322494507,9.636661529541016,-4.39453125,-3.23486328125,-2.5634765625
3.1074999,0.7170634269714355,-0.9516952037811279,9.713874816894531,9.1552734375,-3.23486328125,-1.52587890625
3.1124999,0.8684966564178467,-0.7996633648872375,9.716867446899414,-3.814697265625,-1.678466796875,2.99072265625
3.1174999000000003,0.9798270463943481,-0.8212111592292786,9.59476375579834,-2.44140625,-1.800537109375,-3.2958984375
3.1224999,1.1450269222259521,-0.6602011322975159,9.640253067016602,0.274658203125,1.15966796875,-3.662109375
3.1274999,1.158793568611145,-0.5638344883918762,9.815628051757812,5.279541015625,1.953125,1.64794921875
3.1324999,1.0199298858642578,-0.7056909799575806,9.736021041870117,-7.38525390625,1.8310546875,0.54931640625
3.1374999000000003,0.8732850551605225,-0.8583213090896606,9.707290649414062,4.638671875,0.18310546875,-3.5400390625
3.1424999000000002,0.9253589510917664,-0.7236474752426147,9.87967300415039,2.99072265625,0.885009765625,2.685546875
3.1474999,0.8110358119010925,-0.8678981065750122,9.773131370544434,-6.65283203125,-0.396728515625,-0.732421875
3.1524999,0.8044517636299133,-0.8451532125473022,9.764153480529785,6.561279296875,-1.15966796875,-2.62451171875
3.1574999000000004,0.9624691009521484,-0.71766197681427,9.928754806518555,-1.40380859375,-0.1220703125,3.35693359375
3.1624999000000003,0.8756792545318604,-0.8188169598579407,9.687539100646973,-6.4697265625,-1.495361328125,-1.922607421875
3.1674999,1.002571940422058,-0.7763199210166931,9.763554573059082,7.110595703125,-1.03759765625,-1.3427734375
3.1724999,1.0582371950149536,-0.6715735793113708,9.75278091430664,-3.997802734375,0.06103515625,3.021240234375
3.1774999000000004,1.1013327836990356,-0.7098808288574219,9.68694019317627,7.99560546875,0.67138671875,0.030517578125
3.1824999000000003,1.0732009410858154,-0.6685808300971985,9.72285270690918,-5.79833984375,1.312255859375,2.288818359375
3.1874999,1.0097545385360718,-0.788889467716217,9.621099472045898,0.457763671875,0.244140625,-3.60107421875
3.1924999,1.0462661981582642,-0.5823895931243896,9.831789016723633,5.9814453125,0.885009765625,1.40380859375
3.1974999000000004,0.9744400978088379,-0.6434416770935059,9.77791976928711,-7.659912109375,0.274658203125,1.251220703125
3.2024999000000003,0.9588778018951416,-0.5770025849342346,9.885659217834473,3.47900390625,0.640869140625,2.38037109375
3.2074999,0.9103952050209045,-0.6919242739677429,9.79408073425293,-7.720947265625,0.152587890625,0.06103515625
3.2124999,0.8732850551605225,-0.8044517636299133,9.765350341796875,5.2490234375,-0.823974609375,-3.11279296875
3.2174999,1.035492181777954,-0.6871358752250671,9.914987564086914,0.8544921875,0.396728515625,3.11279296875
3.2224999000000003,0.93254154920578,-0.8463503122329712,9.744999885559082,-6.4697265625,-0.42724609375,-1.28173828125
3.2274999,0.9666589498519897,-0.828393816947937,9.727641105651855,6.9580078125,-0.274658203125,-2.197265625
3.2324999,0.9259575009346008,-0.8361749649047852,9.603142738342285,-4.974365234375,-0.152587890625,-2.38037109375
3.2374999,1.0097545385360718,-0.7583633661270142,9.714473724365234,7.171630859375,-0.06103515625,-1.068115234375
3.2424999000000003,1.002571940422058,-0.6643909811973572,9.712079048156738,-4.547119140625,0.42724609375,3.021240234375
3.2474999,0.9487023949623108,-0.8152256608009338,9.589975357055664,-2.960205078125,-1.15966796875,-3.0517578125
3.2524999,1.0157400369644165,-0.6925228238105774,9.691129684448242,7.293701171875,-0.152587890625,0.030517578125
3.2574999,0.9965864419937134,-0.690727174282074,9.726444244384766,-5.79833984375,0.244140625,2.25830078125
3.2624999000000003,0.9642647504806519,-0.8355764150619507,9.605537414550781,0.396728515625,0.091552734375,-3.570556640625
3.2674999000000002,1.0313023328781128,-0.6476315855979919,9.798869132995605,6.2255859375,0.518798828125,1.220703125
3.2724999,1.0019733905792236,-0.7015010714530945,9.743802070617676,-7.293701171875,0.1220703125,1.46484375
3.2774999,0.9415197968482971,-0.7463923692703247,9.689932823181152,2.197265625,-0.518798828125,-3.5400390625
3.2824999000000004,1.0079588890075684,-0.6141127347946167,9.841964721679688,3.90625,0.396728515625,2.197265625
3.2874999000000003,0.9624691009521484,-0.7050924301147461,9.788095474243164,-7.720947265625,0.54931640625,0.54931640625
3.2924999,1.0301052331924438,-0.6955155730247498,9.916783332824707,1.77001953125,0.579833984375,2.838134765625
3.2974999,0.9349357485771179,-0.8188169598579407,9.75936508178711,-7.598876953125,-0.823974609375,-0.640869140625
3.3024999000000004,0.9151836037635803,-0.871489405632019,9.729436874389648,6.317138671875,-0.579833984375,-2.685546875
3.3074999000000003,1.027711033821106,-0.7158663272857666,9.86111831665039,-0.396728515625,0.54931640625,3.11279296875
3.3124999,0.9044097065925598,-0.8535329103469849,9.685144424438477,-6.16455078125,-0.6103515625,-1.77001953125
3.3174999,0.9546879529953003,-0.8050503134727478,9.71926212310791,7.171630859375,-0.396728515625,-1.89208984375
3.3224999000000004,1.01753568649292,-0.6703764796257019,9.783307075500488,-2.5634765625,0.518798828125,3.021240234375
3.3274999000000003,0.9181763529777527,-0.7948749661445618,9.563638687133789,-4.0283203125,-1.129150390625,-2.62451171875
3.3324999,1.0133458375930786,-0.7050924301147461,9.684545516967773,7.62939453125,-0.274658203125,-0.79345703125
3.3374999,1.0097545385360718,-0.6123170852661133,9.70549488067627,-4.425048828125,0.518798828125,2.838134765625
3.3424999,0.9750386476516724,-0.7727286219596863,9.626486778259277,-1.953125,-0.48828125,-3.23486328125
3.3474999000000003,1.047463297843933,-0.6344634294509888,9.752182006835938,7.049560546875,0.152587890625,0.030517578125
3.3524999,0.943913996219635,-0.7709329724311829,9.785700798034668,-7.781982421875,0.18310546875,0.946044921875
3.3574999,0.8870517015457153,-0.8553285598754883,9.733028411865234,3.997802734375,-0.457763671875,-3.5400390625
3.3624999,1.0528502464294434,-0.6931213736534119,9.880271911621094,1.3427734375,0.640869140625,2.899169921875
3.3674999000000003,0.9510966539382935,-0.8038532137870789,9.724050521850586,-6.622314453125,-0.335693359375,-0.9765625
3.3724999,1.0636241436004639,-0.6332663297653198,9.834183692932129,-0.518798828125,0.6103515625,2.9296875
3.3774999,0.9516952037811279,-0.7727286219596863,9.653421401977539,-6.011962890625,-0.79345703125,-1.708984375
3.3824999,0.9989806413650513,-0.727837324142456,9.697115898132324,7.232666015625,-0.30517578125,-1.678466796875
3.3874999000000003,1.2737152576446533,-1.5418659448623657,9.693524360656738,-2.38037109375,1.77001953125,1.03759765625
3.3924999000000002,1.1121066808700562,-1.449090600013733,8.714295387268066,7.232666015625,15.19775390625,-20.56884765625
3.3974999,1.8740613460540771,-2.1936872005462646,8.128912925720215,42.236328125,15.380859375,-44.98291015625
3.4024999,1.4460978507995605,-2.3361423015594482,6.892906665802002,68.42041015625,21.17919921875,-51.1474609375
3.4074999000000004,1.8692729473114014,-1.5430630445480347,7.010821342468262,54.229736328125,28.656005859375,-57.708740234375
3.4124999000000003,1.4293384552001953,-1.4766238927841187,6.971915245056152,90.33203125,35.64453125,-66.83349609375
3.4174999,1.1994950771331787,0.4854243993759155,7.835623741149902,37.29248046875,17.547607421875,-55.206298828125
3.4224999,0.44532153010368347,0.8098387122154236,7.978078842163086,17.578125,-2.0751953125,-34.210205078125
3.4274999000000004,-0.22505496442317963,3.246537446975708,8.067861557006836,55.84716796875,-16.6015625,-22.705078125
3.4324999000000003,-1.5280991792678833,5.954379558563232,6.412270545959473,-45.95947265625,-22.88818359375,5.7373046875
3.4374999,-0.8104372620582581,5.736507415771484,6.186617374420166,-69.488525390625,-21.91162109375,16.7236328125
3.4424999,-0.36990416049957275,5.345055103302002,6.384737491607666,-102.630615234375,-19.10400390625,27.374267578125
3.4474999000000004,0.1711854189634323,4.265270233154297,6.889315605163574,-109.161376953125,-12.664794921875,27.679443359375
3.4524999000000003,1.0684125423431396,2.807201385498047,8.837596893310547,-93.75,-8.72802734375,33.38623046875
3.4574999,1.7818846702575684,0.23104046285152435,11.240777015686035,-57.67822265625,-3.662109375,21.484375
3.4624999,2.315791606903076,-2.321777105331421,13.309367179870605,-11.260986328125,-11.41357421875,6.04248046875
3.4674999,2.5252842903137207,-4.401141166687012,14.037802696228027,-23.101806640625,-16.265869140625,12.298583984375
3.4724999000000003,2.145204782485962,-5.616198539733887,12.592304229736328,-24.688720703125,-16.11328125,8.697509765625
3.4774999,1.6831238269805908,-5.737105846405029,9.92097282409668,-3.387451171875,-7.476806640625,4.82177734375
3.4824999,1.157596468925476,-2.9233202934265137,7.677007675170898,26.3671875,12.176513671875,-7.415771484375
3.4874999,1.1079168319702148,-2.2631192207336426,9.145252227783203,30.609130859375,7.87353515625,-9.94873046875
3.4924999000000003,1.1522095203399658,-0.9253589510917664,10.457873344421387,20.660400390625,4.7607421875,-2.838134765625
3.4974999,0.9983820915222168,0.090979665517807,10.979808807373047,3.173828125,4.2724609375,-3.692626953125
3.5024999,0.8583213090896606,1.136048674583435,10.99776554107666,7.62939453125,3.753662109375,-2.960205078125
3.5074999,0.9163807034492493,1.8166005611419678,10.954071044921875,-6.40869140625,2.899169921875,5.950927734375
3.5124999000000003,0.6997054219245911,1.711255669593811,10.407594680786133,-16.021728515625,0.091552734375,2.5634765625
3.5174999000000002,0.7356184720993042,1.2749123573303223,10.268132209777832,-5.462646484375,-3.143310546875,2.960205078125
3.5224999,0.6751648783683777,0.47824180126190186,10.005967140197754,-17.120361328125,-5.462646484375,4.547119140625
3.5274999,0.6314706802368164,-0.606930136680603,9.727043151855469,-8.7890625,-7.87353515625,-3.509521484375
3.5324999000000004,0.8888474106788635,-1.8171991109848022,9.411606788635254,-4.45556640625,-4.730224609375,0.9765625
3.5374999000000003,0.993593692779541,-2.120065689086914,9.258976936340332,9.033203125,-3.143310546875,-3.72314453125
3.5424999,1.294066071510315,-1.7298107147216797,9.382277488708496,9.765625,1.64794921875,1.5869140625
3.5474999,1.3748703002929688,-1.521515130996704,9.412205696105957,-2.01416015625,3.2958984375,-2.0751953125
3.5524999000000004,1.4059948921203613,-0.970848798751831,9.585784912109375,9.429931640625,4.45556640625,-3.753662109375
3.5574999000000003,1.4311341047286987,-0.46986207365989685,9.913191795349121,-1.434326171875,5.950927734375,3.173828125
3.5624999,1.1378443241119385,-0.3411737382411957,9.818022727966309,-6.77490234375,3.448486328125,-1.40380859375
3.5674999,1.0055646896362305,-0.19572599232196808,10.020332336425781,5.340576171875,1.251220703125,0.3662109375
3.5724999000000004,0.8265981078147888,-0.272938996553421,9.98681354522705,-8.026123046875,-0.274658203125,3.11279296875
3.5774999000000003,0.6961141228675842,-0.6057330369949341,9.792284965515137,-2.471923828125,-3.173828125,-3.60107421875
3.5824999,0.7272387742996216,-0.6775590777397156,9.835979461669922,6.04248046875,-2.777099609375,1.0986328125
3.5874999,0.790086567401886,-0.8690952062606812,9.662399291992188,-6.134033203125,-2.197265625,0.762939453125
3.5924999,1.1061211824417114,-0.8834604024887085,9.640253067016602,-6.65283203125,0.335693359375,-0.579833984375
3.5974999000000003,1.1522095203399658,-0.7547720670700073,9.706692695617676,6.561279296875,1.007080078125,-2.44140625
3.6024999,1.0743980407714844,-0.6458359360694885,9.835979461669922,7.171630859375,1.129150390625,-1.068115234375
3.6074999,0.9906009435653687,-0.6153098344802856,9.821015357971191,-4.638671875,1.89208984375,2.86865234375
3.6124999,0.8882488012313843,-0.8738836050033569,9.63067626953125,-1.89208984375,-1.373291015625,-3.47900390625
3.6174999000000003,0.8846575021743774,-0.7571662664413452,9.716867446899414,7.537841796875,-0.9765625,0.518798828125
3.6224999,0.8948329091072083,-0.8110358119010925,9.68155288696289,-6.072998046875,-0.48828125,1.800537109375
3.6274999,0.8607155084609985,-0.8583213090896606,9.598953247070312,2.227783203125,-1.800537109375,-3.662109375
3.6324999,1.061229944229126,-0.7757213711738586,9.72285270690918,7.26318359375,0.30517578125,-2.166748046875
3.6374999000000003,1.0857704877853394,-0.6763619780540466,9.7791166305542,-2.62451171875,1.15966796875,3.173828125
3.6424999000000002,0.9594763517379761,-0.7793126702308655,9.566033363342285,-3.662109375,-0.42724609375,-2.777099609375
3.6474999,1.002571940422058,-0.6817489266395569,9.697713851928711,7.659912109375,-0.335693359375,-0.244140625
3.6524999,0.9846154451370239,-0.6075286865234375,9.726444244384766,-5.828857421875,0.1220703125,2.685546875
3.6574999000000004,0.9684545993804932,-0.7535749673843384,9.647436141967773,-0.457763671875,-0.48828125,-3.631591796875
3.6624999000000003,1.0157400369644165,-0.6111199855804443,9.794678688049316,5.767822265625,-0.1220703125,1.251220703125
3.6674999,1.0157400369644165,-0.6925228238105774,9.732429504394531,-7.659912109375,-0.335693359375,1.434326171875
3.6724999,1.0031704902648926,-0.6985083222389221,9.799467086791992,3.570556640625,0.67138671875,2.5634765625
3.6774999000000004,0.9792284965515137,-0.811634361743927,9.738415718078613,-7.32421875,-0.518798828125,-0.18310546875
3.6824999000000003,0.9720458984375,-0.8493430614471436,9.78869342803955,-5.615234375,0.18310546875,-1.64794921875
3.6874999,0.9720458984375,-0.8493430614471436,9.78869342803955,-5.615234375,0.18310546875,-1.64794921875
3.6924999,1.0001777410507202,-0.8062474131584167,9.780313491821289,7.415771484375,-0.274658203125,-1.89208984375
3.6974999000000004,1.0636241436004639,-0.6380547285079956,9.864709854125977,-2.197265625,0.823974609375,3.0517578125
3.7024999000000003,0.9558850526809692,-0.7745242714881897,9.607931137084961,-4.08935546875,-0.640869140625,-2.74658203125
3.7074999,1.0247182846069336,-0.679354727268219,9.714473724365234,7.232666015625,0,-0.42724609375
3.7124999,1.0157400369644165,-0.6278793811798096,9.700108528137207,-4.82177734375,0.396728515625,2.471923828125
3.7174999,1.0109516382217407,-0.7882909178733826,9.600150108337402,-1.0986328125,-0.579833984375,-3.631591796875
3.7224999000000003,1.039083480834961,-0.6602011322975159,9.734824180603027,6.317138671875,0.091552734375,1.03759765625
3.7274999,0.9648633003234863,-0.8044517636299133,9.641449928283691,1.89208984375,-0.42724609375,-3.814697265625
3.7324999,0.99479079246521,-0.6667851805686951,9.798270225524902,4.852294921875,0.640869140625,2.0751953125
3.7374999,0.9876081943511963,-0.7553706169128418,9.762955665588379,-7.75146484375,-0.06103515625,0.579833984375
3.7424999000000003,0.9283517003059387,-0.8373720645904541,9.73661994934082,4.33349609375,-0.8544921875,-3.448486328125
3.7474999,1.0396820306777954,-0.7134721279144287,9.88625717163086,1.708984375,0.48828125,2.838134765625
3.7524999,0.9792284965515137,-0.811634361743927,9.756970405578613,-7.110595703125,-0.244140625,-0.701904296875
3.7574999,0.9540894031524658,-0.8583213090896606,9.728240013122559,6.40869140625,-0.579833984375,-2.44140625
3.7624999000000003,1.0522516965866089,-0.71766197681427,9.861717224121094,-0.6103515625,0.518798828125,3.23486328125
3.7674999000000002,0.9433154463768005,-0.8343793153762817,9.686341285705566,-5.706787109375,-1.0986328125,-2.166748046875
3.7724999,0.9888052940368652,-0.8038532137870789,9.738415718078613,7.080078125,-0.823974609375,-1.556396484375
3.7774999,1.0319008827209473,-0.6560112833976746,9.773131370544434,-3.204345703125,0.79345703125,2.99072265625
3.7824999000000004,0.9660604000091553,-0.7966706156730652,9.589376449584961,-2.9296875,-0.42724609375,-2.716064453125
3.7874999000000003,1.0372878313064575,-0.6404489278793335,9.745597839355469,-5.523681640625,0.762939453125,2.38037109375
3.7924999,1.025316834449768,-0.7870938181877136,9.66299819946289,-0.640869140625,-0.335693359375,-3.5400390625
3.7974999,1.049857497215271,-0.6446388363838196,9.786897659301758,6.2255859375,0.213623046875,0.823974609375
3.8024999000000004,1.0348936319351196,-0.6727706789970398,9.758167266845703,-6.378173828125,0.30517578125,1.495361328125
3.8074999000000003,0.9588778018951416,-0.7906851172447205,9.660005569458008,1.861572265625,-0.67138671875,-3.570556640625
3.8124999,0.9965864419937134,-0.6655880808830261,9.809642791748047,4.608154296875,0.518798828125,1.922607421875
3.8174999,0.9828197956085205,-0.7422025203704834,9.750985145568848,-7.110595703125,0.18310546875,0.640869140625
3.8224999000000004,1.3652935028076172,-1.113303780555725,10.084976196289062,15.2587890625,1.5869140625,-11.749267578125
3.8274999000000003,2.0440497398376465,-2.0626046657562256,10.111910820007324,48.736572265625,14.556884765625,-45.684814453125
3.8324999,2.3576900959014893,-4.022258758544922,9.791686058044434,68.267822265625,19.073486328125,-84.564208984375
3.8374999,2.258330821990967,-5.784989833831787,8.500014305114746,57.891845703125,3.90625,-44.830322265625
3.8424999,1.8034324645996094,-5.52701473236084,7.915829181671143,69.39697265625,9.063720703125,6.40869140625
3.8474999000000003,0.6775590777397156,-4.1431660652160645,6.687603950500488,58.2275390625,41.595458984375,-19.439697265625
3.8524999,0.1711854189634323,0.06763619929552078,6.755838871002197,36.590576171875,40.374755859375,-26.519775390625
3.8574999,-0.16340427100658417,3.649960517883301,7.193378925323486,-2.44140625,1.739501953125,-7.598876953125
3.8624999,-0.5680243372917175,6.719326972961426,7.039551734924316,-21.17919921875,-22.64404296875,-8.392333984375
3.8674999000000003,-0.689530074596405,8.295310020446777,7.321468830108643,-27.64892578125,-33.203125,-3.35693359375
3.8724999,-0.900818407535553,8.56645393371582,7.137115478515625,-65.582275390625,-23.651123046875,5.462646484375
3.8774999,-0.8655039072036743,7.70274543762207,7.027580738067627,-79.52880859375,-11.962890625,10.3759765625
3.8824999,-0.3148375153541565,6.098031520843506,7.782951354980469,-91.766357421875,-14.068603515625,29.23583984375
3.8874999000000003,0.3597288131713867,3.648164749145508,9.26675796508789,-86.090087890625,-12.908935546875,30.609130859375
3.8924999000000002,1.0911574363708496,0.5297171473503113,11.394604682922363,-39.1845703125,-12.969970703125,21.087646484375
3.8974999,1.7537527084350586,-2.258330821990967,13.034632682800293,-23.5595703125,-16.6015625,16.265869140625
3.9024999,1.9183541536331177,-4.655525207519531,13.334506034851074,-26.275634765625,-21.05712890625,10.589599609375
3.9074999000000004,1.876455545425415,-5.932831764221191,11.835736274719238,-10.80322265625,-17.181396484375,10.80322265625
3.9124999000000003,1.3868412971496582,-4.2724528312683105,6.542754650115967,30.242919921875,9.307861328125,-3.875732421875
3.9174999,1.4449007511138916,-3.378218650817871,6.959944248199463,22.64404296875,10.7421875,-5.7373046875
3.9224999,1.4724340438842773,-1.6172832250595093,9.588777542114258,26.641845703125,9.918212890625,-1.983642578125
3.9274999000000004,1.2910733222961426,-0.71766197681427,10.481815338134766,8.1787109375,6.40869140625,-1.495361328125
3.9324999000000003,0.9911994934082031,0.3585317134857178,10.817602157592773,10.955810546875,4.8828125,-4.364013671875
3.9374999,0.8924387097358704,1.279700756072998,10.94269847869873,0.762939453125,4.08935546875,3.2958984375
3.9424999,0.6703764796257019,1.4616601467132568,10.636839866638184,-15.2587890625,1.40380859375,1.251220703125
3.9474999000000004,0.6206967830657959,1.3066356182098389,10.38604736328125,-3.96728515625,-1.251220703125,1.3427734375
3.9524999000000003,0.679354727268219,0.7655459642410278,10.229825019836426,-12.603759765625,-3.326416015625,5.828857421875
3.9574999,0.7200561761856079,-0.950498104095459,9.672574996948242,3.662109375,-6.256103515625,-0.274658203125
3.9624999,0.8481459617614746,-1.4101848602294922,9.470264434814453,-3.0517578125,-3.631591796875,2.197265625
3.9674999000000004,1.0067617893218994,-1.9291280508041382,9.27334213256836,3.448486328125,-2.899169921875,-3.90625
3.9724999000000003,1.2072762250900269,-1.698686122894287,9.361927032470703,12.20703125,0.335693359375,0.335693359375
3.9774999,1.3640964031219482,-1.4873977899551392,9.481039047241211,-2.410888671875,2.197265625,0.701904296875
3.9824999,1.338358759880066,-1.07379949092865,9.556455612182617,5.096435546875,3.0517578125,-4.608154296875
3.9874999,1.3407529592514038,-0.5764040350914001,9.855731010437012,3.631591796875,4.82177734375,2.25830078125
3.9924999000000003,1.193509578704834,-0.3232172429561615,9.916184425354004,-9.09423828125,3.41796875,0.91552734375
3.9974999,0.9654618501663208,-0.3489548861980438,9.928754806518555,3.35693359375,0.54931640625,-2.13623046875
4.0024999,0.9241618514060974,-0.28790274262428284,10.038887977600098,-1.3427734375,0.335693359375,3.265380859375
4.0074999,0.7368155717849731,-0.6200982332229614,9.848548889160156,-8.026123046875,-1.861572265625,-1.5869140625
4.0124999,0.7428010702133179,-0.8331822156906128,9.744999885559082,6.591796875,-3.509521484375,-2.01416015625
4.0174999,0.8954314589500427,-1.0654197931289673,9.489418029785156,-2.349853515625,-2.166748046875,-3.23486328125
4.022499900000001,1.0875661373138428,-0.9409212470054626,9.599552154541016,9.09423828125,-0.518798828125,-0.823974609375
4.0274999000000005,1.192312479019165,-0.7583633661270142,9.651625633239746,-3.997802734375,1.03759765625,2.777099609375
4.0324999,1.2431892156600952,-0.7332242727279663,9.621099472045898,-0.335693359375,1.312255859375,-3.2958984375
4.0374999,1.2461819648742676,-0.5105634927749634,9.774328231811523,5.584716796875,2.166748046875,1.251220703125
4.0424999,1.1839327812194824,-0.4620809257030487,9.79408073425293,-7.8125,2.410888671875,1.983642578125
4.0474999,1.0223240852355957,-0.6206967830657959,9.707290649414062,1.03759765625,0.396728515625,-3.662109375
4.0524999,0.9624691009521484,-0.5596446394920349,9.824007987976074,3.72314453125,0.823974609375,2.0751953125
4.0574999,0.884058952331543,-0.7368155717849731,9.762357711791992,-7.14111328125,0.030517578125,0.335693359375
4.062499900000001,0.7966706156730652,-0.8978256583213806,9.715670585632324,5.18798828125,-1.861572265625,-3.326416015625
4.0674999000000005,0.9139865040779114,-0.7990648150444031,9.839570045471191,2.044677734375,-0.518798828125,2.593994140625
4.0724999,0.8936358094215393,-0.9151836037635803,9.73661994934082,-6.28662109375,-1.15966796875,-1.251220703125
4.0774999,1.1025298833847046,-0.7541735172271729,9.847352027893066,-1.190185546875,0.79345703125,3.204345703125
4.0824999,1.1210849285125732,-0.6883329749107361,9.769539833068848,-3.875732421875,1.0986328125,2.99072265625
4.0874999,1.0546458959579468,-0.7984662652015686,9.606734275817871,-2.410888671875,-0.3662109375,-3.23486328125
4.0924999,1.071405291557312,-0.7296329736709595,9.68933391571045,7.32421875,0.244140625,-0.06103515625
4.0974999,1.0522516965866089,-0.6494272351264954,9.718663215637207,-5.126953125,0.3662109375,2.0751953125
4.1024999,1.0259153842926025,-0.7960720658302307,9.634865760803223,0.30517578125,-0.6103515625,-3.7841796875
4.1074999000000005,1.0432734489440918,-0.6171054840087891,9.774328231811523,5.767822265625,0.48828125,1.46484375
4.1124999,1.037886381149292,-0.639850378036499,9.755773544311523,-7.01904296875,0.732421875,1.373291015625
4.1174999,0.9786299467086792,-0.7266402244567871,9.70429801940918,2.13623046875,-0.79345703125,-3.662109375
4.1224999,1.0055646896362305,-0.6099228858947754,9.82999324798584,3.204345703125,0.42724609375,2.44140625
4.1274999,0.9097966551780701,-0.839766263961792,9.737217903137207,4.69970703125,-0.30517578125,-3.143310546875
4.1324999,1.0109516382217407,-0.7529764175415039,9.848548889160156,1.495361328125,0.823974609375,2.899169921875
4.1374999,0.9493009448051453,-0.8702923059463501,9.731232643127441,-6.256103515625,-0.3662109375,-1.15966796875
4.1424999,0.9457096457481384,-0.9080010056495667,9.701305389404297,6.8359375,-0.48828125,-2.410888671875
4.147499900000001,1.0468647480010986,-0.7739257216453552,9.836577415466309,-0.640869140625,0.579833984375,3.265380859375
4.1524999000000005,0.9636662006378174,-0.8661024570465088,9.694122314453125,-4.547119140625,-0.579833984375,-2.227783203125
4.1574999,1.0235211849212646,-0.8146271109580994,9.747393608093262,6.866455078125,-0.457763671875,-1.28173828125
4.1624999,1.0809820890426636,-0.669179379940033,9.804255485534668,-3.2958984375,0.640869140625,3.173828125
4.1674999,1.0295066833496094,-0.7463923692703247,9.610325813293457,-3.23486328125,-0.6103515625,-2.960205078125
4.1724999,1.0935516357421875,-0.6877344250679016,9.724648475646973,7.049560546875,0.1220703125,-0.335693359375
4.1774999,1.0851719379425049,-0.5895721912384033,9.732429504394531,-5.2490234375,0.213623046875,2.593994140625
4.1824999,1.081580638885498,-0.7535749673843384,9.66299819946289,-1.220703125,-0.79345703125,-3.2958984375
4.187499900000001,1.0869675874710083,-0.6129156351089478,9.77672290802002,-6.256103515625,0.640869140625,1.8310546875
4.1924999000000005,1.0324994325637817,-0.760757565498352,9.667786598205566,0.823974609375,-0.91552734375,-3.753662109375
4.1974999,1.0330979824066162,-0.6159083843231201,9.807847023010254,4.669189453125,0.3662109375,1.8310546875
4.2024999,1.0091559886932373,-0.6985083222389221,9.758766174316406,-7.232666015625,0.30517578125,1.3427734375
4.2074999,0.9469067454338074,-0.8008604645729065,9.694122314453125,2.838134765625,-0.48828125,-3.2958984375
4.2124999,0.9786299467086792,-0.6859387755393982,9.810839653015137,3.204345703125,0.579833984375,2.288818359375
4.2174999,0.9552865028381348,-0.7870938181877136,9.746794700622559,-6.866455078125,-0.1220703125,-0.30517578125
4.2224999,0.9032126069068909,-0.8690952062606812,9.733028411865234,4.7607421875,-0.823974609375,-3.021240234375
4.2274999,1.025316834449768,-0.7422025203704834,9.852140426635742,1.40380859375,0.42724609375,2.960205078125
4.2324999000000005,0.9846154451370239,-0.8259995579719543,9.749189376831055,-6.04248046875,0,-1.220703125
4.2374999,0.9858125448226929,-0.8601169586181641,9.729436874389648,6.439208984375,-0.274658203125,-2.471923828125
4.2424999,1.092953085899353,-0.7098808288574219,9.84256362915039,-0.213623046875,0.6103515625,3.143310546875
4.2474999,1.0935516357421875,-0.6961141228675842,9.84495735168457,-2.532958984375,0.579833984375,3.143310546875
4.2524999,1.0097545385360718,-0.7841010689735413,9.640851974487305,-4.0283203125,-0.67138671875,-2.5634765625
4.2574999,1.0097545385360718,-0.7841010689735413,9.640851974487305,-4.0283203125,-0.67138671875,-2.5634765625
4.2624999,1.0642226934432983,-0.7356184720993042,9.723451614379883,7.2021484375,0.030517578125,-0.67138671875
4.2674999,1.062427043914795,-0.6171054840087891,9.731232643127441,-3.5400390625,1.15966796875,2.8076171875
4.272499900000001,1.0121487379074097,-0.751779317855835,9.633668899536133,-2.3193359375,-0.244140625,-3.265380859375
4.2774999000000005,1.035492181777954,-0.6859387755393982,9.747393608093262,6.561279296875,0.30517578125,0.18310546875
4.2824999,1.01753568649292,-0.6506243348121643,9.780912399291992,-5.462646484375,0.946044921875,2.410888671875
4.2874999,0.99479079246521,-0.823006808757782,9.692327499389648,-0.91552734375,-0.79345703125,-3.41796875
4.2924999,1.0013748407363892,-0.7170634269714355,9.779715538024902,5.859375,-0.213623046875,1.007080078125
4.2974999,0.9989806413650513,-0.7296329736709595,9.773131370544434,-6.40869140625,0.091552734375,1.708984375
4.3024999,1.3724761009216309,-3.3901896476745605,6.7031660079956055,100.09765625,17.4560546875,23.3154296875
4.3074999,1.3724761009216309,-3.3901896476745605,6.7031660079956055,100.09765625,17.4560546875,23.3154296875
4.312499900000001,1.5508441925048828,-1.9638439416885376,6.440402507781982,172.210693359375,30.33447265625,41.473388671875
4.3174999000000005,1.294066071510315,-0.33997663855552673,5.442020416259766,34.027099609375,63.720703125,38.75732421875
4.3224999,0.7643488645553589,2.722805976867676,5.590460777282715,-46.295166015625,8.6669921875,17.242431640625
4.3274999,0.31783026456832886,5.613804340362549,5.391143798828125,1.983642578125,-53.009033203125,-4.08935546875
4.3324999,-0.4878185987472534,6.709151744842529,4.7375264167785645,17.547607421875,-60.85205078125,-7.6904296875
4.3374999,-0.547075092792511,7.12035608291626,4.982932090759277,-12.6953125,-39.306640625,-8.23974609375
4.3424999,-0.2064998894929886,6.509834289550781,5.741894245147705,-77.5146484375,-24.444580078125,2.0751953125
4.3474999,0.5961562395095825,5.325901508331299,7.288548469543457,-84.197998046875,-8.880615234375,15.93017578125
4.352499900000001,1.722628116607666,3.7678749561309814,9.52353572845459,-62.8662109375,2.044677734375,28.594970703125
4.3574999000000005,2.8826189041137695,-0.9953893423080444,12.901754379272461,-11.688232421875,1.861572265625,9.82666015625
4.3624999,2.783858060836792,-3.0627825260162354,13.15494155883789,-28.25927734375,-3.631591796875,8.7890625
4.3674999,2.163161277770996,-4.502894878387451,11.917139053344727,-20.08056640625,0.152587890625,-3.265380859375
4.3724999,1.4933832883834839,-4.8255133628845215,10.04427433013916,-2.593994140625,11.749267578125,-5.7373046875
4.3774999,0.9050082564353943,-4.727351188659668,8.3707275390625,-1.46484375,16.11328125,-11.688232421875
4.3824999,0.4866214990615845,-4.204816818237305,7.557297706604004,19.989013671875,9.1552734375,-15.655517578125
4.3874999,0.47225627303123474,-3.4614171981811523,7.718906402587891,25.054931640625,5.37109375,-5.218505859375
4.3924999,0.4489128291606903,-2.695871114730835,8.381501197814941,15.625,1.0986328125,-4.21142578125
4.397499900000001,0.5542576909065247,-1.8279730081558228,9.26915168762207,28.74755859375,-1.556396484375,-1.251220703125
4.4024999000000005,1.0809820890426636,-0.9726444482803345,9.613917350769043,4.39453125,-2.166748046875,-2.471923828125
4.4074999,1.0965443849563599,-1.3748703002929688,9.525930404663086,-0.6103515625,-0.54931640625,2.50244140625
4.4124999,0.9654618501663208,-1.8177976608276367,9.264962196350098,0.213623046875,-0.42724609375,-3.814697265625
4.4174999,1.026513934135437,-1.6496049165725708,9.394847869873047,13.641357421875,1.5869140625,-0.54931640625
4.4224999,1.025316834449768,-1.3706804513931274,9.515155792236328,-1.739501953125,1.953125,1.28173828125
4.4274999,1.0031704902648926,-1.0576386451721191,9.57860279083252,3.448486328125,1.007080078125,-4.57763671875
4.4324999,1.0402805805206299,-0.5482721924781799,9.891644477844238,4.547119140625,1.922607421875,2.166748046875
4.437499900000001,1.0055646896362305,-0.3818751573562622,9.941324234008789,-10.345458984375,0.701904296875,0.67138671875
4.4424999000000005,0.910993754863739,-0.34596213698387146,9.930550575256348,3.35693359375,-0.9765625,-2.0751953125
4.4474999,0.8469488620758057,-0.6278793811798096,9.815628051757812,-7.781982421875,-2.105712890625,-2.288818359375
4.4524999,0.9062053561210632,-0.8254010081291199,9.782109260559082,8.148193359375,-1.983642578125,-1.495361328125
4.4574999,0.982221245765686,-0.8631097078323364,9.709086418151855,-3.173828125,-0.48828125,2.25830078125
4.4624999,1.037886381149292,-1.1276689767837524,9.500192642211914,0.30517578125,-1.739501953125,-4.119873046875
4.4674999,1.139639973640442,-0.9014169573783875,9.610923767089844,8.4228515625,0.79345703125,1.220703125
4.4724999,1.1982979774475098,-0.8469488620758057,9.601346969604492,-6.317138671875,1.708984375,1.373291015625
4.477499900000001,1.1073182821273804,-0.7727286219596863,9.606135368347168,3.509521484375,0.8544921875,-3.41796875
4.4824999000000005,1.1348515748977661,-0.5171475410461426,9.816825866699219,2.50244140625,2.044677734375,3.082275390625
4.4874999,1.0157400369644165,-0.6057330369949341,9.759963035583496,-8.1787109375,0.732421875,-1.03759765625
4.4924999,0.933738648891449,-0.6434416770935059,9.791686058044434,5.55419921875,-0.48828125,-2.38037109375
4.4974999,0.9666589498519897,-0.6248866319656372,9.907805442810059,-2.410888671875,0.335693359375,3.753662109375
4.5024999,0.8325836658477783,-0.8236053586006165,9.70310115814209,-4.39453125,-1.434326171875,-2.9296875
4.5074999,0.9157821536064148,-0.7996633648872375,9.757569313049316,-5.157470703125,-0.091552734375,2.62451171875
4.5124999,0.9624691009521484,-0.9600749015808105,9.632472038269043,0.396728515625,-0.823974609375,-3.84521484375
4.5174999,1.0450690984725952,-0.7631517648696899,9.754576683044434,6.500244140625,0.213623046875,1.5869140625
4.522499900000001,1.0875661373138428,-0.7751228213310242,9.691129684448242,-7.8125,0.67138671875,0.946044921875
4.5274999000000005,1.0241197347640991,-0.7757213711738586,9.657012939453125,3.96728515625,-0.030517578125,-3.60107421875
4.5324999,1.082777738571167,-0.6344634294509888,9.815628051757812,2.13623046875,1.373291015625,3.204345703125
4.5374999,1.0055646896362305,-0.7098808288574219,9.734824180603027,-7.26318359375,0,-0.9765625
4.5424999,0.9780313968658447,-0.7709329724311829,9.751583099365234,6.866455078125,-0.3662109375,-2.288818359375
4.5474999,1.048660397529602,-0.6739677786827087,9.88625717163086,-1.28173828125,0.823974609375,3.326416015625
4.5524999,0.9397241473197937,-0.8349778652191162,9.670180320739746,-4.2724609375,-0.823974609375,-2.716064453125
4.5574999,1.0127472877502441,-0.7805097699165344,9.793481826782227,7.8125,-0.6103515625,-0.518798828125
4.562499900000001,1.0211269855499268,-0.689530074596405,9.762357711791992,-4.791259765625,0.762939453125,2.62451171875
4.5674999000000005,1.0749965906143188,-0.6518214344978333,9.769539833068848,5.92041015625,0.48828125,1.373291015625
4.5724999,1.0773907899856567,-0.6799532771110535,9.715670585632324,-7.720947265625,0.640869140625,1.434326171875
4.5774999,0.9750386476516724,-0.7930793166160583,9.653421401977539,3.265380859375,-0.518798828125,-3.631591796875
4.5824999,0.9953893423080444,-0.702099621295929,9.799467086791992,3.35693359375,0.518798828125,2.716064453125
4.5874999,0.9403226971626282,-0.8403648138046265,9.734824180603027,-7.26318359375,-0.335693359375,-0.885009765625
4.5924999,0.8918401598930359,-0.922366201877594,9.747992515563965,6.2255859375,-0.8544921875,-2.716064453125
4.5974999,0.9917980432510376,-0.8032546639442444,9.906607627868652,-0.335693359375,0.67138671875,3.570556640625
4.602499900000001,0.9139865040779114,-0.9313444495201111,9.768342971801758,-5.43212890625,-0.579833984375,-2.197265625
4.6074999000000005,0.9750386476516724,-0.8367735147476196,9.788095474243164,7.6904296875,-0.579833984375,-1.52587890625
4.6124999,1.028908133506775,-0.7116764783859253,9.794678688049316,-3.997802734375,0.640869140625,3.082275390625
4.6174999,1.016338586807251,-0.7805097699165344,9.606734275817871,-2.716064453125,-1.0986328125,-3.143310546875
4.6224999,1.0642226934432983,-0.6757634282112122,9.660603523254395,7.01904296875,0.06103515625,0.54931640625
4.6274999,1.0450690984725952,-0.6602011322975159,9.77672290802002,5.340576171875,0.457763671875,2.01416015625
4.6324999,1.0330979824066162,-0.7338228225708008,9.741408348083496,-7.293701171875,0.701904296875,0.54931640625
4.6374999,0.961870551109314,-0.7978677153587341,9.724050521850586,4.08935546875,-0.67138671875,-3.570556640625
4.6424999,1.025316834449768,-0.679354727268219,9.867103576660156,1.739501953125,0.457763671875,3.021240234375
4.647499900000001,0.9594763517379761,-0.7876923680305481,9.761159896850586,-6.53076171875,0.1220703125,-1.190185546875
4.6524999000000005,0.9379284977912903,-0.8463503122329712,9.750386238098145,6.072998046875,-0.79345703125,-2.38037109375
4.6574999,1.0211269855499268,-0.7583633661270142,9.870096206665039,-1.28173828125,0.152587890625,3.509521484375
4.6624999,0.9295487999916077,-0.9032126069068909,9.68155288696289,-4.69970703125,-0.06103515625,-2.50244140625
4.6674999,0.9798270463943481,-0.8505401611328125,9.739612579345703,7.843017578125,-0.06103515625,-1.190185546875
4.6724999,1.0043675899505615,-0.7344213724136353,9.737217903137207,-3.47900390625,0.8544921875,2.9296875
4.6774999,0.9929951429367065,-0.8146271109580994,9.59835433959961,-2.25830078125,-0.946044921875,-3.23486328125
4.6824999,1.05105459690094,-0.6338648796081543,9.722254753112793,-6.53076171875,0.30517578125,2.044677734375
4.687499900000001,1.0360907316207886,-0.7697358727455139,9.637260437011719,0.579833984375,-0.79345703125,-3.570556640625
4.6924999000000005,1.0636241436004639,-0.641047477722168,9.79647445678711,5.43212890625,0.30517578125,1.800537109375
4.6974999,1.0648212432861328,-0.7206547260284424,9.756970405578613,-7.14111328125,0.701904296875,0.701904296875
4.7024999,1.002571940422058,-0.7978677153587341,9.70549488067627,3.448486328125,-1.068115234375,-3.509521484375
4.7074999,1.061229944229126,-0.6829460263252258,9.837775230407715,2.685546875,0.30517578125,2.899169921875
4.7124999,1.0229226350784302,-0.7769184708595276,9.733028411865234,-6.77490234375,0.091552734375,-0.762939453125
4.7174999,0.9840168952941895,-0.8307880163192749,9.746196746826172,5.706787109375,-0.48828125,-2.777099609375
4.7224999,1.0785878896713257,-0.71766197681427,9.879075050354004,-0.244140625,1.251220703125,3.41796875
4.727499900000001,0.9726444482803345,-0.8475474119186401,9.762955665588379,-6.134033203125,-0.18310546875,-1.64794921875
4.7324999000000005,0.9917980432510376,-0.8212111592292786,9.765350341796875,6.7138671875,-0.091552734375,-1.5869140625
4.7374999,1.0169371366500854,-0.7260416746139526,9.818022727966309,-2.44140625,1.220703125,2.960205078125
4.7424999,1.0534487962722778,-0.7146692276000977,9.743802070617676,-6.591796875,0.213623046875,1.64794921875
4.7474999,1.016338586807251,-0.8313865661621094,9.64564037322998,1.0986328125,-0.8544921875,-3.41796875
4.7524999,1.0444705486297607,-0.6925228238105774,9.81143856048584,4.852294921875,0.67138671875,2.0751953125
4.7574999,1.0456676483154297,-0.7386112213134766,9.744999885559082,-7.2021484375,0.152587890625,0.335693359375
4.7624999,0.993593692779541,-0.8056488633155823,9.712079048156738,4.119873046875,-0.701904296875,-3.47900390625
4.7674999,1.0636241436004639,-0.6667851805686951,9.834183692932129,2.655029296875,0.54931640625,2.9296875
4.772499900000001,1.0199298858642578,-0.7625532150268555,9.734824180603027,-7.293701171875,-0.732421875,-0.54931640625
4.7774999000000005,0.9750386476516724,-0.8301894664764404,9.729436874389648,5.67626953125,-0.274658203125,-2.685546875
4.7824999,1.035492181777954,-0.7338228225708008,9.849146842956543,-2.349853515625,0.762939453125,3.23486328125
4.7874999,0.9469067454338074,-0.838569164276123,9.627683639526367,-4.0283203125,-0.42724609375,-2.838134765625
4.7924999,0.9983820915222168,-0.7511807680130005,9.713874816894531,7.26318359375,-0.030517578125,-0.518798828125
4.7974999,0.9977835416793823,-0.6649895310401917,9.711481094360352,-4.058837890625,0.8544921875,2.9296875
4.8024999,0.9714473485946655,-0.7547720670700073,9.606734275817871,-1.77001953125,-0.335693359375,-3.448486328125
4.8074999,1.0073603391647339,-0.6775590777397156,9.706692695617676,6.927490234375,0.1220703125,0.274658203125
4.812499900000001,1.0235211849212646,-0.6428431272506714,9.730035781860352,-5.92041015625,0.518798828125,2.166748046875
4.8174999000000005,1.016338586807251,-0.8074445128440857,9.64803409576416,-0.152587890625,-1.373291015625,-3.631591796875
4.8224999,1.0396820306777954,-0.6811503767967224,9.780313491821289,5.7373046875,-0.030517578125,1.373291015625
4.8274999,0.9929951429367065,-0.8122329115867615,9.697115898132324,2.777099609375,-0.67138671875,-3.631591796875
4.8324999,1.0193313360214233,-0.6859387755393982,9.825803756713867,4.302978515625,0.335693359375,2.166748046875
4.8374999,1.0145429372787476,-0.7559691667556763,9.777320861816406,-7.32421875,0.274658203125,0.30517578125
4.8424999,0.9612720012664795,-0.812831461429596,9.739013671875,4.119873046875,-0.79345703125,-3.082275390625
4.8474999,1.2066776752471924,-0.9720458984375,9.203909873962402,4.0283203125,0.885009765625,-2.86865234375
4.852499900000001,1.6531962156295776,-1.3251906633377075,8.068459510803223,-3.7841796875,1.953125,-68.878173828125
4.8574999000000005,1.3084312677383423,-2.101510524749756,6.354809761047363,250.67138671875,82.82470703125,-440.97900390625
4.8624999,1.6286556720733643,-1.7507599592208862,4.347271919250488,184.539794921875,25.787353515625,-572.32666015625
4.8674999,1.5280991792678833,-2.5127146244049072,3.09689998626709,-69.88525390625,-71.533203125,-416.900634765625
4.8724999,1.9800047874450684,-1.933916449546814,2.4001872539520264,-86.639404296875,-54.840087890625,-312.01171875
4.8774999,1.8710685968399048,-2.0661959648132324,2.190095901489258,-228.790283203125,-44.647216796875,-271.1181640625
4.8824999,1.744175910949707,-1.4359225034713745,2.055422067642212,-49.74365234375,0.396728515625,-298.88916015625
4.8874999,-1.1665748357772827,2.6641478538513184,1.71245276927948,-24.10888671875,-0.274658203125,-163.63525390625
4.8924999,-1.1665748357772827,2.6641478538513184,1.71245276927948,-24.10888671875,-0.274658203125,-163.63525390625
4.897499900000001,-2.8191723823547363,5.968146324157715,2.738966703414917,-28.6865234375,1.495361328125,-106.3232421875
4.9024999000000005,-4.225766181945801,7.959523677825928,4.081515312194824,-39.764404296875,16.11328125,-88.19580078125
4.9074999,-5.416282653808594,9.227851867675781,5.9286417961120605,-97.442626953125,12.5732421875,-42.236328125
4.9124999,-5.9537811279296875,9.30386734008789,7.098209381103516,-111.297607421875,-24.7802734375,-8.1787109375
4.9174999,-6.097433090209961,8.467693328857422,7.480683326721191,-157.53173828125,-38.14697265625,40.191650390625
4.9224999,-5.768230438232422,7.066486358642578,7.352593421936035,-138.85498046875,-37.445068359375,80.62744140625
4.9274999,-5.478531837463379,5.568314552307129,7.127538681030273,-180.908203125,-30.548095703125,103.607177734375
4.9324999,-4.854842662811279,3.957615375518799,8.483853340148926,-158.3251953125,-10.009765625,119.62890625
4.937499900000001,-3.623624324798584,1.811812162399292,10.621875762939453,-115.41748046875,27.34375,81.72607421875
4.9424999000000005,-2.2194249629974365,-0.5147533416748047,13.458406448364258,8.7890625,6.622314453125,29.876708984375
4.9474999,0.9582792520523071,-3.352480888366699,3.314772367477417,50.933837890625,-27.64892578125,66.680908203125
4.9524999,0.9582792520523071,-3.352480888366699,3.314772367477417,50.933837890625,-27.64892578125,66.680908203125
4.9574999,1.2294225692749023,-3.5182793140411377,4.510077476501465,70.831298828125,-28.289794921875,39.48974609375
4.9624999,2.255936622619629,-4.39156436920166,9.695320129394531,48.004150390625,-23.162841796875,15.472412109375
4.9674999,2.628833532333374,-4.348468780517578,11.586140632629395,7.99560546875,-15.350341796875,13.97705078125
4.9724999,2.649184226989746,-3.7439329624176025,12.194866180419922,27.008056640625,-19.195556640625,-3.631591796875
4.977499900000001,2.5055320262908936,-2.6372132301330566,11.621455192565918,-3.662109375,-6.500244140625,-5.462646484375
4.9824999000000005,2.295440912246704,-1.5598224401474,10.760141372680664,27.862548828125,-1.861572265625,-7.75146484375
4.9874999,1.9752163887023926,0.023343466222286224,9.64564037322998,17.76123046875,1.46484375,2.86865234375
4.9924999,1.7753005027770996,0.16220717132091522,9.497797966003418,-19.10400390625,5.06591796875,1.220703125
4.9974999,1.5963339805603027,0.21847090125083923,9.844358444213867,10.55908203125,4.180908203125,5.126953125
5.0024999,1.391629695892334,-0.11252748221158981,9.716269493103027,-23.712158203125,2.044677734375,-2.960205078125
5.0074999,1.3084312677383423,-0.4339490532875061,9.929352760314941,8.087158203125,6.744384765625,4.57763671875
5.0124999,1.3150153160095215,-0.8834604024887085,9.561842918395996,-19.256591796875,3.60107421875,-3.509521484375
5.0174999,1.3976151943206787,-1.268328309059143,9.725846290588379,9.002685546875,7.904052734375,7.293701171875
5.022499900000001,1.467047095298767,-1.5963339805603027,9.388263702392578,-14.678955078125,3.875732421875,-3.875732421875
5.0274999000000005,1.478419542312622,-1.725022315979004,9.61212158203125,11.1083984375,7.476806640625,6.34765625
5.0324999,1.392826795578003,-1.7651251554489136,9.321824073791504,-11.5966796875,0.244140625,-6.561279296875
5.0374999,1.3126211166381836,-1.624465823173523,9.61571216583252,12.0849609375,4.791259765625,6.103515625
5.0424999,1.192312479019165,-1.5269020795822144,9.37629222869873,-8.880615234375,-4.058837890625,-6.683349609375
5.0474999,1.159990668296814,-1.2868833541870117,9.503185272216797,-8.6669921875,-6.866455078125,-6.77490234375
5.0524999,1.2671312093734741,-1.1037269830703735,9.819219589233398,11.90185546875,0.091552734375,6.7138671875
5.0574999,1.3227964639663696,-1.1941081285476685,9.525930404663086,-8.60595703125,-6.591796875,-7.38525390625
5.062499900000001,1.4778209924697876,-1.058835744857788,9.79288387298584,11.29150390625,0.701904296875,6.683349609375
5.0674999000000005,1.514931082725525,-1.206079125404358,9.491812705993652,-9.124755859375,-4.486083984375,-6.7138671875
5.0724999,1.6214730739593506,-1.106719732284546,9.77253246307373,11.41357421875,2.227783203125,6.591796875
5.0774999,1.591545581817627,-1.2425906658172607,9.493608474731445,-10.25390625,-2.8076171875,-6.53076171875
5.0824999,1.6160861253738403,-1.146224021911621,9.784503936767578,10.92529296875,3.662109375,6.195068359375
5.0874999,1.5526398420333862,-1.245583415031433,9.518747329711914,-11.688232421875,-1.495361328125,-5.950927734375
5.0924999,1.5275006294250488,-1.1456254720687866,9.799467086791992,11.138916015625,3.5400390625,5.584716796875
5.0974999,1.478419542312622,-1.2330138683319092,9.530718803405762,-13.275146484375,-0.396728515625,-5.18798828125
5.102499900000001,1.4371196031570435,-1.1755530834197998,9.79527759552002,11.41357421875,2.86865234375,5.06591796875
5.1074999000000005,1.3874398469924927,-1.2952631711959839,9.749788284301758,13.153076171875,1.190185546875,3.753662109375
5.1124999,1.40180504322052,-1.3431471586227417,9.513360023498535,-13.824462890625,-0.244140625,-3.387451171875
5.1174999,1.3934253454208374,-1.4053963422775269,9.70310115814209,14.678955078125,-0.244140625,2.62451171875
5.1224999,1.4053963422775269,-1.3730746507644653,9.531915664672852,-13.763427734375,-0.152587890625,-2.105712890625
5.1274999,1.4233529567718506,-1.3952209949493408,9.699509620666504,15.350341796875,-1.495361328125,1.068115234375
5.1324999,1.4065934419631958,-1.279700756072998,9.591172218322754,-14.007568359375,0.67138671875,-0.518798828125
5.1374999,1.4299370050430298,-1.2946646213531494,9.691728591918945,15.045166015625,-2.777099609375,-0.732421875
5.1424999,1.425148606300354,-1.1174936294555664,9.586383819580078,-13.702392578125,1.861572265625,1.220703125
5.147499900000001,1.4544775485992432,-1.2802993059158325,9.668384552001953,13.73291015625,-3.326416015625,-2.471923828125
5.1524999000000005,1.4760253429412842,-1.0432734489440918,9.57321548461914,-12.20703125,3.570556640625,3.173828125
5.1574999,1.4748282432556152,-1.3329718112945557,9.634267807006836,11.138916015625,-3.692626953125,-4.2724609375
5.1624999,1.4766238927841187,-1.026513934135437,9.618705749511719,-10.040283203125,5.0048828125,4.974365234375
5.1674999,1.3940238952636719,-1.3994108438491821,9.575011253356934,3.662109375,-4.5166015625,-6.89697265625
5.1724999,1.3658920526504517,-1.173158884048462,9.778518676757812,-1.983642578125,5.126953125,7.14111328125
5.1774999,1.3820528984069824,-1.4407109022140503,9.498396873474121,-0.91552734375,-4.45556640625,-7.110595703125
5.1824999,1.4317326545715332,-1.238999366760254,9.817423820495605,3.387451171875,4.08935546875,6.89697265625
5.187499900000001,1.3856441974639893,-1.3718775510787964,9.498396873474121,-5.523681640625,-3.90625,-6.927490234375
5.1924999000000005,1.468244194984436,-1.1893197298049927,9.785700798034668,8.514404296875,2.593994140625,5.950927734375
5.1974999,1.4347254037857056,-1.2360066175460815,9.502586364746094,-9.3994140625,-2.838134765625,-5.462646484375
5.2024999,1.4814122915267944,-1.1336544752120972,9.697115898132324,12.298583984375,0.335693359375,4.058837890625
5.2074999,1.4993687868118286,-1.1540051698684692,9.490615844726562,-12.237548828125,-0.54931640625,-3.021240234375
5.2124999,1.489791989326477,-1.1839327812194824,9.658807754516602,13.916015625,-1.46484375,1.068115234375
5.2174999,1.5017629861831665,-1.1210849285125732,9.552865028381348,-13.214111328125,1.495361328125,-0.152587890625
5.2224999,1.4634557962417603,-1.4036006927490234,9.624691009521484,9.33837890625,-4.241943359375,-4.608154296875
5.227499900000001,1.4305355548858643,-1.0696096420288086,9.606734275817871,-6.77490234375,5.096435546875,5.523681640625
5.2324999000000005,1.4431051015853882,-1.4065934419631958,9.515754699707031,3.0517578125,-4.364013671875,-6.34765625
5.2374999,1.427542805671692,-1.1312602758407593,9.718064308166504,-0.18310546875,5.18798828125,6.53076171875
5.2424999,1.4053963422775269,-1.367687702178955,9.491812705993652,-3.265380859375,-3.7841796875,-6.65283203125
5.2474999,1.434126853942871,-1.1749545335769653,9.819219589233398,6.378173828125,3.47900390625,5.828857421875
5.2524999,1.4000093936920166,-1.270722508430481,9.551069259643555,-9.490966796875,-1.861572265625,-5.06591796875
5.2574999,1.4383167028427124,-1.169567584991455,9.768941879272461,11.505126953125,0.91552734375,3.570556640625
5.2624999,1.4107834100723267,-1.1581950187683105,9.583989143371582,-12.542724609375,0.213623046875,-1.953125
5.2674999,1.4269442558288574,-1.2539631128311157,9.66299819946289,13.031005859375,-2.044677734375,-0.18310546875
5.272499900000001,1.416170358657837,-1.1162965297698975,9.585784912109375,-12.0849609375,2.8076171875,1.800537109375
5.2774999000000005,1.446696400642395,-1.1988965272903442,9.759963035583496,0.762939453125,4.302978515625,6.195068359375
