# Time (seconds),Accel_X,Accel_Y,Accel_Z,Gyro_X,Gyro_Y,Gyro_Z
0.0024999,-1.5095441341400146,-0.7984662652015686,9.230844497680664,8.23974609375,1.220703125,116.119384765625
0.0074999,-3.93367338180542,0.20470423996448517,9.609726905822754,9.765625,0.6103515625,167.388916015625
0.012499900000000001,-3.8528690338134766,0.09516951441764832,9.949105262756348,7.171630859375,2.38037109375,155.609130859375
0.0174999,-1.3048399686813354,0.21607670187950134,9.90361499786377,5.889892578125,-1.861572265625,43.121337890625
0.0224999,1.7884687185287476,0.14784196019172668,9.457097053527832,-2.8076171875,-13.397216796875,-113.22021484375
0.0274999,4.551976203918457,-1.1444283723831177,9.299677848815918,-18.218994140625,0.518798828125,-197.57080078125
0.0324999,4.242525577545166,-0.42856210470199585,8.843582153320312,-6.89697265625,4.486083984375,-155.33447265625
0.0374999,2.0673930644989014,-0.7894880175590515,9.168595314025879,-5.18798828125,3.47900390625,-24.59716796875
0.0424999,-1.436521053314209,0.07481880486011505,9.395445823669434,7.87353515625,0.18310546875,108.09326171875
0.0474999,-3.9612066745758057,0.7170634269714355,9.804854393005371,10.284423828125,0.8544921875,160.2783203125
0.0524999,-4.115034103393555,0.8152256608009338,9.959878921508789,7.598876953125,5.2490234375,155.45654296875
0.0574999,-1.7399860620498657,0.3345896899700165,9.852738380432129,8.392333984375,-0.457763671875,55.145263671875
0.0624999,1.7495628595352173,-0.011372458189725876,9.573814392089844,-1.52587890625,-14.58740234375,-100.433349609375
0.0674999,4.4490251541137695,-1.4586673974990845,9.111733436584473,-19.805908203125,1.983642578125,-197.509765625
0.0724999,4.473566055297852,-0.871489405632019,8.881889343261719,-9.033203125,7.171630859375,-164.703369140625
0.0774999,2.205658197402954,-1.4754267930984497,8.761581420898438,-1.983642578125,3.23486328125,-32.28759765625
0.0824999,-1.2192472219467163,-0.40462008118629456,8.996811866760254,6.317138671875,1.129150390625,108.245849609375
0.0874999,-3.9414546489715576,0.4291606545448303,9.263765335083008,8.1787109375,0.030517578125,167.877197265625
0.0924999,-4.280832767486572,0.5099649429321289,9.515155792236328,10.009765625,1.77001953125,168.060302734375
0.0974999,-2.0715830326080322,0.6027402877807617,9.692925453186035,6.072998046875,0.518798828125,77.178955078125
0.1024999,1.0199298858642578,-0.028131870552897453,9.43494987487793,0.244140625,-13.519287109375,-82.733154296875
0.1074999,4.182071685791016,-1.1192892789840698,9.323619842529297,-17.486572265625,-1.617431640625,-187.713623046875
0.1124999,4.619612216949463,-1.0420763492584229,9.043498039245605,-9.368896484375,2.9296875,-167.6025390625
0.1174999,2.9095535278320312,-1.0576386451721191,9.186552047729492,-6.103515625,3.662109375,-54.8095703125
0.1224999,-0.39384618401527405,-0.06584054976701736,9.352949142456055,5.0048828125,1.312255859375,82.489013671875
0.1274999,-3.382408380508423,0.5446808934211731,9.668983459472656,11.23046875,-0.67138671875,145.721435546875
0.1324999,-4.261679172515869,0.9295487999916077,9.825803756713867,7.62939453125,4.852294921875,157.16552734375
0.1374999,-2.38462495803833,0.6506243348121643,9.838972091674805,7.87353515625,2.227783203125,79.376220703125
0.1424999,0.5632359385490417,0.0011971008498221636,9.813833236694336,1.708984375,-14.312744140625,-72.174072265625
0.1474999,3.6727054119110107,-0.8601169586181641,9.27334213256836,-18.341064453125,0.67138671875,-186.46240234375
0.1524999,4.629787445068359,-0.718859076499939,8.859145164489746,-11.871337890625,7.32421875,-177.734375
0.1574999,2.935889720916748,-1.5442601442337036,8.707711219787598,-1.46484375,4.0283203125,-59.844970703125
0.1624999,0.05027823522686958,-0.45010992884635925,8.583212852478027,4.730224609375,1.03759765625,87.890625
0.1674999,-3.028665065765381,-0.262763649225235,9.169194221496582,6.34765625,-0.732421875,160.736083984375
0.1724999,-4.101267337799072,0.08619125932455063,9.490615844726562,11.016845703125,0.885009765625,170.7763671875
0.17749990000000002,-2.53725528717041,0.4124012291431427,9.77253246307373,6.89697265625,1.922607421875,99.578857421875
0.1824999,0.37169981002807617,-0.1454477459192276,9.633070945739746,1.3427734375,-11.41357421875,-55.35888671875
0.1874999,3.5278561115264893,-0.5237316489219666,9.291297912597656,-15.106201171875,-3.448486328125,-175.10986328125
0.1924999,4.883573055267334,-0.7140706777572632,8.933364868164062,-10.345458984375,3.448486328125,-174.560546875
0.1974999,3.2172086238861084,-0.8445546627044678,9.01895809173584,-5.79833984375,3.326416015625,-77.81982421875
0.2024999,0.5590460896492004,-0.17417816817760468,9.14225959777832,1.77001953125,2.38037109375,64.483642578125
0.20749990000000001,-2.8419175148010254,-0.07182604819536209,9.722254753112793,11.90185546875,-1.77001953125,138.946533203125
0.2124999,-4.110844135284424,0.2472013235092163,10.011354446411133,8.1787109375,4.0283203125,162.841796875
0.2174999,-2.8443117141723633,0.09457096457481384,10.104129791259766,7.38525390625,4.0283203125,103.607177734375
0.2224999,-0.021547814831137657,-0.4106055796146393,9.852738380432129,4.94384765625,-12.5732421875,-44.7998046875
0.2274999,3.069965124130249,-0.5608417391777039,9.159018516540527,-15.045166015625,-3.204345703125,-173.797607421875
0.2324999,4.86142635345459,-0.8050503134727478,8.966883659362793,-15.716552734375,6.4697265625,-190.36865234375
0.2374999,3.1980550289154053,-1.169567584991455,8.608352661132812,-2.655029296875,4.241943359375,-87.188720703125
0.2424999,0.7936778664588928,-0.4165911078453064,8.88907241821289,4.119873046875,1.739501953125,68.695068359375
0.2474999,-2.801215887069702,-0.5213374495506287,9.428964614868164,6.40869140625,-0.244140625,155.548095703125
0.2524999,-4.200028419494629,0.11312603205442429,9.648633003234863,10.8642578125,1.434326171875,176.483154296875
0.2574999,-3.0382418632507324,0.21368250250816345,9.973047256469727,7.537841796875,2.960205078125,121.673583984375
0.2624999,-0.06524199992418289,0.012569558806717396,9.555258750915527,3.662109375,-9.58251953125,-28.656005859375
0.2674999,3.184288263320923,-0.04249707981944084,9.32302188873291,-12.542724609375,-7.14111328125,-165.46630859375
0.2724999,5.193023681640625,-0.48961424827575684,8.984241485595703,-14.495849609375,3.0517578125,-190.36865234375
0.2774999,5.193023681640625,-0.48961424827575684,8.984241485595703,-14.495849609375,3.0517578125,-190.36865234375
0.2824999,3.886387825012207,-0.5835866928100586,8.965087890625,-5.279541015625,2.716064453125,-105.89599609375
0.28749990000000003,1.3419500589370728,-0.365115761756897,9.35773754119873,-0.8544921875,3.143310546875,42.083740234375
0.2924999,-2.295440912246704,-0.4159925580024719,9.75637149810791,11.23046875,-1.983642578125,131.805419921875
0.2974999,-4.125808238983154,-0.0077811554074287415,10.023324966430664,8.514404296875,3.23486328125,162.811279296875
0.3024999,-3.399766445159912,0.028131870552897453,10.031106948852539,6.28662109375,4.058837890625,118.255615234375
0.3074999,-0.6548141837120056,-0.4315548539161682,9.616311073303223,6.2255859375,-10.101318359375,-21.514892578125
0.3124999,2.720411777496338,-0.2687491476535797,9.43375301361084,-10.92529296875,-6.16455078125,-156.707763671875
0.3174999,4.880579948425293,-1.0468647480010986,8.81664752960205,-17.333984375,5.096435546875,-195.098876953125
0.3224999,3.8594532012939453,-1.0079588890075684,8.835203170776367,-3.448486328125,5.18798828125,-108.88671875
0.3274999,1.2850877046585083,-0.6063315868377686,8.708909034729004,2.105712890625,2.74658203125,46.7529296875
0.3324999,-2.432508945465088,-0.6488286852836609,9.084798812866211,6.500244140625,0.091552734375,145.81298828125
0.3374999,-4.37540340423584,0.3381809890270233,9.32302188873291,10.162353515625,1.89208984375,175.72021484375
0.3424999,-3.623624324798584,0.3106476664543152,9.62947940826416,8.209228515625,2.99072265625,136.016845703125
0.34749990000000003,-0.7182605266571045,0.3519476354122162,9.589376449584961,4.119873046875,-7.659912109375,-1.739501953125
0.35249990000000003,2.8401217460632324,0.4213795065879822,9.510367393493652,-9.246826171875,-9.368896484375,-148.193359375
0.3574999,5.0703206062316895,-0.7164648771286011,9.279925346374512,-16.11328125,3.173828125,-194.671630859375
0.3624999,4.214992046356201,-0.7266402244567871,9.191340446472168,-3.60107421875,3.23486328125,-124.755859375
0.3674999,1.6160861253738403,-1.0103530883789062,9.352949142456055,-3.936767578125,3.60107421875,15.655517578125
0.3724999,-2.22660756111145,-0.8948329091072083,9.428964614868164,10.040283203125,-2.288818359375,119.171142578125
0.3774999,-4.31255578994751,-0.14245499670505524,9.708487510681152,9.46044921875,2.044677734375,160.552978515625
0.3824999,-3.8594532012939453,0.08918401598930359,9.761758804321289,6.4697265625,4.241943359375,133.697509765625
0.3874999,-0.9720458984375,-0.26994624733924866,9.676166534423828,8.11767578125,-6.28662109375,6.4697265625
0.3924999,2.870049238204956,0.05506663769483566,9.258378028869629,-7.293701171875,-10.07080078125,-137.908935546875
0.3974999,5.035604953765869,-1.3455413579940796,9.130887031555176,-19.805908203125,3.997802734375,-201.324462890625
0.4024999,4.46518611907959,-0.7846996188163757,8.7298583984375,-5.92041015625,6.103515625,-134.613037109375
0.4074999,1.390432596206665,-1.1103110313415527,8.912415504455566,1.373291015625,3.143310546875,18.280029296875
0.41249990000000003,-2.4193408489227295,-0.7601590156555176,9.187748908996582,6.7138671875,-0.06103515625,138.092041015625
0.41749990000000003,-4.7602715492248535,0.30705636739730835,9.460089683532715,8.6669921875,0.6103515625,180.145263671875
0.4224999,-4.305373191833496,0.21188685297966003,9.770736694335938,9.735107421875,2.9296875,151.4892578125
0.4274999,-1.292868971824646,0.46746787428855896,9.455301284790039,6.53076171875,-3.23486328125,27.2216796875
0.4324999,2.3122003078460693,0.424970805644989,8.883087158203125,-4.852294921875,-12.359619140625,-129.0283203125
0.4374999,4.871003150939941,-0.912190854549408,8.647257804870605,-19.195556640625,1.0986328125,-202.972412109375
0.4424999,4.373608112335205,-0.45669397711753845,8.190564155578613,-8.087158203125,6.195068359375,-150.726318359375
0.4474999,1.7345991134643555,-1.0630255937576294,8.725667953491211,-3.35693359375,3.326416015625,-7.26318359375
0.4524999,-2.0841526985168457,-0.5740098357200623,9.130887031555176,9.796142578125,-0.54931640625,120.513916015625
0.4574999,-4.508281707763672,0.0933738648891449,9.618705749511719,9.033203125,1.800537109375,168.02978515625
0.4624999,-4.3622355461120605,0.1693897694349289,9.988609313964844,7.965087890625,4.791259765625,150.634765625
0.4674999,-1.5047557353973389,0.02454056777060032,9.945513725280762,9.521484375,-3.0517578125,37.872314453125
0.47249990000000003,1.9141643047332764,-0.09935937076807022,9.545681953430176,-3.692626953125,-14.16015625,-115.936279296875
0.47749990000000003,4.732139587402344,-1.5795745849609375,9.43255615234375,-20.782470703125,3.662109375,-202.0263671875
0.4824999,4.4077253341674805,-0.9959878921508789,9.054272651672363,-10.040283203125,6.134033203125,-158.447265625
0.4874999,1.998559832572937,-1.6687586307525635,9.297284126281738,-1.434326171875,3.143310546875,-15.80810546875
0.4924999,-1.4245500564575195,-0.9002198576927185,9.558850288391113,8.514404296875,0.3662109375,118.865966796875
0.4974999,-3.9480385780334473,0.13766659796237946,9.793481826782227,8.60595703125,0.640869140625,173.919677734375
0.5024999,-3.890577793121338,0.18136078119277954,9.922768592834473,8.758544921875,2.655029296875,165.985107421875
0.5074999,-1.4227544069290161,0.4578910768032074,9.951498985290527,5.889892578125,0.091552734375,62.19482421875
0.5124999,1.9524714946746826,0.16879121959209442,9.513360023498535,-1.373291015625,-13.916015625,-98.20556640625
0.5174999,4.642356872558594,-1.246780514717102,9.338583946228027,-18.463134765625,0.579833984375,-191.375732421875
0.5224999,4.60045862197876,-1.116895079612732,8.945934295654297,-5.889892578125,2.471923828125,-155.548095703125
0.5274999,2.5318682193756104,-1.5203180313110352,9.093177795410156,-6.317138671875,4.364013671875,-38.360595703125
0.5324999,-1.0743980407714844,-0.656609833240509,9.327211380004883,5.615234375,-1.220703125,87.5244140625
0.5374999,-3.7217864990234375,0.08080431073904037,9.615114212036133,12.14599609375,-0.30517578125,142.486572265625
0.5424999,-4.213795185089111,0.7086837291717529,9.856329917907715,5.889892578125,4.241943359375,151.123046875
0.5474999,-2.0679917335510254,0.4884171485900879,9.860519409179688,7.354736328125,1.03759765625,61.70654296875
0.5524999,1.1288660764694214,0.1999158412218094,9.57441234588623,0.3662109375,-13.275146484375,-88.43994140625
0.5574999,4.059369087219238,-1.1276689767837524,9.329007148742676,-18.463134765625,2.01416015625,-192.56591796875
0.5624999,4.450222492218018,-0.8463503122329712,8.811859130859375,-9.46044921875,6.7138671875,-168.670654296875
0.5674999000000001,2.3696610927581787,-1.9434932470321655,8.746018409729004,-1.64794921875,4.302978515625,-41.107177734375
0.5724999000000001,-0.768538773059845,-0.8493430614471436,8.777742385864258,6.134033203125,-0.732421875,104.736328125
0.5774999000000001,-3.6379895210266113,-0.31783026456832886,9.132682800292969,6.072998046875,-0.8544921875,167.388916015625
0.5824999,-4.262876033782959,0.08319851011037827,9.460089683532715,11.23046875,1.739501953125,165.679931640625
0.5874999,-2.206855535507202,0.31603461503982544,9.540295600891113,7.171630859375,1.953125,81.512451171875
0.5924999,0.7835025191307068,-0.019153613597154617,9.482834815979004,0.152587890625,-13.0615234375,-75.653076171875
0.5974999,3.9234981536865234,-0.8960300087928772,9.17936897277832,-17.669677734375,-0.396728515625,-187.774658203125
0.6024999,4.841075897216797,-0.6506243348121643,8.992023468017578,-8.97216796875,3.753662109375,-172.05810546875
0.6074999,3.1082723140716553,-0.9080010056495667,9.221866607666016,-5.06591796875,3.204345703125,-65.0634765625
0.6124999,0.16220717132091522,-0.11252748221158981,9.329605102539062,3.509521484375,1.068115234375,75.408935546875
0.6174999,-2.9694087505340576,0.16519992053508759,9.748590469360352,11.1083984375,-1.373291015625,145.5078125
0.6224999,-3.9911341667175293,0.3866635859012604,9.91977596282959,7.38525390625,3.72314453125,163.0859375
0.6274999,-2.3582887649536133,0.2645592987537384,9.946112632751465,8.11767578125,2.960205078125,91.00341796875
0.6324999,0.4854243993759155,-0.2974795699119568,9.715670585632324,4.730224609375,-13.85498046875,-61.676025390625
0.6374999,3.6068649291992188,-0.8930372595787048,9.197924613952637,-16.510009765625,-1.708984375,-182.037353515625
0.6424999,3.6068649291992188,-0.8930372595787048,9.197924613952637,-16.510009765625,-1.708984375,-182.037353515625
0.6474999,4.739920616149902,-0.751779317855835,8.798690795898438,-15.44189453125,5.767822265625,-185.05859375
0.6524999,3.025672435760498,-1.3994108438491821,8.76337718963623,-3.753662109375,4.08935546875,-72.967529296875
0.6574999,0.21607670187950134,-0.2777273952960968,8.815450668334961,6.591796875,1.373291015625,83.3740234375
0.6624999,-3.0789434909820557,-0.24839842319488525,9.498396873474121,6.744384765625,-0.396728515625,163.14697265625
0.6674999,-4.2963948249816895,0.20111294090747833,9.739013671875,9.8876953125,1.983642578125,176.788330078125
0.6724999,-2.803011655807495,0.3597288131713867,10.035296440124512,7.87353515625,3.570556640625,108.245849609375
0.6774999,0.12629413604736328,-0.14065934717655182,9.616311073303223,4.39453125,-11.65771484375,-47.760009765625
0.6824999,3.292625904083252,-0.3585317134857178,9.231443405151367,-14.801025390625,-5.401611328125,-177.459716796875
0.6874999,4.969165802001953,-0.5494692921638489,8.660426139831543,-14.404296875,6.256103515625,-190.887451171875
0.6924999000000001,3.2585084438323975,-0.8457517623901367,8.648454666137695,-5.645751953125,4.08935546875,-95.306396484375
0.6974999000000001,0.7374141216278076,-0.18076223134994507,8.85435676574707,2.86865234375,1.922607421875,57.4951171875
0.7024999000000001,-2.8113913536071777,-0.31603461503982544,9.53849983215332,10.162353515625,-1.678466796875,143.1884765625
0.7074999,-4.24970817565918,0.11911153793334961,9.891644477844238,8.056640625,3.0517578125,167.8466796875
0.7124999,-3.1016883850097656,0.08439560979604721,10.140042304992676,7.4462890625,4.33349609375,111.724853515625
0.7174999,-0.2454056739807129,-0.19273324310779572,9.885659217834473,6.591796875,-11.962890625,-35.614013671875
0.7224999,2.9682116508483887,-0.2998737692832947,9.491812705993652,-13.519287109375,-5.37109375,-169.49462890625
0.7274999,4.915894508361816,-0.8301894664764404,9.308655738830566,-17.2119140625,6.53076171875,-195.587158203125
0.7324999,3.468599796295166,-1.113303780555725,9.106945037841797,-5.67626953125,3.326416015625,-102.84423828125
0.7374999,0.9385270476341248,-0.639850378036499,9.208698272705078,4.69970703125,2.38037109375,58.929443359375
0.7424999,-2.7503392696380615,-0.7553706169128418,9.548076629638672,7.537841796875,-1.007080078125,154.1748046875
0.7474999,-4.396352767944336,0.11432313174009323,9.582193374633789,8.85009765625,1.007080078125,180.206298828125
0.7524999,-3.467402696609497,0.1777694821357727,9.701904296875,7.904052734375,4.058837890625,129.119873046875
0.7574999,-0.48901569843292236,0.08080431073904037,9.41519832611084,5.2490234375,-7.99560546875,-15.2587890625
0.7624999,2.8185739517211914,0.035913024097681046,9.311050415039062,-10.92529296875,-8.23974609375,-156.73828125
0.7674999,5.0900726318359375,-0.767341673374176,8.974664688110352,-16.357421875,4.364013671875,-193.023681640625
0.7724999,4.040215492248535,-0.872686505317688,9.026140213012695,-3.96728515625,3.23486328125,-115.6005859375
0.7774999,1.5885528326034546,-0.8206126093864441,9.261370658874512,-1.953125,2.532958984375,27.40478515625
0.7824999,-2.05781626701355,-0.6967126727104187,9.487024307250977,10.498046875,-2.593994140625,123.931884765625
0.7874999,-4.055179119110107,-0.009576806798577309,9.784503936767578,8.697509765625,2.410888671875,160.5224609375
0.7924999,-3.535637378692627,0.11911153793334961,9.852140426635742,6.591796875,4.058837890625,125.8544921875
0.7974999,-0.9097966551780701,-0.228047713637352,9.673172950744629,8.514404296875,-8.026123046875,-5.55419921875
0.8024999,2.8161797523498535,-0.05746084079146385,9.32541561126709,-8.9111328125,-8.1787109375,-146.05712890625
0.8074999,4.832695960998535,-1.278503656387329,9.011775016784668,-20.355224609375,4.913330078125,-199.27978515625
0.8124999,4.173093795776367,-0.9379284977912903,8.83699893951416,-5.67626953125,6.072998046875,-123.1689453125
0.8174999000000001,1.3515268564224243,-1.0606313943862915,8.87051773071289,3.570556640625,2.288818359375,33.75244140625
0.8224999000000001,-2.4684219360351562,-0.7493851184844971,9.288305282592773,6.28662109375,-1.8310546875,145.477294921875
0.8274999000000001,-4.603451251983643,0.2801215946674347,9.566631317138672,8.056640625,0.762939453125,179.01611328125
0.8324999000000001,-4.037222385406494,0.31603461503982544,9.843161582946777,10.31494140625,3.47900390625,143.310546875
0.8374999,-1.0145429372787476,0.37229835987091064,9.628880500793457,6.805419921875,-3.814697265625,16.021728515625
0.8424999,2.632424831390381,0.5063736438751221,9.422979354858398,-8.026123046875,-11.3525390625,-134.796142578125
0.8474999,5.0691237449646,-1.0983400344848633,9.154230117797852,-20.01953125,4.180908203125,-198.2421875
0.8524999,4.487332344055176,-0.8313865661621094,8.9866361618042,-3.2958984375,4.5166015625,-135.1318359375
0.8574999,1.9117701053619385,-1.533486247062683,9.419387817382812,-4.0283203125,2.899169921875,-1.190185546875
0.8624999,-1.8836381435394287,-1.136048674583435,9.55825138092041,8.6669921875,-2.5634765625,111.846923828125
0.8674999,-4.1862616539001465,-0.37828385829925537,9.939528465270996,9.979248046875,1.312255859375,157.16552734375
0.8724999,-4.049792289733887,-0.02753331884741783,10.093356132507324,6.4697265625,4.119873046875,141.510009765625
0.8774999,-1.3299790620803833,-0.1173158809542656,9.79408073425293,9.307861328125,-3.204345703125,26.2451171875
0.8824999,2.0823569297790527,0.1346738487482071,9.348758697509766,-4.2724609375,-12.20703125,-121.673583984375
0.8874999,4.580107688903809,-1.445499300956726,9.202713012695312,-20.477294921875,3.35693359375,-201.5380859375
0.8924999,4.141968727111816,-0.6805518269538879,8.793902397155762,-9.21630859375,7.4462890625,-148.37646484375
0.8974999,1.5628151893615723,-1.5436615943908691,9.040505409240723,1.3427734375,3.35693359375,3.143310546875
0.9024999,-2.0644004344940186,-0.7428010702133179,9.296086311340332,7.87353515625,-1.40380859375,132.01904296875
0.9074999,-4.355052947998047,0.17956513166427612,9.530718803405762,7.01904296875,0.457763671875,179.0771484375
0.9124999,-4.103063106536865,0.3100491166114807,9.782708168029785,10.711669921875,3.143310546875,159.912109375
0.9174999,-1.2791022062301636,0.5201402902603149,9.855731010437012,8.087158203125,-0.1220703125,50.140380859375
0.9224999,2.276885747909546,0.16519992053508759,9.371503829956055,-2.716064453125,-14.434814453125,-109.039306640625
0.9274999,4.997896194458008,-1.2300211191177368,9.257779121398926,-21.728515625,1.77001953125,-199.615478515625
0.9324999,4.796782970428467,-0.921169102191925,8.814851760864258,-7.171630859375,5.950927734375,-158.87451171875
0.9374999,2.5121161937713623,-1.4640543460845947,9.08719253540039,-3.936767578125,3.448486328125,-34.3017578125
0.9424999000000001,-1.1420341730117798,-0.5650315880775452,9.349357604980469,6.40869140625,-2.13623046875,94.879150390625
0.9474999000000001,-3.8115692138671875,0.14185644686222076,9.624691009521484,10.223388671875,-0.396728515625,150.543212890625
0.9524999000000001,-4.08510684967041,0.5267243981361389,9.873088836669922,6.439208984375,3.936767578125,151.91650390625
0.9574999000000001,-1.8692729473114014,0.5339069962501526,9.821614265441895,8.48388671875,0.732421875,55.633544921875
0.9624999,1.4915876388549805,-0.004788403399288654,9.686341285705566,0.48828125,-13.427734375,-95.733642578125
0.9674999,4.456806659698486,-1.2360066175460815,9.361329078674316,-18.280029296875,1.251220703125,-196.441650390625
0.9724999,4.629787445068359,-1.0504560470581055,9.169792175292969,-11.810302734375,7.171630859375,-169.097900390625
0.9774999,2.516305923461914,-1.9045875072479248,9.044096946716309,-1.678466796875,3.509521484375,-32.8369140625
0.9824999,-0.9193734526634216,-0.7386112213134766,9.210494041442871,7.9345703125,-1.40380859375,114.31884765625
0.9874999,-3.824737310409546,-0.05626374110579491,9.513360023498535,5.92041015625,-0.30517578125,173.675537109375
0.9924999,-4.378994941711426,0.3447650372982025,9.666589736938477,10.92529296875,2.960205078125,168.701171875
0.9974999,-2.1703438758850098,0.3693056106567383,9.71926212310791,9.063720703125,2.471923828125,80.230712890625
1.0024999,1.047463297843933,-0.07900865375995636,9.671976089477539,1.983642578125,-13.97705078125,-79.40673828125
1.0074999000000002,1.047463297843933,-0.07900865375995636,9.671976089477539,1.983642578125,-13.97705078125,-79.40673828125
1.0124999000000001,4.13059663772583,-0.982221245765686,9.173383712768555,-20.111083984375,-0.946044921875,-193.17626953125
1.0174999000000002,4.997297286987305,-0.7368155717849731,8.99860668182373,-12.298583984375,5.950927734375,-178.955078125
1.0224999000000001,3.141192674636841,-1.115697979927063,9.035717010498047,-3.997802734375,3.326416015625,-65.093994140625
1.0274999,0.0077811554074287415,-0.1693897694349289,9.086593627929688,5.584716796875,0.06103515625,81.024169921875
1.0324999000000001,-3.112462282180786,0.02454056777060032,9.552865028381348,9.46044921875,-1.373291015625,150.81787109375
1.0374999,-4.228160381317139,0.3166331648826599,9.793481826782227,7.38525390625,3.387451171875,163.177490234375
1.0424999000000001,-2.5983073711395264,0.3190273642539978,9.886856079101562,8.148193359375,3.021240234375,87.493896484375
1.0474999,0.27054479718208313,-0.23702596127986908,9.633668899536133,3.90625,-13.12255859375,-64.117431640625
1.0524999000000002,3.2782607078552246,-0.706289529800415,9.1662015914917,-16.7236328125,-1.495361328125,-183.868408203125
1.0574999,4.551377296447754,-0.7906851172447205,8.701127052307129,-14.34326171875,6.34765625,-183.197021484375
1.0624999000000002,2.8347349166870117,-1.367687702178955,8.767566680908203,-4.241943359375,3.753662109375,-71.59423828125
1.0674999,0.1801636815071106,-0.36571431159973145,8.80048656463623,6.8359375,0.48828125,87.646484375
1.0724999000000002,-2.9975404739379883,-0.34416648745536804,9.545083999633789,6.7138671875,-1.434326171875,163.116455078125
1.0774999,-4.194641590118408,0.1867477297782898,9.771934509277344,9.490966796875,2.38037109375,177.30712890625
1.0824999000000002,-2.7898435592651367,0.32680854201316833,10.052654266357422,7.781982421875,4.425048828125,112.396240234375
1.0874999,0.1646013706922531,-0.1586158573627472,9.765948295593262,4.058837890625,-10.31494140625,-42.29736328125
1.0924999000000002,3.228580951690674,-0.4489128291606903,9.475052833557129,-14.46533203125,-6.04248046875,-174.468994140625
1.0974999,5.146336555480957,-0.828393816947937,9.008183479309082,-12.969970703125,5.523681640625,-188.41552734375
1.1024999000000002,3.7223851680755615,-1.0636241436004639,9.016563415527344,-4.150390625,3.7841796875,-99.4873046875
1.1074999,1.2982559204101562,-0.5710170865058899,9.2033109664917,-0.244140625,1.89208984375,43.701171875
1.1124999000000002,-2.1493945121765137,-0.5847837924957275,9.720458984375,10.92529296875,-2.99072265625,129.364013671875
1.1174999,-3.8151605129241943,-0.04967968538403511,10.031106948852539,7.476806640625,2.5634765625,159.820556640625
1.1224999000000002,-3.090315818786621,-0.03172317147254944,10.112509727478027,6.591796875,3.84521484375,111.419677734375
1.1274999,-0.43754035234451294,-0.2364274114370346,9.724648475646973,7.659912109375,-9.33837890625,-29.052734375
1.1324999000000002,2.7018566131591797,-0.2214636504650116,9.296685218811035,-11.23046875,-6.2255859375,-163.604736328125
1.1374999000000001,4.592078685760498,-0.8236053586006165,8.744223594665527,-18.768310546875,6.622314453125,-200.01220703125
1.1424999000000002,3.3854012489318848,-0.9768342971801758,8.598775863647461,-5.279541015625,6.011962890625,-104.67529296875
1.1474999000000001,0.7583633661270142,-0.7661445140838623,8.452729225158691,6.866455078125,-0.18310546875,61.03515625
1.1524999000000002,-2.875436305999756,-0.7248445749282837,8.995614051818848,3.936767578125,-0.701904296875,157.958984375
1.1574999000000001,-4.611232280731201,0.1107318252325058,9.206304550170898,8.514404296875,2.8076171875,180.511474609375
1.1624999,-3.7469255924224854,0.21547815203666687,9.617507934570312,12.481689453125,3.72314453125,133.819580078125
1.1674999000000001,-0.7481880187988281,0.33279404044151306,9.617507934570312,6.65283203125,-5.645751953125,1.678466796875
1.1724999,2.9706058502197266,0.3250128924846649,9.390059471130371,-11.566162109375,-10.223388671875,-147.0947265625
1.1774999000000002,5.171475887298584,-0.9906009435653687,9.347561836242676,-20.233154296875,3.90625,-198.66943359375
1.1824999,4.489726543426514,-0.9630676507949829,9.073426246643066,-2.166748046875,4.08935546875,-129.241943359375
1.1874999000000002,1.9033904075622559,-1.4059948921203613,9.41759204864502,-2.50244140625,3.5400390625,6.9580078125
1.1924999,-1.867477297782898,-1.18094003200531,9.55466079711914,8.148193359375,-1.861572265625,114.8681640625
1.1974999000000002,-4.0863037109375,-0.2406172752380371,9.818022727966309,8.697509765625,0.518798828125,158.111572265625
1.2024999,-3.8091750144958496,-0.07721300423145294,9.99100399017334,6.65283203125,3.509521484375,135.711669921875
1.2074999000000002,-1.0319008827209473,-0.02753331884741783,9.797672271728516,8.7890625,-4.21142578125,16.571044921875
1.2124999,2.518101692199707,0.1107318252325058,9.124900817871094,-4.913330078125,-9.8876953125,-129.150390625
1.2174999000000002,4.997297286987305,-1.3048399686813354,9.014169692993164,-19.83642578125,2.838134765625,-203.79638671875
1.2224999,4.48134708404541,-0.5728127360343933,8.501212120056152,-9.33837890625,6.134033203125,-147.27783203125
1.2274999000000002,1.7417817115783691,-1.3754688501358032,8.738237380981445,2.593994140625,1.922607421875,8.758544921875
1.2324999,-2.0901381969451904,-0.5303156971931458,9.211092948913574,7.2021484375,-0.885009765625,135.528564453125
1.2374999000000002,-4.530427932739258,0.22505496442317963,9.551667213439941,5.79833984375,2.25830078125,179.840087890625
1.2424999,-4.333505153656006,0.3645172119140625,9.888651847839355,12.39013671875,4.0283203125,156.8603515625
1.2474999000000002,-1.5286977291107178,0.5153518915176392,9.98681354522705,8.880615234375,-0.640869140625,50.4150390625
1.2524999,2.2373814582824707,0.08200141042470932,9.52114200592041,-3.631591796875,-13.916015625,-107.330322265625
1.2574999000000002,4.920682907104492,-1.2910733222961426,9.338583946228027,-22.216796875,1.678466796875,-200.836181640625
1.2624999000000001,4.972158432006836,-0.9139865040779114,8.82083797454834,-6.866455078125,6.8359375,-163.57421875
1.2674999000000002,2.567182779312134,-1.5364789962768555,9.083003044128418,-3.23486328125,3.23486328125,-37.78076171875
1.2724999000000001,-0.9385270476341248,-0.5895721912384033,9.236231803894043,5.92041015625,0.823974609375,96.6796875
1.2774999000000002,-3.687070608139038,0.17238251864910126,9.576807022094727,9.6435546875,-1.64794921875,155.57861328125
1.2824999000000001,-4.117428302764893,0.3728969097137451,9.806650161743164,6.683349609375,2.960205078125,156.67724609375
1.2874999,-1.9141643047332764,0.31842881441116333,9.775525093078613,7.537841796875,0.732421875,64.544677734375
1.2924999000000001,1.2874820232391357,-0.16819266974925995,9.783905029296875,1.77001953125,-12.6953125,-89.447021484375
1.2974999,4.216787815093994,-1.22642982006073,9.211690902709961,-16.9677734375,-0.54931640625,-196.044921875
1.3024999000000002,4.675277233123779,-0.7433996200561523,9.05367374420166,-12.51220703125,5.889892578125,-178.8330078125
1.3074999,2.6150667667388916,-1.3120225667953491,8.771756172180176,-4.119873046875,3.326416015625,-51.788330078125
1.3124999000000002,-0.6943184733390808,-0.028730420395731926,8.811859130859375,8.6669921875,-0.457763671875,102.35595703125
1.3174999,-3.7241806983947754,0.2621650993824005,9.248801231384277,5.218505859375,0.823974609375,170.806884765625
1.3224999000000002,-4.503493309020996,0.6033388376235962,9.532513618469238,10.80322265625,4.33349609375,171.600341796875
1.3274999,-2.5510218143463135,0.4513070285320282,9.768342971801758,10.43701171875,3.448486328125,93.56689453125
1.3324999000000002,0.5847837924957275,-0.10893617570400238,9.596558570861816,3.326416015625,-13.092041015625,-60.882568359375
1.3374999,3.693056106567383,-0.7308300733566284,8.970475196838379,-18.951416015625,-3.7841796875,-185.1806640625
1.3424999000000002,5.100248336791992,-0.9588778018951416,8.508993148803711,-14.34326171875,4.39453125,-188.873291015625
1.3474999,3.2531216144561768,-1.3102269172668457,8.506000518798828,-4.08935546875,2.410888671875,-83.465576171875
1.3524999000000002,0.547075092792511,-0.4728548228740692,8.62271785736084,4.45556640625,2.899169921875,68.572998046875
1.3574999,-2.8407204151153564,-0.35254621505737305,9.46607494354248,7.62939453125,-1.556396484375,150.238037109375
1.3624999000000002,-4.202422618865967,0.2867056429386139,9.828198432922363,8.270263671875,1.46484375,168.487548828125
1.3674999,-2.982576847076416,0.3800795078277588,10.050858497619629,7.171630859375,3.60107421875,105.621337890625
1.3724999000000002,-0.08319851011037827,-0.0071826050989329815,9.780912399291992,4.33349609375,-10.223388671875,-40.924072265625
1.3774999,-0.08319851011037827,-0.0071826050989329815,9.780912399291992,4.33349609375,-10.223388671875,-40.924072265625
1.3824999000000002,3.028066635131836,-0.14425064623355865,9.333795547485352,-12.664794921875,-4.7607421875,-171.112060546875
1.3874999000000001,4.9805378913879395,-0.7056909799575806,8.946533203125,-13.7939453125,4.302978515625,-190.91796875
1.3924999000000002,3.513490915298462,-0.9032126069068909,8.957905769348145,-4.180908203125,3.936767578125,-100.52490234375
1.3974999000000001,1.0845733880996704,-0.4752490520477295,9.148842811584473,1.8310546875,2.25830078125,52.337646484375
1.4024999000000002,-2.5085248947143555,-0.5063736438751221,9.746196746826172,7.4462890625,-1.129150390625,144.256591796875
1.4074999000000001,-4.215590476989746,0.26396074891090393,10.019734382629395,8.941650390625,2.62451171875,170.59326171875
1.4124999,-3.334524393081665,0.3124433159828186,10.125079154968262,9.368896484375,4.974365234375,125.701904296875
1.4174999000000001,-0.5297171473503113,0.004788403399288654,9.671378135681152,7.8125,-8.819580078125,-9.552001953125
1.4224999,3.0783448219299316,0.21308395266532898,9.4636812210083,-11.16943359375,-8.758544921875,-152.252197265625
1.4274999000000002,5.102043628692627,-1.1378443241119385,9.029132843017578,-19.317626953125,4.33349609375,-201.812744140625
1.4324999,4.225766181945801,-0.7068880796432495,9.074024200439453,-5.18798828125,4.425048828125,-126.922607421875
1.4374999000000002,1.3934253454208374,-0.9510966539382935,9.220070838928223,1.89208984375,2.777099609375,24.627685546875
1.4424999,-2.4355015754699707,-0.6404489278793335,9.563638687133789,6.8359375,0,134.674072265625
1.4474999000000002,-4.557961463928223,0.32022446393966675,9.722254753112793,8.48388671875,0.091552734375,174.31640625
1.4524999,-4.083909511566162,0.1430535465478897,9.919178009033203,8.941650390625,3.509521484375,142.27294921875
1.4574999000000002,-1.061229944229126,0.31364041566848755,9.688735961914062,7.62939453125,-4.45556640625,17.27294921875
1.4624999,2.6216509342193604,0.17717093229293823,9.182960510253906,-5.43212890625,-11.3525390625,-133.148193359375
1.4674999000000002,5.023035049438477,-1.0959458351135254,9.006986618041992,-18.85986328125,0.9765625,-204.345703125
1.4724999,4.503493309020996,-0.4165911078453064,8.56765079498291,-9.063720703125,5.157470703125,-149.444580078125
1.4774999000000002,1.8327614068984985,-1.0893617868423462,8.861538887023926,-1.3427734375,2.716064453125,0.335693359375
1.4824999,-1.9620482921600342,-0.32860419154167175,9.1446533203125,8.758544921875,-0.579833984375,128.60107421875
1.4874999000000002,-4.3209357261657715,0.2819172441959381,9.526528358459473,7.171630859375,1.953125,173.03466796875
1.4924999,-4.171298027038574,0.24121582508087158,9.833584785461426,10.223388671875,4.608154296875,151.092529296875
1.4974999000000002,-1.434126853942871,0.22445641458034515,9.78989028930664,9.796142578125,-1.8310546875,42.1142578125
1.5024999,2.0620062351226807,-0.10295066982507706,9.43494987487793,-4.180908203125,-13.3056640625,-109.68017578125
1.5074999000000002,4.693233966827393,-1.4963760375976562,9.457097053527832,-21.514892578125,2.5634765625,-201.202392578125
1.5124999000000001,4.4975080490112305,-0.8822633028030396,9.230246543884277,-9.490966796875,6.28662109375,-162.322998046875
1.5174999000000002,2.0715830326080322,-1.7070658206939697,9.636063575744629,-1.190185546875,2.899169921875,-20.99609375
1.5224999000000001,-1.2862848043441772,-0.6242880821228027,9.865307807922363,7.659912109375,0.640869140625,116.119384765625
1.5274999000000002,-3.891774892807007,0.17178396880626678,10.01075553894043,6.77490234375,-0.823974609375,171.875
1.5324999000000001,-4.122815132141113,0.3447650372982025,9.962871551513672,9.521484375,2.288818359375,164.36767578125
1.5374999000000003,-1.875258445739746,0.5039794445037842,9.917980194091797,6.011962890625,0.91552734375,71.624755859375
1.5424999000000001,1.2348095178604126,0.01975216343998909,9.540295600891113,-1.251220703125,-11.932373046875,-83.465576171875
1.5474999,4.253897666931152,-1.1881226301193237,9.334393501281738,-16.17431640625,0.396728515625,-186.1572265625
1.5524999000000002,4.733336925506592,-1.0618284940719604,8.950722694396973,-5.0048828125,2.01416015625,-163.848876953125
1.5574999,2.9735984802246094,-1.4814122915267944,9.21288776397705,-7.62939453125,3.90625,-60.699462890625
1.5624999000000002,-0.272938996553421,-0.6189011335372925,9.294889450073242,3.265380859375,0.579833984375,72.57080078125
1.5674999,-3.2986114025115967,-0.10654197633266449,9.693524360656738,12.420654296875,-1.8310546875,139.678955078125
1.5724999000000002,-4.201225280761719,0.32620999217033386,9.8970308303833,5.462646484375,3.84521484375,159.36279296875
1.5774999,-2.4402899742126465,0.3232172429561615,9.919178009033203,7.62939453125,2.9296875,86.5478515625
1.5824999000000002,0.5009866952896118,-0.12629413604736328,9.611522674560547,4.638671875,-13.275146484375,-62.68310546875
1.5874999,3.5703532695770264,-0.645237386226654,9.027337074279785,-15.228271484375,-1.89208984375,-183.074951171875
1.5924999000000002,4.6914381980896,-0.6560112833976746,8.561665534973145,-15.899658203125,6.04248046875,-188.995361328125
1.5974999,2.8886044025421143,-1.2862848043441772,8.508993148803711,-4.08935546875,3.509521484375,-74.432373046875
1.6024999000000002,0.09935937076807022,-0.26575639843940735,8.573038101196289,8.7890625,0.67138671875,87.371826171875
1.6074999,-3.162740468978882,-0.25498247146606445,9.437344551086426,3.96728515625,-0.701904296875,168.243408203125
1.6124999000000002,-4.377199172973633,0.36810851097106934,9.697713851928711,10.1318359375,1.8310546875,178.558349609375
1.6174999,-2.9921536445617676,0.49559974670410156,10.081384658813477,9.857177734375,3.570556640625,112.79296875
1.6224999000000002,0.04967968538403511,0.09516951441764832,9.668384552001953,4.39453125,-9.674072265625,-36.468505859375
1.6274999,3.2094273567199707,-0.09816227108240128,9.29189682006836,-14.923095703125,-5.9814453125,-171.9970703125
1.6324999000000002,5.2014031410217285,-0.6841431260108948,8.881889343261719,-15.533447265625,4.547119140625,-194.03076171875
1.6374999000000001,3.825934410095215,-0.8870517015457153,8.847772598266602,-4.08935546875,3.204345703125,-106.536865234375
1.6424999000000002,1.349731206893921,-0.4991910457611084,9.227851867675781,-0.30517578125,1.800537109375,41.80908203125
1.6474999000000001,-2.211045265197754,-0.42197805643081665,9.701305389404297,10.101318359375,-2.44140625,133.30078125
1.6524999000000002,-3.9845502376556396,0.14484919607639313,10.02452278137207,8.331298828125,2.50244140625,163.604736328125
1.6574999000000001,-3.2351651191711426,0.20111294090747833,10.085575103759766,7.080078125,4.45556640625,120.025634765625
1.6624999000000003,-0.50876784324646,-0.19033902883529663,9.570821762084961,7.965087890625,-8.23974609375,-17.02880859375
1.6674999000000001,2.9724013805389404,-0.21188685297966003,9.47265911102295,-10.009765625,-7.75146484375,-155.975341796875
1.6724999,4.897938251495361,-1.2677297592163086,8.986037254333496,-19.134521484375,5.67626953125,-203.06396484375
1.6774999000000002,4.032433986663818,-1.047463297843933,9.216479301452637,-7.171630859375,5.828857421875,-121.4599609375
1.6824999,1.125873327255249,-1.0881646871566772,9.255385398864746,5.92041015625,1.190185546875,44.891357421875
1.6874999000000002,-2.5115175247192383,-0.7146692276000977,9.761758804321289,5.2490234375,-1.28173828125,152.862548828125
1.6924999,-4.601057052612305,0.3292027413845062,9.806051254272461,7.049560546875,2.01416015625,181.304931640625
1.6974999000000002,-3.952826976776123,0.30466216802597046,9.997588157653809,11.688232421875,4.08935546875,138.85498046875
1.7024999,-0.9900023937225342,0.5602431893348694,9.717466354370117,6.072998046875,-4.974365234375,12.176513671875
1.7074999000000002,2.780266761779785,0.6308721303939819,9.453505516052246,-9.185791015625,-10.07080078125,-136.932373046875
1.7124999,5.103240966796875,-1.028908133506775,9.205106735229492,-19.500732421875,2.62451171875,-198.18115234375
1.7174999000000002,4.566939830780029,-0.6733692288398743,8.954913139343262,-2.044677734375,5.18798828125,-136.505126953125
1.7224999,1.987187385559082,-1.5388731956481934,9.287707328796387,-4.08935546875,3.570556640625,-2.99072265625
1.7274999000000002,-1.8471266031265259,-1.2096704244613647,9.396044731140137,7.87353515625,-1.617431640625,114.593505859375
1.7324999,-4.111443042755127,-0.24420857429504395,9.730035781860352,8.819580078125,0.152587890625,162.2314453125
1.7374999000000002,-3.9462430477142334,-0.15741875767707825,9.987412452697754,6.195068359375,3.7841796875,144.439697265625
1.7424999,-3.9462430477142334,-0.15741875767707825,9.987412452697754,6.195068359375,3.7841796875,144.439697265625
1.7474999000000002,-1.2575544118881226,-0.05386953800916672,9.801262855529785,7.904052734375,-2.25830078125,31.005859375
1.7524999,2.097320795059204,0.07481880486011505,9.462483406066895,-2.99072265625,-11.23046875,-116.973876953125
1.7574999000000002,4.714183330535889,-1.3006501197814941,9.314641952514648,-18.9208984375,1.15966796875,-198.91357421875
1.7624999000000001,4.4508209228515625,-0.43335050344467163,8.87829875946045,-6.011962890625,5.950927734375,-153.656005859375
1.7674999000000002,2.012925148010254,-1.1737574338912964,9.1045503616333,-1.983642578125,2.593994140625,-16.021728515625
1.7724999000000001,-1.4371196031570435,-0.24660277366638184,9.254786491394043,6.7138671875,-0.823974609375,118.743896484375
1.7774999000000002,-4.0096893310546875,0.4118026793003082,9.537302017211914,6.256103515625,0.640869140625,170.562744140625
1.7824999000000001,-4.171298027038574,0.5015852451324463,9.742006301879883,10.955810546875,3.7841796875,157.012939453125
1.7874999000000003,-1.6478092670440674,0.48482584953308105,9.870695114135742,8.636474609375,0.42724609375,59.051513671875
1.7924999000000001,1.703474521636963,-0.17238251864910126,9.49121379852295,-1.64794921875,-13.12255859375,-95.8251953125
1.7974999,4.58968448638916,-1.2306196689605713,9.275136947631836,-19.6533203125,-0.06103515625,-197.1435546875
1.8024999000000002,4.77044677734375,-0.9085995554924011,8.938153266906738,-8.30078125,4.974365234375,-170.623779296875
1.8074999,2.563591480255127,-1.3120225667953491,9.024344444274902,-4.0283203125,3.143310546875,-46.539306640625
1.8124999000000002,-0.7811083197593689,-0.15981295704841614,9.230246543884277,6.40869140625,1.739501953125,95.977783203125
1.8174999,-3.6810851097106934,0.41359832882881165,9.583391189575195,7.354736328125,-1.373291015625,161.80419921875
1.8224999000000002,-4.264073371887207,0.645237386226654,9.758766174316406,8.85009765625,2.593994140625,163.909912109375
1.8274999,-2.1763293743133545,0.5249287486076355,9.798869132995605,8.392333984375,1.77001953125,80.2001953125
1.8324999000000002,0.9588778018951416,-0.07122749835252762,9.690531730651855,2.655029296875,-12.786865234375,-73.089599609375
1.8374999,3.976170539855957,-0.8846575021743774,9.171587944030762,-16.204833984375,-1.678466796875,-189.056396484375
1.8424999000000002,5.007472991943359,-0.6171054840087891,8.927978515625,-12.969970703125,5.950927734375,-183.685302734375
1.8474999,3.07415509223938,-1.002571940422058,8.957905769348145,-5.828857421875,3.143310546875,-70.404052734375
1.8524999000000002,0.10833762586116791,0.11552023142576218,9.011177062988281,7.2021484375,0.518798828125,87.158203125
1.8574999,-3.0974984169006348,0.15083470940589905,9.662399291992188,6.317138671875,-0.30517578125,162.506103515625
1.8624999000000002,-4.226963043212891,0.5512649416923523,9.832986831665039,9.674072265625,3.41796875,171.9970703125
1.8674999,-2.7479450702667236,0.5195417404174805,10.052056312561035,10.498046875,4.058837890625,103.485107421875
1.8724999000000002,0.2148796021938324,0.10175357013940811,9.535507202148438,6.561279296875,-12.20703125,-45.34912109375
1.8774999,3.290231704711914,-0.3585317134857178,9.287108421325684,-16.90673828125,-5.340576171875,-177.3681640625
1.8824999000000002,5.018845081329346,-0.8535329103469849,8.946533203125,-17.39501953125,5.79833984375,-199.432373046875
1.8874999000000001,3.4063503742218018,-1.3982137441635132,9.077016830444336,-5.828857421875,3.84521484375,-102.935791015625
1.8924999000000002,0.8553285598754883,-0.821809709072113,9.329007148742676,5.67626953125,2.38037109375,58.10546875
1.8974999000000001,-2.6773159503936768,-0.8080430626869202,9.913790702819824,6.805419921875,-0.91552734375,152.008056640625
1.9024999000000002,-4.292205333709717,0.11192893236875534,9.965864181518555,7.6904296875,1.495361328125,174.835205078125
1.9074999000000001,-3.31118106842041,0.22206220030784607,10.045472145080566,8.819580078125,3.814697265625,119.7509765625
1.9124999000000003,-0.46986207365989685,0.18375498056411743,9.837176322937012,5.279541015625,-8.36181640625,-20.294189453125
1.9174999000000001,2.853289842605591,0.17178396880626678,9.588777542114258,-11.383056640625,-6.561279296875,-157.684326171875
1.9224999,5.006874084472656,-0.6554127335548401,9.237428665161133,-16.143798828125,3.692626953125,-194.488525390625
1.9274999000000002,4.095880508422852,-0.7775170207023621,9.253589630126953,-4.425048828125,4.21142578125,-115.692138671875
1.9324999,1.611896276473999,-0.7416039705276489,9.209895133972168,-0.030517578125,2.105712890625,35.33935546875
1.9374999000000002,-1.9069817066192627,-0.7015010714530945,9.515754699707031,8.4228515625,-1.556396484375,139.312744140625
1.9424999,-4.0300397872924805,0.13108254969120026,9.686341285705566,8.270263671875,2.0751953125,172.698974609375
1.9474999000000002,-3.5727474689483643,0.11432313174009323,9.875483512878418,8.697509765625,4.730224609375,137.3291015625
1.9524999,-0.8768763542175293,0.0975637212395668,9.61331844329834,7.537841796875,-5.950927734375,10.711669921875
1.9574999000000002,2.7928361892700195,0.4040215313434601,9.41519832611084,-7.720947265625,-10.07080078125,-136.5966796875
1.9624999,5.0697221755981445,-1.1420341730117798,9.276334762573242,-19.317626953125,2.838134765625,-199.859619140625
1.9674999000000002,4.532822132110596,-0.33698388934135437,9.106945037841797,-5.37109375,4.852294921875,-140.777587890625
1.9724999,1.9381062984466553,-1.1079168319702148,9.4014310836792,-1.129150390625,2.899169921875,2.8076171875
1.9774999000000002,-1.9141643047332764,-0.6171054840087891,9.553462982177734,8.30078125,-0.06103515625,123.321533203125
1.9824999,-4.2515034675598145,0.24001872539520264,9.78869342803955,7.659912109375,-0.091552734375,169.525146484375
1.9874999000000002,-4.075530052185059,0.11192893236875534,9.990405082702637,8.60595703125,3.143310546875,148.13232421875
1.9924999,-1.437718152999878,0.24420857429504395,9.802460670471191,9.124755859375,-3.021240234375,35.430908203125
1.9974999000000002,2.014122247695923,-0.08499415963888168,9.440337181091309,-3.082275390625,-12.0849609375,-117.12646484375
2.0024999,4.717774391174316,-1.502361536026001,9.297284126281738,-18.9208984375,1.312255859375,-203.643798828125
2.0074999,4.541202068328857,-0.8433575630187988,9.065644264221191,-11.474609375,6.011962890625,-165.46630859375
2.0124999000000003,2.1727380752563477,-1.5628151893615723,9.361329078674316,-2.44140625,2.288818359375,-20.721435546875
2.0174999000000002,-1.3239935636520386,-0.44771572947502136,9.615114212036133,9.857177734375,-0.457763671875,122.314453125
2.0224999,-4.005499362945557,0.2759317457675934,9.879075050354004,6.072998046875,1.77001953125,176.116943359375
2.0274999,-4.203021049499512,0.47644615173339844,9.93354320526123,10.833740234375,4.2724609375,164.00146484375
2.0324999000000004,-1.7274165153503418,0.45250412821769714,10.002376556396484,10.8642578125,0.91552734375,67.474365234375
2.0374999000000003,1.7088614702224731,-0.3531447649002075,9.736021041870117,1.190185546875,-14.678955078125,-90.362548828125
2.0424999,4.802170276641846,-1.4712369441986084,9.290101051330566,-21.240234375,-0.244140625,-198.089599609375
2.0474999,5.161300182342529,-1.2336124181747437,9.060257911682129,-13.763427734375,7.6904296875,-182.891845703125
2.0524999,3.1663317680358887,-1.7435773611068726,9.001001358032227,-3.96728515625,3.631591796875,-59.4482421875
2.0574999000000003,-0.32441434264183044,-0.33039984107017517,9.072827339172363,8.60595703125,1.40380859375,91.705322265625
2.0624999,-3.397372245788574,0.22385786473751068,9.498396873474121,6.591796875,-0.9765625,163.51318359375
2.0674999,-4.394556999206543,0.6051344871520996,9.633668899536133,8.23974609375,2.8076171875,168.243408203125
2.0724999,-2.604292869567871,0.667982280254364,9.757569313049316,8.544921875,2.3193359375,87.493896484375
2.0774999000000003,0.383670836687088,0,9.677363395690918,3.35693359375,-11.962890625,-64.75830078125
2.0824999,3.354276657104492,-0.6560112833976746,9.154230117797852,-15.19775390625,-2.99072265625,-184.87548828125
2.0874999,4.675876140594482,-0.6422445774078369,8.878896713256836,-13.580322265625,5.2490234375,-189.27001953125
2.0924999,2.7222073078155518,-1.103128433227539,8.949525833129883,-6.4697265625,3.11279296875,-83.49609375
2.0974999000000003,0.09457096457481384,-0.04728548228740692,8.99621295928955,6.866455078125,1.312255859375,76.324462890625
2.1024999,-3.205237627029419,-0.02214636653661728,9.727043151855469,7.080078125,-0.54931640625,157.8369140625
2.1074999,-3.205237627029419,-0.02214636653661728,9.727043151855469,7.080078125,-0.54931640625,157.8369140625
2.1124999,-4.350862979888916,0.49619829654693604,9.936535835266113,8.72802734375,3.509521484375,173.065185546875
2.1174999000000003,-2.9496564865112305,0.5063736438751221,10.058639526367188,10.25390625,4.57763671875,111.51123046875
2.1224999,0.04369417950510979,0.10175357013940811,9.615114212036133,6.622314453125,-11.627197265625,-34.5458984375
2.1274999,3.2998085021972656,-0.2214636504650116,9.419387817382812,-14.739990234375,-6.378173828125,-170.440673828125
2.1324999,5.17626428604126,-0.9002198576927185,9.153033256530762,-17.333984375,5.096435546875,-200.439453125
2.1374999000000003,3.9157168865203857,-1.2132617235183716,9.351752281188965,-6.28662109375,3.96728515625,-112.457275390625
2.1424999000000002,1.2437877655029297,-0.727837324142456,9.552266120910645,5.096435546875,2.777099609375,49.62158203125
2.1474999,-2.3331496715545654,-0.6667851805686951,10.047865867614746,7.01904296875,-0.274658203125,149.84130859375
2.1524999,-4.235342979431152,0.3519476354122162,10.012551307678223,7.568359375,1.068115234375,177.764892578125
2.1574999000000004,-3.4823663234710693,0.2885012924671173,10.08318042755127,9.307861328125,3.570556640625,129.5166015625
2.1624999000000003,-0.7320271730422974,0.24839842319488525,9.75517463684082,7.110595703125,-6.988525390625,-7.14111328125
2.1674999,2.87064790725708,0.19812019169330597,9.375694274902344,-9.3994140625,-8.97216796875,-151.031494140625
2.1724999,4.997297286987305,-1.061229944229126,9.152434349060059,-18.096923828125,3.173828125,-202.63671875
2.1774999000000004,4.206612586975098,-0.7272387742996216,8.943540573120117,-7.293701171875,4.974365234375,-134.1552734375
2.1824999000000003,1.5502456426620483,-1.006163239479065,9.118317604064941,0.762939453125,1.77001953125,21.392822265625
2.1874999,-2.296039342880249,-0.4596867263317108,9.333196640014648,8.575439453125,-0.762939453125,136.993408203125
2.1924999,-4.492719650268555,0.4159925580024719,9.59715747833252,7.659912109375,2.838134765625,173.553466796875
2.1974999,-4.109048843383789,0.3800795078277588,9.81263542175293,10.162353515625,5.035400390625,142.27294921875
2.2024999000000003,-1.2413935661315918,0.2890998423099518,9.736021041870117,10.19287109375,-4.638671875,22.674560546875
2.2074999,2.4905683994293213,0.035913024097681046,9.437943458557129,-7.171630859375,-11.5966796875,-126.28173828125
2.2124999,5.000888824462891,-1.5723919868469238,9.436147689819336,-20.44677734375,2.777099609375,-204.193115234375
2.2174999,4.595670223236084,-0.8738836050033569,9.170391082763672,-10.31494140625,6.866455078125,-154.1748046875
2.2224999000000003,1.9698294401168823,-1.7549498081207275,9.437943458557129,0.732421875,2.62451171875,-0.48828125
2.2274999,-1.7687164545059204,-0.7679402232170105,9.621698379516602,8.9111328125,-0.6103515625,130.523681640625
2.2324999,-4.261679172515869,0.11432313174009323,9.798270225524902,5.828857421875,-0.06103515625,178.680419921875
2.2374999,-4.151545524597168,0.22864626348018646,9.87967300415039,9.857177734375,3.23486328125,158.75244140625
2.2424999000000003,-1.6095020771026611,0.3926490843296051,9.835380554199219,8.270263671875,-0.640869140625,52.55126953125
2.2474999,2.0464439392089844,0.0867898091673851,9.445724487304688,-2.3193359375,-12.298583984375,-102.752685546875
2.2524999,4.726154327392578,-1.301847219467163,9.224859237670898,-19.47021484375,1.89208984375,-197.174072265625
2.2574999,4.827907562255859,-0.9570821523666382,8.871115684509277,-7.87353515625,5.06591796875,-166.168212890625
2.2624999000000003,2.7461493015289307,-1.4987702369689941,9.172186851501465,-5.31005859375,2.44140625,-43.88427734375
2.2674999000000002,-0.8990227580070496,-0.5374982953071594,9.308655738830566,6.988525390625,-0.762939453125,92.83447265625
2.2724999,-3.6062662601470947,0.10654197633266449,9.690531730651855,9.6435546875,-0.54931640625,154.47998046875
2.2774999,-4.285621166229248,0.5303156971931458,9.86351203918457,6.744384765625,3.96728515625,159.088134765625
2.2824999000000004,-2.1781249046325684,0.5183446407318115,9.930550575256348,9.8876953125,1.739501953125,72.418212890625
2.2874999000000003,0.9469067454338074,-0.0586579404771328,9.7791166305542,3.021240234375,-13.12255859375,-75.8056640625
2.2924999,4.075530052185059,-1.071405291557312,9.223063468933105,-16.357421875,-0.152587890625,-188.53759765625
2.2974999,4.747702121734619,-0.9780313968658447,8.993220329284668,-16.448974609375,6.683349609375,-185.9130859375
2.3024999000000004,2.9724013805389404,-1.867477297782898,8.878896713256836,-4.57763671875,3.265380859375,-56.976318359375
2.3074999000000003,-0.21847090125083923,-0.669179379940033,8.958504676818848,10.955810546875,-1.739501953125,103.6376953125
2.3124999,-3.2381577491760254,-0.40222588181495667,9.568427085876465,4.33349609375,0.457763671875,172.943115234375
2.3174999,-4.2730512619018555,0.2214636504650116,9.768342971801758,10.162353515625,3.662109375,174.652099609375
2.3224999,-2.6198551654815674,0.38726213574409485,10.00716495513916,11.871337890625,3.41796875,98.9990234375
2.3274999000000003,0.4141969084739685,0.08978256583213806,9.474454879760742,6.988525390625,-12.237548828125,-51.116943359375
2.3324999,3.5254619121551514,-0.5722141861915588,9.32421875,-18.61572265625,-4.180908203125,-180.511474609375
2.3374999,5.287594318389893,-0.912190854549408,8.899846076965332,-18.85986328125,6.591796875,-199.3408203125
2.3424999,3.731363296508789,-1.4867992401123047,9.261370658874512,-7.354736328125,3.35693359375,-103.485107421875
2.3474999000000003,1.0971429347991943,-0.9133879542350769,9.57321548461914,7.049560546875,0.457763671875,57.43408203125
2.3524999,-2.410362482070923,-0.7805097699165344,10.266935348510742,8.209228515625,-1.983642578125,150.604248046875
2.3574999,-4.180874824523926,-0.061052143573760986,10.310629844665527,7.171630859375,2.655029296875,174.25537109375
2.3624999,-3.33392596244812,0.07062894850969315,10.31242561340332,10.3759765625,3.90625,119.7509765625
2.3674999000000003,-0.5674257874488831,0.01975216343998909,9.794678688049316,9.368896484375,-8.23974609375,-20.843505859375
2.3724999,2.78625226020813,-0.22385786473751068,9.659406661987305,-12.8173828125,-7.75146484375,-157.257080078125
2.3774999,4.824316501617432,-1.0767922401428223,9.221267700195312,-19.134521484375,5.7373046875,-201.171875
2.3824999,3.9234981536865234,-1.1324573755264282,9.577404975891113,-10.25390625,5.126953125,-124.08447265625
2.3874999000000003,1.2629413604736328,-1.0696096420288086,9.600749015808105,5.43212890625,0.213623046875,40.6494140625
2.3924999000000002,-2.337339401245117,-0.6799532771110535,10.00955867767334,9.185791015625,-2.0751953125,148.468017578125
2.3974999,-4.400542736053467,0.25677812099456787,10.0765962600708,6.34765625,3.60107421875,180.450439453125
2.4024999,-3.825934410095215,0.34596213698387146,10.08437728881836,10.528564453125,4.5166015625,139.404296875
2.4074999000000004,-0.9965864419937134,0.40701428055763245,9.704896926879883,10.68115234375,-5.035400390625,9.674072265625
2.4124999000000003,2.783259391784668,0.518943190574646,9.372700691223145,-8.97216796875,-11.383056640625,-138.275146484375
2.4174999,5.03021764755249,-1.0989385843276978,9.194931983947754,-20.56884765625,2.716064453125,-205.352783203125
2.4224999,4.472967147827148,-0.4213795065879822,9.023147583007812,-11.016845703125,7.415771484375,-150.81787109375
2.4274999000000004,1.777096152305603,-1.380257248878479,9.346963882446289,1.739501953125,1.52587890625,2.838134765625
2.4324999000000003,-2.1296424865722656,-0.6967126727104187,9.545681953430176,10.162353515625,-2.166748046875,130.584716796875
2.4374999,-4.456806659698486,0.020949264988303185,9.808445930480957,6.011962890625,1.678466796875,175.1708984375
2.4424999,-4.241328239440918,0.10773907601833344,9.99339771270752,9.735107421875,3.631591796875,149.96337890625
2.4474999,-1.4437036514282227,0.1454477459192276,9.801262855529785,11.8408203125,-2.471923828125,34.85107421875
2.4524999000000003,2.013523578643799,-0.1041477769613266,9.455301284790039,-4.08935546875,-12.39013671875,-115.66162109375
2.4574999,4.790797710418701,-1.5209165811538696,8.974066734313965,-20.294189453125,1.953125,-203.460693359375
2.4624999,4.514267444610596,-0.800261914730072,8.768763542175293,-14.5263671875,6.866455078125,-168.45703125
2.4674999,2.165555477142334,-1.5424644947052002,8.814253807067871,-1.922607421875,1.46484375,-21.91162109375
2.4724999000000003,-1.4269442558288574,-0.3064578175544739,9.157222747802734,11.871337890625,-2.044677734375,122.13134765625
2.4774999,-1.4269442558288574,-0.3064578175544739,9.157222747802734,11.871337890625,-2.044677734375,122.13134765625
2.4824999,-4.072536945343018,0.34356793761253357,9.57201862335205,5.79833984375,1.861572265625,176.94091796875
2.4874999,-4.319738388061523,0.6404489278793335,9.786897659301758,9.8876953125,4.5166015625,165.130615234375
2.4924999000000003,-1.7723077535629272,0.40940847992897034,9.992799758911133,12.39013671875,1.52587890625,66.375732421875
2.4974999,1.632246971130371,-0.34416648745536804,9.890447616577148,1.556396484375,-15.0146484375,-89.202880859375
2.5024999,4.812345504760742,-1.5101426839828491,9.556455612182617,-20.721435546875,0.396728515625,-196.868896484375
2.5074999,5.215169906616211,-1.3593080043792725,9.441534042358398,-16.387939453125,6.805419921875,-184.75341796875
2.5124999000000003,3.2369606494903564,-1.8201918601989746,9.45111083984375,-4.7607421875,2.655029296875,-62.56103515625
2.5174999000000002,-0.26396074891090393,-0.4279635548591614,9.501389503479004,10.68115234375,-0.579833984375,90.789794921875
2.5224999,-3.3692402839660645,0.1759738177061081,9.804255485534668,6.805419921875,-1.068115234375,163.26904296875
2.5274999,-4.445434093475342,0.657806932926178,9.862914085388184,7.38525390625,2.9296875,169.403076171875
2.5324999000000004,-2.6605565547943115,0.6015431880950928,9.906607627868652,11.23046875,2.685546875,88.43994140625
2.5374999000000003,0.4034229815006256,0.08858546614646912,9.561842918395996,6.011962890625,-12.63427734375,-63.1103515625
2.5424999,3.5398271083831787,-0.9253589510917664,8.8070707321167,-17.76123046875,-2.655029296875,-184.173583984375
2.5474999,4.881777286529541,-1.0420763492584229,8.394071578979492,-18.06640625,6.866455078125,-194.427490234375
2.5524999000000004,3.0992941856384277,-1.4975731372833252,8.337807655334473,-9.6435546875,3.082275390625,-87.615966796875
2.5574999000000003,0.26815059781074524,-0.5542576909065247,8.53413200378418,11.383056640625,-1.678466796875,82.550048828125
2.5624999,-3.0406360626220703,-0.2561795711517334,9.484031677246094,7.4462890625,-0.701904296875,167.633056640625
2.5674999,-4.425682067871094,0.46627077460289,9.832387924194336,7.2021484375,4.608154296875,182.7392578125
2.5724999,-3.071760892868042,0.3992331326007843,10.163386344909668,12.6953125,5.462646484375,117.279052734375
2.5774999000000003,-0.10833762586116791,0.21368250250816345,9.62828254699707,10.43701171875,-10.25390625,-31.036376953125
2.5824999,3.2345664501190186,-0.2753331959247589,9.608530044555664,-16.998291015625,-8.392333984375,-169.097900390625
2.5874999,5.253477096557617,-0.9552865028381348,9.065046310424805,-21.05712890625,6.134033203125,-203.67431640625
2.5924999,4.012083530426025,-1.0833762884140015,9.394248962402344,-9.307861328125,3.814697265625,-121.002197265625
2.5974999000000003,1.3437457084655762,-0.8158242106437683,9.510367393493652,6.7138671875,0.823974609375,39.9169921875
2.6024999,-2.3798365592956543,-0.4812345504760742,10.023324966430664,9.002685546875,-2.0751953125,142.578125
2.6074999,-4.340089321136475,0.27712884545326233,10.068815231323242,6.103515625,2.349853515625,173.15673828125
2.6124999,-3.6721067428588867,0.29388827085494995,10.127472877502441,10.223388671875,3.662109375,126.251220703125
2.6174999000000003,-0.9301473498344421,-0.005985504016280174,9.576807022094727,11.260986328125,-7.50732421875,-6.8359375
2.6224999,2.736572504043579,0.08619125932455063,9.411606788635254,-11.77978515625,-8.209228515625,-143.98193359375
2.6274999,4.748898983001709,-1.2898762226104736,8.793902397155762,-18.707275390625,4.180908203125,-202.1484375
2.6324999,4.156932830810547,-0.761954665184021,8.87291145324707,-12.6953125,4.638671875,-136.566162109375
2.6374999000000003,1.43532395362854,-1.194706678390503,8.99740982055664,4.638671875,0.152587890625,26.9775390625
2.6424999000000002,-2.2439656257629395,-0.5608417391777039,9.387065887451172,10.406494140625,-2.3193359375,142.913818359375
2.6474999,-4.414309501647949,0.16220717132091522,9.716867446899414,5.645751953125,3.662109375,184.234619140625
2.6524999,-4.045602321624756,0.33518823981285095,9.995792388916016,11.505126953125,5.035400390625,151.763916015625
2.6574999000000004,-1.0923545360565186,0.36152446269989014,9.765948295593262,12.63427734375,-2.593994140625,28.533935546875
2.6624999000000003,2.4396915435791016,0.1735796183347702,9.425971984863281,-6.16455078125,-13.73291015625,-126.373291015625
2.6674999,5.032013416290283,-1.3988122940063477,9.278728485107422,-22.796630859375,3.60107421875,-206.756591796875
2.6724999,4.568136692047119,-0.7104793787002563,9.269750595092773,-13.36669921875,6.4697265625,-164.0625
2.6774999000000004,2.1571757793426514,-1.5861586332321167,9.635464668273926,-0.3662109375,1.007080078125,-21.270751953125
2.6824999000000003,-1.5837644338607788,-0.4225766062736511,10.012551307678223,10.6201171875,-2.899169921875,113.8916015625
2.6874999,-3.9659950733184814,0.2783259451389313,10.194510459899902,5.645751953125,1.220703125,168.64013671875
2.6924999,-4.047398090362549,0.5710170865058899,10.197504043579102,8.7890625,3.448486328125,151.458740234375
2.6974999,-1.5825673341751099,0.38307225704193115,9.983222961425781,13.214111328125,-1.495361328125,44.952392578125
2.7024999000000003,1.953070044517517,0.0933738648891449,9.936535835266113,-2.838134765625,-12.237548828125,-100.15869140625
2.7074999,4.52803373336792,-1.4071919918060303,9.208698272705078,-18.61572265625,2.5634765625,-196.6552734375
2.7124999,4.562749862670898,-0.7924807667732239,9.202713012695312,-15.838623046875,5.4931640625,-172.698974609375
2.7174999,2.3307554721832275,-1.5843629837036133,8.878896713256836,-2.227783203125,1.64794921875,-30.059814453125
2.7224999000000003,-1.2868833541870117,-0.2603694200515747,8.987833023071289,12.39013671875,-1.739501953125,113.95263671875
2.7274999,-3.8606503009796143,0.3100491166114807,9.384672164916992,4.486083984375,1.52587890625,178.314208984375
2.7324999,-4.370615005493164,0.7260416746139526,9.57979965209961,10.650634765625,3.814697265625,173.88916015625
2.7374999,-2.076371431350708,0.49140989780426025,9.891045570373535,13.12255859375,1.8310546875,82.51953125
2.7424999000000003,1.2318167686462402,-0.09397241473197937,9.743802070617676,3.631591796875,-15.56396484375,-74.981689453125
2.7474999,4.369418144226074,-1.2850877046585083,9.421183586120605,-20.660400390625,0.9765625,-193.2373046875
2.7524999,5.396530628204346,-1.2874820232391357,9.345168113708496,-18.157958984375,8.60595703125,-193.359375
2.7574999,3.405153274536133,-1.6549919843673706,9.372700691223145,-4.791259765625,-0.213623046875,-78.43017578125
2.7624999000000003,0.3315969407558441,-0.6596025824546814,9.64923095703125,7.659912109375,0.335693359375,65.460205078125
2.7674999000000002,-3.071760892868042,-0.1388636976480484,9.996390342712402,7.9345703125,0.152587890625,143.61572265625
2.7724999,-4.322132587432861,0.43993455171585083,10.112509727478027,7.293701171875,1.861572265625,161.468505859375
2.7774999,-2.9101521968841553,0.45848962664604187,10.08437728881836,11.962890625,1.89208984375,90.789794921875
2.7824999000000004,-0.03292027488350868,0.07841010391712189,9.728240013122559,8.148193359375,-13.336181640625,-52.276611328125
2.7874999000000003,3.095104217529297,-0.15682020783424377,8.952518463134766,-18.37158203125,0.67138671875,-177.18505859375
2.7924999,4.574720859527588,-0.436343252658844,8.510788917541504,-17.08984375,6.134033203125,-201.202392578125
2.7974999,3.1693243980407715,-0.35733461380004883,8.4108304977417,-12.26806640625,0,-89.752197265625
2.8024999000000004,0.45908817648887634,0.2519897222518921,8.473079681396484,13.48876953125,0.9765625,88.958740234375
2.8074999000000003,-2.7694928646087646,0.4596867263317108,9.436745643615723,6.683349609375,1.64794921875,181.45751953125
2.8124999,-4.176684856414795,0.8661024570465088,9.706093788146973,7.14111328125,1.953125,198.944091796875
2.8174999,-2.9448680877685547,0.6428431272506714,10.00955867767334,13.275146484375,4.608154296875,131.04248046875
2.8224999,0.11611878126859665,0.2064998894929886,9.604938507080078,8.1787109375,-10.25390625,-22.979736328125
2.8274999000000003,3.3680431842803955,-0.34835633635520935,9.876680374145508,-16.2353515625,-8.270263671875,-164.97802734375
2.8324999,5.304353713989258,-1.028908133506775,9.516951560974121,-18.157958984375,7.87353515625,-204.864501953125
2.8374999,4.068347454071045,-1.1713632345199585,10.043676376342773,-8.056640625,0.732421875,-119.110107421875
2.8424999,4.068347454071045,-1.1713632345199585,10.043676376342773,-8.056640625,0.732421875,-119.110107421875
2.8474999000000003,1.315613865852356,-0.8619126081466675,10.249577522277832,3.387451171875,1.8310546875,28.411865234375
2.8524999,-2.2487540245056152,-0.4686649739742279,10.431536674499512,8.85009765625,0.030517578125,125.244140625
2.8574999,-4.235342979431152,0.2256535142660141,10.401609420776367,6.988525390625,0.396728515625,163.909912109375
2.8624999,-3.5625722408294678,0.28969839215278625,10.268132209777832,9.185791015625,3.173828125,124.32861328125
2.8674999000000003,-0.7487865686416626,-0.08559270948171616,9.711481094360352,11.444091796875,-7.049560546875,-5.79833984375
2.8724999,2.874837636947632,-0.023343466222286224,9.17817211151123,-10.43701171875,-9.918212890625,-143.646240234375
2.8774999,4.858433723449707,-1.1827356815338135,8.245630264282227,-16.815185546875,6.866455078125,-210.75439453125
2.8824999,4.107253074645996,-0.1933317929506302,8.101380348205566,-16.632080078125,3.570556640625,-148.98681640625
2.8874999000000003,1.2324153184890747,-0.19632454216480255,7.845200538635254,5.523681640625,1.40380859375,27.34375
2.8924999000000002,-2.4636335372924805,0.7894880175590515,8.521562576293945,11.749267578125,1.251220703125,154.96826171875
2.8974999,-4.55496883392334,1.5119383335113525,9.072827339172363,3.60107421875,3.204345703125,195.1904296875
2.9024999,-4.080916881561279,1.3389573097229004,9.644442558288574,12.664794921875,4.913330078125,156.25
2.9074999000000004,-1.081580638885498,1.0073603391647339,9.667187690734863,11.3525390625,-2.197265625,31.707763671875
2.9124999000000003,2.2852654457092285,0.33937808871269226,9.580398559570312,-8.514404296875,-14.404296875,-125.1220703125
2.9174999,4.945822238922119,-1.3509283065795898,9.434351921081543,-22.369384765625,3.326416015625,-204.681396484375
2.9224999,4.3610382080078125,-1.235408067703247,9.381080627441406,-7.568359375,5.126953125,-151.214599609375
2.9274999000000004,2.081159830093384,-1.9261353015899658,9.739612579345703,-1.068115234375,1.129150390625,-19.134521484375
2.9324999000000003,-1.4963760375976562,-1.1240776777267456,9.991601943969727,6.561279296875,1.708984375,97.71728515625
2.9374999,-3.839700937271118,-0.14903905987739563,10.09934139251709,8.60595703125,-0.732421875,153.99169921875
2.9424999,-3.848080635070801,0.1364694982767105,10.198101997375488,6.622314453125,2.105712890625,147.186279296875
2.9474999,-1.5017629861831665,0.30526071786880493,9.943717956542969,9.429931640625,-1.617431640625,43.975830078125
2.9524999000000003,1.8656816482543945,0.14245499670505524,9.763554573059082,-1.312255859375,-12.451171875,-101.776123046875
2.9574999,4.425083160400391,-1.2946646213531494,9.327211380004883,-15.472412109375,2.471923828125,-195.709228515625
2.9624999,4.461595058441162,-0.7164648771286011,9.29069995880127,-15.350341796875,3.631591796875,-169.097900390625
2.9674999,2.229600429534912,-1.4317326545715332,9.100958824157715,-3.143310546875,1.52587890625,-27.435302734375
2.9724999000000003,-1.3736732006072998,-0.22505496442317963,9.312846183776855,12.359619140625,-0.091552734375,118.7744140625
2.9774999,-3.994127035140991,0.3585317134857178,9.627084732055664,4.57763671875,3.326416015625,180.511474609375
2.9824999,-4.501697540283203,0.9259575009346008,9.716269493103027,11.444091796875,3.72314453125,171.81396484375
2.9874999,-2.10210919380188,0.5434837937355042,9.979631423950195,14.190673828125,3.0517578125,77.850341796875
2.9924999000000003,1.2874820232391357,-0.014365210197865963,9.609726905822754,3.692626953125,-14.95361328125,-79.7119140625
2.9974999,4.507084846496582,-1.292868971824646,9.241020202636719,-22.94921875,-1.953125,-195.159912109375
3.0024999,5.403713226318359,-1.1079168319702148,9.013570785522461,-17.486572265625,6.28662109375,-191.680908203125
3.0074999,3.5416228771209717,-1.6298527717590332,9.078812599182129,-5.828857421875,1.8310546875,-73.66943359375
3.0124999000000003,0.18794482946395874,-0.5297171473503113,9.366117477416992,8.97216796875,0.6103515625,80.169677734375
3.0174999000000002,-3.0843303203582764,0.0071826050989329815,9.833584785461426,7.232666015625,-0.30517578125,156.005859375
3.0224999,-4.433463096618652,0.31124621629714966,10.028712272644043,6.7138671875,2.0751953125,164.337158203125
3.0274999,-3.0196869373321533,0.30885201692581177,10.070012092590332,11.871337890625,1.617431640625,83.648681640625
3.0324999000000004,-0.03531447425484657,-0.17417816817760468,9.745597839355469,6.500244140625,-12.908935546875,-61.5234375
3.0374999000000003,3.183091163635254,-0.8463503122329712,8.671199798583984,-17.181396484375,-0.244140625,-179.62646484375
3.0424999,4.466383457183838,-0.7649474143981934,8.147468566894531,-17.059326171875,5.950927734375,-194.9462890625
3.0474999,3.154959201812744,-0.9654618501663208,7.7655930519104,-10.894775390625,1.983642578125,-78.9794921875
3.0524999000000004,0.3489548861980438,0.013766659423708916,7.943362712860107,13.24462890625,0.1220703125,92.681884765625
3.0574999000000003,-2.803011655807495,0.24241292476654053,9.025542259216309,6.256103515625,2.25830078125,176.69677734375
3.0624999,-3.998915433883667,0.7565677165985107,9.510367393493652,7.537841796875,4.21142578125,190.7958984375
3.0674999,-2.736572504043579,0.5219359993934631,10.002974510192871,13.336181640625,4.82177734375,121.64306640625
3.0724999000000004,0.27712884545326233,0.17238251864910126,9.6618013381958,7.87353515625,-11.016845703125,-27.4658203125
3.0774999000000003,3.403956174850464,-0.3429693877696991,9.642647743225098,-16.937255859375,-8.1787109375,-166.534423828125
3.0824999,5.359420299530029,-0.9169792532920837,9.333795547485352,-19.8974609375,7.87353515625,-201.23291015625
3.0874999,4.121618270874023,-1.1300631761550903,9.567828178405762,-5.645751953125,2.349853515625,-111.541748046875
3.0924999,1.4389152526855469,-0.7410054206848145,9.88625717163086,3.692626953125,0.701904296875,33.26416015625
3.0974999000000003,-2.1320366859436035,-0.42616790533065796,10.17296314239502,7.2021484375,-1.129150390625,128.936767578125
3.1024999,-4.061763286590576,0.13587094843387604,10.250774383544922,6.744384765625,1.0986328125,162.994384765625
3.1074999,-3.4835634231567383,0.18495208024978638,10.16757583618164,9.58251953125,2.593994140625,117.0654296875
3.1124999,-0.7535749673843384,-0.2902969419956207,9.72285270690918,9.1552734375,-7.781982421875,-14.923095703125
3.1174999000000003,2.6844985485076904,-0.2388216257095337,9.596558570861816,-10.162353515625,-6.28662109375,-147.76611328125
3.1224999,4.67946720123291,-1.3976151943206787,9.03631591796875,-18.73779296875,6.53076171875,-203.125
3.1274999,3.995922565460205,-0.9612720012664795,9.241020202636719,-10.711669921875,1.861572265625,-128.814697265625
3.1324999,1.2743138074874878,-1.115697979927063,9.165003776550293,5.950927734375,0.6103515625,34.5458984375
3.1374999000000003,-2.1990742683410645,-0.5512649416923523,9.611522674560547,8.087158203125,1.3427734375,145.5078125
3.1424999000000002,-4.36343240737915,0.17717093229293823,9.832986831665039,5.828857421875,2.593994140625,181.45751953125
3.1474999,-3.843890905380249,0.40043023228645325,10.04188060760498,12.969970703125,4.0283203125,143.98193359375
3.1524999,-0.9235633015632629,0.4902127981185913,9.81143856048584,11.322021484375,-3.72314453125,20.01953125
3.1574999000000004,2.477400302886963,0.21188685297966003,9.480440139770508,-8.697509765625,-13.5498046875,-132.4462890625
3.1624999000000003,5.035006046295166,-1.4460978507995605,9.363722801208496,-22.15576171875,5.67626953125,-208.465576171875
3.1674999,4.393360137939453,-1.137245774269104,9.291297912597656,-10.6201171875,4.364013671875,-154.876708984375
3.1724999,1.9806033372879028,-1.9835960865020752,9.612719535827637,0.640869140625,1.800537109375,-10.101318359375
3.1774999000000004,-1.6328455209732056,-1.047463297843933,9.883264541625977,8.697509765625,0.30517578125,115.29541015625
3.1824999000000003,-3.891774892807007,-0.015562310814857483,9.95748519897461,6.103515625,0.335693359375,167.510986328125
3.1874999,-3.779247283935547,0.2867056429386139,10.033500671386719,8.60595703125,2.410888671875,147.857666015625
3.1924999,-1.313219666481018,0.17298106849193573,9.743802070617676,11.810302734375,-1.8310546875,37.04833984375
3.1974999000000004,1.8327614068984985,0.08200141042470932,9.500192642211914,-3.84521484375,-11.77978515625,-109.344482421875
3.2024999000000003,4.570530891418457,-1.556231141090393,8.769362449645996,-17.08984375,2.25830078125,-200.286865234375
3.2074999,4.570530891418457,-1.556231141090393,8.769362449645996,-17.08984375,2.25830078125,-200.286865234375
3.2124999,4.282029628753662,-0.6859387755393982,8.681375503540039,-15.411376953125,4.08935546875,-168.02978515625
3.2174999,2.205059766769409,-1.3227964639663696,8.404845237731934,-2.3193359375,2.105712890625,-20.355224609375
3.2224999000000003,-1.3467384576797485,-0.05027823522686958,8.774150848388672,12.26806640625,-0.6103515625,123.443603515625
3.2274999,-3.9450459480285645,0.5363011956214905,9.2841157913208,4.669189453125,2.593994140625,181.793212890625
3.2324999,-4.369418144226074,0.9576807022094727,9.584588050842285,10.43701171875,4.08935546875,169.952392578125
3.2374999,-1.9273324012756348,0.4818331003189087,9.824007987976074,13.275146484375,2.197265625,71.2890625
3.2424999000000003,1.468244194984436,-0.12030863761901855,9.723451614379883,1.89208984375,-15.106201171875,-86.212158203125
3.2474999,4.522646903991699,-1.4814122915267944,8.82203483581543,-21.392822265625,-1.28173828125,-197.784423828125
3.2524999,5.171475887298584,-1.2324153184890747,8.588001251220703,-16.387939453125,6.2255859375,-188.3544921875
3.2574999,3.153762102127075,-1.7118542194366455,8.273163795471191,-5.2490234375,2.01416015625,-66.680908203125
3.2624999000000003,-0.24241292476654053,-0.39145198464393616,8.498817443847656,9.185791015625,1.495361328125,82.733154296875
3.2674999000000002,-3.4338839054107666,0.1604115068912506,9.136872291564941,7.781982421875,0.152587890625,155.2734375
3.2724999,-4.506485939025879,0.5991489887237549,9.59057331085205,5.828857421875,1.46484375,165.313720703125
3.2774999,-2.739565372467041,0.6584054827690125,9.853337287902832,9.918212890625,2.288818359375,83.160400390625
3.2824999000000004,0.292691171169281,0.07302315533161163,9.654019355773926,5.79833984375,-13.031005859375,-67.138671875
3.2874999000000003,3.469198226928711,-0.7422025203704834,9.009979248046875,-15.56396484375,-2.25830078125,-184.295654296875
3.2924999,4.54299783706665,-0.545877993106842,8.685564994812012,-17.15087890625,4.913330078125,-191.802978515625
3.2974999,2.8107926845550537,-1.1905168294906616,8.593388557434082,-9.552001953125,1.983642578125,-72.32666015625
3.3024999000000004,0.0065840547904372215,-0.0802057534456253,8.87829875946045,12.451171875,0.335693359375,98.08349609375
3.3074999000000003,-3.183091163635254,-0.016759412363171577,9.692327499389648,6.53076171875,1.953125,175.59814453125
3.3124999,-4.157531261444092,0.42616790533065796,9.956886291503906,7.598876953125,4.852294921875,187.56103515625
3.3174999,-2.75812029838562,0.3148375153541565,10.159195899963379,12.8173828125,5.43212890625,118.865966796875
3.3224999000000004,0.3214215636253357,0.01496376097202301,9.634267807006836,7.9345703125,-11.90185546875,-31.43310546875
3.3274999000000003,3.448249101638794,-0.6248866319656372,9.496601104736328,-16.78466796875,-7.965087890625,-170.196533203125
3.3324999,5.4444146156311035,-1.2006921768188477,9.09257984161377,-19.134521484375,7.232666015625,-200.50048828125
3.3374999,4.113238334655762,-1.6879122257232666,9.385271072387695,-6.072998046875,1.5869140625,-110.687255859375
3.3424999,1.3952209949493408,-1.325789213180542,9.700706481933594,3.662109375,1.861572265625,35.064697265625
3.3474999000000003,-2.2200236320495605,-1.1623848676681519,10.126276016235352,8.4228515625,1.3427734375,126.220703125
3.3524999,-4.214992046356201,-0.22206220030784607,10.24538803100586,6.77490234375,0.030517578125,163.665771484375
3.3574999,-3.5901055335998535,-0.16340427100658417,10.208277702331543,7.75146484375,2.50244140625,118.377685546875
3.3624999,-0.8475474119186401,-0.2017114907503128,9.690531730651855,10.162353515625,-8.636474609375,-16.357421875
3.3674999000000003,2.5971102714538574,-0.10893617570400238,9.504382133483887,-10.284423828125,-8.392333984375,-152.191162109375
3.3724999,4.608838081359863,-1.0247182846069336,8.688557624816895,-16.571044921875,4.638671875,-205.26123046875
3.3774999,3.9450459480285645,-0.42856210470199585,8.893860816955566,-15.2587890625,2.0751953125,-133.575439453125
3.3824999,1.2988544702529907,-0.4513070285320282,8.705317497253418,6.683349609375,1.46484375,40.58837890625
3.3874999000000003,-2.072181463241577,0.08978256583213806,9.281123161315918,10.528564453125,0.885009765625,155.303955078125
3.3924999000000002,-4.179677486419678,0.7350199222564697,9.626486778259277,4.669189453125,4.57763671875,190.49072265625
3.3974999,-3.6343982219696045,0.6135141849517822,9.962871551513672,13.336181640625,5.889892578125,149.71923828125
3.4024999,-0.8008604645729065,0.4100070297718048,9.712677955627441,14.0380859375,-4.486083984375,22.64404296875
3.4074999000000004,2.6455929279327393,0.22924481332302094,9.02135181427002,-9.674072265625,-13.97705078125,-130.950927734375
3.4124999000000003,5.045181751251221,-1.467047095298767,8.357559204101562,-21.484375,2.777099609375,-208.19091796875
3.4174999,4.399944305419922,-0.6482301354408264,7.8529815673828125,-13.336181640625,6.103515625,-160.125732421875
3.4224999,1.886630892753601,-1.391629695892334,8.023568153381348,-0.396728515625,3.265380859375,-14.251708984375
3.4274999000000004,-1.8770540952682495,-0.3770867586135864,8.579621315002441,10.101318359375,1.861572265625,109.43603515625
3.4324999000000003,-4.225167274475098,0.43275195360183716,9.263166427612305,7.080078125,-0.091552734375,162.53662109375
3.4374999,-4.133589267730713,0.4578910768032074,9.787496566772461,6.8359375,2.044677734375,145.538330078125
3.4424999,-1.6316484212875366,0.19692309200763702,9.797672271728516,10.589599609375,-3.173828125,32.8369140625
3.4474999000000004,1.623268723487854,0.09038111567497253,9.621099472045898,-2.716064453125,-12.237548828125,-112.85400390625
3.4524999000000003,4.394556999206543,-1.623268723487854,8.926780700683594,-15.655517578125,2.593994140625,-200.3173828125
3.4574999,4.000112533569336,-0.8086416125297546,8.849568367004395,-17.333984375,5.31005859375,-167.236328125
3.4624999,1.9141643047332764,-1.4413094520568848,8.553285598754883,-2.105712890625,3.204345703125,-7.354736328125
3.4674999,-1.7082629203796387,-0.21308395266532898,8.968679428100586,14.862060546875,-0.091552734375,137.51220703125
3.4724999000000003,-4.1210198402404785,0.4465186297893524,9.444527626037598,4.241943359375,4.058837890625,191.95556640625
3.4774999,-4.291606426239014,1.0211269855499268,9.634267807006836,10.68115234375,5.0048828125,178.89404296875
3.4824999,-1.7046716213226318,0.5602431893348694,9.961674690246582,12.603759765625,1.983642578125,78.2470703125
3.4874999,1.8213889598846436,0.002394201699644327,9.851541519165039,0.701904296875,-17.120361328125,-90.057373046875
3.4924999000000003,4.88836145401001,-1.3611036539077759,9.66419506072998,-21.697998046875,-0.42724609375,-200.714111328125
3.4974999,5.439027786254883,-1.0708067417144775,9.688735961914062,-15.472412109375,6.04248046875,-187.56103515625
3.5024999,3.4129345417022705,-1.6095020771026611,9.785101890563965,-2.655029296875,0.091552734375,-64.51416015625
3.5074999,-0.03711012750864029,-0.29628247022628784,9.924564361572266,6.4697265625,2.62451171875,75.897216796875
3.5124999000000003,-3.1860837936401367,0.14664486050605774,10.096348762512207,7.904052734375,0.244140625,147.735595703125
3.5174999000000002,-4.2963948249816895,0.4345476031303406,10.035895347595215,6.89697265625,0.6103515625,160.491943359375
3.5224999,-2.5911247730255127,0.4291606545448303,9.94970417022705,9.429931640625,1.556396484375,81.1767578125
3.5274999,0.3621230125427246,-0.2124854028224945,9.662399291992188,5.340576171875,-12.8173828125,-67.07763671875
3.5324999000000004,3.4829649925231934,-0.9091981053352356,8.817246437072754,-14.404296875,-1.800537109375,-182.80029296875
3.5374999000000003,4.512471675872803,-0.750582218170166,8.556877136230469,-17.120361328125,5.2490234375,-194.366455078125
3.5424999,2.8221652507781982,-1.136048674583435,8.339603424072266,-10.3759765625,2.197265625,-77.20947265625
3.5474999,-0.12330138683319092,-0.03651157766580582,8.595184326171875,13.18359375,0.67138671875,95.3369140625
3.5524999000000004,-3.3279404640197754,0.12928688526153564,9.482834815979004,6.195068359375,3.173828125,175.78125
3.5574999000000003,-4.426280498504639,0.6171054840087891,9.829395294189453,7.598876953125,5.126953125,188.751220703125
3.5624999,-2.981379747390747,0.4818331003189087,10.139444351196289,13.0615234375,5.828857421875,121.826171875
3.5674999,0.1693897694349289,0.15682020783424377,9.654019355773926,7.904052734375,-11.138916015625,-28.62548828125
3.5724999000000004,3.397372245788574,-0.30945056676864624,9.431957244873047,-17.02880859375,-9.185791015625,-169.281005859375
3.5774999000000003,3.397372245788574,-0.30945056676864624,9.431957244873047,-17.02880859375,-9.185791015625,-169.281005859375
3.5824999,5.456385612487793,-0.982221245765686,8.999205589294434,-19.439697265625,6.65283203125,-202.45361328125
3.5874999,4.194641590118408,-1.314416766166687,9.123106002807617,-4.69970703125,1.861572265625,-115.78369140625
3.5924999,1.5095441341400146,-1.0145429372787476,9.489418029785156,2.593994140625,1.983642578125,29.9072265625
3.5974999000000003,-2.0183119773864746,-0.7864952683448792,9.859322547912598,7.904052734375,2.3193359375,123.59619140625
3.6024999,-4.091690540313721,0.031124621629714966,10.108319282531738,7.720947265625,0.06103515625,160.58349609375
3.6074999,-3.400963544845581,0.04489128291606903,10.137648582458496,7.568359375,2.44140625,118.71337890625
3.6124999,-0.7817068696022034,-0.1412578970193863,9.693524360656738,9.246826171875,-7.9345703125,-14.404296875
3.6174999000000003,2.667739152908325,-0.11791443079710007,9.531316757202148,-9.1552734375,-8.7890625,-150.421142578125
3.6224999,4.619013786315918,-1.0905588865280151,8.654440879821777,-16.29638671875,3.509521484375,-205.810546875
3.6274999,3.933074951171875,-0.5285200476646423,8.833407402038574,-15.2587890625,2.777099609375,-134.82666015625
3.6324999,1.2258312702178955,-0.5422866940498352,8.568249702453613,6.591796875,2.44140625,43.060302734375
3.6374999000000003,-2.2403743267059326,-0.06344634294509888,9.174580574035645,10.92529296875,1.0986328125,156.8603515625
3.6424999000000002,-4.367622375488281,0.5781996846199036,9.536105155944824,4.94384765625,4.150390625,191.89453125
3.6474999,-3.8319199085235596,0.6153098344802856,9.924564361572266,12.75634765625,5.950927734375,154.78515625
3.6524999,-0.9044097065925598,0.4321534037590027,9.810839653015137,12.359619140625,-3.631591796875,29.388427734375
3.6574999000000004,2.62823486328125,0.22625206410884857,9.279327392578125,-7.598876953125,-14.984130859375,-130.279541015625
3.6624999000000003,5.1996073722839355,-1.5741876363754272,9.08838939666748,-22.15576171875,1.708984375,-208.038330078125
3.6674999,4.669890403747559,-1.2054805755615234,8.792107582092285,-11.444091796875,4.33349609375,-161.529541015625
3.6724999,2.2224178314208984,-1.956661343574524,9.166799545288086,-0.885009765625,0.823974609375,-21.514892578125
3.6774999000000004,-1.4610615968704224,-1.0301052331924438,9.568427085876465,8.331298828125,3.173828125,103.973388671875
3.6824999000000003,-3.927687883377075,0.04489128291606903,9.880271911621094,8.270263671875,1.007080078125,157.958984375
3.6874999,-3.9480385780334473,0.3471592366695404,10.029909133911133,6.103515625,1.068115234375,147.064208984375
3.6924999,-1.5975310802459717,0.3758896589279175,9.907206535339355,8.6669921875,-1.617431640625,39.4287109375
3.6974999000000004,1.6316484212875366,0.24600422382354736,9.496002197265625,-1.28173828125,-13.092041015625,-109.4970703125
3.7024999000000003,4.3825860023498535,-1.4425065517425537,9.189544677734375,-15.472412109375,0.396728515625,-200.103759765625
3.7074999,4.0863037109375,-0.8349778652191162,8.960299491882324,-16.17431640625,2.99072265625,-168.76220703125
3.7124999,2.015319347381592,-1.6112977266311646,8.969876289367676,-2.99072265625,3.631591796875,-13.24462890625
3.7174999,-1.5885528326034546,-0.4339490532875061,9.254188537597656,13.336181640625,0.396728515625,134.613037109375
3.7224999000000003,-4.100070476531982,0.24660277366638184,9.659406661987305,5.096435546875,3.692626953125,187.80517578125
3.7274999,-4.396352767944336,0.8529343605041504,9.742605209350586,10.55908203125,5.218505859375,178.070068359375
3.7324999,-1.8944120407104492,0.5111620426177979,9.979631423950195,11.71875,2.716064453125,84.564208984375
3.7374999,1.5257049798965454,-0.02753331884741783,9.846753120422363,0.91552734375,-16.204833984375,-80.2001953125
3.7424999000000003,4.595071792602539,-1.1797429323196411,9.552865028381348,-21.17919921875,-1.251220703125,-194.610595703125
3.7474999,5.339069843292236,-0.9259575009346008,9.478644371032715,-14.22119140625,6.591796875,-182.9833984375
3.7524999,3.353677988052368,-1.325789213180542,9.501988410949707,-2.410888671875,0.885009765625,-65.460205078125
3.7574999,0.17298106849193573,-0.26755204796791077,9.609128952026367,5.06591796875,2.349853515625,71.685791015625
3.7624999000000003,-2.9747955799102783,0.1735796183347702,9.820416450500488,8.056640625,1.77001953125,143.798828125
3.7674999000000002,-4.0563764572143555,0.375291109085083,9.856928825378418,7.843017578125,-0.274658203125,162.017822265625
3.7724999,-2.4905683994293213,0.36332011222839355,9.889848709106445,7.99560546875,1.495361328125,87.554931640625
3.7774999,0.39384618401527405,-0.1909375786781311,9.492411613464355,4.669189453125,-12.451171875,-62.896728515625
3.7824999000000004,3.468599796295166,-0.8038532137870789,8.948927879333496,-13.12255859375,-3.997802734375,-181.94580078125
3.7874999000000003,4.716577529907227,-0.9409212470054626,8.555679321289062,-16.448974609375,3.5400390625,-193.817138671875
3.7924999,3.0424318313598633,-1.0384849309921265,8.58500862121582,-10.25390625,2.38037109375,-87.2802734375
3.7974999,0.14185644686222076,-0.11851298063993454,8.804078102111816,10.92529296875,1.40380859375,78.125
3.8024999000000004,-3.1896753311157227,0.14844051003456116,9.683947563171387,7.50732421875,2.86865234375,162.2314453125
3.8074999000000003,-4.501099109649658,0.750582218170166,9.970054626464844,7.232666015625,4.638671875,178.741455078125
3.8124999,-3.178302764892578,0.5506663918495178,10.200496673583984,14.0380859375,5.218505859375,114.410400390625
3.8174999,-0.16220717132091522,0.2172738015651703,9.825803756713867,10.894775390625,-12.3291015625,-30.731201171875
3.8224999000000004,3.288435935974121,-0.02753331884741783,8.865130424499512,-19.256591796875,-8.026123046875,-168.39599609375
3.8274999000000003,4.994903087615967,-0.7433996200561523,8.033743858337402,-18.829345703125,4.547119140625,-206.390380859375
3.8324999,3.955819845199585,-0.790086567401886,7.6315178871154785,-10.467529296875,1.861572265625,-117.7978515625
3.8374999,0.9941922426223755,-0.436343252658844,7.524377346038818,6.9580078125,2.410888671875,49.37744140625
3.8424999,-2.542043685913086,-0.24420857429504395,8.513182640075684,9.063720703125,3.326416015625,151.336669921875
3.8474999000000003,-4.460397720336914,0.596754789352417,9.121310234069824,6.072998046875,0.18310546875,184.539794921875
3.8524999,-3.667917013168335,0.4118026793003082,9.758167266845703,9.185791015625,2.99072265625,132.293701171875
3.8574999,-0.7805097699165344,0.20709845423698425,9.747393608093262,8.60595703125,-7.904052734375,-9.21630859375
3.8624999,2.697068214416504,0.06883329898118973,9.758167266845703,-9.796142578125,-9.82666015625,-152.191162109375
3.8674999000000003,4.7818193435668945,-1.0672154426574707,9.363722801208496,-18.00537109375,5.096435546875,-203.2470703125
3.8724999,4.17728328704834,-0.7565677165985107,9.370306968688965,-10.467529296875,2.532958984375,-133.60595703125
3.8774999,1.5173252820968628,-0.9642647504806519,9.408614158630371,0.9765625,2.105712890625,17.669677734375
3.8824999,-1.9590555429458618,-0.4537012279033661,9.627683639526367,10.955810546875,0.79345703125,126.8310546875
3.8874999000000003,-4.087501049041748,0.07242459803819656,9.873088836669922,6.28662109375,3.35693359375,169.464111328125
3.8924999000000002,-3.7433342933654785,0.28311434388160706,9.982624053955078,9.918212890625,4.852294921875,139.83154296875
3.8974999,-0.8655039072036743,-0.04908113554120064,9.742605209350586,12.664794921875,-4.69970703125,18.37158203125
3.9024999,2.698265314102173,0.06703764945268631,9.066243171691895,-8.85009765625,-12.6953125,-129.241943359375
3.9074999000000004,5.080495834350586,-1.4460978507995605,8.503006935119629,-18.463134765625,3.448486328125,-207.305908203125
3.9124999000000003,4.410119533538818,-0.6973112225532532,7.978078842163086,-14.862060546875,3.692626953125,-155.33447265625
3.9174999,1.6011223793029785,-1.4059948921203613,8.03075122833252,2.593994140625,2.9296875,14.190673828125
3.9224999,-2.2421698570251465,-0.5614402890205383,8.526948928833008,12.359619140625,2.166748046875,145.355224609375
3.9274999000000004,-4.531625270843506,0.272938996553421,9.18355941772461,3.814697265625,0.9765625,194.061279296875
3.9324999000000003,-4.215590476989746,0.45010992884635925,9.668983459472656,11.1083984375,3.2958984375,166.473388671875
3.9374999,-1.4371196031570435,0.4231751561164856,9.891644477844238,10.955810546875,-0.732421875,50.445556640625
3.9424999,-1.4371196031570435,0.4231751561164856,9.891644477844238,10.955810546875,-0.732421875,50.445556640625
3.9474999000000004,2.1517887115478516,0.046088382601737976,9.62947940826416,-2.9296875,-13.641357421875,-112.152099609375
3.9524999000000003,4.931457042694092,-1.6154875755310059,9.3643217086792,-19.561767578125,0.091552734375,-205.2001953125
3.9574999,4.87758731842041,-1.2934675216674805,9.169792175292969,-12.939453125,5.279541015625,-175.1708984375
3.9624999,2.8598740100860596,-1.8596961498260498,9.384073257446289,-3.84521484375,0.8544921875,-45.440673828125
3.9674999000000004,-0.7966706156730652,-0.7260416746139526,9.68933391571045,8.056640625,0.701904296875,89.9658203125
3.9724999000000003,-3.516483783721924,0.1149216815829277,10.014347076416016,8.11767578125,1.434326171875,150.57373046875
3.9774999,-4.2329487800598145,0.6290764808654785,10.122086524963379,6.622314453125,4.119873046875,150.299072265625
3.9824999,-2.122459888458252,0.2759317457675934,9.95748519897461,11.810302734375,0.42724609375,58.65478515625
3.9874999,1.0408791303634644,-0.1933317929506302,9.971251487731934,1.15966796875,-13.73291015625,-86.944580078125
3.9924999000000003,4.093486309051514,-1.3419500589370728,9.044096946716309,-16.815185546875,0.54931640625,-194.64111328125
3.9974999,4.414907932281494,-0.7128735780715942,9.062651634216309,-16.876220703125,6.072998046875,-183.2275390625
4.0024999,2.5486276149749756,-1.2898762226104736,8.632892608642578,-5.37109375,3.41796875,-37.841796875
4.0074999,-0.9181763529777527,0.17956513166427612,8.666411399841309,14.739990234375,0.762939453125,126.495361328125
4.0124999,-3.731363296508789,0.43754035234451294,9.30805778503418,3.35693359375,2.0751953125,188.720703125
4.0174999,-4.431667327880859,0.7451952695846558,9.41759204864502,9.765625,2.960205078125,186.21826171875
4.022499900000001,-2.299032211303711,0.3280056416988373,9.764153480529785,12.298583984375,4.57763671875,100.89111328125
4.0274999000000005,1.0384849309921265,0.04967968538403511,9.459490776062012,5.126953125,-13.580322265625,-66.650390625
4.0324999,4.083311080932617,-1.0330979824066162,9.159018516540527,-19.073486328125,-5.523681640625,-193.511962890625
4.0374999,5.609614372253418,-0.7793126702308655,8.942343711853027,-17.02880859375,6.561279296875,-201.263427734375
4.0424999,3.6984431743621826,-1.1366472244262695,9.113529205322266,-6.53076171875,1.312255859375,-98.175048828125
4.0474999,0.8667010068893433,-0.34416648745536804,9.500192642211914,5.950927734375,1.556396484375,53.3447265625
4.0524999,-2.6563668251037598,-0.11552023142576218,10.021530151367188,8.7890625,-0.274658203125,138.885498046875
4.0574999,-4.189254283905029,0.14245499670505524,10.254365921020508,5.523681640625,2.655029296875,162.29248046875
4.062499900000001,-3.287238836288452,0.2064998894929886,10.266336441040039,10.040283203125,2.99072265625,102.142333984375
4.0674999000000005,-0.5057750940322876,-0.13108254969120026,9.836577415466309,10.498046875,-11.23046875,-37.41455078125
4.0724999,2.828150749206543,-0.2513911724090576,8.98005199432373,-15.07568359375,-5.126953125,-166.107177734375
4.0774999,4.408323764801025,-0.518943190574646,8.394669532775879,-16.082763671875,5.859375,-202.69775390625
4.0824999,3.4614171981811523,-0.6075286865234375,8.322843551635742,-14.58740234375,3.509521484375,-110.65673828125
4.0874999,0.5386953949928284,-0.15502455830574036,8.297704696655273,12.237548828125,1.190185546875,77.33154296875
4.0924999,-2.8341362476348877,-0.13766659796237946,9.305065155029297,7.62939453125,0.67138671875,176.177978515625
4.0974999,-4.699818134307861,0.48901569843292236,9.625887870788574,5.2490234375,3.662109375,198.05908203125
4.1024999,-3.669114112854004,0.38905778527259827,9.99100399017334,13.916015625,5.706787109375,144.500732421875
4.1074999000000005,-0.7056909799575806,0.25737667083740234,9.773730278015137,11.199951171875,-6.40869140625,1.495361328125
4.1124999,3.117849111557007,0.181959331035614,9.25299072265625,-11.749267578125,-13.0615234375,-156.829833984375
4.1174999,5.32889461517334,-1.270722508430481,8.694543838500977,-20.904541015625,2.197265625,-214.080810546875
4.1224999,4.55496883392334,-0.9876081943511963,8.327033042907715,-11.077880859375,5.0048828125,-153.13720703125
4.1274999,1.8519150018692017,-1.4826093912124634,8.474276542663574,1.190185546875,2.3193359375,-3.2958984375
4.1324999,-2.075772762298584,-0.9187749028205872,8.933963775634766,10.1318359375,0.091552734375,117.3095703125
4.1374999,-4.35804557800293,0.002992752008140087,9.480440139770508,6.16455078125,0.79345703125,162.567138671875
4.1424999,-4.088099479675293,0.23523031175136566,9.911396026611328,7.415771484375,3.2958984375,136.90185546875
4.147499900000001,-1.3215993642807007,0.12090718746185303,9.849745750427246,13.214111328125,-4.82177734375,20.08056640625
4.1524999000000005,2.2810757160186768,0.395043283700943,9.422380447387695,-5.584716796875,-11.16943359375,-122.86376953125
4.1574999,4.962581634521484,-1.2659341096878052,9.029132843017578,-15.869140625,2.166748046875,-204.4677734375
4.1624999,4.371812343597412,-0.181959331035614,8.744821548461914,-18.707275390625,5.31005859375,-167.877197265625
4.1674999,1.877652645111084,-0.9876081943511963,8.776544570922852,-0.42724609375,3.753662109375,2.8076171875
4.1724999,-2.1589713096618652,0.13946224749088287,9.164405822753906,15.777587890625,-1.068115234375,148.040771484375
4.1774999,-4.571728229522705,0.6673837304115295,9.637859344482422,2.044677734375,4.08935546875,198.028564453125
4.1824999,-4.61661958694458,1.0450690984725952,9.785101890563965,11.41357421875,4.94384765625,174.285888671875
4.187499900000001,-1.7591396570205688,0.5249287486076355,9.996989250183105,13.73291015625,1.220703125,70.00732421875
4.1924999000000005,2.0620062351226807,-0.1041477769613266,9.905410766601562,-1.007080078125,-15.68603515625,-90.118408203125
4.1974999,5.166088581085205,-1.5939397811889648,9.289502143859863,-21.30126953125,-1.556396484375,-195.037841796875
4.2024999,5.561131954193115,-1.577778935432434,9.131484985351562,-15.411376953125,6.866455078125,-180.389404296875
4.2074999,3.425503969192505,-1.878849744796753,8.94533634185791,-3.173828125,1.800537109375,-58.624267578125
4.2124999,-0.26755204796791077,-0.6961141228675842,9.051877975463867,7.14111328125,1.15966796875,76.11083984375
4.2174999,-3.4123358726501465,0.2322375625371933,9.408614158630371,8.148193359375,-0.54931640625,143.890380859375
4.2224999,-4.4292731285095215,0.579995334148407,9.70310115814209,5.950927734375,2.38037109375,154.96826171875
4.2274999,-2.655169725418091,0.7056909799575806,9.853935241699219,10.3759765625,1.03759765625,74.371337890625
4.2324999000000005,0.42676645517349243,0.07062894850969315,9.609128952026367,6.561279296875,-12.939453125,-71.075439453125
4.2374999,3.6709096431732178,-0.5392939448356628,9.060257911682129,-16.6015625,-1.251220703125,-185.333251953125
4.2424999,4.627991676330566,-0.2861070930957794,8.610147476196289,-16.387939453125,3.021240234375,-198.79150390625
4.2474999,2.9652187824249268,-0.5811924338340759,8.530540466308594,-13.0615234375,2.5634765625,-82.550048828125
4.2524999,-0.22744916379451752,0.46746787428855896,8.590993881225586,15.777587890625,0.18310546875,97.900390625
4.2574999,-3.491943120956421,0.5045779943466187,9.391256332397461,5.401611328125,2.532958984375,181.671142578125
4.2624999,-4.7375264167785645,0.8631097078323364,9.704896926879883,6.591796875,5.096435546875,190.36865234375
4.2674999,-3.265691041946411,0.578798234462738,10.00836181640625,15.0146484375,5.4931640625,119.93408203125
4.272499900000001,-0.12749123573303223,0.2406172752380371,9.594164848327637,9.33837890625,-10.43701171875,-26.031494140625
4.2774999000000005,3.2327709197998047,-0.30466216802597046,9.421183586120605,-18.24951171875,-9.3994140625,-164.0625
4.2824999,5.327697277069092,-0.8912416100502014,8.94533634185791,-19.378662109375,4.69970703125,-198.8525390625
4.2874999,4.14795446395874,-1.138442873954773,9.090784072875977,-7.965087890625,3.570556640625,-116.27197265625
4.2924999,1.5376760959625244,-0.8325836658477783,9.366117477416992,3.662109375,2.50244140625,31.524658203125
4.2974999,-2.034472942352295,-0.6021417379379272,9.774927139282227,8.880615234375,0.396728515625,125.640869140625
4.3024999,-4.086902141571045,0.03232172131538391,9.97603988647461,6.77490234375,0.244140625,161.1328125
4.3074999,-3.448847532272339,0.08200141042470932,10.034697532653809,6.927490234375,2.99072265625,119.93408203125
4.312499900000001,-3.448847532272339,0.08200141042470932,10.034697532653809,6.927490234375,2.99072265625,119.93408203125
4.3174999000000005,-0.8140285611152649,-0.24779987335205078,9.420584678649902,9.6435546875,-8.1787109375,-13.092041015625
4.3224999,2.5923218727111816,-0.017956512048840523,9.239224433898926,-8.453369140625,-7.75146484375,-149.71923828125
4.3274999,4.6507368087768555,-1.0187327861785889,8.366538047790527,-16.66259765625,4.0283203125,-203.704833984375
4.3324999,3.892971992492676,-0.39145198464393616,8.513781547546387,-13.671875,3.448486328125,-137.6953125
4.3374999,1.216254472732544,-0.444722980260849,8.451532363891602,5.523681640625,1.64794921875,31.73828125
4.3424999,-2.4355015754699707,-0.014365210197865963,9.038111686706543,10.406494140625,0,148.92578125
4.3474999,-4.6070427894592285,0.579995334148407,9.48882007598877,4.39453125,4.39453125,186.004638671875
4.352499900000001,-4.179079055786133,0.5452794432640076,9.921571731567383,13.3056640625,5.2490234375,150.726318359375
4.3574999000000005,-1.2509703636169434,0.42676645517349243,9.889249801635742,14.556884765625,-3.448486328125,29.266357421875
4.3624999,2.4187421798706055,0.2759317457675934,9.458293914794922,-5.950927734375,-13.671875,-124.237060546875
4.3674999,5.109825134277344,-1.1192892789840698,8.492233276367188,-22.430419921875,-0.396728515625,-204.1015625
4.3724999,4.675277233123779,-0.5213374495506287,7.74823522567749,-13.458251953125,5.67626953125,-168.02978515625
4.3774999,2.1146786212921143,-0.8798691034317017,7.359776020050049,-3.570556640625,4.8828125,-25.787353515625
4.3824999,-1.744175910949707,-0.023942016065120697,7.529165744781494,11.77978515625,1.983642578125,117.279052734375
4.3874999,-4.377797603607178,1.028908133506775,8.242637634277344,6.4697265625,0.18310546875,173.980712890625
4.3924999,-4.398746967315674,0.912190854549408,9.015965461730957,7.049560546875,2.5634765625,155.731201171875
4.397499900000001,-1.8034324645996094,0.5141547918319702,9.362525939941406,11.260986328125,-1.678466796875,45.989990234375
4.4024999000000005,1.7968484163284302,0.1173158809542656,9.774927139282227,-1.068115234375,-12.51220703125,-105.560302734375
4.4074999,4.6704888343811035,-1.547252893447876,9.100360870361328,-17.120361328125,-0.42724609375,-200.042724609375
4.4124999,4.6914381980896,-0.8140285611152649,9.180566787719727,-15.716552734375,4.94384765625,-177.91748046875
4.4174999,2.5312697887420654,-1.259350061416626,8.82083797454834,-5.950927734375,3.509521484375,-36.529541015625
4.4224999,-1.2072762250900269,-0.015562310814857483,8.920196533203125,13.214111328125,-0.762939453125,115.081787109375
4.4274999,-3.9671921730041504,0.6488286852836609,9.345766067504883,5.340576171875,2.471923828125,179.01611328125
4.4324999,-4.559158802032471,0.9546879529953003,9.50737476348877,9.063720703125,5.157470703125,173.095703125
4.437499900000001,-2.2912509441375732,0.5847837924957275,9.739013671875,13.0615234375,2.3193359375,79.315185546875
4.4424999000000005,1.1019313335418701,-0.10115502029657364,9.512163162231445,4.08935546875,-14.2822265625,-76.263427734375
4.4474999,4.2951979637146,-1.3611036539077759,8.596381187438965,-20.20263671875,-2.62451171875,-189.361572265625
4.4524999,5.225345134735107,-0.9780313968658447,8.020575523376465,-15.380859375,5.340576171875,-187.957763671875
4.4574999,3.2543187141418457,-1.4502876996994019,7.527968883514404,-8.148193359375,3.60107421875,-75.775146484375
4.4624999,0.055665191262960434,-0.26396074891090393,7.665036678314209,10.1318359375,1.434326171875,83.92333984375
4.4674999,-3.2118215560913086,0.3256114423274994,8.4293851852417,7.720947265625,-0.48828125,163.848876953125
4.4724999,-4.405331134796143,0.345363587141037,9.150040626525879,6.072998046875,2.471923828125,172.4853515625
4.477499900000001,-2.8796260356903076,0.5219359993934631,9.72165584564209,11.3525390625,2.166748046875,92.71240234375
4.4824999000000005,0.10773907601833344,-0.07122749835252762,9.566631317138672,9.3994140625,-12.5732421875,-57.952880859375
4.4874999,3.245340347290039,-0.3034650683403015,9.05606746673584,-18.06640625,-3.0517578125,-181.5185546875
4.4924999,4.7806220054626465,-0.30945056676864624,8.290521621704102,-14.70947265625,3.021240234375,-202.57568359375
4.4974999,3.3045969009399414,-0.25019407272338867,8.283937454223633,-15.68603515625,4.45556640625,-103.08837890625
4.5024999,0.5279214978218079,0.48243165016174316,8.228272438049316,12.603759765625,1.007080078125,75.164794921875
4.5074999,-2.807800054550171,0.6045359373092651,9.252392768859863,8.514404296875,0.732421875,170.47119140625
4.5124999,-4.365228176116943,0.8708908557891846,9.679159164428711,4.974365234375,4.241943359375,189.300537109375
4.5174999,-3.230376720428467,0.641047477722168,10.036493301391602,14.34326171875,4.638671875,124.237060546875
4.522499900000001,-0.31842881441116333,0.20769700407981873,9.759963035583496,12.8173828125,-10.406494140625,-21.514892578125
4.5274999000000005,3.0765492916107178,-0.24660277366638184,9.349357604980469,-17.08984375,-8.819580078125,-161.80419921875
4.5324999,4.994903087615967,-0.8882488012313843,7.912238121032715,-17.51708984375,2.5634765625,-203.399658203125
4.5374999,3.999513864517212,-1.1186907291412354,7.803301811218262,-14.862060546875,5.340576171875,-133.392333984375
4.5424999,1.2342109680175781,-0.7589619159698486,7.26101541519165,3.509521484375,3.021240234375,27.89306640625
4.5474999,-2.3546974658966064,-0.292691171169281,8.061875343322754,12.20703125,-0.732421875,140.44189453125
4.5524999,-4.332307815551758,0.3770867586135864,8.91421127319336,5.340576171875,1.03759765625,177.978515625
4.5574999,-3.7624878883361816,0.6446388363838196,9.59177017211914,7.9345703125,3.692626953125,134.033203125
4.562499900000001,-0.9594763517379761,0.181959331035614,9.48462963104248,12.176513671875,-7.049560546875,-1.953125
4.5674999000000005,2.6455929279327393,0.2298433631658554,9.151836395263672,-9.857177734375,-9.46044921875,-145.20263671875
4.5724999,4.812345504760742,-1.1438298225402832,8.303091049194336,-16.17431640625,3.2958984375,-207.58056640625
4.5774999,4.091092109680176,-0.47405192255973816,8.145672798156738,-17.059326171875,5.126953125,-148.956298828125
4.5824999,1.294066071510315,-0.7948749661445618,8.128912925720215,3.41796875,1.8310546875,21.881103515625
4.5874999,-2.6874914169311523,-0.09157821536064148,8.808866500854492,13.36669921875,-0.885009765625,150.238037109375
4.5924999,-4.880579948425293,0.5440823435783386,9.444527626037598,3.5400390625,3.997802734375,192.535400390625
4.5974999,-4.594472885131836,0.547075092792511,9.911994934082031,11.474609375,4.913330078125,157.989501953125
4.602499900000001,-1.5065513849258423,0.42856210470199585,9.939528465270996,13.671875,-2.593994140625,35.82763671875
4.6074999000000005,2.1697452068328857,0.12270283699035645,9.581595420837402,-5.889892578125,-14.068603515625,-118.499755859375
4.6124999,4.920084476470947,-1.5945383310317993,8.920196533203125,-20.8740234375,1.40380859375,-201.59912109375
4.6174999,4.683058738708496,-1.0947487354278564,8.49283218383789,-14.5263671875,6.34765625,-164.73388671875
4.6224999,2.4612393379211426,-1.7920600175857544,8.38449478149414,-1.64794921875,2.349853515625,-27.099609375
4.6274999,-1.1366472244262695,-0.7128735780715942,8.711302757263184,10.101318359375,0.1220703125,104.98046875
4.6324999,-3.5404257774353027,0.39803603291511536,9.194931983947754,6.561279296875,0.213623046875,162.17041015625
4.6374999,-3.824737310409546,0.6649895310401917,9.621099472045898,6.591796875,2.8076171875,151.824951171875
4.6424999,-1.4760253429412842,0.46507367491722107,9.835380554199219,11.505126953125,-1.373291015625,48.40087890625
4.647499900000001,1.8950105905532837,0.1173158809542656,9.980229377746582,-0.244140625,-12.481689453125,-100.006103515625
4.6524999000000005,4.656722068786621,-1.400607943534851,9.2033109664917,-16.41845703125,0.732421875,-199.03564453125
4.6574999,4.657919406890869,-0.7206547260284424,9.068038940429688,-16.54052734375,5.4931640625,-179.840087890625
4.6624999,2.4654293060302734,-1.2761094570159912,8.561066627502441,-5.4931640625,2.50244140625,-38.4521484375
4.6674999,-1.3994108438491821,0.019153613597154617,8.492233276367188,14.83154296875,-0.6103515625,121.856689453125
4.6724999,-4.162319660186768,0.6733692288398743,9.0859956741333,4.119873046875,2.9296875,184.967041015625
4.6774999,-4.775235176086426,0.910993754863739,9.327810287475586,9.033203125,4.7607421875,179.38232421875
4.6824999,-4.775235176086426,0.910993754863739,9.327810287475586,9.033203125,4.7607421875,179.38232421875
4.687499900000001,-2.4582467079162598,0.5925649404525757,9.715670585632324,13.031005859375,3.0517578125,89.53857421875
4.6924999000000005,0.9205705523490906,-0.023343466222286224,9.642647743225098,3.875732421875,-13.7939453125,-66.89453125
4.6974999,4.05817174911499,-1.1492167711257935,9.418789863586426,-19.744873046875,-3.96728515625,-186.4013671875
4.7024999,5.309142112731934,-0.9582792520523071,9.360730171203613,-16.632080078125,5.859375,-188.04931640625
4.7074999,3.378218650817871,-1.3718775510787964,9.437344551086426,-4.69970703125,2.532958984375,-81.0546875
4.7124999,0.6859387755393982,-0.37229835987091064,9.725247383117676,5.79833984375,1.190185546875,63.690185546875
4.7174999,-2.6396074295043945,-0.05985504388809204,10.08198356628418,8.11767578125,-0.701904296875,140.777587890625
4.7224999,-3.843890905380249,0.19632454216480255,10.131064414978027,6.53076171875,1.190185546875,159.72900390625
4.727499900000001,-2.626439332962036,0.15682020783424377,10.185532569885254,7.720947265625,2.532958984375,93.353271484375
4.7324999000000005,0.12868833541870117,-0.30945056676864624,9.652822494506836,6.744384765625,-11.383056640625,-52.1240234375
4.7374999,3.112462282180786,-0.7194576263427734,8.85435676574707,-12.054443359375,-3.5400390625,-175.506591796875
4.7424999,4.643554210662842,-0.6009446382522583,8.271368026733398,-16.357421875,4.638671875,-198.577880859375
4.7474999,3.2333693504333496,-0.7643488645553589,8.175002098083496,-11.260986328125,2.74658203125,-98.32763671875
4.7524999,0.4836287498474121,0.166995570063591,8.274959564208984,11.016845703125,0.946044921875,79.864501953125
4.7574999,-2.8401217460632324,0.29807811975479126,9.292495727539062,7.171630859375,1.28173828125,169.43359375
4.7624999,-4.432864665985107,0.6661866307258606,9.635464668273926,6.7138671875,4.791259765625,188.29345703125
4.7674999,-3.290830135345459,0.6613982319831848,9.963470458984375,12.63427734375,5.157470703125,131.256103515625
4.772499900000001,-0.3776853084564209,0.2346317619085312,9.709086418151855,9.918212890625,-8.392333984375,-10.528564453125
4.7774999000000005,3.135207176208496,-0.046088382601737976,9.585784912109375,-13.946533203125,-10.223388671875,-155.21240234375
4.7824999,5.2444987297058105,-0.9648633003234863,9.006388664245605,-20.477294921875,4.364013671875,-199.951171875
4.7874999,4.340089321136475,-1.2844891548156738,9.105149269104004,-7.50732421875,4.150390625,-127.960205078125
4.7924999,1.6980875730514526,-1.2533645629882812,9.090784072875977,2.25830078125,2.3193359375,18.1884765625
4.7974999,-1.8950105905532837,-0.9373299479484558,9.49001693725586,7.659912109375,0.732421875,123.53515625
4.8024999,-4.042609691619873,0.0347159244120121,9.739612579345703,7.62939453125,-0.091552734375,162.078857421875
4.8074999,-3.622427225112915,0.22744916379451752,9.980229377746582,6.34765625,2.5634765625,128.5400390625
4.812499900000001,-0.982221245765686,0.11611878126859665,9.548674583435059,7.32421875,-6.04248046875,0.762939453125
4.8174999000000005,2.4857800006866455,0.3208230137825012,9.34037971496582,-5.950927734375,-8.6669921875,-140.5029296875
4.8224999,4.712985992431641,-1.0313023328781128,8.96269416809082,-17.120361328125,2.777099609375,-201.812744140625
4.8274999,4.10246467590332,-0.4620809257030487,8.881889343261719,-11.1083984375,3.509521484375,-142.27294921875
4.8324999,1.4927847385406494,-0.812831461429596,9.11113452911377,2.105712890625,2.349853515625,23.284912109375
4.8374999,-2.3038206100463867,-0.3711012601852417,9.470264434814453,10.8642578125,-0.396728515625,146.331787109375
4.8424999,-4.592078685760498,0.28311434388160706,9.746794700622559,5.615234375,3.448486328125,185.516357421875
4.8474999,-4.301782131195068,0.45908817648887634,10.001777648925781,10.833740234375,5.096435546875,158.905029296875
4.852499900000001,-1.4065934419631958,0.4279635548591614,9.77791976928711,11.90185546875,-2.105712890625,43.27392578125
4.8574999000000005,2.1811177730560303,0.2861070930957794,9.363123893737793,-4.08935546875,-13.97705078125,-112.12158203125
4.8624999,4.881178855895996,-1.4347254037857056,8.76457405090332,-20.355224609375,0.42724609375,-199.52392578125
4.8674999,4.697423934936523,-0.9032126069068909,8.446743965148926,-13.519287109375,5.889892578125,-166.6259765625
4.8724999,2.452261209487915,-1.6310498714447021,8.517372131347656,-1.922607421875,1.953125,-32.5927734375
4.8774999,-1.0187327861785889,-0.6685808300971985,8.901042938232422,8.85009765625,1.953125,99.761962890625
4.8824999,-3.488950490951538,0.4387374520301819,9.388861656188965,7.4462890625,0.1220703125,159.332275390625
4.8874999,-3.8097734451293945,0.5602431893348694,9.738415718078613,6.927490234375,1.40380859375,152.252197265625
4.8924999,-1.5747861862182617,0.2825157940387726,9.791686058044434,9.09423828125,-0.91552734375,51.6357421875
4.897499900000001,1.811812162399292,-0.04668693244457245,9.733627319335938,0.091552734375,-12.908935546875,-98.968505859375
4.9024999000000005,4.514267444610596,-1.63344407081604,9.359533309936523,-15.68603515625,0.762939453125,-198.42529296875
4.9074999,4.614225387573242,-0.8463503122329712,9.283516883850098,-15.31982421875,4.57763671875,-177.91748046875
4.9124999,2.3965959548950195,-1.258152961730957,9.315239906311035,-5.645751953125,2.716064453125,-38.604736328125
4.9174999,-1.4460978507995605,0.15083470940589905,9.37389850616455,13.641357421875,-0.885009765625,119.7509765625
4.9224999,-4.2060136795043945,0.7703344225883484,9.802460670471191,5.67626953125,3.265380859375,182.525634765625
4.9274999,-4.791396141052246,1.1037269830703735,9.843161582946777,9.21630859375,5.06591796875,180.7861328125
4.9324999,-2.4875755310058594,0.7116764783859253,9.976638793945312,13.18359375,3.265380859375,92.22412109375
4.937499900000001,0.943913996219635,0.06344634294509888,9.622895240783691,5.096435546875,-14.404296875,-65.7958984375
4.9424999000000005,4.111443042755127,-0.9187749028205872,9.19552993774414,-20.263671875,-3.2958984375,-187.31689453125
4.9474999,5.385158061981201,-0.6739677786827087,8.819042205810547,-17.76123046875,6.9580078125,-193.634033203125
4.9524999,3.427299737930298,-1.0187327861785889,8.858546257019043,-7.01904296875,2.86865234375,-84.747314453125
4.9574999,0.5159504413604736,0.050876785069704056,9.005789756774902,8.270263671875,0.8544921875,68.267822265625
4.9624999,-2.9083564281463623,0.3597288131713867,9.579200744628906,7.415771484375,-0.42724609375,148.101806640625
4.9674999,-4.217984676361084,0.5380968451499939,9.7791166305542,6.988525390625,1.15966796875,163.26904296875
4.9724999,-2.9454667568206787,0.28790274262428284,10.016142845153809,9.918212890625,2.0751953125,92.46826171875
4.977499900000001,-0.010773907415568829,-0.1843535304069519,9.701305389404297,7.38525390625,-12.451171875,-53.52783203125
4.9824999000000005,3.09151291847229,-0.7242460250854492,9.042301177978516,-14.70947265625,-1.8310546875,-179.0771484375
4.9874999,4.707000732421875,-0.6440402865409851,8.537723541259766,-17.333984375,4.974365234375,-202.45361328125
4.9924999,3.4081461429595947,-0.6619967818260193,8.51916790008545,-13.214111328125,2.532958984375,-97.47314453125
4.9974999,0.6260837316513062,0.24899697303771973,8.548497200012207,13.48876953125,0.48828125,88.0126953125
5.0024999,-2.6569652557373047,0.35254621505737305,9.529520988464355,8.087158203125,2.227783203125,176.94091796875
5.0074999,-4.26826286315918,0.8756792545318604,9.827000617980957,5.950927734375,4.45556640625,196.380615234375
5.0124999,-3.0843303203582764,0.6763619780540466,10.051457405090332,13.00048828125,5.55419921875,134.857177734375
5.0174999,-0.08499415963888168,0.29628247022628784,9.732429504394531,11.077880859375,-10.3759765625,-16.815185546875
5.022499900000001,3.4620156288146973,0.028730420395731926,9.480440139770508,-14.739990234375,-10.80322265625,-167.05322265625
5.0274999000000005,5.51624059677124,-1.0594342947006226,8.801684379577637,-20.904541015625,6.34765625,-214.324951171875
5.0324999,4.489128112792969,-1.0648212432861328,8.935759544372559,-11.016845703125,3.662109375,-140.625
5.0374999,1.6980875730514526,-1.0761936902999878,8.916605949401855,4.058837890625,1.861572265625,16.54052734375
5.0424999,-1.9596540927886963,-0.5722141861915588,9.41400146484375,9.124755859375,-0.152587890625,129.150390625
5.0474999,-1.9596540927886963,-0.5722141861915588,9.41400146484375,9.124755859375,-0.152587890625,129.150390625
5.0524999,-4.158129692077637,0.2106897532939911,9.799467086791992,5.889892578125,0.823974609375,167.29736328125
5.0574999,-3.6900634765625,0.44352585077285767,10.049062728881836,9.124755859375,2.8076171875,129.45556640625
5.062499900000001,-0.9642647504806519,0.1041477769613266,9.587580680847168,11.932373046875,-6.134033203125,2.9296875
5.0674999000000005,2.700061082839966,0.44592007994651794,9.383475303649902,-9.063720703125,-8.85009765625,-138.0615234375
5.0724999,4.888959884643555,-1.0283095836639404,8.68017864227295,-16.815185546875,3.387451171875,-208.404541015625
5.0774999,4.250306606292725,-0.12689268589019775,8.73225212097168,-17.02880859375,1.190185546875,-151.4892578125
5.0824999,1.381454348564148,-0.6847416758537292,8.819640159606934,4.5166015625,2.288818359375,30.2734375
5.0874999,-2.522890090942383,-0.02454056777060032,9.317035675048828,13.18359375,0.244140625,156.8603515625
5.0924999,-4.860827922821045,0.5805938839912415,9.67077922821045,2.99072265625,3.72314453125,197.93701171875
5.0974999,-4.453813552856445,0.7098808288574219,9.93593692779541,12.237548828125,5.06591796875,169.12841796875
5.102499900000001,-1.5825673341751099,0.4058171808719635,9.890447616577148,12.481689453125,-0.152587890625,53.3447265625
5.1074999000000005,2.1350293159484863,0.03890577703714371,9.679757118225098,-2.13623046875,-15.533447265625,-114.013671875
5.1124999,5.063736438751221,-1.754351258277893,9.091382026672363,-22.125244140625,-0.06103515625,-208.55712890625
5.1174999,5.058349609375,-1.325789213180542,8.935759544372559,-15.167236328125,6.072998046875,-183.319091796875
5.1224999,3.0316579341888428,-1.9536685943603516,8.968679428100586,-2.8076171875,2.13623046875,-52.520751953125
5.1274999,-0.6985083222389221,-0.7032967209815979,9.156624794006348,8.758544921875,-0.152587890625,86.181640625
5.1324999,-3.469198226928711,0.304063618183136,9.59715747833252,6.622314453125,0.18310546875,150.054931640625
5.1374999,-4.331709384918213,0.750582218170166,9.806051254272461,6.34765625,2.99072265625,148.37646484375
5.1424999,-2.406771183013916,0.6374561786651611,9.851541519165039,11.474609375,-0.244140625,58.319091796875
5.147499900000001,0.7272387742996216,0.1256955862045288,9.75936508178711,2.13623046875,-12.298583984375,-85.02197265625
5.1524999000000005,3.7702691555023193,-1.1127052307128906,9.153631210327148,-15.228271484375,1.007080078125,-191.680908203125
5.1574999,4.168305397033691,-0.6099228858947754,8.978256225585938,-17.7001953125,3.96728515625,-189.300537109375
5.1624999,2.3469161987304688,-1.3443442583084106,8.762179374694824,-7.87353515625,2.716064453125,-48.797607421875
5.1674999,-1.0235211849212646,0.08858546614646912,8.810662269592285,16.021728515625,-0.1220703125,120.391845703125
5.1724999,-3.9408559799194336,0.3208230137825012,9.445125579833984,4.21142578125,3.204345703125,188.262939453125
5.1774999,-4.641758441925049,0.7362170219421387,9.569025993347168,8.636474609375,4.608154296875,191.650390625
5.1824999,-2.7048494815826416,0.5650315880775452,9.95209789276123,13.00048828125,5.218505859375,115.875244140625
5.187499900000001,0.6446388363838196,0.1999158412218094,9.404424667358398,7.537841796875,-13.427734375,-45.34912109375
5.1924999000000005,3.8145618438720703,-0.5500678420066833,8.97885513305664,-18.61572265625,-7.01904296875,-182.55615234375
5.1974999,5.668272495269775,-0.6643909811973572,8.497620582580566,-18.98193359375,6.988525390625,-204.803466796875
5.2024999,4.078522682189941,-1.013944387435913,8.51258373260498,-6.988525390625,2.0751953125,-111.236572265625
