# Time (seconds),Accel_X,Accel_Y,Accel_Z,Gyro_X,Gyro_Y,Gyro_Z
0.0024999,0.424970805644989,-0.6799532771110535,9.793481826782227,2.777099609375,28.350830078125,-30.364990234375
0.0074999,0.424970805644989,-0.6799532771110535,9.793481826782227,2.777099609375,28.350830078125,-30.364990234375
0.012499900000000001,0.22924481332302094,-0.2059013396501541,9.777320861816406,-0.18310546875,11.3525390625,-18.798828125
0.0174999,-0.6548141837120056,0.15682020783424377,9.90122127532959,-26.42822265625,5.157470703125,-11.04736328125
0.0224999,-0.7649474143981934,0.02992752194404602,10.120290756225586,-17.822265625,-9.429931640625,6.439208984375
0.0274999,-0.7224503755569458,-0.38486793637275696,10.059837341308594,-13.458251953125,-17.39501953125,24.2919921875
0.0324999,-0.20290859043598175,-0.760757565498352,9.819818496704102,-17.669677734375,-15.533447265625,28.62548828125
0.0374999,0.31842881441116333,-1.1881226301193237,9.616909980773926,-5.43212890625,-16.265869140625,38.177490234375
0.0424999,0.6739677786827087,-1.5418659448623657,9.299677848815918,11.932373046875,-17.608642578125,42.266845703125
0.0474999,0.7817068696022034,-1.7094600200653076,9.010578155517578,22.15576171875,-17.63916015625,36.4990234375
0.0524999,0.7823054194450378,-1.5873557329177856,9.009979248046875,25.390625,-13.092041015625,21.78955078125
0.0574999,0.8972271084785461,-1.192312479019165,9.261370658874512,15.960693359375,2.9296875,-10.31494140625
0.0624999,1.0438719987869263,-0.5081692934036255,9.622296333312988,4.974365234375,18.951416015625,-27.64892578125
0.0674999,1.1228805780410767,0.0071826050989329815,10.062829971313477,0.885009765625,9.6435546875,-2.105712890625
0.0724999,1.116895079612732,0.16160862147808075,10.13286018371582,-1.861572265625,11.688232421875,-11.260986328125
0.0774999,-0.49619829654693604,-0.07661445438861847,9.954492568969727,-20.99609375,2.01416015625,-6.622314453125
0.0824999,-0.7433996200561523,0.2064998894929886,10.06043529510498,-14.984130859375,-9.368896484375,4.852294921875
0.0874999,-0.861314058303833,-0.08738835901021957,10.063427925109863,-8.392333984375,-19.4091796875,24.84130859375
0.0924999,-0.4213795065879822,-0.40940847992897034,9.77133560180664,-16.448974609375,-18.096923828125,27.618408203125
0.0974999,0.0999579206109047,-0.8535329103469849,9.68933391571045,-3.96728515625,-15.93017578125,34.423828125
0.1024999,0.5548562407493591,-1.2677297592163086,9.48343276977539,11.65771484375,-15.19775390625,36.041259765625
0.1074999,0.7433996200561523,-1.4419080018997192,9.232041358947754,15.960693359375,-13.36669921875,26.580810546875
0.1124999,0.8325836658477783,-1.3323732614517212,9.309853553771973,19.34814453125,-9.613037109375,11.474609375
0.1174999,1.1049240827560425,-0.23163901269435883,9.786897659301758,-0.274658203125,11.04736328125,-18.12744140625
0.1224999,1.1665748357772827,0.11312603205442429,10.038289070129395,-2.655029296875,10.25390625,-6.2255859375
0.1274999,1.1210849285125732,0.04010287672281265,10.017339706420898,-0.06103515625,16.05224609375,-23.529052734375
0.1324999,0.8924387097358704,-0.32022446393966675,9.965266227722168,10.3759765625,23.37646484375,-37.9638671875
0.1374999,0.7110779285430908,-0.5351040959358215,9.864709854125977,9.033203125,25.665283203125,-38.2080078125
0.1424999,0.5141547918319702,-0.7481880187988281,9.755773544311523,0.67138671875,15.716552734375,-22.552490234375
0.1474999,0.4010287821292877,-0.06165069341659546,9.835979461669922,-0.9765625,3.692626953125,-18.280029296875
0.1524999,-0.17657238245010376,-0.29628247022628784,10.031106948852539,-13.275146484375,4.08935546875,-10.528564453125
0.1574999,-0.5207388401031494,0.0694318488240242,9.68274974822998,-22.03369140625,-2.44140625,-0.396728515625
0.1624999,-0.8655039072036743,-0.3705027103424072,10.04307746887207,-6.134033203125,-16.326904296875,18.98193359375
0.1674999,-0.7769184708595276,-0.739209771156311,9.765948295593262,-10.284423828125,-20.660400390625,28.228759765625
0.1724999,-0.2364274114370346,-0.9624691009521484,9.667786598205566,-11.962890625,-16.693115234375,32.16552734375
0.17749990000000002,0.6123170852661133,-1.380257248878479,9.385271072387695,13.946533203125,-13.24462890625,28.25927734375
0.1824999,0.7445967197418213,-1.224035620689392,9.402029991149902,17.181396484375,-10.345458984375,13.275146484375
0.1874999,0.9397241473197937,-0.7499836683273315,9.570222854614258,12.176513671875,-2.471923828125,-7.38525390625
0.1924999,1.1851298809051514,-0.21368250250816345,9.743802070617676,-1.190185546875,8.941650390625,-17.974853515625
0.1974999,1.3874398469924927,0.09277531504631042,9.995792388916016,-2.9296875,14.923095703125,-11.322021484375
0.2024999,1.447893500328064,-0.16519992053508759,9.90361499786377,3.47900390625,21.575927734375,-22.186279296875
0.20749990000000001,1.238999366760254,-0.5159504413604736,9.888052940368652,15.411376953125,31.31103515625,-41.839599609375
0.2124999,0.9576807022094727,-0.8738836050033569,9.711481094360352,13.0615234375,30.853271484375,-40.496826171875
0.2174999,0.6386532783508301,-0.945111095905304,9.678560256958008,3.662109375,14.7705078125,-22.491455078125
0.2224999,0.2669534981250763,-0.11791443079710007,9.959280967712402,-1.40380859375,2.960205078125,-19.22607421875
0.2274999,-0.5434837937355042,-0.14006079733371735,9.999981880187988,-18.280029296875,1.40380859375,-9.124755859375
0.2324999,-0.9750386476516724,0.42616790533065796,9.870096206665039,-20.843505859375,-10.528564453125,6.134033203125
0.2374999,0.43095630407333374,-1.3192051649093628,9.592369079589844,13.916015625,-16.265869140625,47.088623046875
0.2424999,1.2192472219467163,-0.5291185975074768,9.612719535827637,5.859375,2.105712890625,-12.26806640625
0.2474999,1.3593080043792725,-0.026336219161748886,9.945513725280762,-3.60107421875,13.336181640625,-21.392822265625
0.2524999,1.4951789379119873,0.04967968538403511,10.05923843383789,-0.274658203125,20.263671875,-17.364501953125
0.2574999,1.436521053314209,-0.3770867586135864,9.91977596282959,14.892578125,29.815673828125,-32.501220703125
0.2624999,1.2802993059158325,-0.6751648783683777,9.893440246582031,18.1884765625,37.078857421875,-49.530029296875
0.2674999,0.8164227604866028,-1.0761936902999878,9.678560256958008,5.67626953125,25.7568359375,-27.984619140625
0.2724999,0.406415730714798,-0.5979518890380859,9.638457298278809,0.54931640625,9.857177734375,-18.00537109375
0.2774999,-1.1971008777618408,0.04189852997660637,9.522936820983887,-22.88818359375,-8.60595703125,0.885009765625
0.2824999,-1.6711528301239014,0.12389993667602539,9.935338973999023,-11.23046875,-25.08544921875,20.6298828125
0.28749990000000003,-1.5316904783248901,-0.18734627962112427,9.797073364257812,-12.5732421875,-31.829833984375,34.3017578125
0.2924999,-0.729034423828125,-0.547075092792511,9.64683723449707,-13.214111328125,-22.247314453125,39.886474609375
0.2974999,0.03172317147254944,-1.139639973640442,9.795876502990723,11.260986328125,-17.4560546875,47.088623046875
0.3024999,0.7164648771286011,-1.3808557987213135,9.501389503479004,18.49365234375,-10.31494140625,28.99169921875
0.3074999,1.060032844543457,-1.1318588256835938,9.610923767089844,18.49365234375,-2.166748046875,13.671875
0.3124999,1.4119805097579956,-0.4405331015586853,9.7791166305542,7.8125,1.678466796875,-3.204345703125
0.3174999,1.7172411680221558,0.13048399984836578,9.999981880187988,-4.547119140625,12.6953125,-23.590087890625
0.3224999,1.9794062376022339,0.13407529890537262,10.033500671386719,-0.457763671875,25.81787109375,-24.47509765625
0.3274999,1.9794062376022339,0.13407529890537262,10.033500671386719,-0.457763671875,25.81787109375,-24.47509765625
0.3324999,1.2958617210388184,-1.0271124839782715,9.683348655700684,2.99072265625,28.564453125,-31.951904296875
0.3374999,1.2958617210388184,-1.0271124839782715,9.683348655700684,2.99072265625,28.564453125,-31.951904296875
0.3424999,0.5937620401382446,-0.8631097078323364,9.541492462158203,-2.0751953125,9.429931640625,-32.257080078125
0.34749990000000003,-0.6596025824546814,-0.23702596127986908,9.800065994262695,-8.7890625,-7.568359375,-23.223876953125
0.35249990000000003,-1.7860745191574097,-0.4626794755458832,9.445125579833984,-25.08544921875,-16.4794921875,-5.06591796875
0.3574999,-2.3786394596099854,0.15083470940589905,9.628880500793457,-15.228271484375,-27.83203125,18.49365234375
0.3624999,-2.403179883956909,-0.25977087020874023,9.860519409179688,-10.650634765625,-39.24560546875,36.468505859375
0.3674999,-1.3778630495071411,-0.48063600063323975,9.569025993347168,-18.24951171875,-29.632568359375,37.017822265625
0.3724999,-0.3357867896556854,-0.960673451423645,9.892242431640625,6.77490234375,-20.08056640625,51.26953125
0.3774999,0.7410054206848145,-1.3838485479354858,9.648633003234863,19.53125,-10.7421875,36.0107421875
0.3824999,1.291671872138977,-1.0983400344848633,9.68155288696289,17.27294921875,-0.79345703125,21.575927734375
0.3874999,1.7004817724227905,-0.4465186297893524,9.849745750427246,8.941650390625,2.74658203125,5.950927734375
0.3924999,-1.911171555519104,-0.4495113790035248,9.585784912109375,-24.23095703125,-15.106201171875,-0.213623046875
0.3974999,-2.3044190406799316,-0.012569558806717396,9.611522674560547,-20.81298828125,-26.397705078125,16.2353515625
0.4024999,-2.3535003662109375,-0.37648820877075195,9.921571731567383,-6.866455078125,-35.46142578125,30.792236328125
0.4074999,-1.3593080043792725,-0.6530185341835022,9.546878814697266,-17.02880859375,-30.45654296875,35.614013671875
0.41249990000000003,-0.3315969407558441,-0.9552865028381348,9.752182006835938,2.86865234375,-23.49853515625,52.91748046875
0.41749990000000003,0.7104793787002563,-1.3640964031219482,9.694721221923828,17.852783203125,-11.077880859375,42.816162109375
0.4224999,2.012925148010254,0.05446808785200119,10.004171371459961,-4.7607421875,8.575439453125,-22.15576171875
0.4274999,2.012925148010254,0.05446808785200119,10.004171371459961,-4.7607421875,8.575439453125,-22.15576171875
0.4324999,2.273294448852539,-0.10534487664699554,9.91738224029541,1.0986328125,27.862548828125,-26.763916015625
0.4374999,2.495955228805542,-0.314238965511322,9.88386344909668,25.482177734375,41.56494140625,-32.958984375
0.4424999,2.1990742683410645,-0.6607996821403503,9.773131370544434,17.4560546875,43.15185546875,-44.73876953125
0.4474999,1.4119805097579956,-0.7966706156730652,9.716867446899414,-2.01416015625,27.496337890625,-32.684326171875
0.4524999,0.5117605924606323,-0.5303156971931458,9.561244010925293,-5.767822265625,8.026123046875,-45.318603515625
0.4574999,-0.7422025203704834,-0.09696517139673233,9.862914085388184,-4.69970703125,-7.965087890625,-36.468505859375
0.4624999,-1.9285295009613037,-0.4644751250743866,9.579200744628906,-25.665283203125,-15.869140625,-5.18798828125
0.4674999,-2.3702597618103027,-0.21128830313682556,9.452308654785156,-22.03369140625,-24.10888671875,15.93017578125
0.47249990000000003,-2.497152328491211,-0.5811924338340759,9.87967300415039,-6.28662109375,-37.261962890625,33.38623046875
0.47749990000000003,-1.5191209316253662,-0.8768763542175293,9.49001693725586,-16.876220703125,-31.646728515625,35.33935546875
0.4824999,1.314416766166687,-1.0773907899856567,9.649829864501953,17.15087890625,1.03759765625,28.106689453125
0.4874999,1.742978811264038,-0.39145198464393616,9.822212219238281,10.07080078125,4.241943359375,9.368896484375
0.4924999,2.0260932445526123,0.11432313174009323,10.031704902648926,-3.90625,8.85009765625,-20.99609375
0.4974999,2.2475569248199463,-0.07242459803819656,9.932944297790527,2.01416015625,27.984619140625,-27.618408203125
0.5024999,2.47560453414917,-0.2495955228805542,9.898228645324707,27.77099609375,44.891357421875,-35.430908203125
0.5074999,2.1936872005462646,-0.6117185354232788,9.773131370544434,18.646240234375,44.61669921875,-46.661376953125
0.5124999,1.437718152999878,-0.7224503755569458,9.70549488067627,-3.204345703125,25.81787109375,-36.529541015625
0.5174999,0.5398924946784973,-0.43694180250167847,9.544485092163086,-6.805419921875,6.89697265625,-51.300048828125
0.5224999,-0.7170634269714355,0.030526071786880493,9.781511306762695,-4.852294921875,-8.30078125,-42.449951171875
0.5274999,-1.9584569931030273,-0.35673606395721436,9.564835548400879,-28.3203125,-19.287109375,-7.965087890625
0.5324999,-2.434903144836426,-0.15741875767707825,9.35893440246582,-25.482177734375,-24.810791015625,14.09912109375
0.5374999,1.335964560508728,-1.136048674583435,9.54209041595459,19.47021484375,-0.396728515625,41.656494140625
0.5424999,1.7178397178649902,-0.45250412821769714,9.736021041870117,11.383056640625,5.615234375,22.216796875
0.5474999,1.9608511924743652,0.047884032130241394,9.97484302520752,-4.180908203125,5.67626953125,-14.70947265625
0.5524999,2.1511902809143066,-0.018555063754320145,9.925163269042969,-1.678466796875,23.4375,-30.94482421875
0.5574999,2.4217350482940674,-0.2867056429386139,9.889848709106445,25.08544921875,42.877197265625,-35.58349609375
0.5624999,1.601720929145813,-0.7493851184844971,9.742006301879883,-1.556396484375,30.792236328125,-37.65869140625
0.5674999000000001,0.7284358739852905,-0.47165772318840027,9.57321548461914,-6.34765625,9.857177734375,-50.201416015625
0.5724999000000001,-0.4728548228740692,0.07302315533161163,9.777320861816406,-4.425048828125,-6.28662109375,-46.0205078125
0.5774999000000001,-0.5823895931243896,-1.2431892156600952,9.548076629638672,-4.913330078125,-25.634765625,53.52783203125
0.5824999,0.5943605899810791,-1.5783774852752686,9.644442558288574,22.94921875,-19.47021484375,61.95068359375
0.5874999,1.301847219467163,-1.290474772453308,9.444527626037598,22.857666015625,-1.77001953125,49.4384765625
0.5924999,1.6364368200302124,-0.5111620426177979,9.675567626953125,14.404296875,5.43212890625,29.022216796875
0.5974999,1.8429367542266846,0.10055647045373917,9.941922187805176,-2.655029296875,4.638671875,-10.955810546875
0.6024999,2.010530948638916,0.08858546614646912,9.95329475402832,-2.86865234375,22.27783203125,-32.89794921875
0.6074999,2.3487119674682617,-0.15981295704841614,9.958083152770996,25.5126953125,43.88427734375,-36.865234375
0.6124999,2.3104045391082764,-0.40043023228645325,9.832387924194336,21.6064453125,47.119140625,-44.281005859375
0.6174999,1.7244237661361694,-0.6290764808654785,9.853337287902832,-1.800537109375,33.0810546875,-40.679931640625
0.6224999,-0.2585737705230713,0.30226796865463257,9.621099472045898,-3.173828125,-4.638671875,-55.6640625
0.6274999,-1.6430208683013916,-0.3908534348011017,9.592967987060547,-25.32958984375,-17.791748046875,-17.9443359375
0.6324999,-2.2146365642547607,-0.1364694982767105,9.018359184265137,-29.60205078125,-18.402099609375,8.7890625
0.6374999,-2.627636432647705,-0.8032546639442444,9.606734275817871,-10.101318359375,-34.515380859375,31.06689453125
0.6424999,-1.978209137916565,-1.236605167388916,9.469067573547363,-15.899658203125,-39.581298828125,38.818359375
0.6474999,-0.839766263961792,-1.4562731981277466,9.458892822265625,-9.27734375,-26.153564453125,49.560546875
0.6524999,0.3471592366695404,-1.768117904663086,9.680954933166504,20.8740234375,-22.0947265625,61.70654296875
0.6574999,1.1994950771331787,-1.5394717454910278,9.521739959716797,25.482177734375,-5.31005859375,50.72021484375
0.6624999,1.5604209899902344,-0.6901286244392395,9.661202430725098,17.303466796875,5.859375,34.393310546875
0.6674999,1.7693150043487549,0.02454056777060032,9.998186111450195,-0.48828125,3.143310546875,-2.532958984375
0.6724999,1.922544002532959,0.22086510062217712,10.026318550109863,-6.34765625,16.326904296875,-31.951904296875
0.6774999,2.3337481021881104,-0.23104046285152435,9.864709854125977,24.10888671875,45.8984375,-40.863037109375
0.6824999,1.8082208633422852,-0.6512228846549988,9.86889934539795,0.18310546875,35.888671875,-38.57421875
0.6874999,1.0462661981582642,-0.32620999217033386,9.621698379516602,-6.34765625,16.6015625,-50.140380859375
0.6924999000000001,-0.05985504388809204,0.06344634294509888,9.433155059814453,-3.5400390625,-1.5869140625,-58.349609375
0.6974999000000001,-1.3898340463638306,-0.3531447649002075,9.59835433959961,-21.3623046875,-16.387939453125,-23.86474609375
0.7024999000000001,-2.1068975925445557,-0.30945056676864624,8.905233383178711,-30.76171875,-16.265869140625,5.43212890625
0.7074999,-2.472611904144287,-0.7266402244567871,9.496002197265625,-13.5498046875,-30.94482421875,26.397705078125
0.7124999,-2.029085874557495,-1.095347285270691,9.550470352172852,-13.153076171875,-40.10009765625,38.482666015625
0.7174999,-0.9361328482627869,-1.3395558595657349,9.433155059814453,-12.26806640625,-26.3671875,44.525146484375
0.7224999,0.16220717132091522,-1.6968904733657837,9.679159164428711,17.51708984375,-22.76611328125,59.2041015625
0.7274999,1.049857497215271,-1.6364368200302124,9.559449195861816,26.641845703125,-8.30078125,50.84228515625
0.7324999,1.445499300956726,-0.8720879554748535,9.650428771972656,19.6533203125,3.90625,36.956787109375
0.7374999,2.1942858695983887,-0.12389993667602539,10.01075553894043,15.716552734375,36.43798828125,-34.149169921875
0.7424999,2.425924777984619,-0.15322890877723694,9.919178009033203,26.763916015625,44.830322265625,-37.994384765625
0.7474999,1.9722236394882202,-0.6326677799224854,9.90122127532959,2.99072265625,39.00146484375,-38.6962890625
0.7524999,1.246780514717102,-0.30885201692581177,9.696516990661621,-5.523681640625,21.026611328125,-47.8515625
0.7574999,0.2148796021938324,-0.31124621629714966,9.64923095703125,-4.21142578125,2.62451171875,-61.767578125
0.7624999,-1.1510124206542969,-0.13946224749088287,9.768342971801758,-14.984130859375,-13.885498046875,-31.67724609375
0.7674999,-2.012925148010254,-0.6105214357376099,9.264363288879395,-30.3955078125,-15.869140625,-1.007080078125
0.7724999,-2.4618380069732666,-0.4423287510871887,9.497200012207031,-16.082763671875,-25.909423828125,20.843505859375
0.7774999,-2.273893117904663,-0.7781155705451965,9.625288963317871,-10.80322265625,-40.679931640625,38.330078125
0.7824999,-1.2120646238327026,-1.0121487379074097,9.359533309936523,-15.594482421875,-27.9541015625,38.787841796875
0.7874999,-0.13168109953403473,-1.338358759880066,9.601346969604492,10.43701171875,-22.4609375,54.046630859375
0.7924999,1.3455413579940796,-0.970848798751831,9.550470352172852,20.56884765625,0.823974609375,34.85107421875
0.7974999,1.6172832250595093,-0.2364274114370346,9.841964721679688,7.568359375,4.0283203125,11.77978515625
0.8024999,2.030881643295288,-0.10773907601833344,9.966463088989258,6.77490234375,29.083251953125,-32.958984375
0.8074999,2.319382905960083,-0.11611878126859665,9.929951667785645,27.557373046875,42.266845703125,-35.70556640625
0.8124999,2.009932279586792,-0.6542156338691711,9.850942611694336,8.30078125,39.703369140625,-39.398193359375
0.8174999000000001,1.3491326570510864,-0.5261258482933044,9.740211486816406,-4.2724609375,24.932861328125,-38.02490234375
0.8224999000000001,0.3902548849582672,-0.4165911078453064,9.613917350769043,-4.94384765625,6.2255859375,-54.3212890625
0.8274999000000001,-0.8517372608184814,0.002394201699644327,9.844358444213867,-8.48388671875,-10.80322265625,-37.139892578125
0.8324999000000001,-1.8812439441680908,-0.4967968463897705,9.452906608581543,-28.3203125,-15.594482421875,-4.82177734375
0.8374999,-2.2631192207336426,-0.18555063009262085,9.43375301361084,-20.111083984375,-22.186279296875,15.594482421875
0.8424999,-2.3145945072174072,-0.6009446382522583,9.758167266845703,-8.11767578125,-37.750244140625,35.82763671875
0.8474999,1.7651251554489136,0.13168109953403473,9.979631423950195,-3.23486328125,4.486083984375,-13.702392578125
0.8524999,1.9925743341445923,-0.01735796220600605,9.930550575256348,-1.495361328125,21.331787109375,-30.059814453125
0.8574999,2.3564929962158203,-0.13407529890537262,9.900622367858887,25.054931640625,39.36767578125,-32.28759765625
0.8624999,2.2206220626831055,-0.47465047240257263,9.78989028930664,15.93017578125,41.351318359375,-40.283203125
0.8674999,1.5741876363754272,-0.6141127347946167,9.848548889160156,-3.60107421875,29.022216796875,-34.820556640625
0.8724999,0.6835445761680603,-0.33279404044151306,9.64683723449707,-6.7138671875,11.260986328125,-47.637939453125
0.8774999,-0.4692635238170624,0.16160862147808075,9.851541519165039,-3.692626953125,-6.011962890625,-44.525146484375
0.8824999,-0.6985083222389221,-1.3174095153808594,9.55585765838623,-3.84521484375,-26.123046875,46.56982421875
0.8874999,0.3010708689689636,-1.624465823173523,9.670180320739746,19.775390625,-18.646240234375,52.093505859375
0.8924999,0.9558850526809692,-1.469441294670105,9.531915664672852,19.927978515625,-4.669189453125,38.26904296875
0.8974999,1.3449428081512451,-0.7128735780715942,9.707889556884766,14.862060546875,3.082275390625,26.91650390625
0.9024999,1.6855180263519287,-0.04728548228740692,9.921571731567383,1.495361328125,4.241943359375,-1.251220703125
0.9074999,2.0021512508392334,0.18076223134994507,9.976638793945312,-6.195068359375,13.641357421875,-27.4658203125
0.9124999,2.3247697353363037,-0.19452889263629913,9.907805442810059,16.11328125,33.935546875,-29.47998046875
0.9174999,2.4396915435791016,-0.25498247146606445,9.822212219238281,22.918701171875,41.32080078125,-38.543701171875
0.9224999,1.8584990501403809,-0.6931213736534119,9.865307807922363,1.0986328125,34.1796875,-35.7666015625
0.9274999,-1.3275848627090454,-0.28730419278144836,9.805453300476074,-15.68603515625,-13.00048828125,-21.392822265625
0.9324999,-1.3275848627090454,-0.28730419278144836,9.805453300476074,-15.68603515625,-13.00048828125,-21.392822265625
0.9374999,-1.9847931861877441,-0.48722004890441895,9.349357604980469,-24.90234375,-14.34326171875,6.256103515625
0.9424999000000001,-2.2691047191619873,-0.5045779943466187,9.66539192199707,-12.786865234375,-28.3203125,20.599365234375
0.9474999000000001,-1.900996208190918,-0.8050503134727478,9.617507934570312,-9.33837890625,-32.745361328125,32.16552734375
0.9524999000000001,-0.9570821523666382,-1.0133458375930786,9.48343276977539,-10.7421875,-27.008056640625,38.75732421875
0.9574999000000001,-0.05027823522686958,-1.3036428689956665,9.671378135681152,13.275146484375,-20.965576171875,51.3916015625
0.9624999,1.9249382019042969,0.2495955228805542,9.97603988647461,-5.2490234375,7.4462890625,-20.416259765625
0.9674999,2.2888567447662354,-0.15023615956306458,9.884461402893066,5.645751953125,27.557373046875,-26.397705078125
0.9724999,2.1739351749420166,-0.6368576288223267,9.806051254272461,9.674072265625,38.543701171875,-38.604736328125
0.9774999,2.1739351749420166,-0.6368576288223267,9.806051254272461,9.674072265625,38.543701171875,-38.604736328125
0.9824999,1.334767460823059,-0.5674257874488831,9.782708168029785,-4.791259765625,24.23095703125,-33.02001953125
0.9874999,0.2849099934101105,-0.3944447338581085,9.678560256958008,-6.256103515625,5.462646484375,-47.54638671875
0.9924999,-0.9870096445083618,-0.015562310814857483,9.972448348999023,-5.767822265625,-9.6435546875,-32.928466796875
0.9974999,-1.9788076877593994,-0.4800374507904053,9.639654159545898,-23.0712890625,-13.73291015625,-1.922607421875
1.0024999,-2.273294448852539,-0.17058686912059784,9.66299819946289,-19.805908203125,-23.13232421875,14.801025390625
1.0074999000000002,-2.207453966140747,-0.49978959560394287,9.87967300415039,-6.9580078125,-31.3720703125,27.89306640625
1.0124999000000001,-1.3401544094085693,-0.8224082589149475,9.560047149658203,-14.16015625,-30.487060546875,35.125732421875
1.0174999000000002,-0.4423287510871887,-1.0833762884140015,9.657610893249512,2.44140625,-23.681640625,47.637939453125
1.0224999000000001,0.44771572947502136,-1.416170358657837,9.667786598205566,18.463134765625,-14.862060546875,43.45703125
1.0274999,0.9900023937225342,-1.1653777360916138,9.5624418258667,14.312744140625,-2.9296875,28.045654296875
1.0324999000000001,2.185906171798706,-0.016759412363171577,9.890447616577148,-2.685546875,17.822265625,-25.604248046875
1.0374999,2.185906171798706,-0.016759412363171577,9.890447616577148,-2.685546875,17.822265625,-25.604248046875
1.0424999000000001,2.5145103931427,-0.37409400939941406,9.88386344909668,20.1416015625,35.5224609375,-27.77099609375
1.0474999,2.4205379486083984,-0.4495113790035248,9.758167266845703,19.04296875,39.276123046875,-37.9638671875
1.0524999000000002,1.68970787525177,-0.7050924301147461,9.849146842956543,-1.800537109375,31.06689453125,-32.3486328125
1.0574999,0.7487865686416626,-0.30286651849746704,9.637859344482422,-7.293701171875,14.46533203125,-40.679931640625
1.0624999000000002,-0.3944447338581085,0.15023615956306458,9.571419715881348,-3.448486328125,-4.302978515625,-44.708251953125
1.0674999,-1.5999252796173096,-0.33698388934135437,9.643844604492188,-17.39501953125,-13.214111328125,-13.48876953125
1.0724999000000002,-2.123656988143921,-0.22744916379451752,9.120112419128418,-23.8037109375,-16.11328125,10.68115234375
1.0774999,-2.251148223876953,-0.6380547285079956,9.728838920593262,-9.58251953125,-28.411865234375,20.965576171875
1.0824999000000002,-1.7405846118927002,-0.9642647504806519,9.653421401977539,-11.077880859375,-32.196044921875,34.027099609375
1.0874999,-0.7942764163017273,-1.1971008777618408,9.727641105651855,-7.781982421875,-26.763916015625,42.205810546875
1.0924999000000002,2.035670042037964,0.13587094843387604,9.97484302520752,-5.615234375,8.880615234375,-21.240234375
1.0974999,2.4211363792419434,-0.3274070918560028,9.836577415466309,11.383056640625,30.1513671875,-27.557373046875
1.1024999000000002,2.5929205417633057,-0.292691171169281,9.795876502990723,25.482177734375,39.825439453125,-33.660888671875
1.1074999,2.036867141723633,-0.690727174282074,9.786897659301758,3.631591796875,34.48486328125,-33.203125
1.1124999000000002,1.128267526626587,-0.35913026332855225,9.708487510681152,-6.683349609375,21.270751953125,-34.7900390625
1.1174999,-0.0035913025494664907,-0.3280056416988373,9.684545516967773,-6.195068359375,1.434326171875,-48.33984375
1.1224999000000002,-1.2000936269760132,-0.004189853090792894,9.888052940368652,-7.87353515625,-10.528564453125,-26.763916015625
1.1274999,-2.036268472671509,-0.629675030708313,9.567230224609375,-23.193359375,-13.00048828125,3.021240234375
1.1324999000000002,-2.1529858112335205,-0.2974795699119568,9.710283279418945,-16.6015625,-24.200439453125,15.228271484375
1.1374999000000001,0.5129576921463013,-1.3832499980926514,9.646238327026367,18.798828125,-14.16015625,43.975830078125
1.1424999000000002,0.933738648891449,-1.0007762908935547,9.605537414550781,13.885498046875,-0.030517578125,30.792236328125
1.1474999000000001,1.3862427473068237,-0.3561375141143799,9.782109260559082,9.3994140625,4.547119140625,19.012451171875
1.1524999000000002,1.866280198097229,0.11133038252592087,9.930550575256348,-3.96728515625,2.99072265625,-10.986328125
1.1574999000000001,2.301426410675049,-0.21847090125083923,9.815628051757812,0.9765625,21.3623046875,-27.83203125
1.1624999,2.6809072494506836,-0.27234044671058655,9.849146842956543,24.627685546875,38.4521484375,-30.45654296875
1.1674999000000001,2.403179883956909,-0.5608417391777039,9.73661994934082,12.51220703125,37.29248046875,-33.233642578125
1.1724999,1.5376760959625244,-0.5297171473503113,9.862914085388184,-4.94384765625,27.252197265625,-31.219482421875
1.1774999000000002,0.44173020124435425,-0.21847090125083923,9.671976089477539,-7.9345703125,9.124755859375,-44.677734375
1.1824999,-0.7332242727279663,0.2621650993824005,9.838972091674805,-3.35693359375,-6.988525390625,-38.330078125
1.1874999000000002,-2.0644004344940186,-0.21128830313682556,9.421782493591309,-23.162841796875,-19.134521484375,11.8408203125
1.1924999,-2.118868589401245,-0.6919242739677429,9.856928825378418,-7.26318359375,-29.205322265625,25.054931640625
1.1974999000000002,-1.3820528984069824,-1.1234791278839111,9.602544784545898,-13.85498046875,-30.303955078125,35.09521484375
1.2024999,-0.5339069962501526,-1.313219666481018,9.628880500793457,-2.716064453125,-25.20751953125,46.356201171875
1.2074999000000002,0.25917232036590576,-1.5705963373184204,9.679757118225098,19.22607421875,-18.310546875,52.703857421875
1.2124999,0.7577648162841797,-1.40180504322052,9.539097785949707,16.7236328125,-3.5400390625,36.92626953125
1.2174999000000002,1.1204863786697388,-0.6470330357551575,9.68694019317627,13.397216796875,4.08935546875,27.4658203125
1.2224999,1.5939397811889648,-0.04728548228740692,9.931747436523438,0.274658203125,2.0751953125,2.532958984375
1.2274999000000002,2.051830768585205,0.058059390634298325,9.899425506591797,-6.072998046875,12.0849609375,-24.90234375
1.2324999,2.5318682193756104,-0.2890998423099518,9.906607627868652,16.90673828125,34.11865234375,-31.31103515625
1.2374999000000002,2.6192567348480225,-0.28371289372444153,9.7791166305542,20.721435546875,39.0625,-34.515380859375
1.2424999,1.900996208190918,-0.6362590789794922,9.88386344909668,-1.556396484375,32.1044921875,-31.707763671875
1.2474999000000002,-0.3292027413845062,-0.013168109580874443,9.707290649414062,-4.730224609375,-2.01416015625,-46.93603515625
1.2524999,-1.5610195398330688,-0.27653029561042786,9.839570045471191,-14.984130859375,-14.251708984375,-15.350341796875
1.2574999000000002,-2.0602104663848877,-0.39205053448677063,9.292495727539062,-25.177001953125,-15.380859375,9.46044921875
1.2624999000000001,-2.0937294960021973,-0.5871779918670654,9.816825866699219,-10.3759765625,-26.611328125,20.5078125
1.2674999000000002,-1.5795745849609375,-0.8523358106613159,9.671976089477539,-9.8876953125,-30.548095703125,34.97314453125
1.2724999000000001,-0.6434416770935059,-1.115697979927063,9.54209041595459,-8.697509765625,-24.871826171875,42.938232421875
1.2774999000000002,0.10534487664699554,-1.4227544069290161,9.766547203063965,17.425537109375,-18.73779296875,54.229736328125
1.2824999000000001,0.707486629486084,-1.459265947341919,9.549872398376465,19.561767578125,-8.36181640625,37.750244140625
1.2874999,1.0109516382217407,-0.8032546639442444,9.700108528137207,15.289306640625,3.326416015625,28.411865234375
1.2924999000000001,1.4317326545715332,-0.08978256583213806,9.937732696533203,4.180908203125,3.96728515625,11.016845703125
1.2974999,1.889025092124939,0.23403321206569672,10.016142845153809,-7.2021484375,7.75146484375,-20.782470703125
1.3024999000000002,2.387617588043213,-0.15921440720558167,9.916783332824707,10.223388671875,29.78515625,-31.219482421875
1.3074999,2.1571757793426514,-0.6542156338691711,9.821015357971191,3.265380859375,35.09521484375,-33.782958984375
1.3124999000000002,1.236605167388916,-0.38067805767059326,9.691129684448242,-6.7138671875,21.240234375,-36.773681640625
1.3174999,0.03950432687997818,-0.3585317134857178,9.642647743225098,-6.34765625,1.434326171875,-49.468994140625
1.3224999000000002,-1.304241418838501,-0.08738835901021957,9.81263542175293,-10.772705078125,-12.8173828125,-23.98681640625
1.3274999,-2.079364061355591,-0.6512228846549988,9.435548782348633,-25.5126953125,-14.16015625,5.31005859375
1.3324999000000002,-2.211643934249878,-0.37169981002807617,9.666589736938477,-15.5029296875,-25.604248046875,17.39501953125
1.3374999,-1.8758569955825806,-0.7362170219421387,9.780912399291992,-7.537841796875,-30.853271484375,32.501220703125
1.3424999000000002,-0.8373720645904541,-0.9911994934082031,9.467870712280273,-12.75634765625,-24.993896484375,38.848876953125
1.3474999,-0.03292027488350868,-1.2838906049728394,9.697115898132324,12.664794921875,-19.47021484375,54.0771484375
1.3524999000000002,0.7200561761856079,-1.4742296934127808,9.5007905960083,20.3857421875,-10.345458984375,40.130615234375
1.3574999,1.0205284357070923,-0.9582792520523071,9.610325813293457,16.082763671875,1.5869140625,26.763916015625
1.3624999000000002,-2.0189106464385986,-0.5410895943641663,9.491812705993652,-24.505615234375,-14.7705078125,2.62451171875
1.3674999,-2.1529858112335205,-0.3728969097137451,9.594164848327637,-19.53125,-24.200439453125,15.13671875
1.3724999000000002,-2.0009541511535645,-0.7613561153411865,9.751583099365234,-6.011962890625,-30.6396484375,30.059814453125
1.3774999,-1.0169371366500854,-1.0654197931289673,9.370905876159668,-13.36669921875,-27.984619140625,38.116455078125
1.3824999000000002,-0.2064998894929886,-1.3120225667953491,9.579200744628906,7.14111328125,-21.42333984375,54.595947265625
1.3874999000000001,0.5704185366630554,-1.5693992376327515,9.543288230895996,21.331787109375,-11.993408203125,45.806884765625
1.3924999000000002,2.24935245513916,-0.09397241473197937,9.898228645324707,1.617431640625,23.040771484375,-29.510498046875
1.3974999000000001,2.7018566131591797,-0.07900865375995636,9.919178009033203,26.397705078125,39.642333984375,-31.768798828125
1.4024999000000002,2.4025814533233643,-0.5291185975074768,9.81143856048584,10.345458984375,38.238525390625,-35.7666015625
1.4074999000000001,1.5711948871612549,-0.45669397711753845,9.825803756713867,-5.157470703125,26.702880859375,-34.637451171875
1.4124999,0.43694180250167847,-0.18495208024978638,9.637859344482422,-8.453369140625,7.62939453125,-51.513671875
1.4174999000000001,-0.8188169598579407,0.18315643072128296,9.88506031036377,-4.058837890625,-9.613037109375,-39.85595703125
1.4224999,-1.9297266006469727,-0.4034229815006256,9.583391189575195,-22.918701171875,-14.007568359375,-2.593994140625
1.4274999000000002,-2.1368250846862793,-0.25917232036590576,9.462483406066895,-22.491455078125,-20.843505859375,14.95361328125
1.4324999,-2.1517887115478516,-0.7344213724136353,9.843161582946777,-6.2255859375,-30.853271484375,27.618408203125
1.4374999000000002,0.45190557837486267,-1.6879122257232666,9.619303703308105,21.759033203125,-12.664794921875,51.300048828125
1.4424999,0.8852560520172119,-1.325789213180542,9.476848602294922,17.4560546875,-1.617431640625,32.65380859375
1.4474999000000002,1.2533645629882812,-0.4704606235027313,9.75637149810791,11.627197265625,3.662109375,21.54541015625
1.4524999,1.6831238269805908,0.1364694982767105,9.975440979003906,-3.021240234375,4.058837890625,-8.331298828125
1.4574999000000002,2.1338322162628174,-0.04489128291606903,9.882067680358887,-1.251220703125,20.01953125,-28.564453125
1.4624999,2.1338322162628174,-0.04489128291606903,9.882067680358887,-1.251220703125,20.01953125,-28.564453125
1.4674999000000002,2.6803088188171387,-0.035913024097681046,9.934141159057617,25.299072265625,39.36767578125,-31.8603515625
1.4724999,2.501342296600342,-0.38486793637275696,9.812037467956543,14.09912109375,39.398193359375,-36.529541015625
1.4774999000000002,1.7375918626785278,-0.4537012279033661,9.880271911621094,-4.57763671875,28.62548828125,-34.210205078125
1.4824999,0.6332663297653198,-0.1280897855758667,9.659406661987305,-8.697509765625,10.345458984375,-51.45263671875
1.4874999000000002,-0.5829881429672241,0.2992752194404602,9.742605209350586,-3.387451171875,-7.781982421875,-47.698974609375
1.4924999,-2.1296424865722656,-0.25318682193756104,9.200318336486816,-23.98681640625,-18.463134765625,14.068603515625
1.4974999000000002,-2.25473952293396,-0.8601169586181641,9.766547203063965,-6.866455078125,-30.76171875,25.665283203125
1.5024999,-1.4987702369689941,-1.2419921159744263,9.50737476348877,-13.85498046875,-30.303955078125,34.576416015625
1.5074999000000002,-0.5632359385490417,-1.423951506614685,9.61571216583252,-3.326416015625,-25.360107421875,49.8046875
1.5124999000000001,0.33339259028434753,-1.7190368175506592,9.745597839355469,21.17919921875,-15.2587890625,53.89404296875
1.5174999000000002,0.8942343592643738,-1.4736311435699463,9.57979965209961,18.49365234375,-2.25830078125,34.7900390625
1.5224999000000001,2.63362193107605,-0.1107318252325058,9.960477828979492,24.169921875,38.818359375,-31.1279296875
1.5274999000000002,2.5240871906280518,-0.30047231912612915,9.801262855529785,17.02880859375,40.313720703125,-35.58349609375
1.5324999000000001,1.7627309560775757,-0.456095427274704,9.926360130310059,-4.058837890625,29.4189453125,-33.69140625
1.5374999000000003,-0.5530605912208557,0.1801636815071106,9.59057331085205,-4.150390625,-6.591796875,-51.849365234375
1.5424999000000001,-1.756745457649231,-0.3705027103424072,9.578003883361816,-18.157958984375,-14.6484375,-12.237548828125
1.5474999,-2.123058319091797,-0.38546648621559143,9.080010414123535,-25.604248046875,-17.608642578125,12.725830078125
1.5524999000000002,-2.22660756111145,-0.7829039692878723,9.75936508178711,-8.7890625,-30.364990234375,23.834228515625
1.5574999,-1.5556325912475586,-1.0785878896713257,9.658209800720215,-13.00048828125,-31.463623046875,34.912109375
1.5624999000000002,-0.6123170852661133,-1.270722508430481,9.690531730651855,-7.720947265625,-26.153564453125,48.126220703125
1.5674999,0.27473464608192444,-1.5723919868469238,9.82759952545166,20.233154296875,-18.37158203125,57.12890625
1.5724999000000002,0.8864531517028809,-1.4993687868118286,9.616311073303223,19.59228515625,-2.044677734375,39.0625
1.5774999,1.2066776752471924,-0.6619967818260193,9.720458984375,14.495849609375,4.425048828125,26.885986328125
1.5824999000000002,1.6238672733306885,-0.07960720360279083,9.947908401489258,0.396728515625,3.0517578125,-1.0986328125
1.5874999,2.0015525817871094,-0.09516951441764832,9.873687744140625,-3.997802734375,13.916015625,-25.848388671875
1.5924999000000002,2.5522189140319824,-0.2172738015651703,9.940725326538086,22.3388671875,37.29248046875,-31.097412109375
1.5974999,0.7864952683448792,0.05925649031996727,9.691728591918945,-9.94873046875,13.519287109375,-50.84228515625
1.6024999000000002,-2.1595699787139893,-0.7451952695846558,9.738415718078613,-9.857177734375,-29.23583984375,22.430419921875
1.6074999,-2.1595699787139893,-0.7451952695846558,9.738415718078613,-9.857177734375,-29.23583984375,22.430419921875
1.6124999000000002,-1.577778935432434,-0.9828197956085205,9.539097785949707,-11.71875,-31.494140625,35.46142578125
1.6174999,-0.6643909811973572,-1.1941081285476685,9.463082313537598,-8.941650390625,-27.34375,48.065185546875
1.6224999000000002,0.13706804811954498,-1.4915876388549805,9.6803560256958,20.538330078125,-19.927978515625,60.150146484375
1.6274999,0.7661445140838623,-1.5065513849258423,9.491812705993652,20.599365234375,-3.2958984375,42.816162109375
1.6324999000000002,1.0761936902999878,-0.6997054219245911,9.693524360656738,15.07568359375,5.706787109375,31.890869140625
1.6374999000000001,1.556231141090393,-0.0802057534456253,9.923966407775879,2.044677734375,3.5400390625,6.16455078125
1.6424999000000002,2.73537540435791,-0.17238251864910126,9.779715538024902,20.1416015625,41.93115234375,-33.660888671875
1.6474999000000001,2.0272903442382812,-0.414795458316803,9.967659950256348,-3.96728515625,32.257080078125,-32.71484375
1.6524999000000002,0.9139865040779114,0.16519992053508759,9.727641105651855,-10.19287109375,15.167236328125,-51.26953125
1.6574999000000001,-0.3800795078277588,-0.07003039866685867,9.744400978088379,-6.439208984375,-4.608154296875,-58.4716796875
1.6624999000000003,-1.6651673316955566,-0.23582886159420013,9.765350341796875,-14.83154296875,-15.80810546875,-19.561767578125
1.6674999000000001,-2.1254525184631348,-0.730231523513794,9.221866607666016,-26.397705078125,-16.632080078125,10.009765625
1.6724999,-2.190095901489258,-0.7164648771286011,9.709086418151855,-10.894775390625,-28.289794921875,21.881103515625
1.6774999000000002,-1.6645687818527222,-0.9493009448051453,9.583391189575195,-10.467529296875,-32.135009765625,36.1328125
1.6824999,0.09397241473197937,-1.4113819599151611,9.700108528137207,19.775390625,-19.927978515625,59.661865234375
1.6874999000000002,0.7224503755569458,-1.460463047027588,9.479841232299805,21.30126953125,-4.7607421875,43.426513671875
1.6924999,1.9620482921600342,-0.060453593730926514,9.868300437927246,-5.06591796875,9.6435546875,-22.674560546875
1.6974999000000002,2.649782657623291,-0.2298433631658554,9.932345390319824,20.56884765625,36.43798828125,-33.87451171875
1.7024999,2.801215887069702,-0.18076223134994507,9.77013874053955,22.186279296875,42.816162109375,-32.440185546875
1.7074999000000002,2.146401882171631,-0.4644751250743866,9.949105262756348,-2.99072265625,33.294677734375,-33.02001953125
1.7124999,1.0085574388504028,0.15263035893440247,9.725247383117676,-10.31494140625,15.838623046875,-51.910400390625
1.7174999000000002,-0.3315969407558441,-0.05985504388809204,9.764153480529785,-7.720947265625,-4.547119140625,-60.882568359375
1.7224999,-1.6753426790237427,-0.15921440720558167,9.774328231811523,-13.641357421875,-16.326904296875,-22.705078125
1.7274999000000002,-2.1978771686553955,-0.7984662652015686,9.264962196350098,-26.611328125,-16.693115234375,8.9111328125
1.7324999,-2.236783027648926,-0.7457938194274902,9.664793968200684,-11.993408203125,-27.77099609375,20.8740234375
1.7374999000000002,-1.7298107147216797,-1.0552444458007812,9.59177017211914,-9.490966796875,-31.982421875,35.552978515625
1.7424999,-0.7344213724136353,-1.2204443216323853,9.418190956115723,-10.833740234375,-26.580810546875,45.22705078125
1.7474999000000002,0.7164648771286011,-1.523909330368042,9.48343276977539,21.42333984375,-4.5166015625,45.257568359375
1.7524999,1.0079588890075684,-0.7457938194274902,9.621099472045898,15.9912109375,5.9814453125,34.7900390625
1.7574999000000002,1.5005658864974976,-0.06703764945268631,9.88745403289795,4.241943359375,3.631591796875,12.481689453125
1.7624999000000001,2.7072436809539795,-0.23343466222286224,9.932345390319824,19.287109375,36.07177734375,-33.26416015625
1.7674999000000002,2.940678119659424,-0.13347674906253815,9.75517463684082,23.193359375,44.891357421875,-31.280517578125
1.7724999000000001,2.2840683460235596,-0.43514615297317505,9.965864181518555,-2.349853515625,35.430908203125,-33.5693359375
1.7774999000000002,1.1504138708114624,0.2064998894929886,9.724648475646973,-10.589599609375,16.448974609375,-53.28369140625
1.7824999000000001,-0.27413609623908997,-0.010773907415568829,9.757569313049316,-8.544921875,-3.72314453125,-65.582275390625
1.7874999000000003,-1.644816517829895,-0.011372458189725876,9.807249069213867,-12.451171875,-15.594482421875,-28.564453125
1.7924999000000001,-2.2882583141326904,-0.739209771156311,9.321824073791504,-27.03857421875,-15.899658203125,6.89697265625
1.7974999,1.9841946363449097,-0.017956512048840523,9.894637107849121,-5.4931640625,8.11767578125,-20.6298828125
1.8024999000000002,2.63362193107605,-0.25019407272338867,9.9401273727417,17.547607421875,34.576416015625,-31.73828125
1.8074999,2.9305028915405273,-0.0867898091673851,9.79527759552002,25.726318359375,45.074462890625,-31.25
1.8124999000000002,2.299630641937256,-0.42856210470199585,9.968857765197754,-0.732421875,36.19384765625,-34.36279296875
1.8174999,1.192312479019165,0.17298106849193573,9.758167266845703,-10.162353515625,17.02880859375,-50.628662109375
1.8224999000000002,-0.24600422382354736,0.0520738884806633,9.747992515563965,-9.765625,-3.265380859375,-65.00244140625
1.8274999,-0.8924387097358704,-1.3078327178955078,9.361927032470703,-12.14599609375,-26.336669921875,41.3818359375
1.8324999000000002,-0.04967968538403511,-1.5292962789535522,9.64803409576416,14.892578125,-23.406982421875,58.65478515625
1.8374999,0.6805518269538879,-1.6777368783950806,9.570821762084961,22.430419921875,-6.744384765625,46.7529296875
1.8424999000000002,0.9786299467086792,-0.9403226971626282,9.640253067016602,15.960693359375,4.730224609375,36.376953125
1.8474999,1.4179660081863403,-0.15981295704841614,9.899425506591797,6.40869140625,3.72314453125,19.012451171875
1.8524999000000002,1.88782799243927,0.02753331884741783,9.932345390319824,-6.317138671875,5.340576171875,-16.326904296875
1.8574999,2.544437885284424,-0.21607670187950134,9.90241813659668,13.916015625,29.632568359375,-30.94482421875
1.8624999000000002,2.9233202934265137,-0.06224924325942993,9.800664901733398,25.543212890625,42.938232421875,-30.82275390625
1.8674999,2.360682964324951,-0.4489128291606903,9.908403396606445,0.152587890625,35.308837890625,-32.623291015625
1.8724999000000002,-0.14245499670505524,-0.004189853090792894,9.742605209350586,-8.819580078125,-1.495361328125,-57.586669921875
1.8774999,-1.449090600013733,0.05027823522686958,9.82999324798584,-9.21630859375,-15.960693359375,-28.717041015625
1.8824999000000002,-2.2224178314208984,-0.6961141228675842,9.364919662475586,-24.7802734375,-16.876220703125,5.828857421875
1.8874999000000001,-2.1529858112335205,-0.5835866928100586,9.518148422241211,-15.5029296875,-25.543212890625,17.9443359375
1.8924999000000002,-1.834557056427002,-1.0426748991012573,9.610325813293457,-5.55419921875,-30.09033203125,32.3486328125
1.8974999000000001,-0.8607155084609985,-1.3024457693099976,9.318233489990234,-9.857177734375,-25.909423828125,39.154052734375
1.9024999000000002,-0.14425064623355865,-1.5436615943908691,9.674968719482422,14.16015625,-21.270751953125,54.6875
1.9074999000000001,0.5566518902778625,-1.659181833267212,9.543886184692383,20.111083984375,-7.904052734375,43.3349609375
1.9124999000000003,0.8667010068893433,-0.9522937536239624,9.732429504394531,14.312744140625,3.47900390625,36.0107421875
1.9174999000000001,1.3754688501358032,-0.12330138683319092,9.903017044067383,6.866455078125,3.96728515625,22.186279296875
1.9224999,1.9255367517471313,0.06643909960985184,9.955090522766113,-6.04248046875,4.547119140625,-14.7705078125
1.9274999000000002,2.625242233276367,-0.18315643072128296,9.888651847839355,12.8173828125,27.496337890625,-29.510498046875
1.9324999,-1.416170358657837,0.10833762586116791,9.916184425354004,-8.148193359375,-14.495849609375,-26.458740234375
1.9374999000000002,-2.2631192207336426,-0.595557689666748,9.536704063415527,-23.651123046875,-16.754150390625,5.950927734375
1.9424999,-2.229001760482788,-0.4818331003189087,9.699509620666504,-15.9912109375,-25.299072265625,15.838623046875
1.9474999000000002,-1.9578584432601929,-0.9379284977912903,9.782109260559082,-4.547119140625,-28.4423828125,31.1279296875
1.9524999,-1.0313023328781128,-1.2360066175460815,9.47146224975586,-9.033203125,-26.67236328125,39.36767578125
1.9574999000000002,-0.3196259140968323,-1.4407109022140503,9.73542308807373,12.176513671875,-22.27783203125,53.52783203125
1.9624999,0.36332011222839355,-1.5807716846466064,9.639654159545898,18.5546875,-8.087158203125,44.769287109375
1.9674999000000002,0.7386112213134766,-0.8984242081642151,9.727043151855469,13.641357421875,1.77001953125,38.909912109375
1.9724999,1.346139907836914,-0.10295066982507706,9.857526779174805,7.293701171875,4.364013671875,26.123046875
1.9774999000000002,0.11851298063993454,0,9.724648475646973,-10.650634765625,-0.6103515625,-60.821533203125
1.9824999,-1.2791022062301636,0.11252748221158981,9.911396026611328,-7.843017578125,-11.8408203125,-35.21728515625
1.9874999000000002,-2.1978771686553955,-0.6206967830657959,9.521739959716797,-23.86474609375,-13.427734375,2.38037109375
1.9924999,-2.2361843585968018,-0.48303020000457764,9.588179588317871,-17.547607421875,-22.552490234375,16.510009765625
1.9974999000000002,-2.031480073928833,-0.9205705523490906,9.767146110534668,-4.913330078125,-28.961181640625,29.96826171875
2.0024999,3.0322563648223877,-0.11971008777618408,9.971251487731934,28.4423828125,46.417236328125,-33.355712890625
2.0074999,3.0322563648223877,-0.11971008777618408,9.971251487731934,28.4423828125,46.417236328125,-33.355712890625
2.0124999000000003,2.541445016860962,-0.4165911078453064,9.862914085388184,7.659912109375,38.604736328125,-38.63525390625
2.0174999000000002,1.514931082725525,-0.10833762586116791,9.804854393005371,-9.82666015625,20.782470703125,-45.95947265625
2.0224999,0.15801730751991272,0.12090718746185303,9.631275177001953,-12.542724609375,0.762939453125,-66.71142578125
2.0274999,-1.2701239585876465,0.3908534348011017,9.828198432922363,-9.429931640625,-14.556884765625,-47.760009765625
2.0324999000000004,-2.2888567447662354,-0.42856210470199585,9.460687637329102,-27.7099609375,-17.39501953125,-5.9814453125
2.0374999000000003,-2.3912088871002197,-0.3998316824436188,9.347561836242676,-21.6064453125,-21.66748046875,15.655517578125
2.0424999,-2.235585927963257,-1.0031704902648926,9.658807754516602,-4.486083984375,-32.71484375,32.65380859375
2.0474999,-0.26396074891090393,-1.6316484212875366,9.425971984863281,6.65283203125,-20.69091796875,52.3681640625
2.0524999,-0.26396074891090393,-1.6316484212875366,9.425971984863281,6.65283203125,-20.69091796875,52.3681640625
2.0574999000000003,0.6153098344802856,-1.857301950454712,9.52114200592041,26.611328125,-11.474609375,47.607421875
2.0624999,1.1073182821273804,-1.2737152576446533,9.476848602294922,17.08984375,3.265380859375,29.96826171875
2.0674999,1.514931082725525,-0.3513490855693817,9.836577415466309,9.613037109375,7.354736328125,14.862060546875
2.0724999,1.8997989892959595,0.3100491166114807,10.078392028808594,-4.94384765625,6.65283203125,-16.54052734375
2.0774999000000003,2.3020248413085938,0.07661445438861847,9.99459457397461,4.0283203125,28.167724609375,-28.656005859375
2.0824999,2.697068214416504,0.06404489278793335,10.046669006347656,27.77099609375,44.403076171875,-34.60693359375
2.0874999,2.341529369354248,-0.3076549172401428,9.86889934539795,11.3525390625,38.2080078125,-40.22216796875
2.0924999,1.4305355548858643,-0.22685061395168304,9.835979461669922,-9.033203125,21.759033203125,-41.229248046875
2.0974999000000003,0.23104046285152435,0.02753331884741783,9.607931137084961,-11.566162109375,1.953125,-60.455322265625
2.1024999,-1.1510124206542969,0.31124621629714966,9.845556259155273,-8.9111328125,-14.373779296875,-46.356201171875
2.1074999,-2.3546974658966064,-0.40940847992897034,9.297882080078125,-25.177001953125,-23.49853515625,15.80810546875
2.1124999,-2.191891670227051,-1.0295066833496094,9.676166534423828,-5.43212890625,-33.905029296875,31.982421875
2.1174999000000003,-1.1414356231689453,-1.427542805671692,9.132083892822266,-14.09912109375,-28.411865234375,37.628173828125
2.1224999,-0.17896658182144165,-1.7525556087493896,9.385869026184082,5.9814453125,-20.01953125,52.8564453125
2.1274999,0.7086837291717529,-1.935113549232483,9.463082313537598,27.9541015625,-13.214111328125,49.285888671875
2.1324999,1.1522095203399658,-1.3658920526504517,9.465476036071777,17.974853515625,4.119873046875,31.79931640625
2.1374999000000003,1.4658499956130981,-0.3705027103424072,9.838972091674805,9.429931640625,6.53076171875,16.357421875
2.1424999000000002,1.8022353649139404,0.37888240814208984,10.085575103759766,-5.31005859375,4.21142578125,-15.13671875
2.1474999,2.1697452068328857,0.15981295704841614,10.001178741455078,1.617431640625,25.054931640625,-29.388427734375
2.1524999,2.5923218727111816,0.08080431073904037,10.029909133911133,26.67236328125,42.266845703125,-35.125732421875
2.1574999000000004,2.339733600616455,-0.3280056416988373,9.834781646728516,13.427734375,39.4287109375,-40.1611328125
2.1624999000000003,-1.0384849309921265,-1.404199242591858,9.263166427612305,-13.580322265625,-26.092529296875,37.628173828125
2.1674999,-0.15083470940589905,-1.71245276927948,9.415796279907227,7.568359375,-21.820068359375,53.253173828125
2.1724999,0.6727706789970398,-1.8746598958969116,9.481637001037598,27.069091796875,-12.237548828125,49.86572265625
2.1774999000000004,1.0283095836639404,-1.2832920551300049,9.461286544799805,17.822265625,4.21142578125,33.050537109375
2.1824999000000003,1.3192051649093628,-0.2801215946674347,9.821614265441895,8.331298828125,4.669189453125,17.242431640625
2.1874999,1.6675615310668945,0.44771572947502136,10.080187797546387,-5.859375,2.532958984375,-14.556884765625
2.1924999,2.072780132293701,0.17417816817760468,9.979032516479492,0.8544921875,23.49853515625,-30.670166015625
2.1974999,2.5462334156036377,0.05267243832349777,9.99100399017334,26.0009765625,41.107177734375,-35.82763671875
2.2024999000000003,1.4963760375976562,-0.46327802538871765,9.817423820495605,-6.500244140625,24.017333984375,-35.064697265625
2.2074999,0.32860419154167175,-0.24241292476654053,9.634267807006836,-10.009765625,3.84521484375,-51.3916015625
2.2124999,-1.0408791303634644,0.14844051003456116,9.941922187805176,-8.30078125,-13.12255859375,-38.604736328125
2.2174999,-2.1057004928588867,-0.43095630407333374,9.534309387207031,-26.79443359375,-19.317626953125,0.518798828125
2.2224999000000003,-2.186504602432251,-0.3519476354122162,9.429563522338867,-23.25439453125,-24.658203125,16.021728515625
2.2274999,-1.9835960865020752,-0.93254154920578,9.6989107131958,-4.486083984375,-31.524658203125,31.8603515625
2.2324999,-0.9169792532920837,-1.3467384576797485,9.162610054016113,-12.75634765625,-25.08544921875,39.36767578125
2.2374999,-0.1107318252325058,-1.7016788721084595,9.469666481018066,11.138916015625,-22.4609375,56.57958984375
2.2424999000000003,0.9313444495201111,-1.1749545335769653,9.549273490905762,16.632080078125,4.69970703125,34.85107421875
2.2474999,1.2294225692749023,-0.15083470940589905,9.864110946655273,7.781982421875,4.486083984375,20.01953125
2.2524999,1.6412252187728882,0.5009866952896118,10.141240119934082,-6.53076171875,2.166748046875,-13.3056640625
2.2574999,2.6426000595092773,0.11432313174009323,10.014347076416016,26.214599609375,41.168212890625,-37.811279296875
2.2624999000000003,2.3337481021881104,-0.39803603291511536,9.823410034179688,8.23974609375,36.2548828125,-37.17041015625
2.2674999000000002,1.4101848602294922,-0.3315969407558441,9.786897659301758,-8.758544921875,22.247314453125,-35.33935546875
2.2724999,0.11133038252592087,-0.16160862147808075,9.592967987060547,-11.077880859375,2.105712890625,-52.154541015625
2.2774999,-1.2653355598449707,0.12988543510437012,9.840767860412598,-10.80322265625,-15.869140625,-35.125732421875
2.2824999000000004,-2.206855535507202,-0.4908113479614258,9.455899238586426,-30.1513671875,-20.56884765625,3.47900390625
2.2874999000000003,-2.1296424865722656,-0.4129997789859772,9.402029991149902,-26.519775390625,-25.390625,15.777587890625
2.2924999,-1.764526605606079,-1.0330979824066162,9.724648475646973,-7.049560546875,-31.55517578125,33.721923828125
2.2974999,-0.679354727268219,-1.4119805097579956,9.224859237670898,-15.19775390625,-26.611328125,46.38671875
2.3024999000000004,0.1173158809542656,-1.8171991109848022,9.379883766174316,11.90185546875,-27.252197265625,66.162109375
2.3074999000000003,0.7481880187988281,-1.953070044517517,9.323619842529297,32.04345703125,-11.749267578125,63.8427734375
2.3124999,0.922366201877594,-1.2970588207244873,9.351752281188965,23.162841796875,7.99560546875,50.323486328125
2.3174999,1.569997787475586,0.3711012601852417,10.119093894958496,-6.866455078125,2.532958984375,-12.939453125
2.3224999,2.1140801906585693,0.11013327538967133,9.982025146484375,3.60107421875,25.909423828125,-40.008544921875
2.3274999000000003,2.7024552822113037,0.061052143573760986,10.054450035095215,26.580810546875,45.196533203125,-44.586181640625
2.3324999,2.425924777984619,-0.43694180250167847,9.856329917907715,7.598876953125,37.933349609375,-40.6494140625
2.3374999,1.5257049798965454,-0.38905778527259827,9.810839653015137,-7.965087890625,21.942138671875,-39.24560546875
2.3424999,0.22266076505184174,-0.24600422382354736,9.648633003234863,-9.21630859375,2.99072265625,-57.037353515625
2.3474999000000003,-1.2449848651885986,0.014365210197865963,9.876082420349121,-11.8408203125,-16.05224609375,-36.895751953125
2.3524999,-2.2194249629974365,-0.5560533404350281,9.391854286193848,-30.76171875,-18.310546875,1.068115234375
2.3574999,-2.2661118507385254,-0.4010287821292877,9.43255615234375,-22.3388671875,-26.611328125,17.364501953125
2.3624999,-1.9183541536331177,-0.9253589510917664,9.750386238098145,-8.026123046875,-34.454345703125,35.797119140625
2.3674999000000003,-0.8086416125297546,-1.1210849285125732,9.317035675048828,-18.096923828125,-27.40478515625,46.0205078125
2.3724999,0.07661445438861847,-1.4616601467132568,9.52473258972168,8.544921875,-29.083251953125,68.4814453125
2.3774999,1.2856862545013428,0.5596446394920349,10.061034202575684,-7.6904296875,-0.18310546875,-5.92041015625
2.3824999,1.8303672075271606,0.3513490855693817,9.912593841552734,-7.568359375,16.4794921875,-39.825439453125
2.3874999000000003,2.427720546722412,0.18315643072128296,9.948506355285645,16.29638671875,41.351318359375,-53.131103515625
2.3924999000000002,2.2804770469665527,-0.4183867573738098,9.785101890563965,6.4697265625,39.154052734375,-49.041748046875
2.3974999,1.3617022037506104,-0.6649895310401917,9.786299705505371,-8.514404296875,20.8740234375,-32.196044921875
2.4024999,-1.3982137441635132,0.011971008032560349,10.140641212463379,-22.796630859375,-12.969970703125,-31.3720703125
2.4074999000000004,-2.076969861984253,0.25737667083740234,9.618705749511719,-45.318603515625,-17.486572265625,-6.134033203125
2.4124999000000003,-1.8596961498260498,-0.0005985504249110818,9.950302124023438,-39.337158203125,-28.38134765625,11.5966796875
2.4174999,-0.9157821536064148,-0.6326677799224854,10.11550235748291,-27.008056640625,-34.423828125,45.135498046875
2.4224999,0.4602852761745453,-1.2533645629882812,9.554061889648438,-31.92138671875,-29.754638671875,69.9462890625
2.4274999000000004,1.5328876972198486,-2.122459888458252,8.94773006439209,2.349853515625,-31.036376953125,93.3837890625
2.4324999000000003,1.9704279899597168,-2.5240871906280518,8.036137580871582,54.718017578125,-22.03369140625,106.01806640625
2.4374999,1.7495628595352173,-2.2248120307922363,7.852383136749268,75.98876953125,-3.570556640625,98.57177734375
2.4424999,1.269525408744812,-1.0875661373138428,8.47667121887207,40.679931640625,17.242431640625,56.884765625
2.4474999,0.8696937561035156,0.03292027488350868,9.647436141967773,-7.720947265625,12.39013671875,-11.65771484375
2.4524999000000003,0.7661445140838623,0.5339069962501526,10.475829124450684,-9.521484375,25.45166015625,-57.403564453125
2.4574999,0.9792284965515137,0.8182184100151062,10.793061256408691,16.11328125,45.8984375,-71.6552734375
2.4624999,0.9433154463768005,0.2717418968677521,10.57040023803711,5.157470703125,41.259765625,-66.89453125
2.4674999,0.5835866928100586,-0.23822307586669922,10.281899452209473,-3.143310546875,23.956298828125,-54.0771484375
2.4724999000000003,0.0293289702385664,0.2190694510936737,9.983820915222168,-4.791259765625,7.6904296875,-61.70654296875
2.4774999,-1.004966139793396,-0.3010708689689636,10.170568466186523,-20.751953125,-8.575439453125,-39.0625
2.4824999,-1.3838485479354858,-0.6153098344802856,9.86650562286377,-18.00537109375,-30.364990234375,23.98681640625
2.4874999,-0.6745663285255432,-1.1354501247406006,9.64564037322998,-13.763427734375,-32.1044921875,43.701171875
2.4924999000000003,0.39624038338661194,-1.581370234489441,9.374496459960938,-14.58740234375,-20.660400390625,58.013916015625
2.4974999,1.18094003200531,-2.161964178085327,9.227252960205078,17.364501953125,-22.674560546875,73.18115234375
2.5024999,1.4281413555145264,-2.079962730407715,8.923788070678711,43.15185546875,-17.27294921875,71.014404296875
2.5074999,1.146224021911621,-1.389235496520996,9.013570785522461,38.2080078125,-1.068115234375,52.642822265625
2.5124999000000003,0.8331822156906128,-0.18076223134994507,9.576807022094727,10.43701171875,7.171630859375,15.106201171875
2.5174999000000002,0.7296329736709595,0.800261914730072,10.158597946166992,-11.23046875,5.615234375,-28.99169921875
2.5224999,0.9882067441940308,0.882861852645874,10.31362247467041,-4.669189453125,25.787353515625,-45.440673828125
2.5274999,1.3509283065795898,0.6889315247535706,10.291476249694824,15.411376953125,38.818359375,-55.755615234375
2.5324999000000004,1.2826935052871704,-0.04429273307323456,10.030508041381836,5.31005859375,37.261962890625,-56.427001953125
2.5374999000000003,0.6733692288398743,-0.558447539806366,9.82640266418457,-5.340576171875,19.1650390625,-43.670654296875
2.5424999,0.4770447015762329,-1.5604209899902344,9.501988410949707,-16.387939453125,-28.717041015625,67.596435546875
2.5474999,1.3605051040649414,-2.161964178085327,9.047089576721191,21.087646484375,-31.982421875,86.700439453125
2.5524999000000004,1.5304933786392212,-2.1475989818573,8.584410667419434,51.81884765625,-18.035888671875,94.573974609375
2.5574999000000003,1.2485761642456055,-1.3856441974639893,8.71728801727295,49.49951171875,4.2724609375,81.268310546875
2.5624999,0.8152256608009338,0.6362590789794922,10.196306228637695,-14.6484375,5.2490234375,-24.10888671875
2.5674999,1.1348515748977661,0.8212111592292786,10.362703323364258,-4.791259765625,28.01513671875,-59.295654296875
2.5724999,1.5191209316253662,0.5829881429672241,10.40460205078125,14.09912109375,50.78125,-75.469970703125
2.5774999000000003,1.4269442558288574,-0.1933317929506302,10.069414138793945,4.547119140625,41.290283203125,-66.650390625
2.5824999,0.8493430614471436,-0.6500257849693298,9.767146110534668,-3.72314453125,18.890380859375,-56.57958984375
2.5874999,-0.008978256024420261,-0.29388827085494995,10.005369186401367,-7.293701171875,1.3427734375,-55.938720703125
2.5924999,-1.215057373046875,-0.5620388388633728,10.020332336425781,-26.85546875,-8.087158203125,-25.238037109375
2.5974999000000003,-1.478419542312622,-0.1604115068912506,9.620500564575195,-35.888671875,-16.754150390625,2.288818359375
2.6024999,-1.4095861911773682,-0.6931213736534119,10.007762908935547,-15.9912109375,-34.7900390625,30.670166015625
2.6074999,-0.4644751250743866,-1.171961784362793,9.478046417236328,-15.472412109375,-28.74755859375,48.2177734375
2.6124999,0.6344634294509888,-1.7747019529342651,9.175179481506348,-5.615234375,-22.247314453125,66.83349609375
2.6174999000000003,1.3934253454208374,-2.315192937850952,8.904036521911621,32.379150390625,-24.810791015625,78.7353515625
2.6224999,1.4957774877548218,-2.0201077461242676,8.752004623413086,51.300048828125,-12.26806640625,76.5380859375
2.6274999,1.1569979190826416,-1.0696096420288086,9.036913871765137,32.928466796875,9.09423828125,55.11474609375
2.6324999,0.872686505317688,0.20949265360832214,9.82999324798584,3.23486328125,9.185791015625,7.8125
2.6374999000000003,1.5825673341751099,0.7547720670700073,10.357914924621582,14.34326171875,46.0205078125,-62.652587890625
2.6424999000000002,0.7050924301147461,-0.4106055796146393,9.73542308807373,-5.9814453125,14.251708984375,-57.12890625
2.6474999,-0.2885012924671173,-0.09516951441764832,10.023324966430664,-12.02392578125,-3.5400390625,-54.290771484375
2.6524999,-1.5101426839828491,-0.4124012291431427,9.888052940368652,-32.196044921875,-9.521484375,-22.216796875
2.6574999000000004,-1.7812861204147339,-0.11671733111143112,9.633668899536133,-37.750244140625,-18.73779296875,2.288818359375
2.6624999000000003,-1.655590534210205,-0.6829460263252258,10.05923843383789,-19.134521484375,-37.811279296875,31.646728515625
2.6674999,-0.5380968451499939,-1.0348936319351196,9.533112525939941,-24.658203125,-28.594970703125,47.821044921875
2.6724999,0.6685808300971985,-1.7304092645645142,9.367912292480469,-12.26806640625,-19.256591796875,65.887451171875
2.6774999000000004,1.5717934370040894,-2.1978771686553955,8.875306129455566,28.350830078125,-24.4140625,78.277587890625
2.6824999000000003,1.7501614093780518,-2.0889410972595215,8.537124633789062,52.520751953125,-15.2587890625,78.216552734375
2.6874999,0.7248445749282837,0.7344213724136353,10.360907554626465,-14.251708984375,13.519287109375,-41.1376953125
2.6924999,0.7823054194450378,0.8708908557891846,10.602123260498047,0.762939453125,34.85107421875,-55.419921875
2.6974999,0.882861852645874,0.6697779297828674,10.53029727935791,14.70947265625,42.022705078125,-69.671630859375
2.7024999000000003,0.74040687084198,-0.13108254969120026,10.108319282531738,4.364013671875,34.423828125,-68.572998046875
2.7074999,0.43694180250167847,-0.5919663906097412,9.75397777557373,-2.62451171875,12.8173828125,-62.713623046875
2.7124999,-0.2214636504650116,-0.39803603291511536,10.01075553894043,-11.016845703125,-4.730224609375,-46.9970703125
2.7174999,-0.983418345451355,-0.7038952708244324,9.699509620666504,-29.35791015625,-7.50732421875,-11.474609375
2.7224999000000003,-1.2042834758758545,-0.4273650050163269,9.707290649414062,-26.9775390625,-22.003173828125,12.87841796875
2.7274999,-1.0360907316207886,-0.8553285598754883,9.931148529052734,-11.688232421875,-36.68212890625,37.872314453125
2.7324999,-0.1496376097202301,-1.192312479019165,9.421183586120605,-18.06640625,-22.88818359375,48.52294921875
2.7374999,0.7691373229026794,-1.789067268371582,9.324816703796387,5.67626953125,-18.798828125,63.5986328125
2.7424999000000003,1.116895079612732,-0.6129156351089478,9.337985038757324,21.54541015625,7.87353515625,27.557373046875
2.7474999,0.933738648891449,0.4626794755458832,10.04188060760498,-5.4931640625,7.049560546875,-20.263671875
2.7524999,1.0097545385360718,0.8858546018600464,10.370484352111816,-7.843017578125,23.040771484375,-43.670654296875
2.7574999,1.3323732614517212,0.669179379940033,10.424952507019043,15.045166015625,40.740966796875,-47.9736328125
2.7624999000000003,1.5047557353973389,0.15442600846290588,10.187328338623047,16.05224609375,41.93115234375,-59.38720703125
2.7674999000000002,1.206079125404358,-0.5811924338340759,9.888052940368652,0.946044921875,27.83203125,-54.412841796875
2.7724999,0.6943184733390808,-0.669179379940033,9.592967987060547,-2.899169921875,8.148193359375,-55.572509765625
2.7774999,-0.46986207365989685,-0.4129997789859772,9.899425506591797,-13.12255859375,-9.429931640625,-36.19384765625
2.7824999000000004,-1.4443022012710571,-0.5363011956214905,9.439739227294922,-29.9072265625,-12.14599609375,-4.57763671875
2.7874999000000003,-1.9381062984466553,-0.33099839091300964,9.671378135681152,-20.44677734375,-25.57373046875,17.2119140625
2.7924999,-1.7471686601638794,-0.6985083222389221,9.765948295593262,-10.345458984375,-37.41455078125,37.353515625
2.7974999,1.0863690376281738,-1.690904974937439,9.299677848815918,29.693603515625,-12.969970703125,52.67333984375
2.8024999000000004,1.2952631711959839,0.6045359373092651,10.142436981201172,-8.575439453125,7.843017578125,-30.029296875
2.8074999000000003,1.513733983039856,0.5321113467216492,10.157401084899902,-1.708984375,29.541015625,-39.703369140625
2.8124999,1.7932571172714233,0.2232593148946762,10.15021800994873,21.1181640625,41.107177734375,-47.8515625
2.8174999,1.699883222579956,-0.4255693554878235,9.869498252868652,12.481689453125,38.787841796875,-55.938720703125
2.8224999,1.1534066200256348,-0.8948329091072083,9.668983459472656,-2.227783203125,20.3857421875,-47.454833984375
2.8274999000000003,0.3974374830722809,-0.44412440061569214,9.502586364746094,-3.7841796875,1.5869140625,-48.03466796875
2.8324999,-0.9457096457481384,-0.45010992884635925,9.793481826782227,-17.242431640625,-12.847900390625,-22.064208984375
2.8374999,-2.141613483428955,-0.30705636739730835,9.742006301879883,-13.946533203125,-31.73828125,23.86474609375
2.8424999,-1.63344407081604,-0.6667851805686951,9.55825138092041,-11.65771484375,-33.8134765625,38.4521484375
2.8474999000000003,-0.5931634902954102,-1.0690110921859741,9.427767753601074,-9.033203125,-20.263671875,47.637939453125
2.8524999,0.44352585077285767,-1.6442179679870605,9.560047149658203,19.71435546875,-19.71435546875,56.427001953125
2.8574999,1.0504560470581055,-1.535880446434021,9.445724487304688,27.7099609375,-8.4228515625,48.187255859375
2.8624999,1.20368492603302,-0.8224082589149475,9.597756385803223,19.22607421875,3.326416015625,33.14208984375
2.8674999000000003,1.3377602100372314,0.0999579206109047,10.006566047668457,0.54931640625,2.13623046875,-0.946044921875
2.8724999,1.4927847385406494,0.667982280254364,10.237606048583984,-9.70458984375,10.68115234375,-32.989501953125
2.8774999,1.8201918601989746,0.3621230125427246,10.126276016235352,6.011962890625,33.87451171875,-39.794921875
2.8824999,-1.4143747091293335,-0.38486793637275696,9.734225273132324,-23.223876953125,-14.129638671875,-11.322021484375
2.8874999000000003,-1.9602526426315308,0.11552023142576218,9.320028305053711,-30.1513671875,-20.1416015625,8.148193359375
2.8924999000000002,-2.2194249629974365,-0.4297592043876648,9.9371337890625,-11.04736328125,-36.2548828125,28.411865234375
2.8974999,-1.390432596206665,-0.8876502513885498,9.492411613464355,-15.777587890625,-28.3203125,38.75732421875
2.9024999,-0.29807811975479126,-1.3551181554794312,9.515754699707031,-2.62451171875,-22.796630859375,54.229736328125
2.9074999000000004,0.6913257241249084,-1.8166005611419678,9.479243278503418,25.2685546875,-20.233154296875,59.87548828125
2.9124999000000003,1.0947487354278564,-1.5041571855545044,9.346364974975586,28.289794921875,-3.60107421875,52.520751953125
2.9174999,1.2072762250900269,-0.6775590777397156,9.564237594604492,17.059326171875,5.55419921875,34.088134765625
2.9224999,1.347337007522583,0.23403321206569672,10.022727012634277,-2.38037109375,1.46484375,-4.364013671875
2.9274999000000004,1.568800687789917,0.5841852426528931,10.127472877502441,-10.1318359375,13.7939453125,-36.773681640625
2.9324999000000003,2.0009541511535645,0.2885012924671173,10.111910820007324,13.031005859375,38.360595703125,-44.37255859375
2.9374999,2.139817714691162,-0.11252748221158981,9.9401273727417,18.85986328125,41.839599609375,-52.520751953125
2.9424999,0.8678981065750122,-0.8259995579719543,9.537900924682617,-4.730224609375,9.33837890625,-45.928955078125
2.9474999,-0.3489548861980438,-0.25677812099456787,9.88386344909668,-7.843017578125,-5.889892578125,-37.90283203125
2.9524999000000003,-1.6543933153152466,-0.43335050344467163,9.61331844329834,-27.7099609375,-14.09912109375,-4.547119140625
2.9574999,-2.0715830326080322,-0.07721300423145294,9.518148422241211,-27.4658203125,-23.92578125,11.505126953125
2.9624999,-2.0632033348083496,-0.5249287486076355,9.879075050354004,-9.063720703125,-37.2314453125,32.562255859375
2.9674999,-1.0157400369644165,-0.8690952062606812,9.313444137573242,-17.181396484375,-24.322509765625,42.449951171875
2.9724999000000003,0.038307227194309235,-1.4508862495422363,9.491812705993652,6.072998046875,-23.25439453125,59.600830078125
2.9774999,0.9074024558067322,-1.7160440683364868,9.304466247558594,28.961181640625,-18.463134765625,60.821533203125
2.9824999,1.1294646263122559,-1.30543851852417,9.312846183776855,28.076171875,0.396728515625,52.55126953125
2.9874999,1.206079125404358,-0.42616790533065796,9.637859344482422,13.458251953125,6.256103515625,27.77099609375
2.9924999000000003,1.358709454536438,0.39624038338661194,10.07779312133789,-6.103515625,2.0751953125,-14.16015625
2.9974999,1.659181833267212,0.47884035110473633,10.11550235748291,-7.110595703125,21.392822265625,-40.95458984375
3.0024999,2.145204782485962,-0.322618693113327,9.88386344909668,14.373779296875,42.05322265625,-53.314208984375
3.0074999,1.5753847360610962,-0.8307880163192749,9.75397777557373,-0.6103515625,26.580810546875,-46.142578125
3.0124999000000003,0.7224503755569458,-0.7601590156555176,9.529520988464355,-4.94384765625,5.401611328125,-50.47607421875
3.0174999000000002,-0.6925228238105774,-0.3429693877696991,9.928754806518555,-12.0849609375,-9.307861328125,-33.38623046875
3.0224999,-1.73519766330719,-0.44831427931785583,9.445125579833984,-29.632568359375,-13.031005859375,-2.349853515625
3.0274999,-2.163161277770996,-0.17417816817760468,9.716269493103027,-20.81298828125,-26.3671875,16.693115234375
3.0324999000000004,-1.932719349861145,-0.5482721924781799,9.840767860412598,-10.772705078125,-36.68212890625,35.400390625
3.0374999000000003,-0.8343793153762817,-0.8068459630012512,9.389460563659668,-17.578125,-21.820068359375,44.464111328125
3.0424999,1.7322049140930176,0.3381809890270233,10.07779312133789,-2.38037109375,26.763916015625,-41.595458984375
3.0474999,2.121262788772583,0.07481880486011505,10.092757225036621,20.965576171875,41.717529296875,-46.966552734375
3.0524999000000004,2.0009541511535645,-0.518943190574646,9.845556259155273,10.498046875,39.886474609375,-52.67333984375
3.0574999000000003,1.346139907836914,-0.9020155072212219,9.697115898132324,-1.89208984375,21.484375,-45.34912109375
3.0624999,0.41958385705947876,-0.37888240814208984,9.53969669342041,-4.180908203125,2.0751953125,-48.33984375
3.0674999,-1.0145429372787476,-0.35075053572654724,9.90122127532959,-16.754150390625,-12.0849609375,-23.345947265625
3.0724999000000004,-1.8160020112991333,0.01735796220600605,9.279925346374512,-31.280517578125,-14.556884765625,3.631591796875
3.0774999000000003,-2.166153907775879,-0.18734627962112427,9.858125686645508,-15.625,-31.097412109375,22.064208984375
3.0824999,-1.625662922859192,-0.5524620413780212,9.683348655700684,-12.5732421875,-32.65380859375,36.041259765625
3.0874999,-0.5291185975074768,-0.9421183466911316,9.478046417236328,-12.6953125,-20.660400390625,50.23193359375
3.0924999,0.46746787428855896,-1.589151382446289,9.583391189575195,19.439697265625,-23.5595703125,63.201904296875
3.0974999000000003,1.0462661981582642,-1.5394717454910278,9.330802917480469,30.303955078125,-10.345458984375,59.234619140625
3.1024999,1.1007342338562012,-0.9510966539382935,9.475052833557129,23.651123046875,4.913330078125,46.234130859375
3.1074999,1.1881226301193237,-0.026336219161748886,9.86231517791748,4.730224609375,4.82177734375,12.420654296875
3.1124999,1.3593080043792725,0.5392939448356628,10.17176628112793,-11.077880859375,6.77490234375,-29.388427734375
3.1174999000000003,1.7884687185287476,0.36750996112823486,10.102334022521973,3.96728515625,32.89794921875,-44.25048828125
3.1224999,2.11946702003479,0.10295066982507706,10.062231063842773,21.148681640625,43.731689453125,-52.947998046875
3.1274999,1.8471266031265259,-0.5542576909065247,9.813833236694336,5.2490234375,36.92626953125,-52.703857421875
3.1324999,1.1103110313415527,-0.7601590156555176,9.576807022094727,-4.2724609375,15.472412109375,-47.515869140625
3.1374999000000003,0.13048399984836578,-0.01735796220600605,9.657610893249512,-5.035400390625,-1.800537109375,-49.041748046875
3.1424999000000002,-1.3221979141235352,-0.41539400815963745,9.824606895446777,-22.76611328125,-14.34326171875,-17.852783203125
3.1474999,-1.8429367542266846,0.03232172131538391,9.318233489990234,-32.073974609375,-16.845703125,6.927490234375
3.1524999,-2.09672212600708,-0.6129156351089478,9.946112632751465,-11.444091796875,-34.698486328125,27.40478515625
3.1574999000000004,-1.291671872138977,-1.0642226934432983,9.48882007598877,-13.702392578125,-30.517578125,39.031982421875
3.1624999000000003,-0.23403321206569672,-1.4873977899551392,9.45410442352295,-5.584716796875,-20.599365234375,56.488037109375
3.1674999,1.0492589473724365,-1.5963339805603027,9.28531265258789,32.623291015625,-6.378173828125,61.004638671875
3.1724999,1.0223240852355957,-0.7254431247711182,9.50857162475586,21.1181640625,7.99560546875,45.684814453125
3.1774999000000004,1.0223240852355957,-0.7254431247711182,9.50857162475586,21.1181640625,7.99560546875,45.684814453125
3.1824999000000003,1.104325532913208,0.25438392162323,9.980229377746582,0.42724609375,3.7841796875,7.01904296875
3.1874999,1.3491326570510864,0.5871779918670654,10.141838073730469,-10.986328125,9.002685546875,-34.271240234375
3.1924999,1.9626468420028687,0.4076128304004669,10.143035888671875,13.763427734375,38.75732421875,-47.42431640625
3.1974999000000004,2.270900249481201,0.008379706181585789,9.990405082702637,18.951416015625,45.379638671875,-54.74853515625
3.2024999000000003,-1.6597803831100464,-0.47584760189056396,9.744400978088379,-27.40478515625,-16.9677734375,-11.1083984375
3.2074999,-1.6597803831100464,-0.47584760189056396,9.744400978088379,-27.40478515625,-16.9677734375,-11.1083984375
3.2124999,-2.07397723197937,-0.22266076505184174,9.444527626037598,-30.1513671875,-20.233154296875,9.613037109375
3.2174999,1.0642226934432983,-1.4431051015853882,9.335591316223145,30.303955078125,-0.762939453125,54.99267578125
3.2224999000000003,1.071405291557312,-0.4794389009475708,9.61451530456543,15.5029296875,8.30078125,36.68212890625
3.2274999,1.1941081285476685,0.3860650360584259,10.086173057556152,-3.692626953125,1.556396484375,-5.67626953125
3.2324999,1.5203180313110352,0.5111620426177979,10.095749855041504,-7.2021484375,15.44189453125,-38.604736328125
3.2374999,2.161964178085327,0.28550854325294495,10.140641212463379,20.44677734375,42.572021484375,-45.196533203125
3.2424999000000003,2.321178436279297,-0.19273324310779572,9.937732696533203,15.960693359375,43.45703125,-50.29296875
3.2474999,1.7938556671142578,-0.6039373874664307,9.834183692932129,-2.13623046875,27.801513671875,-42.48046875
3.2524999,0.7966706156730652,-0.5626373887062073,9.622296333312988,-6.500244140625,9.1552734375,-52.3681640625
3.2574999,-2.0464439392089844,-0.6129156351089478,9.799467086791992,-5.523681640625,-34.66796875,31.524658203125
3.2624999000000003,-1.027711033821106,-1.0067617893218994,9.29069995880127,-13.092041015625,-24.35302734375,39.85595703125
3.2674999000000002,-0.023343466222286224,-1.4305355548858643,9.469067573547363,6.988525390625,-21.728515625,56.15234375
3.2724999,0.7613561153411865,-1.7292121648788452,9.4822359085083,26.397705078125,-14.95361328125,54.5654296875
3.2774999,0.9654618501663208,-1.1629834175109863,9.473855972290039,23.712158203125,1.068115234375,46.5087890625
3.2824999000000004,1.1186907291412354,-0.2669534981250763,9.783307075500488,10.68115234375,5.7373046875,27.740478515625
3.2874999000000003,1.3922282457351685,0.4465186297893524,10.095749855041504,-6.439208984375,1.007080078125,-13.3056640625
3.2924999,1.856104850769043,0.2932897210121155,10.011953353881836,-2.01416015625,22.4609375,-38.63525390625
3.2974999,2.492363929748535,0.0999579206109047,10.052056312561035,24.0478515625,45.196533203125,-44.525146484375
3.3024999000000004,2.4468741416931152,-0.4507084786891937,9.850942611694336,12.02392578125,41.748046875,-46.0205078125
3.3074999000000003,-2.0632033348083496,-0.7098808288574219,9.748590469360352,-4.730224609375,-33.87451171875,32.65380859375
3.3124999,-1.0187327861785889,-1.025316834449768,9.331400871276855,-12.359619140625,-22.796630859375,39.4287109375
3.3174999,-0.028131870552897453,-1.400607943534851,9.568427085876465,10.92529296875,-21.331787109375,54.87060546875
3.3224999000000004,0.7422025203704834,-1.590348482131958,9.582792282104492,24.35302734375,-12.3291015625,48.065185546875
3.3274999000000003,0.9600749015808105,-0.9283517003059387,9.598953247070312,19.10400390625,2.593994140625,39.398193359375
3.3324999,1.2258312702178955,-0.090979665517807,9.91738224029541,6.927490234375,3.7841796875,19.927978515625
3.3374999,1.5508441925048828,0.4572925269603729,10.152013778686523,-7.904052734375,1.64794921875,-18.157958984375
3.3424999,2.081159830093384,0.15921440720558167,9.972448348999023,3.143310546875,27.313232421875,-37.2314453125
3.3474999000000003,2.4025814533233643,-0.6099228858947754,9.780912399291992,8.97216796875,38.57421875,-40.374755859375
3.3524999,1.566406488418579,-0.6613982319831848,9.674968719482422,-5.035400390625,22.52197265625,-38.177490234375
3.3574999,0.3824737071990967,-0.535702645778656,9.59057331085205,-6.011962890625,2.01416015625,-54.6875
3.3624999,-2.297236442565918,-0.3884592354297638,9.583989143371582,-16.632080078125,-27.40478515625,19.012451171875
3.3674999000000003,-1.9596540927886963,-0.8643068075180054,9.727043151855469,-4.8828125,-31.494140625,32.3486328125
3.3724999,-0.8882488012313843,-1.1174936294555664,9.464279174804688,-10.772705078125,-21.3623046875,39.73388671875
3.3774999,0.021547814831137657,-1.390432596206665,9.70310115814209,13.519287109375,-20.965576171875,53.8330078125
3.3824999,0.71766197681427,-1.45806884765625,9.643245697021484,21.026611328125,-9.368896484375,42.78564453125
3.3874999000000003,0.9373299479484558,-0.7122750282287598,9.704896926879883,15.7470703125,3.265380859375,34.912109375
3.3924999000000002,1.2725181579589844,0.031124621629714966,9.967659950256348,4.241943359375,1.922607421875,14.923095703125
3.3974999,2.251746654510498,0.008978256024420261,9.929352760314941,7.6904296875,30.548095703125,-36.07177734375
3.4024999,2.7102363109588623,-0.1825578808784485,9.91977596282959,24.59716796875,43.975830078125,-41.229248046875
3.4074999000000004,2.343324899673462,-0.7296329736709595,9.75517463684082,5.92041015625,36.0107421875,-35.614013671875
3.4124999000000003,1.4077905416488647,-0.6314706802368164,9.63187313079834,-5.828857421875,20.263671875,-38.360595703125
3.4174999,0.16879121959209442,-0.5494692921638489,9.591172218322754,-5.767822265625,-1.312255859375,-53.009033203125
3.4224999,-1.3443442583084106,-0.19393034279346466,9.755773544311523,-11.016845703125,-14.34326171875,-24.383544921875
3.4274999000000004,-2.164358377456665,-0.5841852426528931,9.330204010009766,-25.7568359375,-17.02880859375,7.110595703125
3.4324999000000003,-2.313995838165283,-0.2998737692832947,9.66419506072998,-13.00048828125,-27.862548828125,19.561767578125
3.4374999,-1.8477251529693604,-0.6709750294685364,9.654618263244629,-6.34765625,-30.059814453125,32.135009765625
3.4424999,0.05267243832349777,-1.2210428714752197,9.77253246307373,15.716552734375,-21.453857421875,52.79541015625
3.4474999000000004,0.7098808288574219,-1.2725181579589844,9.668983459472656,17.669677734375,-7.4462890625,37.994384765625
3.4524999000000003,1.3551181554794312,0.06464344263076782,9.998186111450195,2.227783203125,0.3662109375,11.474609375
3.4574999,1.7980455160140991,0.3076549172401428,10.020931243896484,-8.026123046875,5.157470703125,-21.30126953125
3.4624999,2.404376983642578,-0.15442600846290588,9.886856079101562,10.68115234375,31.463623046875,-34.698486328125
3.4674999,2.764704465866089,-0.33039984107017517,9.81024169921875,23.406982421875,41.839599609375,-37.811279296875
3.4724999000000003,2.2637176513671875,-0.8254010081291199,9.715071678161621,4.39453125,34.637451171875,-31.6162109375
3.4774999,1.2665326595306396,-0.6015431880950928,9.604938507080078,-5.7373046875,18.37158203125,-37.90283203125
3.4824999,-0.009576806798577309,-0.517746090888977,9.61331844329834,-5.859375,-3.021240234375,-49.37744140625
3.4874999,-1.489791989326477,-0.16639702022075653,9.841365814208984,-10.223388671875,-12.847900390625,-16.998291015625
3.4924999000000003,-2.163759708404541,-0.5039794445037842,9.413402557373047,-24.627685546875,-17.974853515625,8.85009765625
3.4974999,-2.2589292526245117,-0.23403321206569672,9.93474006652832,-10.833740234375,-27.252197265625,18.524169921875
3.5024999,-1.711255669593811,-0.5608417391777039,9.769539833068848,-7.99560546875,-27.77099609375,32.073974609375
3.5074999,-0.7511807680130005,-0.7858967185020447,9.717466354370117,-8.544921875,-20.172119140625,42.29736328125
3.5124999000000003,0.05027823522686958,-1.1252747774124146,9.856928825378418,16.17431640625,-21.881103515625,51.177978515625
3.5174999000000002,0.618302583694458,-1.1516109704971313,9.64923095703125,14.434814453125,-6.683349609375,35.5224609375
3.5224999,2.536656618118286,-0.25318682193756104,9.858125686645508,11.444091796875,33.0810546875,-35.33935546875
3.5274999,2.8425159454345703,-0.4010287821292877,9.779715538024902,22.705078125,41.595458984375,-36.9873046875
3.5324999000000004,2.2840683460235596,-0.8379706144332886,9.743802070617676,3.448486328125,34.3017578125,-31.341552734375
3.5374999000000003,1.237802267074585,-0.5662286877632141,9.627084732055664,-6.28662109375,17.822265625,-39.459228515625
3.5424999,-0.0520738884806633,-0.4704606235027313,9.636661529541016,-5.706787109375,-2.86865234375,-50.1708984375
3.5474999,-1.5280991792678833,-0.262763649225235,9.819818496704102,-10.528564453125,-12.87841796875,-17.059326171875
3.5524999000000004,-2.1493945121765137,-0.5991489887237549,9.349956512451172,-24.139404296875,-16.998291015625,8.056640625
3.5574999000000003,-2.255337953567505,-0.4411316514015198,9.873088836669922,-9.368896484375,-26.79443359375,19.256591796875
3.5624999,0.8858546018600464,-0.48482584953308105,9.805453300476074,13.0615234375,2.3193359375,29.815673828125
3.5674999,1.3467384576797485,0.09576806426048279,9.959280967712402,1.03759765625,-0.06103515625,10.19287109375
3.5724999000000004,1.834557056427002,0.2735375463962555,9.9772367477417,-7.843017578125,6.7138671875,-21.575927734375
3.5774999000000003,2.4408886432647705,-0.22505496442317963,9.869498252868652,10.55908203125,31.829833984375,-34.3017578125
3.5824999,2.7485435009002686,-0.3932476341724396,9.784503936767578,22.857666015625,39.97802734375,-35.919189453125
3.5874999,2.212841033935547,-0.8595184087753296,9.724648475646973,3.692626953125,33.355712890625,-31.585693359375
3.5924999,1.2042834758758545,-0.619499683380127,9.621099472045898,-6.072998046875,17.88330078125,-37.628173828125
3.5974999000000003,-0.038307227194309235,-0.5183446407318115,9.633070945739746,-5.340576171875,-1.89208984375,-48.15673828125
3.6024999,-2.10210919380188,-0.5267243981361389,9.416994094848633,-24.078369140625,-16.78466796875,7.659912109375
3.6074999,-2.1751322746276855,-0.26994624733924866,9.930550575256348,-9.979248046875,-25.93994140625,18.646240234375
3.6124999,-1.6412252187728882,-0.5835866928100586,9.783307075500488,-8.575439453125,-26.031494140625,31.585693359375
3.6174999000000003,-0.6955155730247498,-0.7858967185020447,9.718064308166504,-7.8125,-21.1181640625,41.32080078125
3.6224999,0.10295066982507706,-1.1013327836990356,9.864709854125977,15.533447265625,-20.44677734375,49.957275390625
3.6274999,0.6602011322975159,-1.103128433227539,9.64923095703125,14.190673828125,-5.7373046875,33.3251953125
3.6324999,0.9068039059638977,-0.47584760189056396,9.782109260559082,12.6953125,1.64794921875,28.961181640625
3.6374999000000003,1.3527239561080933,0.09935937076807022,9.937732696533203,1.251220703125,-0.244140625,9.490966796875
3.6424999000000002,1.823184609413147,0.2759317457675934,9.97603988647461,-7.75146484375,7.476806640625,-22.216796875
3.6474999,2.3948001861572266,-0.25977087020874023,9.84376049041748,10.223388671875,32.40966796875,-34.027099609375
3.6524999,2.7317841053009033,-0.44173020124435425,9.774927139282227,24.169921875,41.19873046875,-36.19384765625
3.6574999000000004,2.2200236320495605,-0.9247604012489319,9.694122314453125,5.035400390625,34.423828125,-33.355712890625
3.6624999000000003,0.026336219161748886,-0.5285200476646423,9.61331844329834,-5.31005859375,-1.5869140625,-49.468994140625
3.6674999,-1.4688427448272705,-0.11133038252592087,9.835979461669922,-9.918212890625,-12.6953125,-17.63916015625
3.6724999,-2.162562608718872,-0.414795458316803,9.406818389892578,-24.35302734375,-17.242431640625,7.049560546875
3.6774999000000004,-2.3038206100463867,-0.11372458189725876,9.934141159057617,-10.07080078125,-27.679443359375,18.646240234375
3.6824999000000003,0.05686229094862938,-1.039083480834961,9.860519409179688,14.862060546875,-20.965576171875,50.10986328125
3.6874999,0.6422445774078369,-1.1127052307128906,9.691728591918945,13.85498046875,-6.195068359375,33.38623046875
3.6924999,0.8870517015457153,-0.5213374495506287,9.80904483795166,12.939453125,1.3427734375,30.1513671875
3.6974999000000004,1.3287819623947144,0.06165069341659546,9.959280967712402,1.708984375,0.030517578125,12.603759765625
3.7024999000000003,1.8070237636566162,0.26755204796791077,10.00955867767334,-7.904052734375,6.134033203125,-20.01953125
3.7074999,2.3708581924438477,-0.25318682193756104,9.84376049041748,8.270263671875,29.72412109375,-33.233642578125
3.7124999,2.2194249629974365,-0.9331400990486145,9.676166534423828,5.462646484375,33.02001953125,-32.318115234375
3.7174999,1.2563573122024536,-0.7362170219421387,9.594164848327637,-5.126953125,19.195556640625,-33.99658203125
3.7224999000000003,0.061052143573760986,-0.5644330382347107,9.625288963317871,-4.94384765625,-0.274658203125,-44.73876953125
3.7274999,-1.3611036539077759,-0.1496376097202301,9.832387924194336,-8.97216796875,-12.51220703125,-16.2353515625
3.7324999,-2.054823637008667,-0.47165772318840027,9.446322441101074,-23.49853515625,-16.66259765625,6.256103515625
3.7374999,-2.167351007461548,-0.14903905987739563,9.921571731567383,-10.650634765625,-26.2451171875,17.4560546875
3.7424999000000003,-2.167351007461548,-0.14903905987739563,9.921571731567383,-10.650634765625,-26.2451171875,17.4560546875
3.7474999,-1.6855180263519287,-0.4878185987472534,9.807249069213867,-8.941650390625,-26.153564453125,31.158447265625
3.7524999,-0.7631517648696899,-0.7038952708244324,9.768342971801758,-8.85009765625,-21.30126953125,40.10009765625
3.7574999,0.020949264988303185,-1.0247182846069336,9.894038200378418,13.12255859375,-20.782470703125,48.797607421875
3.7624999000000003,0.6009446382522583,-1.105522632598877,9.68694019317627,13.580322265625,-6.2255859375,33.111572265625
3.7674999000000002,0.849941611289978,-0.5524620413780212,9.790489196777344,12.847900390625,1.007080078125,30.120849609375
3.7724999,1.3192051649093628,-0.8044517636299133,9.592967987060547,-4.913330078125,20.355224609375,-33.294677734375
3.7774999,1.3192051649093628,-0.8044517636299133,9.592967987060547,-4.913330078125,20.355224609375,-33.294677734375
3.7824999000000004,0.14425064623355865,-0.6129156351089478,9.599552154541016,-5.06591796875,0.701904296875,-44.7998046875
3.7874999000000003,-1.280897855758667,-0.20889410376548767,9.781511306762695,-8.026123046875,-12.5732421875,-19.073486328125
3.7924999,-2.0458452701568604,-0.5728127360343933,9.405022621154785,-22.735595703125,-16.11328125,5.4931640625
3.7974999,-2.1499931812286377,-0.28550854325294495,9.787496566772461,-11.04736328125,-25.45166015625,16.78466796875
3.8024999000000004,-1.7274165153503418,-0.646434485912323,9.762357711791992,-7.38525390625,-25.93994140625,30.792236328125
3.8074999000000003,-0.7613561153411865,-0.821809709072113,9.66539192199707,-9.58251953125,-21.087646484375,38.818359375
3.8124999,0.0077811554074287415,-1.0893617868423462,9.898228645324707,13.092041015625,-19.775390625,48.248291015625
3.8174999,1.7447744607925415,0.33339259028434753,10.036493301391602,-7.4462890625,5.584716796875,-18.6767578125
3.8224999000000004,1.7447744607925415,0.33339259028434753,10.036493301391602,-7.4462890625,5.584716796875,-18.6767578125
3.8274999000000003,2.2625205516815186,-0.19273324310779572,9.854534149169922,5.279541015625,27.374267578125,-30.670166015625
3.8324999,2.6342203617095947,-0.42676645517349243,9.827000617980957,24.871826171875,39.4287109375,-33.782958984375
3.8374999,2.2409727573394775,-0.9026140570640564,9.666589736938477,8.941650390625,34.0576171875,-35.09521484375
3.8424999,0.18076223134994507,-0.5548562407493591,9.606135368347168,-5.4931640625,1.77001953125,-44.98291015625
3.8474999000000003,-1.173158884048462,-0.08140286058187485,9.836577415466309,-6.805419921875,-12.359619140625,-21.575927734375
3.8524999,-2.030282974243164,-0.43694180250167847,9.462483406066895,-22.27783203125,-15.9912109375,4.69970703125
3.8574999,-2.1356279850006104,-0.14664486050605774,9.803657531738281,-12.908935546875,-24.658203125,15.380859375
3.8624999,-1.7956513166427612,-0.5063736438751221,9.799467086791992,-7.171630859375,-26.885986328125,29.84619140625
3.8674999000000003,0.5877765417098999,-1.158793568611145,9.715670585632324,12.939453125,-7.75146484375,31.73828125
3.8724999,0.838569164276123,-0.5973533391952515,9.818022727966309,11.993408203125,-0.18310546875,27.16064453125
3.8774999,1.280897855758667,-0.021547814831137657,9.925761222839355,4.241943359375,0.6103515625,14.678955078125
3.8824999,1.7268179655075073,0.2885012924671173,9.997588157653809,-7.14111328125,4.547119140625,-16.632080078125
3.8874999000000003,2.2475569248199463,-0.2172738015651703,9.812037467956543,3.90625,25.69580078125,-29.571533203125
3.8924999000000002,2.6437971591949463,-0.4495113790035248,9.800065994262695,24.71923828125,39.00146484375,-33.111572265625
3.8974999,2.2888567447662354,-0.9139865040779114,9.668983459472656,9.8876953125,34.24072265625,-34.759521484375
3.9024999,1.4059948921203613,-0.8319851160049438,9.644442558288574,-4.39453125,22.76611328125,-31.219482421875
3.9074999000000004,0.2519897222518921,-0.5770025849342346,9.620500564575195,-5.584716796875,2.838134765625,-44.036865234375
3.9124999000000003,-1.1025298833847046,-0.04189852997660637,9.883264541625977,-5.55419921875,-11.71875,-22.918701171875
3.9174999,-2.009932279586792,-0.3495534360408783,9.484031677246094,-21.6064453125,-15.869140625,4.425048828125
3.9224999,-0.12689268589019775,-0.922366201877594,9.894038200378418,10.040283203125,-19.8974609375,47.271728515625
3.9274999000000004,0.5638344883918762,-1.1300631761550903,9.725846290588379,12.51220703125,-8.85009765625,31.1279296875
3.9324999000000003,0.8242039084434509,-0.6189011335372925,9.831789016723633,11.53564453125,-1.190185546875,26.580810546875
3.9374999,1.2731167078018188,-0.07242459803819656,9.925761222839355,4.913330078125,0.579833984375,15.93017578125
3.9424999,1.7178397178649902,0.25498247146606445,9.9772367477417,-6.866455078125,3.72314453125,-14.95361328125
3.9474999000000004,2.227804660797119,-0.22086510062217712,9.807847023010254,2.3193359375,23.956298828125,-28.961181640625
3.9524999000000003,2.6150667667388916,-0.46507367491722107,9.791088104248047,24.139404296875,38.177490234375,-32.3486328125
3.9574999,2.294243812561035,-0.8960300087928772,9.673771858215332,11.260986328125,34.210205078125,-34.149169921875
3.9624999,1.4179660081863403,-0.8403648138046265,9.67077922821045,-3.84521484375,23.92578125,-30.09033203125
3.9674999000000004,-1.0103530883789062,-0.076015904545784,9.875483512878418,-3.997802734375,-10.955810546875,-24.658203125
3.9724999000000003,-1.9662381410598755,-0.3878606855869293,9.503185272216797,-20.263671875,-15.594482421875,4.69970703125
3.9774999,-2.075174331665039,-0.1825578808784485,9.718064308166504,-14.7705078125,-22.857666015625,12.451171875
3.9824999,-1.8501193523406982,-0.4734533727169037,9.774927139282227,-5.950927734375,-26.947021484375,29.35791015625
3.9874999,-0.9145850539207458,-0.7996633648872375,9.582193374633789,-12.054443359375,-21.514892578125,35.2783203125
3.9924999000000003,-0.18914192914962769,-0.9852139949798584,9.851541519165039,8.97216796875,-20.050048828125,47.576904296875
3.9974999,0.5135562419891357,-1.1839327812194824,9.72285270690918,12.75634765625,-9.58251953125,32.073974609375
4.0024999,0.760757565498352,-0.6428431272506714,9.810839653015137,11.138916015625,-1.0986328125,26.275634765625
4.0074999,1.2198457717895508,-0.06883329898118973,9.92097282409668,5.43212890625,0.732421875,17.364501953125
4.0124999,1.6711528301239014,0.2711433470249176,9.99459457397461,-6.683349609375,2.899169921875,-13.12255859375
4.0174999,2.212242364883423,-0.21607670187950134,9.79527759552002,2.01416015625,23.25439453125,-29.23583984375
4.022499900000001,2.6360161304473877,-0.4507084786891937,9.806051254272461,24.505615234375,38.482666015625,-32.745361328125
4.0274999000000005,0.3381809890270233,-0.557250440120697,9.632472038269043,-6.28662109375,4.5166015625,-45.074462890625
4.0324999,-0.943913996219635,0.03711012750864029,9.9000244140625,-3.5400390625,-10.498046875,-26.67236328125
4.0374999,-1.9446903467178345,-0.2825157940387726,9.59715747833252,-19.622802734375,-15.19775390625,4.852294921875
4.0424999,-2.0488381385803223,-0.020949264988303185,9.786897659301758,-15.472412109375,-22.491455078125,11.65771484375
4.0474999,-1.8782511949539185,-0.3381809890270233,9.897629737854004,-5.462646484375,-27.252197265625,29.510498046875
4.0524999,-0.9510966539382935,-0.7529764175415039,9.658807754516602,-12.02392578125,-22.03369140625,35.125732421875
4.0574999,-0.22445641458034515,-0.9600749015808105,9.900622367858887,8.514404296875,-19.8974609375,47.210693359375
4.062499900000001,0.5069721937179565,-1.2102689743041992,9.75637149810791,12.786865234375,-9.735107421875,32.440185546875
4.0674999000000005,0.7697358727455139,-0.6643909811973572,9.832986831665039,10.8642578125,-0.54931640625,26.611328125
4.0724999,1.2306196689605713,-0.08559270948171616,9.920374870300293,5.767822265625,1.40380859375,18.49365234375
4.0774999,1.6915035247802734,0.27653029561042786,10.008959770202637,-6.53076171875,2.655029296875,-12.5732421875
4.0824999,0.35075053572654724,-0.52552729845047,9.642048835754395,-6.683349609375,4.364013671875,-45.8984375
4.0874999,-0.9475052952766418,0.020350715145468712,9.86111831665039,-3.448486328125,-10.498046875,-28.38134765625
4.0924999,-1.968033790588379,-0.3561375141143799,9.55466079711914,-19.47021484375,-15.533447265625,4.241943359375
4.0974999,-2.094926595687866,-0.13766659796237946,9.68274974822998,-15.533447265625,-22.15576171875,11.505126953125
4.1024999,-1.9434932470321655,-0.45489832758903503,9.812037467956543,-5.889892578125,-28.25927734375,29.388427734375
4.1074999000000005,-1.0235211849212646,-0.8451532125473022,9.597756385803223,-12.115478515625,-22.186279296875,33.721923828125
4.1124999,-0.2783259451389313,-0.9852139949798584,9.871891975402832,8.087158203125,-19.34814453125,46.32568359375
4.1174999,0.5015852451324463,-1.2204443216323853,9.767146110534668,12.451171875,-9.735107421875,31.768798828125
4.1224999,0.7930793166160583,-0.6655880808830261,9.846753120422363,10.589599609375,-0.48828125,25.81787109375
4.1274999,1.6956933736801147,0.2513911724090576,10.004770278930664,-6.256103515625,2.3193359375,-12.237548828125
4.1324999,2.2182278633117676,-0.2645592987537384,9.798869132995605,2.716064453125,22.705078125,-28.99169921875
4.1374999,2.6617536544799805,-0.4429273009300232,9.810839653015137,25.20751953125,38.238525390625,-30.670166015625
4.1424999,2.3696610927581787,-0.872686505317688,9.661202430725098,11.810302734375,34.5458984375,-29.571533203125
4.147499900000001,1.5047557353973389,-0.7523778676986694,9.692327499389648,-3.753662109375,24.139404296875,-30.975341796875
4.1524999000000005,0.3363853394985199,-0.46088382601737976,9.621698379516602,-7.232666015625,3.814697265625,-45.623779296875
4.1574999,-0.9379284977912903,0.07302315533161163,9.804854393005371,-3.41796875,-10.43701171875,-27.679443359375
4.1624999,-1.987187385559082,-0.3866635859012604,9.546280860900879,-18.73779296875,-15.869140625,5.55419921875
4.1674999,-2.0883424282073975,-0.21009120345115662,9.623494148254395,-16.41845703125,-22.125244140625,10.833740234375
4.1724999,-1.954267144203186,-0.5805938839912415,9.824007987976074,-5.79833984375,-27.7099609375,29.022216796875
4.1774999,-1.0336965322494507,-0.9810241460800171,9.618106842041016,-11.8408203125,-22.03369140625,33.75244140625
4.1824999,-0.2968810200691223,-1.0684125423431396,9.889249801635742,7.904052734375,-19.256591796875,46.2646484375
4.187499900000001,0.7912836670875549,-0.6913257241249084,9.856329917907715,10.68115234375,0.3662109375,26.2451171875
4.1924999000000005,1.2533645629882812,-0.0933738648891449,9.944915771484375,6.28662109375,1.678466796875,19.04296875
4.1974999,1.7322049140930176,0.21787235140800476,10.030508041381836,-5.828857421875,2.532958984375,-11.871337890625
4.2024999,2.2816741466522217,-0.3124433159828186,9.813234329223633,4.2724609375,23.468017578125,-29.327392578125
4.2074999,2.7497406005859375,-0.4345476031303406,9.841365814208984,26.397705078125,39.703369140625,-30.029296875
4.2124999,2.434903144836426,-0.871489405632019,9.695320129394531,11.29150390625,35.94970703125,-28.50341796875
4.2174999,1.5628151893615723,-0.6751648783683777,9.68813705444336,-3.753662109375,25.115966796875,-33.782958984375
4.2224999,0.3447650372982025,-0.3992331326007843,9.61571216583252,-7.415771484375,3.72314453125,-49.560546875
4.2274999,-0.9570821523666382,0.22445641458034515,9.70429801940918,-3.204345703125,-10.92529296875,-31.1279296875
4.2324999000000005,-2.034472942352295,-0.3010708689689636,9.5223388671875,-17.669677734375,-16.17431640625,4.119873046875
4.2374999,-2.1697452068328857,0.013168109580874443,9.5809965133667,-15.716552734375,-22.308349609375,10.894775390625
4.2424999,0.8140285611152649,-0.7218518257141113,9.910798072814941,10.25390625,0.518798828125,25.93994140625
4.2474999,1.279700756072998,-0.14784196019172668,9.943120002746582,6.256103515625,1.8310546875,20.355224609375
4.2524999,1.7531541585922241,0.12988543510437012,10.013150215148926,-5.79833984375,2.25830078125,-10.986328125
4.2574999,2.301426410675049,-0.3932476341724396,9.784503936767578,4.57763671875,22.88818359375,-29.327392578125
4.2624999,2.761711597442627,-0.4596867263317108,9.80904483795166,26.18408203125,39.398193359375,-28.564453125
4.2674999,2.4366986751556396,-0.8870517015457153,9.690531730651855,10.589599609375,36.041259765625,-26.885986328125
4.272499900000001,1.5550340414047241,-0.646434485912323,9.67077922821045,-4.21142578125,24.322509765625,-33.5693359375
4.2774999000000005,0.3256114423274994,-0.36810851097106934,9.621698379516602,-8.056640625,2.777099609375,-49.072265625
4.2824999,-0.9516952037811279,0.1843535304069519,9.673172950744629,-3.326416015625,-10.7421875,-30.8837890625
4.2874999,-2.0207061767578125,-0.3902548849582672,9.512163162231445,-16.9677734375,-15.594482421875,4.364013671875
4.2924999,-2.121861219406128,-0.13766659796237946,9.54209041595459,-16.357421875,-22.369384765625,10.772705078125
4.2974999,-2.0482394695281982,-0.535702645778656,9.850942611694336,-5.950927734375,-28.99169921875,27.801513671875
4.3024999,-1.1192892789840698,-0.9762357473373413,9.739013671875,-11.71875,-22.247314453125,31.43310546875
4.3074999,-0.3776853084564209,-1.0043675899505615,9.989806175231934,6.561279296875,-18.524169921875,45.47119140625
4.312499900000001,0.4704606235027313,-1.2731167078018188,9.906009674072266,11.749267578125,-9.82666015625,31.6162109375
4.3174999000000005,0.8122329115867615,-0.7050924301147461,9.92097282409668,9.674072265625,0.335693359375,24.810791015625
4.3224999,2.757521867752075,-0.4207809567451477,9.805453300476074,25.726318359375,38.63525390625,-27.2216796875
4.3274999,2.448669672012329,-0.8559271097183228,9.689932823181152,10.223388671875,35.797119140625,-26.580810546875
4.3324999,2.448669672012329,-0.8559271097183228,9.689932823181152,10.223388671875,35.797119140625,-26.580810546875
4.3374999,-1.999756932258606,-0.4495113790035248,9.519346237182617,-16.66259765625,-15.289306640625,4.150390625
4.3424999,-2.1499931812286377,-0.1843535304069519,9.52114200592041,-16.66259765625,-22.552490234375,10.711669921875
4.3474999,-2.1045033931732178,-0.5656301379203796,9.855133056640625,-6.195068359375,-29.47998046875,27.496337890625
4.352499900000001,-1.194706678390503,-0.970848798751831,9.747992515563965,-11.77978515625,-22.52197265625,31.18896484375
4.3574999000000005,-0.4231751561164856,-0.982221245765686,9.995193481445312,6.103515625,-18.9208984375,45.34912109375
4.3624999,0.4507084786891937,-1.2509703636169434,9.928754806518555,11.566162109375,-9.70458984375,31.8603515625
4.3674999,0.8026561141014099,-0.7110779285430908,9.932944297790527,9.613037109375,0.30517578125,25.45166015625
4.3724999,1.270722508430481,-0.10773907601833344,9.961075782775879,6.256103515625,1.434326171875,21.026611328125
4.3774999,1.7435773611068726,0.16160862147808075,10.006566047668457,-5.401611328125,1.861572265625,-9.979248046875
4.3824999,2.273294448852539,-0.37169981002807617,9.775525093078613,3.60107421875,20.6298828125,-27.923583984375
4.3874999,1.5969325304031372,-0.6715735793113708,9.663596153259277,-3.84521484375,24.627685546875,-32.318115234375
4.3924999,1.5969325304031372,-0.6715735793113708,9.663596153259277,-3.84521484375,24.627685546875,-32.318115234375
4.397499900000001,0.3944447338581085,-0.3734954595565796,9.624092102050781,-7.537841796875,3.90625,-46.5087890625
4.4024999000000005,-1.2006921768188477,-0.8271966576576233,9.794678688049316,-11.566162109375,-22.27783203125,30.8837890625
4.4074999,-0.44532153010368347,-0.8738836050033569,10.0580415725708,4.94384765625,-19.1650390625,44.5556640625
4.4124999,0.42197805643081665,-1.2018892765045166,9.97364616394043,11.04736328125,-9.3994140625,31.73828125
4.4174999,0.7966706156730652,-0.7272387742996216,9.962871551513672,9.185791015625,-0.06103515625,25.20751953125
4.4224999,1.282094955444336,-0.1364694982767105,9.9586820602417,6.4697265625,1.64794921875,21.697998046875
4.4274999,2.275688648223877,-0.365115761756897,9.77672290802002,2.655029296875,19.775390625,-27.64892578125
4.4324999,2.7252001762390137,-0.45010992884635925,9.7791166305542,24.658203125,36.865234375,-25.604248046875
4.437499900000001,2.4355015754699707,-0.8463503122329712,9.690531730651855,11.688232421875,35.21728515625,-27.313232421875
4.4424999000000005,1.5765818357467651,-0.6602011322975159,9.68933391571045,-3.997802734375,24.59716796875,-31.585693359375
4.4474999,0.39863458275794983,-0.34356793761253357,9.640851974487305,-7.781982421875,4.39453125,-45.95947265625
4.4524999,-0.8744821548461914,0.23283611238002777,9.609726905822754,-3.35693359375,-10.498046875,-31.06689453125
4.4574999,-1.9482816457748413,-0.28371289372444153,9.57860279083252,-14.892578125,-14.190673828125,3.5400390625
4.4624999,-2.1134815216064453,0.02513911761343479,9.453505516052246,-17.2119140625,-21.331787109375,10.498046875
4.4674999,-2.0410568714141846,-0.33698388934135437,9.944915771484375,-5.523681640625,-28.01513671875,25.543212890625
4.4724999,-1.1815385818481445,-0.7715315222740173,9.806051254272461,-11.566162109375,-22.552490234375,30.975341796875
4.477499900000001,-0.43095630407333374,-0.8631097078323364,10.088567733764648,4.21142578125,-19.378662109375,44.49462890625
4.4824999000000005,1.624465823173523,-0.6973112225532532,9.67077922821045,-3.692626953125,24.993896484375,-31.06689453125
4.4874999,0.43095630407333374,-0.3495534360408783,9.642647743225098,-7.904052734375,5.035400390625,-45.95947265625
4.4924999,-0.8469488620758057,0.0065840547904372215,9.53969669342041,-3.631591796875,-10.7421875,-32.379150390625
4.4974999,-1.9399019479751587,-0.42676645517349243,9.550470352172852,-13.427734375,-14.007568359375,3.143310546875
4.5024999,-2.1308395862579346,-0.2537853717803955,9.37509536743164,-17.364501953125,-20.8740234375,10.43701171875
4.5074999,-2.0661959648132324,-0.4620809257030487,9.908403396606445,-5.767822265625,-27.496337890625,24.169921875
4.5124999,-1.2401964664459229,-0.7876923680305481,9.821614265441895,-11.993408203125,-22.735595703125,30.914306640625
4.5174999,0.36990416049957275,-1.1408370733261108,10.034697532653809,11.810302734375,-10.162353515625,33.26416015625
4.522499900000001,0.7709329724311829,-0.761954665184021,9.962871551513672,8.72802734375,-1.007080078125,24.2919921875
4.5274999000000005,1.2324153184890747,-0.14484919607639313,9.956886291503906,7.32421875,1.861572265625,23.193359375
4.5324999,1.7196353673934937,0.13946224749088287,9.970054626464844,-4.638671875,1.77001953125,-6.744384765625
4.5374999,2.212841033935547,-0.31184476613998413,9.751583099365234,0.518798828125,17.364501953125,-26.031494140625
4.5424999,2.6839001178741455,-0.47644615173339844,9.739013671875,23.895263671875,36.07177734375,-25.421142578125
4.5474999,2.4648306369781494,-0.8355764150619507,9.660603523254395,14.16015625,35.552978515625,-27.83203125
4.5524999,1.643619418144226,-0.7553706169128418,9.682151794433594,-2.74658203125,25.909423828125,-28.9306640625
4.5574999,0.49619829654693604,-0.3794809579849243,9.646238327026367,-7.476806640625,6.744384765625,-43.15185546875
4.562499900000001,-1.857301950454712,-0.3621230125427246,9.589376449584961,-12.847900390625,-13.458251953125,1.953125
4.5674999000000005,-2.0715830326080322,-0.2190694510936737,9.375694274902344,-17.39501953125,-19.95849609375,10.101318359375
4.5724999,-0.5321113467216492,-0.7044938206672668,10.06043529510498,1.495361328125,-20.172119140625,42.41943359375
4.5774999,0.3016694188117981,-1.0642226934432983,10.052056312561035,11.993408203125,-10.467529296875,33.63037109375
4.5824999,0.7116764783859253,-0.7625532150268555,9.982025146484375,8.514404296875,-1.220703125,24.5361328125
4.5874999,1.183334231376648,-0.16101007163524628,9.976638793945312,8.1787109375,2.227783203125,24.84130859375
4.5924999,1.6962919235229492,0.11671733111143112,9.980229377746582,-3.96728515625,1.434326171875,-5.279541015625
4.5974999,2.214038133621216,-0.3232172429561615,9.744400978088379,0.1220703125,16.082763671875,-25.787353515625
4.602499900000001,2.7263972759246826,-0.46627077460289,9.728838920593262,23.773193359375,35.919189453125,-25.634765625
4.6074999000000005,2.519298791885376,-0.7882909178733826,9.642647743225098,14.6484375,36.285400390625,-27.099609375
4.6124999,1.7232266664505005,-0.7170634269714355,9.689932823181152,-2.8076171875,26.67236328125,-28.961181640625
4.6174999,0.5602431893348694,-0.2968810200691223,9.655217170715332,-8.270263671875,6.8359375,-44.3115234375
4.6224999,-0.6572083830833435,-0.20350714027881622,9.72285270690918,-4.791259765625,-10.3759765625,-36.4990234375
4.6274999,-2.0272903442382812,-0.4686649739742279,9.481637001037598,-18.00537109375,-18.9208984375,10.68115234375
4.6324999,-2.0416555404663086,-0.42377370595932007,9.929951667785645,-5.31005859375,-26.91650390625,21.881103515625
4.6374999,-1.3251906633377075,-0.6985083222389221,9.744400978088379,-11.53564453125,-23.895263671875,30.487060546875
4.6424999,0.7332242727279663,-0.7805097699165344,9.882067680358887,8.331298828125,-1.3427734375,22.552490234375
4.647499900000001,1.1617863178253174,-0.13168109953403473,9.920374870300293,8.453369140625,2.471923828125,23.74267578125
4.6524999000000005,1.6609774827957153,0.14784196019172668,9.984419822692871,-3.692626953125,1.251220703125,-3.875732421875
4.6574999,2.1475989818573,-0.2759317457675934,9.765350341796875,-0.54931640625,14.984130859375,-25.08544921875
4.6624999,2.671929121017456,-0.4554968774318695,9.775525093078613,23.37646484375,35.70556640625,-26.18408203125
4.6674999,2.496553897857666,-0.7625532150268555,9.67077922821045,15.7470703125,36.68212890625,-26.7333984375
4.6724999,1.7387889623641968,-0.7224503755569458,9.710882186889648,-2.471923828125,27.130126953125,-28.86962890625
4.6774999,-1.7615338563919067,-0.383670836687088,9.685144424438477,-10.31494140625,-12.02392578125,-0.79345703125
4.6824999,-2.0242974758148193,-0.5758054852485657,9.453505516052246,-18.5546875,-18.85986328125,10.711669921875
4.687499900000001,-2.0697872638702393,-0.3794809579849243,9.950302124023438,-5.889892578125,-27.34375,20.8740234375
4.6924999000000005,-1.3754688501358032,-0.6242880821228027,9.798270225524902,-11.77978515625,-24.7802734375,30.517578125
4.6974999,-0.6003460884094238,-0.6320692300796509,9.954492568969727,-1.03759765625,-19.561767578125,41.046142578125
4.7024999,0.22625206410884857,-0.9636662006378174,9.987412452697754,13.5498046875,-11.77978515625,37.567138671875
4.7074999,0.7248445749282837,-0.7942764163017273,9.853337287902832,8.148193359375,-1.861572265625,22.88818359375
4.7124999,1.1378443241119385,-0.15921440720558167,9.906009674072266,8.72802734375,2.166748046875,24.169921875
4.7174999,1.6442179679870605,0.10115502029657364,9.97065258026123,-3.082275390625,1.0986328125,-1.89208984375
4.7224999,0.6488286852836609,-0.24899697303771973,9.660005569458008,-8.60595703125,8.026123046875,-44.891357421875
4.727499900000001,-0.5746083855628967,-0.34177228808403015,9.661202430725098,-5.645751953125,-9.6435546875,-40.313720703125
4.7324999000000005,-1.744175910949707,-0.32381579279899597,9.670180320739746,-8.72802734375,-11.53564453125,-1.983642578125
4.7374999,-2.056619167327881,-0.6278793811798096,9.4014310836792,-18.73779296875,-18.646240234375,10.986328125
4.7424999,-2.0859482288360596,-0.3645172119140625,9.873687744140625,-6.439208984375,-27.313232421875,19.59228515625
4.7474999,-1.4293384552001953,-0.6159083843231201,9.73661994934082,-11.505126953125,-25.2685546875,30.517578125
4.7524999,-0.6254851818084717,-0.6248866319656372,9.891644477844238,-2.166748046875,-19.83642578125,39.886474609375
4.7574999,0.18614917993545532,-0.9163807034492493,9.9772367477417,13.214111328125,-12.298583984375,38.87939453125
4.7624999,0.7128735780715942,-0.7948749661445618,9.84615421295166,7.75146484375,-2.227783203125,23.8037109375
4.7674999,1.0977414846420288,-0.14844051003456116,9.9185791015625,9.002685546875,2.166748046875,26.123046875
4.772499900000001,2.1080946922302246,-0.2759317457675934,9.768941879272461,-1.8310546875,12.14599609375,-23.92578125
4.7774999000000005,2.6898856163024902,-0.5434837937355042,9.828198432922363,22.03369140625,34.72900390625,-26.85546875
4.7824999,2.583942174911499,-0.7260416746139526,9.672574996948242,17.547607421875,37.567138671875,-24.078369140625
4.7874999,1.8716671466827393,-0.7649474143981934,9.753378868103027,-1.64794921875,28.25927734375,-28.289794921875
4.7924999,0.7296329736709595,-0.19812019169330597,9.671378135681152,-8.331298828125,9.307861328125,-44.952392578125
4.7974999,-0.4967968463897705,-0.35015198588371277,9.676166534423828,-5.9814453125,-8.72802734375,-41.93115234375
4.8024999,0.10714052617549896,-0.8068459630012512,10.017339706420898,12.725830078125,-13.3056640625,39.55078125
4.8074999,2.0841526985168457,-0.27054479718208313,9.761758804321289,-2.8076171875,10.528564453125,-22.613525390625
4.812499900000001,2.610278367996216,-0.6135141849517822,9.798270225524902,19.989013671875,32.440185546875,-25.45166015625
4.8174999000000005,2.562394380569458,-0.690727174282074,9.661202430725098,18.829345703125,36.7431640625,-23.25439453125
4.8224999,1.857301950454712,-0.8277952671051025,9.757569313049316,-0.91552734375,28.167724609375,-27.587890625
4.8274999,0.7972691655158997,-0.2190694510936737,9.674968719482422,-7.843017578125,10.7421875,-41.80908203125
4.8324999,-0.3902548849582672,-0.37409400939941406,9.704896926879883,-5.92041015625,-7.476806640625,-41.259765625
4.8374999,-1.5059528350830078,-0.12928688526153564,9.78989028930664,-4.791259765625,-8.97216796875,-6.134033203125
4.8424999,-1.9728221893310547,-0.5590460896492004,9.505578994750977,-17.63916015625,-15.960693359375,9.735107421875
4.8474999,-2.006939649581909,-0.1173158809542656,9.980828285217285,-7.8125,-25.45166015625,16.448974609375
4.852499900000001,-1.5508441925048828,-0.38067805767059326,9.835380554199219,-10.498046875,-25.054931640625,28.289794921875
4.8574999000000005,0.669179379940033,-0.8750807046890259,9.859322547912598,7.110595703125,-4.45556640625,19.47021484375
4.8624999,1.0426748991012573,-0.28969839215278625,9.920374870300293,9.002685546875,1.5869140625,23.895263671875
4.8674999,1.5747861862182617,-0.009576806798577309,9.956287384033203,-0.152587890625,1.3427734375,5.157470703125
4.8724999,2.0254945755004883,-0.2693476974964142,9.784503936767578,-3.448486328125,8.97216796875,-21.453857421875
4.8774999,2.517503023147583,-0.6631938815116882,9.78989028930664,18.157958984375,30.487060546875,-24.383544921875
4.8824999,-1.3634978532791138,-0.002394201699644327,9.836577415466309,-1.77001953125,-7.598876953125,-8.7890625
4.8874999,-1.3634978532791138,-0.002394201699644327,9.836577415466309,-1.77001953125,-7.598876953125,-8.7890625
4.8924999,-1.6418237686157227,-0.3196259140968323,9.806051254272461,-8.392333984375,-24.444580078125,26.336669921875
4.897499900000001,-0.8068459630012512,-0.6715735793113708,9.877279281616211,-5.218505859375,-18.98193359375,32.623291015625
4.9024999000000005,-0.10175357013940811,-0.8607155084609985,9.981427192687988,10.498046875,-14.373779296875,39.093017578125
4.9074999,0.6302735805511475,-1.0743980407714844,9.850942611694336,7.415771484375,-5.767822265625,20.050048828125
4.9124999,1.006163239479065,-0.4255693554878235,9.91977596282959,8.453369140625,1.251220703125,23.3154296875
4.9174999,1.5957354307174683,-0.07302315533161163,9.929951667785645,1.373291015625,3.082275390625,7.568359375
4.9224999,2.0703859329223633,-0.3100491166114807,9.780313491821289,-2.105712890625,8.453369140625,-19.59228515625
4.9274999,2.540247917175293,-0.5674257874488831,9.78989028930664,17.730712890625,28.656005859375,-21.575927734375
4.9324999,2.542642116546631,-0.5614402890205383,9.645041465759277,20.843505859375,36.2548828125,-19.744873046875
4.937499900000001,1.9243396520614624,-0.7864952683448792,9.73781681060791,0.54931640625,27.64892578125,-28.472900390625
4.9424999000000005,0.970848798751831,-0.17477671802043915,9.648633003234863,-5.828857421875,12.87841796875,-38.2080078125
4.9474999,-1.1569979190826416,-0.08259996026754379,9.516353607177734,-1.068115234375,-6.591796875,-15.045166015625
4.9524999,-1.9039889574050903,-0.5207388401031494,9.557653427124023,-11.383056640625,-13.214111328125,8.331298828125
4.9574999,-1.9482816457748413,-0.12509703636169434,9.653421401977539,-13.885498046875,-23.590087890625,10.345458984375
4.9624999,-1.824381709098816,-0.27413609623908997,9.92097282409668,-5.79833984375,-24.23095703125,23.5595703125
4.9674999,-1.05105459690094,-0.6302735805511475,10.036493301391602,-7.171630859375,-20.20263671875,28.961181640625
4.9724999,-0.40222588181495667,-0.6847416758537292,10.158597946166992,7.354736328125,-15.2587890625,38.57421875
4.977499900000001,0.4297592043876648,-1.0875661373138428,10.049062728881836,9.21630859375,-7.171630859375,24.23095703125
4.9824999000000005,0.8631097078323364,-0.5895721912384033,10.006566047668457,8.056640625,0,24.47509765625
4.9874999,1.5322890281677246,-0.18914192914962769,9.906009674072266,3.96728515625,4.69970703125,15.7470703125
4.9924999,2.094327926635742,-0.3908534348011017,9.782708168029785,-0.79345703125,6.591796875,-14.434814453125
4.9974999,2.626439332962036,-0.5590460896492004,9.742006301879883,16.571044921875,25.421142578125,-20.050048828125
5.0024999,2.7060465812683105,-0.5021837949752808,9.611522674560547,22.39990234375,37.567138671875,-17.303466796875
5.0074999,1.268328309059143,-0.1280897855758667,9.632472038269043,-5.55419921875,15.44189453125,-38.238525390625
5.0124999,1.268328309059143,-0.1280897855758667,9.632472038269043,-5.55419921875,15.44189453125,-38.238525390625
5.0174999,0.12330138683319092,-0.090979665517807,9.663596153259277,-7.14111328125,-2.838134765625,-43.060302734375
5.022499900000001,-0.9020155072212219,-0.5626373887062073,9.575610160827637,-4.852294921875,-7.354736328125,-28.13720703125
5.0274999000000005,-1.7298107147216797,-0.37888240814208984,9.762357711791992,-4.82177734375,-8.270263671875,-1.8310546875
5.0324999,-2.036268472671509,-0.46627077460289,9.543288230895996,-17.852783203125,-20.751953125,8.575439453125
5.0374999,-1.9590555429458618,0.06224924325942993,10.037092208862305,-7.049560546875,-25.115966796875,16.510009765625
5.0424999,2.296638011932373,-0.6290764808654785,9.764751434326172,7.110595703125,16.632080078125,-18.12744140625
5.0474999,2.5061306953430176,-0.5554547905921936,9.75936508178711,21.97265625,31.73828125,-14.678955078125
5.0524999,2.211643934249878,-0.7487865686416626,9.691728591918945,10.650634765625,32.257080078125,-22.918701171875
5.0574999,1.5095441341400146,-0.47225627303123474,9.714473724365234,-3.082275390625,22.39990234375,-31.06689453125
5.062499900000001,0.606930136680603,-0.05267243832349777,9.639056205749512,-5.218505859375,6.439208984375,-39.4287109375
5.0674999000000005,-0.3824737071990967,-0.395043283700943,9.637260437011719,-5.706787109375,-5.401611328125,-36.4990234375
5.0724999,-1.1264718770980835,-0.2082955539226532,9.480440139770508,-1.190185546875,-4.638671875,-14.83154296875
5.0774999,-1.809417963027954,-0.5889736413955688,9.599552154541016,-12.908935546875,-12.939453125,2.62451171875
5.0824999,-1.8441338539123535,0.004189853090792894,9.692327499389648,-12.176513671875,-21.514892578125,9.429931640625
5.0874999,-1.7651251554489136,-0.090979665517807,9.951498985290527,-5.523681640625,-22.064208984375,21.881103515625
5.0924999,-1.0019733905792236,-0.36750996112823486,10.071209907531738,-7.38525390625,-18.890380859375,24.4140625
5.0974999,-0.3124433159828186,-0.4291606545448303,10.159195899963379,5.462646484375,-14.0380859375,31.646728515625
5.102499900000001,1.091755986213684,-0.49380409717559814,10.008959770202637,6.04248046875,-0.518798828125,15.045166015625
5.1074999000000005,1.732803463935852,-0.23822307586669922,9.923966407775879,3.021240234375,6.16455078125,6.34765625
5.1124999,2.1128830909729004,-0.43754035234451294,9.797672271728516,-0.9765625,9.033203125,-17.120361328125
5.1174999,2.406172752380371,-0.707486629486084,9.762955665588379,15.472412109375,24.749755859375,-13.458251953125
5.1224999,2.4163479804992676,-0.7003039717674255,9.654618263244629,22.15576171875,34.423828125,-17.242431640625
5.1274999,1.8920178413391113,-0.7858967185020447,9.736021041870117,4.5166015625,29.11376953125,-26.214599609375
5.1324999,1.183334231376648,-0.2711433470249176,9.650428771972656,-4.5166015625,16.90673828125,-34.423828125
5.1374999,0.2124854028224945,-0.10594342648983002,9.66299819946289,-5.67626953125,0.946044921875,-43.487548828125
5.1424999,-0.7032967209815979,-0.497395396232605,9.59596061706543,-5.0048828125,-6.591796875,-32.989501953125
5.147499900000001,-1.4095861911773682,-0.19812019169330597,9.706692695617676,-2.166748046875,-6.34765625,-11.23046875
5.1524999000000005,-1.9584569931030273,-0.46148237586021423,9.578003883361816,-17.51708984375,-17.63916015625,3.326416015625
5.1574999,-1.935113549232483,0.17836803197860718,9.959878921508789,-9.063720703125,-22.76611328125,13.427734375
5.1624999,1.4059948921203613,-0.3818751573562622,9.940725326538086,5.859375,3.41796875,12.14599609375
